sampleTimeFine,W4_acc_x,W4_acc_y,W4_acc_z,W4_gyro_x,W4_gyro_y,W4_gyro_z,W4_quat_w,W4_quat_x,W4_quat_y,W4_quat_z,W5_acc_x,W5_acc_y,W5_acc_z,W5_gyro_x,W5_gyro_y,W5_gyro_z,W5_quat_w,W5_quat_x,W5_quat_y,W5_quat_z
3834228,-0.0485332496464252,-0.0004970438312739,-0.0056267692707479,-0.0021230929996818,0.0013300174614414,-0.0022524902597069,0.6695581078529358,-0.2910102605819702,-0.5706853270530701,-0.3759296834468841,0.2208524197340011,-0.0014476010110229,0.0220832005143165,-0.0017752882558852,0.0073852473869919,-0.015950109809637,0.4107540547847748,-0.6010117530822754,-0.4507822692394256,-0.5165861248970032
3834395,9.623058319091797,0.3413067460060119,1.8090194463729856,0.9393522143363952,0.7176101803779602,1.1659860610961914,0.669433057308197,-0.2911271750926971,-0.5707923769950867,-0.3758997619152069,9.667619705200195,-0.2583734393119812,-1.298757553100586,-0.2118298411369323,0.3102274537086487,0.7981622219085693,0.4100672304630279,-0.6015716195106506,-0.4501037895679474,-0.5170717239379883
3834561,9.609686851501465,0.2775709629058838,1.808125376701355,0.919553518295288,-0.435274988412857,0.66315758228302,0.6697087287902832,-0.2914602160453796,-0.5702676773071289,-0.3759467899799347,9.672711372375488,-0.2736764252185821,-1.286340355873108,-0.2538730800151825,0.2938865125179291,0.6979652643203735,0.4098787009716034,-0.6017104983329773,-0.450333684682846,-0.5168591737747192
3834728,9.692139625549316,0.3702001869678497,1.775887966156006,0.4992106854915619,-0.8736875653266907,0.0410251393914222,0.6701791286468506,-0.2919505834579468,-0.5696471929550171,-0.3756689727306366,9.679319381713867,-0.2941037118434906,-1.299221754074097,-0.1377963274717331,0.1604443490505218,0.6780001521110535,0.4093347489833832,-0.6022700071334839,-0.4499058425426483,-0.5170112252235413
3834895,9.683622360229492,0.3976921439170837,1.7459616661071775,0.0753077492117881,-0.2632088959217071,0.4394178390502929,0.670322835445404,-0.2922892272472381,-0.5693145990371704,-0.3756531476974487,9.697343826293944,-0.3081439137458801,-1.2921838760375977,0.0709151625633239,0.1749027222394943,0.6703291535377502,0.4094135463237762,-0.6024097800254822,-0.4499835669994354,-0.5167182683944702
3835061,9.639911651611328,0.3283962309360504,1.732571721076965,0.5748706459999084,0.0647040829062461,0.6343177556991577,0.6702638268470764,-0.2924795746803283,-0.5692276358604431,-0.3757421374320984,9.707969665527344,-0.3108260929584503,-1.2816522121429443,0.3253901302814483,0.1255470365285873,0.7564005851745605,0.4094255864620209,-0.602670431137085,-0.4497991502285003,-0.5165653824806213
3835228,9.630576133728027,0.3337280750274658,1.769514560699463,0.560681164264679,-0.0612271577119827,0.514053225517273,0.6701446175575256,-0.2927402853965759,-0.5691995024681091,-0.3757942020893097,9.706665992736816,-0.2913397252559662,-1.291469693183899,0.5944002866744995,0.1383405923843383,0.7451053261756897,0.4094933569431305,-0.6028741598129272,-0.4495916068553924,-0.5164545774459839
3835395,9.675557136535645,0.3505175411701202,1.732733964920044,0.5910194516181946,-0.2872848212718963,0.5709518194198608,0.6700117588043213,-0.2930377423763275,-0.5691404342651367,-0.3758889436721802,9.688081741333008,-0.2889818251132965,-1.2924294471740725,0.5546237230300903,0.0441114716231823,0.6816883683204651,0.409684270620346,-0.6029040813446045,-0.4496062397956848,-0.5162555575370789
3835561,9.694948196411133,0.355224609375,1.728199124336243,0.5352606177330017,-0.0515839755535125,0.4250619411468506,0.6698389649391174,-0.2933367788791656,-0.56908118724823,-0.3760530948638916,9.68924331665039,-0.2853026688098907,-1.2799532413482666,0.5213529467582703,-0.0706526339054107,0.6340872645378113,0.4098132848739624,-0.6029434204101562,-0.4496151804924011,-0.5160993337631226
3835728,9.661675453186035,0.3467882871627807,1.7715821266174316,0.4016903936862945,-0.0760697275400161,0.3923289477825165,0.6697275638580322,-0.2935060262680053,-0.5691074728965759,-0.3760795891284942,9.695223808288574,-0.2601869106292724,-1.2654448747634888,0.2464517951011657,-0.1155260577797889,0.5208790302276611,0.4097295999526977,-0.6031205654144287,-0.4494231939315796,-0.5161260962486267
3835895,9.65270709991455,0.3527351021766662,1.722514033317566,0.7865083813667297,-0.4403463304042816,0.5636906623840332,0.6697186827659607,-0.2935236990451813,-0.5692235827445984,-0.3759059309959411,9.692626953125,-0.2499196678400039,-1.2742599248886108,-0.0519681610167026,0.0026957362424582,0.555084764957428,0.4097082316875458,-0.6031999588012695,-0.4493150413036346,-0.5161443948745728
3836061,9.674080848693848,0.3603942096233368,1.746628761291504,0.7246408462524414,-0.2631064653396606,0.5447500944137573,0.6696170568466187,-0.293678730726242,-0.569252610206604,-0.3759220540523529,9.689383506774902,-0.293195366859436,-1.2777502536773682,-0.3148568868637085,0.0083433361724019,0.6304373741149902,0.4096770882606506,-0.603264331817627,-0.4492185711860657,-0.5161779522895813
3836228,9.667189598083496,0.3680990040302276,1.7566330432891846,0.4726375639438629,-0.1169091761112213,0.4553234279155731,0.6695496439933777,-0.2937797307968139,-0.5692794322967529,-0.3759225904941559,9.67244815826416,-0.2768634855747223,-1.28340482711792,-0.2462917417287826,0.0909571051597595,0.9727510809898376,0.4096931219100952,-0.6033405661582947,-0.4490902721881866,-0.516187846660614
3836395,9.644072532653809,0.3626703321933746,1.7581779956817627,0.3307560086250305,-0.1901102513074875,0.3882308602333069,0.6694546341896057,-0.2939070165157318,-0.5692875981330872,-0.3759797513484955,9.69882106781006,-0.2697461545467376,-1.2886362075805664,-0.3070577979087829,0.1407994031906128,0.540895402431488,0.4096717238426208,-0.6033884882926941,-0.4489957392215729,-0.5162307620048523
3836561,9.670130729675291,0.335723727941513,1.730801701545715,0.3348027765750885,-0.4910722374916076,0.7440937161445618,0.6693978309631348,-0.2940165102481842,-0.5693305730819702,-0.3759303092956543,9.696066856384276,-0.3045176267623901,-1.280264377593994,-0.3924889862537384,0.1001392528414726,0.4391104876995086,0.4096235036849975,-0.6034420132637024,-0.4489043056964874,-0.5162860155105591
3836728,9.644801139831545,0.341213047504425,1.766084909439087,0.0139012923464179,0.0018889365019276,0.3362114727497101,0.6693421006202698,-0.2941105961799621,-0.5693188905715942,-0.3759733736515045,9.724004745483398,-0.3194482922554016,-1.3041963577270508,-0.2993099987506866,0.24161097407341,0.4591908454895019,0.4096420705318451,-0.603448748588562,-0.4488517940044403,-0.5163091421127319
3836895,9.670676231384276,0.3813422918319702,1.749026656150818,0.472829669713974,-0.4351085722446441,-0.0505210533738136,0.6692531704902649,-0.2941558957099914,-0.5693777203559875,-0.3760071098804474,9.712516784667969,-0.3104149103164673,-1.273229956626892,-0.0311450418084859,0.5394355058670044,0.5702219605445862,0.409681499004364,-0.6034625768661499,-0.4487474858760834,-0.5163523554801941
3837061,9.68093490600586,0.4011968374252319,1.7645758390426636,0.1394547522068023,0.080212578177452,0.757156252861023,0.6692739129066467,-0.2942075431346893,-0.5693642497062683,-0.3759505450725555,9.701371192932127,-0.2974977791309356,-1.2668242454528809,0.1446029096841812,0.5637803673744202,0.7841136455535889,0.4097859263420105,-0.6034552454948425,-0.4486625492572784,-0.5163519978523254
3837228,9.644262313842772,0.2857675850391388,1.7635387182235718,0.1825353056192398,0.0828506723046302,0.5391536951065063,0.6692988872528076,-0.2942062020301819,-0.5693720579147339,-0.3758951723575592,9.706239700317385,-0.3020997047424316,-1.273343205451965,0.25186887383461,0.7514061331748962,0.6839678883552551,0.4098879992961883,-0.6034348607063293,-0.4485606551170349,-0.516383171081543
3837395,9.66770076751709,0.3259212374687195,1.7745569944381714,0.4818196892738342,-0.1684803366661071,0.3061293661594391,0.6692230105400085,-0.2943162024021148,-0.5693495869636536,-0.3759781122207641,9.687050819396973,-0.2877916991710663,-1.2771847248077393,0.3198577761650085,0.723667562007904,0.6751698851585388,0.4099744856357574,-0.60342937707901,-0.4484423696994781,-0.516423761844635
3837561,9.651660919189451,0.3659926354885101,1.761189103126526,-0.0142918843775987,-0.0898109152913093,0.3270421028137207,0.6691955924034119,-0.2943874895572662,-0.5693297982215881,-0.3760012686252594,9.668534278869627,-0.2783270180225372,-1.256234884262085,0.2556467652320862,0.6047094464302063,0.599061906337738,0.4100486040115356,-0.6034238934516907,-0.4483452141284942,-0.5164557695388794
3837728,9.647066116333008,0.3354482352733612,1.7572767734527588,0.2183290421962738,-0.3224895000457763,0.4452959895133972,0.6691840887069702,-0.2944275438785553,-0.5693537592887878,-0.3759539127349853,9.67285442352295,-0.2771524786949157,-1.2692245244979858,0.2836798727512359,0.4731370210647583,0.5377449989318848,0.4101340472698211,-0.6033997535705566,-0.448291927576065,-0.5164623260498047
3837895,9.655594825744627,0.3338568210601806,1.727347493171692,0.2600392997264862,-0.3338230848312378,0.4726119637489319,0.6691890954971313,-0.294448971748352,-0.5693874955177307,-0.3758772015571594,9.678876876831056,-0.2774064838886261,-1.2641321420669556,0.2195328325033188,0.2938480675220489,0.5989081263542175,0.4101741313934326,-0.6034228205680847,-0.4482052624225616,-0.5164788365364075
3838061,9.668179512023926,0.3640756011009216,1.744821071624756,0.4802317321300506,-0.2413228303194046,0.3872960209846496,0.6691951155662537,-0.2944551408290863,-0.5694212317466736,-0.3758105933666229,9.693838119506836,-0.2670425176620483,-1.2640496492385864,0.1423874050378799,0.2281002849340438,0.7062894105911255,0.4101569354534149,-0.6035075187683105,-0.4480465352535248,-0.5165311694145203
3838228,9.672542572021484,0.363492876291275,1.7547519207000732,0.5169987678527832,-0.1361442953348159,0.4616240561008453,0.6692135334014893,-0.2944580614566803,-0.5694437623023987,-0.3757413923740387,9.702714920043944,-0.2575834691524505,-1.2776930332183838,-0.0339624397456646,0.179538607597351,0.6055673956871033,0.4102268517017364,-0.6034985184669495,-0.4480226039886474,-0.5165067911148071
3838395,9.664653778076172,0.350285917520523,1.7668859958648682,0.3532887399196625,0.0769661590456962,0.3564774990081787,0.6692143678665161,-0.2944889962673187,-0.5694233775138855,-0.3757465183734894,9.700901985168455,-0.2709084451198578,-1.269095778465271,-0.2667818665504455,0.1583056896924972,0.6528869271278381,0.4102462530136108,-0.6035327911376953,-0.4479468464851379,-0.5165170431137085
3838561,9.645832061767578,0.3574097454547882,1.7532463073730469,0.3126350045204162,0.1607004851102829,0.2690037786960602,0.6692379713058472,-0.2944793701171875,-0.5694110989570618,-0.3757304549217224,9.695606231689451,-0.2871479988098144,-1.244277000427246,-0.4504249393939972,0.1961612552404403,0.5549695491790771,0.410174161195755,-0.6036285758018494,-0.4477834403514862,-0.516603946685791
3838728,9.659411430358888,0.3703877925872803,1.767029047012329,0.1916277855634689,-0.0790663883090019,0.3370054960250854,0.6692422032356262,-0.2944970726966858,-0.5694134831428528,-0.3757054507732391,9.699366569519045,-0.2916854918003082,-1.2510886192321775,-0.3838319182395935,0.1586258560419082,0.8016070127487183,0.4101827442646026,-0.6036887168884277,-0.4476715326309204,-0.5166239142417908
3838895,9.6671781539917,0.363342672586441,1.748543620109558,0.2291632294654846,-0.2042228728532791,0.4947541356086731,0.6692113280296326,-0.294582724571228,-0.569395124912262,-0.3757211863994598,9.694829940795898,-0.3170987367630005,-1.2480427026748655,-0.2699194550514221,0.2962045073509216,0.7274711728096008,0.4101982414722442,-0.6037331223487854,-0.4475568830966949,-0.5166590809822083
3839061,9.662163734436035,0.3442599773406982,1.7492127418518066,0.1969424337148666,0.0142854824662208,0.6013157367706299,0.6692438721656799,-0.2946054637432098,-0.5693818926811218,-0.3756654262542724,9.706871032714844,-0.3250614106655121,-1.251267910003662,-0.0159823261201381,0.3367238044738769,0.7850741147994995,0.410275787115097,-0.6037374138832092,-0.4474873840808868,-0.5166528224945068
3839228,9.64721965789795,0.3456475734710693,1.7641574144363403,0.1010869145393371,-0.0055195367895066,0.417237251996994,0.6692559719085693,-0.2946314513683319,-0.5693691372871399,-0.3756428956985473,9.703062057495115,-0.3250986933708191,-1.2792308330535889,0.3071538805961609,0.2805806994438171,0.7261776328086853,0.4103800058364868,-0.6037198901176453,-0.4474540054798126,-0.5166194438934326
3839395,9.647624015808104,0.3469672203063965,1.7710379362106323,0.1103202998638153,-0.1944900453090667,0.437624990940094,0.6692200899124146,-0.2947214245796203,-0.5693457722663879,-0.3756716549396515,9.690895080566406,-0.3142151534557342,-1.2550923824310305,0.4735595881938934,0.2907489240169525,0.6845570802688599,0.410430908203125,-0.6037482023239136,-0.4473583400249481,-0.5166286826133728
3839561,9.666903495788574,0.3419712483882904,1.761893630027771,0.2106196582317352,-0.1882533431053161,0.4673997759819031,0.6692128777503967,-0.2947712242603302,-0.5693415403366089,-0.3756517767906189,9.701452255249023,-0.2985634803771972,-1.2528722286224363,0.6679471731185913,0.3317548930644989,0.6829050183296204,0.4105512201786041,-0.6037197709083557,-0.4473317563533783,-0.5165894031524658
3839728,9.648085594177246,0.3388277590274811,1.7714098691940308,0.3390929102897644,-0.1893674731254577,0.5074707865715027,0.669247567653656,-0.294761061668396,-0.5693686008453369,-0.3755570650100708,9.693894386291504,-0.2833850383758545,-1.2401061058044434,0.6263777017593384,0.218674823641777,0.6686130166053772,0.4106404483318329,-0.6037177443504333,-0.4472878873348236,-0.5165589451789856
3839895,9.650270462036133,0.3457655906677246,1.80195426940918,0.4605995118618011,-0.1914805322885513,0.4621491134166717,0.669270932674408,-0.29475799202919,-0.5693916082382202,-0.3754828572273254,9.689274787902832,-0.2767642736434936,-1.2460081577301023,0.4230513274669647,0.2366293221712112,0.7122315168380737,0.410730630159378,-0.6037155389785767,-0.4472414255142212,-0.5165297985076904
3840061,9.66043758392334,0.3457763195037842,1.780303955078125,0.4885558485984802,-0.2189501672983169,0.5394483208656311,0.6692677736282349,-0.2948068678379059,-0.569388747215271,-0.3754544854164123,9.703530311584473,-0.2731757462024688,-1.2629019021987915,0.2524195611476898,0.0245689805597066,0.7617024183273315,0.4107992649078369,-0.6037383675575256,-0.4471962451934814,-0.5164876580238342
3840228,9.654096603393556,0.3379408717155456,1.786655306816101,0.4711903631687164,-0.4140932857990265,0.4373047649860382,0.6692433953285217,-0.2948584258556366,-0.5694080591201782,-0.3754283189773559,9.699847221374512,-0.276680439710617,-1.2444236278533936,-0.1250540167093277,0.0368246622383594,0.7830122709274292,0.4107470512390136,-0.6038609743118286,-0.4470171332359314,-0.5165408253669739
3840395,9.665472984313965,0.3498603701591491,1.7585891485214231,0.3504649996757507,-0.2549231946468353,0.4271366000175476,0.6692635416984558,-0.2948574125766754,-0.5694327354431152,-0.3753558099269867,9.689379692077637,-0.2829709649085998,-1.2753291130065918,-0.2767836451530456,-0.0652739703655242,0.590251088142395,0.4107467532157898,-0.6039119958877563,-0.4469518363475799,-0.5165380239486694
3840561,9.667224884033203,0.341656357049942,1.7671329975128174,0.3465589880943298,-0.3252044320106506,0.4832924008369446,0.6692693829536438,-0.294882208108902,-0.5694530606269836,-0.3752948641777038,9.685506820678713,-0.2873339653015136,-1.233566164970398,-0.4422160387039184,-0.1954376846551895,0.4030478000640869,0.4107052087783813,-0.6039736270904541,-0.446895569562912,-0.516547679901123
3840728,9.667990684509276,0.3519309759140014,1.759665608406067,0.2587074637413025,-0.2191678881645202,0.4914629161357879,0.6692893505096436,-0.2948976159095764,-0.5694645643234253,-0.3752296566963196,9.678060531616213,-0.290026843547821,-1.2444522380828855,-0.4898940920829773,-0.2232274711132049,0.3327153623104095,0.4106467664241791,-0.6040401458740234,-0.4468365907669067,-0.5165673494338989
3840895,9.646936416625977,0.3743463158607483,1.7610821723937988,0.3266067504882812,-0.2563575208187103,0.4413900971412658,0.6693373322486877,-0.2948570251464844,-0.5695101618766785,-0.3751067519187927,9.670758247375488,-0.2895833849906921,-1.2594364881515503,-0.5228447914123535,-0.4509115517139435,0.3553313612937927,0.4105748236179352,-0.6041250824928284,-0.4467895627021789,-0.5165659189224243
3841061,9.653170585632324,0.3542269170284271,1.779628038406372,0.3708398640155792,-0.2010724991559982,0.3303717970848083,0.6693279147148132,-0.2948863506317138,-0.5695127844810486,-0.375096708536148,9.697497367858888,-0.3146919310092926,-1.2598978281021118,-0.4539595246315002,-0.5661431550979614,0.2897372841835022,0.4105128347873688,-0.6041960120201111,-0.4467802345752716,-0.5165404081344604
3841228,9.661770820617676,0.3685925304889679,1.762734055519104,0.1423874050378799,-0.3819365799427032,0.3817380666732788,0.6692944765090942,-0.2949551343917846,-0.5695160031318665,-0.375097393989563,9.699936866760254,-0.3327840566635132,-1.259579300880432,-0.1729241460561752,-0.4231986701488495,0.528306782245636,0.410512775182724,-0.604246973991394,-0.4467734694480896,-0.5164865255355835
3841395,9.641450881958008,0.3343968391418457,1.7546732425689695,0.1003057360649108,-0.468545913696289,0.2686323821544647,0.6692684888839722,-0.2949880361557007,-0.5695485472679138,-0.3750684559345245,9.688469886779783,-0.3127427995204925,-1.2611340284347534,-0.0574492812156677,-0.317328542470932,0.7931292057037354,0.410528153181076,-0.6043204069137573,-0.4467189013957977,-0.5164356231689453
3841561,9.699875831604004,0.3399220705032348,1.7828608751296997,0.2328770607709884,-0.2968255579471588,0.1560133546590805,0.6692302227020264,-0.2950294613838196,-0.5695556998252869,-0.3750930428504944,9.714818954467772,-0.3217636942863464,-1.276567816734314,0.2722821831703186,-0.4235700070858001,0.9539642333984376,0.4105492532253265,-0.6044177412986755,-0.446647435426712,-0.516366720199585
3841728,9.662571907043455,0.3161137402057647,1.7789069414138794,0.663951575756073,-0.1790711879730224,0.6577661037445068,0.6692472696304321,-0.2950654327869415,-0.5695523023605347,-0.3750395476818084,9.717408180236816,-0.2861962020397186,-1.291691541671753,0.4499831795692444,-0.4768700897693634,0.5790583491325378,0.41059210896492,-0.6044523119926453,-0.4466693103313446,-0.5162733197212219
3841895,9.605563163757324,0.3318469524383545,1.7388519048690796,-0.1736284792423248,-0.0921800956130027,0.4853670299053192,0.6692242622375488,-0.2951683402061462,-0.5694993138313293,-0.3750801384449005,9.723543167114258,-0.2801238596439361,-1.2737128734588623,0.3892169594764709,-0.3909650146961212,-0.1118122339248657,0.4105677902698517,-0.6044520735740662,-0.4467258155345917,-0.5162440538406372
3842061,9.656288146972656,0.3316153883934021,1.753960371017456,0.7810400724411011,-0.8780673146247864,0.0910467356443405,0.6691645383834839,-0.2951752841472626,-0.5695990920066833,-0.3750297129154205,9.713987350463867,-0.2913106977939605,-1.2456609010696411,0.282770574092865,-0.3905808627605438,-0.0356016494333744,0.4105405211448669,-0.6044620275497437,-0.4467694461345672,-0.5162163972854614
3842228,9.722701072692873,0.3692173063755035,1.746865153312683,1.1061419248580933,-0.5795128345489502,-0.202596440911293,0.6691431403160095,-0.2950866520404815,-0.5697124600410461,-0.3749656975269317,9.726229667663574,-0.273343950510025,-1.256028175354004,0.2871760129928589,-0.2361234873533249,0.3444332182407379,0.410553514957428,-0.6044831871986389,-0.4467722177505493,-0.5161789059638977
3842395,9.716365814208984,0.3930417597293854,1.7438178062438965,1.209963083267212,0.2230930030345916,0.1138164326548576,0.6691759824752808,-0.2950203716754913,-0.5697144269943237,-0.3749559819698334,9.709362983703612,-0.2459393590688705,-1.2730046510696411,0.1870303452014923,0.112523004412651,0.747052013874054,0.4105994999408722,-0.6045190691947937,-0.4466990232467651,-0.5161636471748352
3842561,9.617720603942873,0.3300949037075043,1.8095064163208008,1.0026155710220337,0.7484223246574402,1.269090175628662,0.6693219542503357,-0.2950160801410675,-0.5696182250976562,-0.3748451769351959,9.674978256225586,-0.253381609916687,-1.2732256650924685,-0.0910915583372116,0.2044981867074966,0.9114598631858826,0.4106036126613617,-0.6046048402786255,-0.446545273065567,-0.5161927938461304
3842728,9.603349685668944,0.2801782488822937,1.823597311973572,1.0795048475265503,-0.4749234318733215,0.4278921484947204,0.6692990660667419,-0.2950406372547149,-0.5696593523025513,-0.3748041093349457,9.676470756530762,-0.2729654610157013,-1.2867023944854736,-0.2410539239645004,0.2737933397293091,0.791861355304718,0.4106054306030273,-0.604672372341156,-0.4464064538478851,-0.516232430934906
3842895,9.694592475891112,0.3752034902572632,1.7767285108566284,0.5693895220756531,-0.8842400908470154,0.1031615585088729,0.6692513227462769,-0.295039415359497,-0.5697614550590515,-0.3747351169586181,9.69800853729248,-0.2973509132862091,-1.2879209518432615,-0.2714689970016479,0.179602637887001,0.7447211742401123,0.4106825888156891,-0.6046693325042725,-0.4463793933391571,-0.5161979794502258
3843061,9.670068740844728,0.3816458284854889,1.752584457397461,0.1576525419950485,-0.2658853828907013,0.4028941690921783,0.6691741943359375,-0.2951888740062713,-0.5697059631347656,-0.3748394250869751,9.69266128540039,-0.3174205720424652,-1.2725361585617063,-0.041620634496212,0.1957258433103561,0.7184553742408752,0.4106811881065368,-0.6047343015670776,-0.4462569057941437,-0.5162288546562195
3843228,9.636472702026367,0.322353333234787,1.772449612617493,0.538474977016449,0.0236469246447086,0.7570025324821472,0.669227659702301,-0.2952059507369995,-0.5696845650672913,-0.3747630417346954,9.701059341430664,-0.3261036276817322,-1.2638602256774902,0.1388656497001648,0.0619891285896301,0.7658388614654541,0.4107113778591156,-0.6047842502593994,-0.4461756348609924,-0.5162166357040405
3843395,9.630253791809082,0.3254026770591736,1.766188621520996,0.4161487221717834,-0.1912115961313247,0.6680240035057068,0.6692261695861816,-0.295281320810318,-0.5696591138839722,-0.37474524974823,9.7078857421875,-0.2951476573944092,-1.269512414932251,0.4091692566871643,0.0500280037522316,0.7815651297569275,0.4107880592346191,-0.60480135679245,-0.446139246225357,-0.516167163848877
3843561,9.652606010437012,0.3444453179836273,1.743809938430786,0.4323231875896454,-0.4294737875461578,0.5799548029899597,0.6691835522651672,-0.2953873872756958,-0.5696475505828857,-0.3747551739215851,9.67770767211914,-0.293262243270874,-1.2838066816329956,0.4077349901199341,-0.0571035183966159,0.7859321236610413,0.4108380377292633,-0.60484379529953,-0.446085661649704,-0.5161238312721252
3843728,9.694865226745604,0.354130357503891,1.782045602798462,0.3962092399597168,-0.0880052372813224,0.5553025007247925,0.6691864728927612,-0.2954455018043518,-0.5696182250976562,-0.3747488856315613,9.672703742980955,-0.278178870677948,-1.2569260597229004,0.34917151927948,-0.2689717710018158,0.6087306141853333,0.4108453691005707,-0.6049030423164368,-0.4460445344448089,-0.5160840153694153
3843895,9.659579277038574,0.3355199992656708,1.7528811693191528,0.4397892355918884,-0.1544189602136612,0.3675358295440674,0.6691961884498596,-0.2954557240009308,-0.5696218609809875,-0.3747178316116333,9.69806957244873,-0.2744703292846679,-1.2687740325927734,0.2579262852668762,-0.398379921913147,0.5971408486366272,0.4108924269676208,-0.6049269437789917,-0.4460727572441101,-0.515994131565094
3844061,9.6715669631958,0.3601991832256317,1.7449102401733398,0.5882404446601868,-0.2985288202762604,0.3917526304721832,0.669196605682373,-0.29546919465065,-0.5696427226066589,-0.3746747076511383,9.68805980682373,-0.2565284967422485,-1.2675902843475342,0.0059485496021807,-0.2442170679569244,0.5136434435844421,0.4108907282352447,-0.6049745678901672,-0.446045458316803,-0.5159632563591003
3844228,9.678887367248535,0.3460555374622345,1.7586352825164795,0.5344153642654419,-0.2068865597248077,0.5073299407958984,0.6692135334014893,-0.2954840362071991,-0.5696514844894409,-0.3746192753314972,9.701427459716797,-0.2980446815490722,-1.2582849264144895,-0.1495781540870666,-0.2052986025810241,0.7897611856460571,0.4109029173851013,-0.6050417423248291,-0.4459863603115082,-0.5159258246421814
3844395,9.664518356323242,0.3530503213405609,1.751608967781067,0.5818756818771362,-0.0185692068189382,0.425433337688446,0.6692401766777039,-0.2954826653003692,-0.569645345211029,-0.3745823204517364,9.669039726257324,-0.2768243253231048,-1.2528537511825562,-0.0718308091163635,-0.1271158307790756,0.9153146147727966,0.4109334647655487,-0.6051089763641357,-0.4459137618541717,-0.5158853530883789
3844561,9.64768123626709,0.3577423095703125,1.7834759950637815,0.21676667034626,-0.0765307396650314,0.4263041615486145,0.6692476868629456,-0.2955173254013061,-0.56962651014328,-0.3745701909065246,9.68267822265625,-0.2895263433456421,-1.2678545713424685,-0.2220620661973953,-0.1042436733841896,0.3332403898239136,0.4109356999397278,-0.6051217913627625,-0.4459120631217956,-0.5158700942993164
3844728,9.659244537353516,0.3237446844577789,1.7378298044204712,0.5897003412246704,-0.2026092559099197,0.7284058928489685,0.6692709922790527,-0.2955568432807922,-0.5696219205856323,-0.3745041489601135,9.715051651000977,-0.3078717887401581,-1.2599554061889648,-0.1852438449859619,-0.2012389749288559,0.3435879349708557,0.4108740091323852,-0.6051932573318481,-0.4458460211753845,-0.515892505645752
3844895,9.626806259155272,0.3304701745510101,1.770973563194275,0.269080638885498,0.0425747148692607,0.1597528308629989,0.6692546606063843,-0.2955905795097351,-0.5695887207984924,-0.3745574355125427,9.72972297668457,-0.3263610899448395,-1.2756402492523191,-0.0724327117204666,0.1582544595003128,0.3745665252208709,0.4108915627002716,-0.6051953434944153,-0.4458154439926147,-0.515902578830719
3845061,9.671698570251465,0.3955213725566864,1.758213758468628,0.546901524066925,-0.2231122106313705,-0.076146550476551,0.6692105531692505,-0.2955998480319977,-0.5696021914482117,-0.3746081888675689,9.713258743286133,-0.2941001951694488,-1.2643502950668335,0.094837412238121,0.3577004969120025,0.4828441739082336,0.4109062254428863,-0.6052132248878479,-0.4457300901412964,-0.515943706035614
3845228,9.677295684814451,0.4007033109664917,1.794812560081482,0.2631384432315826,0.2426226735115051,0.6595717668533325,0.669253408908844,-0.2956396341323852,-0.5695404410362244,-0.3745940923690796,9.698121070861816,-0.2993572652339935,-1.2616733312606812,0.1816516667604446,0.5049735307693481,0.743325412273407,0.4109449386596679,-0.6052423119544983,-0.4456048309803009,-0.5159868597984314
3845395,9.644466400146484,0.2785115242004394,1.7800076007843018,0.600508987903595,0.1218075975775718,0.4505849778652191,0.669276773929596,-0.2956540882587433,-0.5695078372955322,-0.3745906054973602,9.67892837524414,-0.2978124022483825,-1.2532362937927246,0.2721925377845764,0.6376088857650757,0.7412891983985901,0.4110397398471832,-0.6052215099334717,-0.4455254673957824,-0.5160043835639954
3845561,9.64498805999756,0.3424290120601654,1.8090566396713257,0.5505257248878479,-0.208974003791809,0.3153883814811706,0.6692466735839844,-0.2957068681716919,-0.5694962739944458,-0.3746204078197479,9.676515579223633,-0.2855601608753204,-1.253800392150879,0.203089490532875,0.4475115239620209,0.5330066680908203,0.4110731482505798,-0.605228841304779,-0.4454385936260223,-0.5160439610481262
3845728,9.66015911102295,0.3650557994842529,1.7828999757766724,0.1793209165334701,-0.251247763633728,0.3761929273605346,0.6692190170288086,-0.2957750856876373,-0.5694798827171326,-0.374640941619873,9.65644359588623,-0.2490829080343246,-1.2713884115219116,0.1316941082477569,0.1235492676496505,0.2934126853942871,0.4111124575138092,-0.6052048206329346,-0.4454472959041595,-0.5160332918167114
3845895,9.657637596130373,0.3316860795021057,1.7649190425872805,0.3992059528827667,-0.3327730000019073,0.3240070343017578,0.6692185997962952,-0.295779824256897,-0.5695071816444397,-0.3745962977409363,9.672625541687012,-0.2655083835124969,-1.2449884414672852,-0.0425683036446571,-0.1840656697750091,0.4408649802207947,0.4110883772373199,-0.6052567958831787,-0.4454038739204407,-0.5160291790962219
3846061,9.667614936828612,0.336252897977829,1.755924940109253,0.4033679664134979,-0.4398212730884552,0.2547502815723419,0.6691887974739075,-0.295810341835022,-0.5695345401763916,-0.3745838701725006,9.679506301879885,-0.2399850636720657,-1.2498557567596436,-0.0742512121796608,-0.3378827273845672,0.71558678150177,0.4110448360443115,-0.6053628921508789,-0.4453116953372955,-0.5160189867019653
3846228,9.675947189331056,0.3569913208484649,1.744645595550537,0.6102161407470703,-0.4600168764591217,0.1941634565591812,0.669157087802887,-0.2958255112171173,-0.5695732831954956,-0.3745694756507873,9.70479679107666,-0.2555838823318481,-1.2635071277618408,-0.3657365441322326,-0.3354623317718506,0.9790903329849244,0.4110075235366821,-0.6054917573928833,-0.4451897144317627,-0.5160027742385864
3846395,9.683053970336914,0.3425755500793457,1.767086625099182,0.5541755557060242,-0.0711008459329605,0.3992571532726288,0.6691644787788391,-0.2958443462848663,-0.5695614218711853,-0.3745597302913666,9.697537422180176,-0.2692495286464691,-1.2621597051620483,-0.3420576155185699,-0.5118825435638428,1.0185465812683103,0.4109827876091003,-0.6056179404258728,-0.4450997412204742,-0.5159519910812378
3846561,9.663439750671388,0.3415456414222717,1.7602630853652954,0.106491208076477,-0.0054939244873821,0.3405784666538238,0.66911780834198,-0.2959546446800232,-0.5694917440414429,-0.3746618032455444,9.681289672851562,-0.2901097536087036,-1.2633641958236694,-0.5231906175613403,-0.655070424079895,1.036885380744934,0.4109365344047546,-0.6057640314102173,-0.4450069367885589,-0.515897274017334
3846728,9.646074295043944,0.3607784211635589,1.7661458253860474,0.0489778816699981,-0.3645327091217041,0.2812338471412658,0.6690697073936462,-0.2960330545902252,-0.5694836378097534,-0.3746980130672455,9.664000511169434,-0.3218792676925659,-1.2630940675735474,-0.2605964243412018,-0.8552465438842773,0.9705868363380432,0.4108332395553589,-0.6059586405754089,-0.4448786079883575,-0.5158616900444031
3846895,9.659972190856934,0.3701124191284179,1.7530102729797363,0.0783556476235389,-0.6607691645622253,0.4665544927120209,0.669012725353241,-0.2961331903934479,-0.5695013999938965,-0.3746936023235321,9.672927856445312,-0.3240763247013092,-1.2815649509429932,-0.1008372008800506,-1.0944563150405884,0.9653617739677428,0.4108048677444458,-0.6060951948165894,-0.4448672235012054,-0.5157337188720703
3847062,9.665698051452637,0.351880133152008,1.7439169883728027,-0.1043973639607429,-0.5301572680473328,0.7090555429458618,0.6689856052398682,-0.2962425947189331,-0.5694974064826965,-0.374661773443222,9.702250480651855,-0.3249066174030304,-1.2703185081481934,0.2914021015167236,-1.1644686460494995,1.0424689054489136,0.4107633829116821,-0.6062608361244202,-0.4448250234127044,-0.5156084895133972
3847228,9.661128044128418,0.3463871777057647,1.745896816253662,0.1839824169874191,-0.6072642803192139,0.7318764328956604,0.6689504981040955,-0.2963528335094452,-0.5695037841796875,-0.3746276795864105,9.715458869934082,-0.3023810386657715,-1.2607306241989136,0.5005554556846619,-1.0333572626113892,0.8837598562240601,0.410769373178482,-0.6063657402992249,-0.4448429346084595,-0.515464723110199
3847395,9.658724784851074,0.3447217047214508,1.7505531311035156,0.4468327462673187,-0.4412683844566345,0.5498854517936707,0.668947160243988,-0.2963876724243164,-0.5695295929908752,-0.3745667040348053,9.73568058013916,-0.3050472140312195,-1.2709099054336548,0.6399397253990173,-0.8787333369255066,0.7557347416877747,0.4107488989830017,-0.6064759492874146,-0.4448273777961731,-0.5153648853302002
3847562,9.640442848205566,0.3544987142086029,1.765591382980347,0.0677007660269737,-0.2065408080816269,0.4915268719196319,0.6689367890357971,-0.2964523434638977,-0.5695089101791382,-0.3745655715465545,9.73428726196289,-0.2756465673446655,-1.2783795595169067,0.5858584642410278,-0.4741550981998443,0.9046341180801392,0.4107763171195984,-0.6065550446510315,-0.4447887241840362,-0.5152832865715027
3847895,9.653532028198242,0.3557770550251007,1.7941818237304688,0.6478924751281738,-0.3161119520664215,0.5910835266113281,0.6689363121986389,-0.2965186834335327,-0.5695368051528931,-0.3744714856147766,9.716801643371582,-0.2730892598628998,-1.2972429990768433,0.334072858095169,-0.1288703233003616,0.8669835329055786,0.4108174443244934,-0.6066060066223145,-0.4447341561317444,-0.5152376294136047
3848062,9.636902809143066,0.362584501504898,1.7986713647842407,0.48108971118927,-0.40947026014328,0.4174165427684784,0.6688979268074036,-0.2965854406356811,-0.569540798664093,-0.374481052160263,9.705355644226074,-0.2726684212684631,-1.2930763959884644,0.1642350256443023,0.0795210227370262,1.1512715816497805,0.4108916819095611,-0.6066575646400452,-0.444646269083023,-0.515193521976471
3848228,9.65253448486328,0.3332670331001282,1.8015644550323489,0.3845682442188263,-0.5610461235046387,0.5270133018493652,0.6688475012779236,-0.296680599451065,-0.5695480704307556,-0.374484658241272,9.703798294067385,-0.3079831004142761,-1.2737793922424316,0.0993068367242813,0.2652643322944641,1.1388238668441772,0.4109720289707184,-0.6066969633102417,-0.4445456266403198,-0.5151699781417847
3848395,9.667547225952148,0.3311388492584228,1.7689634561538696,0.1696136742830276,-0.5392881631851196,0.6304373741149902,0.6688050627708435,-0.2967893779277801,-0.5695440173149109,-0.3744805157184601,9.691851615905762,-0.2890896499156952,-1.2867530584335327,-0.0822935998439788,0.354819118976593,0.885066032409668,0.4110002815723419,-0.6067434549331665,-0.4444216787815094,-0.5151996612548828
3848562,9.657180786132812,0.3437076807022095,1.8103132247924805,0.2327105700969696,-0.6852806210517883,0.4495860934257507,0.6687300801277161,-0.2969053089618683,-0.5695544481277466,-0.3745063543319702,9.682306289672852,-0.3099713325500488,-1.2726470232009888,-0.1299332231283188,0.4470760524272918,0.6918949484825134,0.4110578596591949,-0.606736421585083,-0.4443563222885132,-0.5152182579040527
3848728,9.674736976623535,0.3509080410003662,1.7705836296081543,0.09583630412817,-0.6346827149391174,0.3649361431598663,0.6686713695526123,-0.2969904839992523,-0.5695735812187195,-0.3745147883892059,9.698159217834473,-0.3177281320095062,-1.2864869832992554,-0.0822039544582367,0.3910994827747345,0.5085209012031555,0.4110548496246338,-0.6067595481872559,-0.4442582726478576,-0.5152779221534729
3848895,9.659013748168944,0.354952871799469,1.7378472089767456,0.230802446603775,-0.4578782916069031,0.2739982903003692,0.6686455607414246,-0.2970187067985534,-0.5696004033088684,-0.3744978606700897,9.677878379821776,-0.2886392772197723,-1.295509696006775,-0.0818453803658485,0.3122764229774475,0.3199858665466308,0.4110395312309265,-0.6067702174186707,-0.4441902935504913,-0.5153363347053528
3849062,9.654715538024902,0.3503860533237457,1.7504175901412964,0.2479373067617416,-0.3675934374332428,0.2849860787391662,0.6686010956764221,-0.2970823347568512,-0.5695973634719849,-0.3745312392711639,9.681490898132324,-0.2992570400238037,-1.2881534099578855,-0.2695736289024353,0.1407353729009628,0.2587586641311645,0.4110206961631775,-0.6067755222320557,-0.4441589415073395,-0.5153719186782837
3849228,9.652337074279783,0.3487877249717712,1.7641608715057373,0.2854663133621216,-0.526136040687561,0.3380748033523559,0.6685563921928406,-0.2971422374248504,-0.5696163177490234,-0.3745345771312713,9.712238311767578,-0.2947331368923187,-1.2764699459075928,-0.3016919791698456,0.0344554781913757,0.2135906666517257,0.4109998047351837,-0.6067780256271362,-0.4441492557525635,-0.5153941512107849
3849395,9.659675598144531,0.3447571098804474,1.7420706748962402,0.2923369407653808,-0.3974963128566742,0.2257183045148849,0.6684908866882324,-0.2972241342067718,-0.5696073174476624,-0.3746000528335571,9.703094482421877,-0.3181143701076507,-1.2640533447265625,-0.3388816118240356,0.113137699663639,0.3089083433151245,0.4109773933887481,-0.6067914366722107,-0.4441120326519012,-0.5154283046722412
3849562,9.680120468139648,0.3458621501922607,1.788157343864441,0.1621731966733932,-0.2281963229179382,-0.0613552182912826,0.6684423089027405,-0.2972486019134521,-0.5696067214012146,-0.374668538570404,9.671587944030762,-0.3008841872215271,-1.267651081085205,-0.4751283526420593,0.2265635132789611,0.422859251499176,0.4109461605548858,-0.6068224310874939,-0.4440330266952514,-0.5154848694801331
3849728,9.659588813781738,0.3152239620685577,1.7591480016708374,0.5780978202819824,-0.5238693356513977,0.4123068153858185,0.6684253215789795,-0.2972688376903534,-0.5696464776992798,-0.3746222853660583,9.689422607421877,-0.3260678648948669,-1.2782330513000488,-0.4349804818630218,0.0268613193184137,0.4983398914337158,0.4109130203723907,-0.6068689227104187,-0.4439649283885956,-0.5155152678489685
3849895,9.64283561706543,0.3241582214832306,1.7429109811782837,-0.1503593474626541,-0.3163808584213257,0.3129295408725738,0.6683906316757202,-0.2973375916481018,-0.5696318745613098,-0.3746517300605774,9.684358596801758,-0.3002226054668426,-1.2679085731506348,-0.3040355443954468,-0.1466967165470123,0.3844273686408996,0.4108445346355438,-0.6069363355636597,-0.4438951015472412,-0.515550434589386
3850062,9.63683795928955,0.333914041519165,1.740668773651123,0.392136812210083,-0.7279512882232666,0.0630264431238174,0.6683031320571899,-0.2973988950252533,-0.5696747899055481,-0.374693900346756,9.71325397491455,-0.2895441949367523,-1.2639070749282837,-0.304291695356369,-0.0702300295233726,-0.3695016205310821,0.4107336401939392,-0.6069409847259521,-0.4438987672328949,-0.5156301259994507
3850228,9.718439102172852,0.3565298914909363,1.7846269607543943,0.7660053968429565,-0.7652818560600281,-0.4410634636878967,0.6682053804397583,-0.2973776757717132,-0.5697668194770813,-0.3747452199459076,9.713214874267578,-0.3408125638961792,-1.267643928527832,-0.2933806478977203,-0.1975379437208175,-0.4306391179561615,0.4106192290782928,-0.6069428324699402,-0.4439268112182617,-0.5156949758529663
3850395,9.719971656799316,0.393691211938858,1.7387938499450684,1.1325488090515137,-0.1240295022726059,-0.2184251099824905,0.6681936979293823,-0.2972965836524963,-0.5698105692863464,-0.374763935804367,9.713200569152832,-0.3110299110412597,-1.2595723867416382,-0.0341417267918586,-0.0960091948509216,-0.0719460695981979,0.4105384051799774,-0.6069642305374146,-0.4439094960689544,-0.5157490968704224
3850562,9.634233474731444,0.3522567451000213,1.765295147895813,1.059654951095581,0.5086874961853027,0.8104178309440613,0.668271541595459,-0.2972965538501739,-0.5697321891784668,-0.3747443854808807,9.671298027038574,-0.3054939210414886,-1.2637028694152832,0.1276472955942154,0.0990251079201698,0.2111447155475616,0.4105264246463775,-0.6069614291191101,-0.4438925087451935,-0.5157765746116638
3850728,9.605546951293944,0.2521786689758301,1.8527793884277344,1.1133264303207395,-0.5192462801933289,0.5950021743774414,0.6682775616645813,-0.2972942590713501,-0.5697839856147766,-0.3746564090251922,9.650362968444824,-0.2894224524497986,-1.2572942972183228,0.1456530392169952,-0.0902463570237159,0.5279737710952759,0.4105176925659179,-0.6070002317428589,-0.4438487589359283,-0.5157753825187683
3850895,9.667485237121582,0.3288483023643493,1.7521711587905884,1.2581276893615725,-1.3296446800231934,-0.014957814477384,0.6682309508323669,-0.2972097992897033,-0.5699800252914429,-0.3745085299015045,9.65794563293457,-0.275804191827774,-1.2489407062530518,0.2052025496959686,-0.2281579077243805,0.5505257248878479,0.4105316400527954,-0.6070256233215332,-0.4438457190990448,-0.5157371163368225
3851062,9.665379524230955,0.3985432684421539,1.7333590984344482,0.3160158991813659,-0.5897323489189148,0.0361587293446064,0.6681707501411438,-0.2972371876239776,-0.5700207352638245,-0.3745319843292236,9.701038360595703,-0.2855815887451172,-1.2615323066711426,0.1142134219408035,-0.3256270289421081,0.5229408740997314,0.4105371236801147,-0.6070544719696045,-0.4438542425632477,-0.5156915187835693
3851228,9.618335723876951,0.3345439434051513,1.7685657739639282,0.6796521544456482,-0.4352365732192993,0.2692855298519134,0.6681488156318665,-0.2972438335418701,-0.5700544118881226,-0.3745147585868835,9.719247817993164,-0.2913714945316314,-1.2676904201507568,0.0585058145225048,-0.3209015130996704,0.378459632396698,0.4105343520641327,-0.6070700883865356,-0.4438801407814026,-0.5156530737876892
3851395,9.638734817504885,0.3403077125549316,1.770518183708191,0.8576605319976807,-0.5747489929199219,0.3047719299793243,0.6681328415870667,-0.2972315549850464,-0.5701156258583069,-0.3744597136974334,9.700461387634276,-0.302979826927185,-1.2974157333374023,0.0610158555209636,-0.2565496265888214,0.4490226805210113,0.4105406999588012,-0.6070852279663086,-0.443895936012268,-0.5156164765357971
3851562,9.644495964050291,0.3581157028675079,1.7779446840286257,0.6733514070510864,-0.6786852478981018,0.237423300743103,0.6680744290351868,-0.2972713410854339,-0.5701615214347839,-0.3744625151157379,9.694714546203612,-0.283596932888031,-1.2895084619522097,0.2867405414581299,-0.2466630786657333,0.4321822822093963,0.410527765750885,-0.6071178317070007,-0.4438846707344055,-0.5155980587005615
3851728,9.68048095703125,0.3676053583621979,1.7424697875976562,0.7940128445625305,-0.693732738494873,0.24659264087677,0.6680393218994141,-0.2972719669342041,-0.570229709148407,-0.3744208216667175,9.68387222290039,-0.2792231142520904,-1.2954918146133425,0.2340552657842636,-0.3787221908569336,0.3019033074378967,0.4104877710342407,-0.6071581244468689,-0.4438848495483398,-0.5155823230743408
3851895,9.66946506500244,0.3449682593345642,1.7354388236999512,0.6023275256156921,-0.6551216840744019,0.0806607976555824,0.667976975440979,-0.2972950637340545,-0.5702803134918213,-0.3744365274906158,9.686320304870604,-0.260719895362854,-1.3173458576202393,0.0767932683229446,-0.5241766571998596,0.1615713089704513,0.4104142487049103,-0.6072085499763489,-0.4438960552215576,-0.5155718326568604
3852062,9.682896614074709,0.3698897659778595,1.7453606128692627,0.5945412516593933,-0.6776992678642273,0.117978498339653,0.6679339408874512,-0.2972930371761322,-0.5703468918800354,-0.3744134902954101,9.700172424316406,-0.2477453351020813,-1.2951771020889282,0.0731050372123718,-0.5833675861358643,0.0594278611242771,0.4103467762470245,-0.6072410345077515,-0.4439420998096466,-0.5155476927757263
3852228,9.68133544921875,0.3756378889083862,1.7350906133651731,0.8492338061332703,-0.794467568397522,0.2279850244522094,0.6679167747497559,-0.2972526252269745,-0.5704490542411804,-0.3743205368518829,9.702579498291016,-0.234130710363388,-1.308491349220276,-0.1582608669996261,-0.4239798188209533,0.0714402198791503,0.4102278053760528,-0.6073116660118103,-0.4439112842082977,-0.515585720539093
3852395,9.67971897125244,0.3457514345645904,1.7525359392166138,0.8652416467666626,-0.5653490424156189,0.2482446730136871,0.667884111404419,-0.2972551584243774,-0.570499837398529,-0.3742994964122772,9.703137397766112,-0.2745025157928467,-1.3077152967453003,-0.4270021021366119,-0.4674701690673828,0.2924457788467407,0.4101065993309021,-0.6074081063270569,-0.4438544511795044,-0.5156175494194031
3852562,9.64955234527588,0.3869201838970184,1.7432687282562256,0.583719789981842,-0.5245992541313171,0.1616737395524978,0.6678466796875,-0.2972619831562042,-0.57054203748703,-0.3742966949939728,9.675217628479004,-0.248167335987091,-1.3154613971710205,-0.3490114510059356,-0.3028445243835449,0.64183509349823,0.4100545048713684,-0.6074873208999634,-0.4437941908836365,-0.515617311000824
3852728,9.642194747924805,0.3454693853855133,1.6986799240112305,0.4882227778434753,-0.9042819738388062,0.4990313947200775,0.6677761673927307,-0.2973503768444061,-0.5705886483192444,-0.3742813467979431,9.695534706115724,-0.2623004913330078,-1.3014605045318604,-0.4537673592567444,-0.2666025757789612,0.1542716771364212,0.4099282622337341,-0.607564389705658,-0.4437317848205566,-0.5156805515289307
3852895,9.647298812866213,0.3282207250595093,1.7270005941390991,0.4155980050563812,-0.5156092047691345,0.1483167260885238,0.6677249073982239,-0.2973809242248535,-0.5706164240837097,-0.3743059635162353,9.716412544250488,-0.2792946398258209,-1.306209683418274,-0.4603498578071594,-0.3854455351829529,0.0311770550906658,0.4098079204559326,-0.607621967792511,-0.443715900182724,-0.5157221555709839
3853062,9.661914825439451,0.3964985907077789,1.728696584701538,0.7376905083656311,-0.7638346552848816,-0.3494468629360199,0.6676441431045532,-0.2973460555076599,-0.5707105994224548,-0.3743340969085693,9.748040199279783,-0.3034733831882477,-1.306817650794983,-0.4068193435668945,-0.0345643386244773,0.2455809414386749,0.4097135066986084,-0.6076782941818237,-0.443644255399704,-0.5157923102378845
3853228,9.692072868347168,0.4229761660099029,1.7599942684173584,0.2419951856136322,-0.0866861790418624,0.2972930073738098,0.6676331758499146,-0.2973755896091461,-0.5706842541694641,-0.3743704855442047,9.738183975219728,-0.278186023235321,-1.302011251449585,-0.1413692831993103,0.509238064289093,0.494856595993042,0.4097153842449188,-0.6076772809028625,-0.4435612857341766,-0.515863299369812
3853395,9.652112007141112,0.3121707141399383,1.7547626495361328,0.3490819036960602,-0.1422785520553589,0.4712673127651214,0.6676509380340576,-0.2973816394805908,-0.5706772804260254,-0.3743447959423065,9.696621894836426,-0.2710354328155517,-1.2858805656433103,-0.0094254733994603,0.7320813536643982,0.4469480216503143,0.4097442924976349,-0.6076441407203674,-0.4434855282306671,-0.5159447193145752
3853562,9.65145778656006,0.3478362262248993,1.7556495666503906,0.5373480319976807,-0.5171972513198853,0.143078938126564,0.6676161885261536,-0.2973807752132416,-0.5707210898399353,-0.3743405044078827,9.68201732635498,-0.2681209146976471,-1.3034745454788208,0.1302725821733474,0.7260751724243164,0.5601432919502258,0.4098087847232818,-0.6075966954231262,-0.443429559469223,-0.5159975290298462
3853728,9.659536361694336,0.3608251810073852,1.7497739791870115,0.0806607902050018,-0.5686402916908264,0.1670652329921722,0.6675496101379395,-0.2974432408809662,-0.5707362294197083,-0.3743866086006164,9.672521591186523,-0.2557417452335357,-1.303159236907959,0.0309465397149324,0.665590763092041,0.3945956230163574,0.4098345339298248,-0.6075600385665894,-0.4433692097663879,-0.5160719156265259
3853895,9.655999183654783,0.3671477437019348,1.7350040674209597,0.3059501051902771,-0.4833884537220001,0.180780827999115,0.667485237121582,-0.2975037395954132,-0.570742130279541,-0.3744443953037262,9.68242073059082,-0.2575405538082123,-1.3005378246307373,0.0078695015981793,0.4790407121181488,0.3811489343643188,0.4098346829414367,-0.6075462102890015,-0.4433082640171051,-0.5161405205726624
3854062,9.660455703735352,0.3608714938163757,1.7066590785980225,0.3188461065292358,-0.237801119685173,0.316656231880188,0.6674606800079346,-0.2975426614284515,-0.5707281827926636,-0.374478131532669,9.690552711486816,-0.2590962052345276,-1.2841945886611938,-0.0114872958511114,0.3698281645774841,0.437330424785614,0.4098659157752991,-0.6075139045715332,-0.4432912170886993,-0.5161683559417725
3854228,9.66541576385498,0.3646479845046997,1.7208316326141355,0.5568265318870544,-0.0801165327429771,0.26457279920578,0.6674518585205078,-0.2975528240203857,-0.5707105994224548,-0.3745129108428955,9.680689811706545,-0.2384793758392334,-1.2906889915466309,0.0655108764767646,0.392751544713974,0.4973154067993164,0.4099010825157165,-0.6074861288070679,-0.4432635605335235,-0.5161969661712646
3854395,9.67313289642334,0.3857046961784363,1.7220046520233154,0.4119097888469696,0.0012614253209903,0.3094718158245086,0.6674544215202332,-0.2975625097751617,-0.570682168006897,-0.3745436072349548,9.695956230163574,-0.2514538764953613,-1.287055492401123,0.0552401877939701,0.4671051800251007,0.6111252903938293,0.4099102318286896,-0.6074927449226379,-0.4431764185428619,-0.5162568092346191
3854562,9.675110816955566,0.3687320053577423,1.737993836402893,0.2249627411365509,0.2089804112911224,0.2532519698143005,0.6674495339393616,-0.2975950241088867,-0.5706151127815247,-0.3746289014816284,9.698091506958008,-0.248617872595787,-1.285152792930603,-0.0053914729505777,0.3162719905376434,0.5978836417198181,0.4099267721176147,-0.6074924468994141,-0.4431239366531372,-0.5162888169288635
3854728,9.658778190612791,0.3766604661941528,1.732017993927002,0.3838126957416534,0.1711632460355758,0.2277417182922363,0.6674608588218689,-0.2975901663303375,-0.5705726742744446,-0.3746772706508636,9.693499565124512,-0.2354002743959427,-1.2952808141708374,-0.1625638157129287,0.4024779796600342,0.5046213865280151,0.4098895192146301,-0.6075214147567749,-0.4430181384086609,-0.5163751840591431
3854895,9.663999557495115,0.3864950239658355,1.7448995113372805,0.3588915169239044,0.1421824842691421,0.4644414484500885,0.6675060987472534,-0.2975707948207855,-0.5705412030220032,-0.3746600151062011,9.708685874938965,-0.2669604420661926,-1.2896878719329834,-0.2101650238037109,0.3702892065048218,0.7045605182647705,0.4098712205886841,-0.6075589060783386,-0.442906379699707,-0.5164415836334229
3855062,9.655512809753418,0.3656493127346039,1.7557032108306885,0.2313019037246704,0.0839264169335365,0.6353549957275391,0.6675196290016174,-0.2976278066635132,-0.5704761743545532,-0.3746894001960754,9.69720458984375,-0.2489249259233474,-1.2694796323776243,-0.1814787536859512,0.3513741791248321,0.8807117938995361,0.4098856449127197,-0.6075907945632935,-0.4428054392337799,-0.5164791345596313
3855228,9.670637130737305,0.3556037545204162,1.7304980754852295,0.3369158208370209,0.0506555140018463,0.7008082270622253,0.6675326824188232,-0.2976906299591064,-0.5704123973846436,-0.374713271856308,9.690960884094238,-0.2682459652423858,-1.2698447704315186,-0.0803470388054847,0.357713371515274,0.988528609275818,0.4099443554878235,-0.6075994372367859,-0.4427350461483001,-0.5164827108383179
3855395,9.658846855163574,0.3554785549640655,1.7416093349456787,0.0073316344060003,0.2199298441410064,0.4740078151226043,0.6675665974617004,-0.2977055609226227,-0.5703511834144592,-0.3747342228889465,9.685375213623049,-0.2887300550937652,-1.2720884084701538,-0.0704733431339263,0.2594118118286133,0.9175300598144532,0.4099462628364563,-0.6076490879058838,-0.4426235556602478,-0.5165182948112488
3855562,9.651411056518556,0.3636001348495483,1.7452714443206787,0.1242664083838462,0.1480093896389007,0.4850212335586548,0.6675759553909302,-0.2977511584758758,-0.5702829957008362,-0.3747851252555847,9.693902969360352,-0.3016260266304016,-1.2769476175308228,0.1496614068746566,0.2165745794773101,0.941862165927887,0.4099831581115722,-0.6076758503913879,-0.4425492584705353,-0.5165212750434875
3855728,9.655006408691406,0.3555621206760406,1.7492811679840088,0.3518608808517456,0.2413420975208282,0.7543261051177979,0.6676172018051147,-0.2977921962738037,-0.5702061057090759,-0.3747960925102234,9.721956253051758,-0.2994296848773956,-1.2637709379196167,0.4535560607910156,0.239587590098381,0.9990680813789368,0.4100599586963653,-0.6076796650886536,-0.4425006806850433,-0.5164973735809326
3855895,9.649572372436523,0.3491987586021423,1.7362021207809448,0.351297378540039,0.2761369049549103,0.6365459561347961,0.6676533222198486,-0.2978237271308899,-0.5701294541358948,-0.3748232722282409,9.708051681518556,-0.2908564805984497,-1.2654597759246826,0.6990538835525513,0.2093262076377868,0.9122795462608336,0.4101424813270569,-0.6076715588569641,-0.4424715638160705,-0.5164663195610046
3856062,9.655620574951172,0.3660319745540619,1.7747536897659302,0.2822967767715454,0.1369959264993667,0.7013334035873413,0.6676786541938782,-0.2978744208812713,-0.5700598955154419,-0.3748437762260437,9.697342872619627,-0.2678699195384979,-1.2659249305725098,0.7080438733100891,0.3439465463161468,0.9140467643737792,0.4102506041526794,-0.6076387166976929,-0.4424546062946319,-0.5164336562156677
3856228,9.681662559509276,0.3683529198169708,1.7713884115219116,0.2586818337440491,-0.0020618222188204,0.7011412382125854,0.6676978468894958,-0.2979249656200409,-0.5700072646141052,-0.3748494386672973,9.688309669494627,-0.244220495223999,-1.2817065715789795,0.6002272367477417,0.1642606556415558,0.8142597079277039,0.4103062450885772,-0.6076391339302063,-0.442421406507492,-0.516417384147644
3856395,9.640405654907228,0.3579123914241791,1.7142345905303955,0.195444107055664,0.0379900410771369,0.9708300828933716,0.6677480340003967,-0.2979770302772522,-0.5699482560157776,-0.3748083710670471,9.681344032287598,-0.2660573720932007,-1.269140362739563,0.448420763015747,0.1128175556659698,0.7609213590621948,0.4103451073169708,-0.6076446771621704,-0.4423908591270447,-0.5164061784744263
3856562,9.665790557861328,0.3554249405860901,1.738684058189392,0.3434727191925049,0.0792521014809608,0.6675885915756226,0.6677649617195129,-0.2980278730392456,-0.5698851346969604,-0.3748336434364319,9.706778526306152,-0.2745157778263092,-1.2543739080429075,0.3174885809421539,0.1941250413656234,1.009518027305603,0.4104249775409698,-0.607642650604248,-0.4423588216304779,-0.5163725018501282
3856728,9.69467830657959,0.3602314889431,1.766982913017273,0.4967518746852875,0.2317885309457779,0.5978067517280579,0.6678023934364319,-0.2980420291423797,-0.5698224902153015,-0.3748511672019958,9.695147514343262,-0.2907311022281647,-1.268279194831848,0.3198577761650085,0.2193791717290878,1.3077139854431152,0.410567045211792,-0.6076245307922363,-0.4423451423645019,-0.5162926912307739
3856895,9.647637367248535,0.3328757286071777,1.7650054693222046,0.5520368814468384,0.4611886143684387,1.1479548215866089,0.6678780317306519,-0.298103779554367,-0.5697059631347656,-0.3748445808887481,9.693998336791992,-0.3126809298992157,-1.2821683883666992,0.2207110524177551,0.2487953752279281,1.2942034006118774,0.4106367826461792,-0.6076640486717224,-0.442247062921524,-0.5162746906280518
3857062,9.603921890258787,0.3259906768798828,1.7326890230178833,-0.0167250931262969,0.594131350517273,0.8016070127487183,0.6679124236106873,-0.2981978952884674,-0.5695531964302063,-0.374940425157547,9.698155403137209,-0.2786920964717865,-1.2831581830978394,0.3626309633255005,0.1636331230401992,1.0903902053833008,0.4107033014297485,-0.6076835989952087,-0.4421896040439605,-0.5162479877471924
3857228,9.64511013031006,0.3400508165359497,1.7658846378326416,0.3799452185630798,-0.1339544206857681,0.137687474489212,0.6678933501243591,-0.2981983125209808,-0.5695425271987915,-0.3749901950359344,9.724390983581545,-0.2839399576187134,-1.2456713914871216,0.2448381930589676,0.1416318118572235,0.2580799460411072,0.4106925129890442,-0.6076602339744568,-0.4421956837177276,-0.5162788033485413
3857395,9.721808433532717,0.3875214159488678,1.7588393688201904,0.7692453265190125,-0.0096175679937005,0.1995805352926254,0.667898416519165,-0.2981691062450409,-0.5695328116416931,-0.3750191628932953,9.715478897094728,-0.2994537055492401,-1.2516331672668457,0.1165569946169853,0.2484495788812637,0.1394291222095489,0.4107006192207336,-0.6076005101203918,-0.4422354698181152,-0.516308605670929
3857562,9.702825546264648,0.3874711990356445,1.7328547239303589,0.99482923746109,1.069887399673462,0.4073891639709472,0.668014645576477,-0.2980746924877167,-0.56942218542099,-0.3750552833080292,9.708576202392578,-0.2866686880588531,-1.2567757368087769,0.1365925371646881,0.3907345533370971,0.3174822032451629,0.4107234179973602,-0.6075480580329895,-0.4422416388988495,-0.5163468718528748
3857728,9.614506721496582,0.3354567885398865,1.791713833808899,0.8763576745986938,1.277414083480835,1.069515824317932,0.6682215332984924,-0.2979688644409179,-0.5692912340164185,-0.374969482421875,9.662683486938477,-0.2622647285461426,-1.2536966800689695,0.0690966695547103,0.4267012178897857,0.5160511136054993,0.4107251465320587,-0.6075369119644165,-0.44218510389328,-0.5164071321487427
3857895,9.612297058105469,0.2852359414100647,1.7671550512313845,0.9083224534988404,-0.0696025118231773,0.7875328660011292,0.6682582497596741,-0.2979790270328522,-0.5692682862281799,-0.3749309182167053,9.653367042541504,-0.2606671750545501,-1.2662535905838013,0.0392962880432605,0.2579391002655029,0.8779329657554626,0.410755306482315,-0.6075502038002014,-0.4421226382255554,-0.5164210200309753
3858062,9.6820707321167,0.3670378625392914,1.7484239339828491,1.0718209743499756,-0.2548207342624664,0.2863435745239258,0.6682459712028503,-0.2979627847671509,-0.5692826509475708,-0.3749439418315887,9.660367012023926,-0.2758209109306335,-1.2487821578979492,-0.2236372977495193,0.0585314258933067,0.8752052187919617,0.4107480049133301,-0.6075938940048218,-0.4420526027679443,-0.5164351463317871
3858228,9.655789375305176,0.392796128988266,1.731366753578186,0.1016760095953941,0.489285796880722,0.5947460532188416,0.6683041453361511,-0.2979727983474731,-0.569186270236969,-0.3749784827232361,9.69037914276123,-0.3003836870193481,-1.259052038192749,-0.3836269974708557,-0.212431713938713,0.767221987247467,0.4106954634189605,-0.6076650023460388,-0.4419902563095093,-0.5164466500282288
3858395,9.63737678527832,0.3214616775512695,1.7596429586410522,0.4779265522956848,0.5734747052192688,0.7112710475921631,0.6683785915374756,-0.2979711890220642,-0.5690867304801941,-0.3749982714653015,9.70543384552002,-0.328536719083786,-1.245055079460144,-0.2012518048286438,-0.2801133096218109,0.8128511905670166,0.4106550514698028,-0.6077351570129395,-0.4419389963150024,-0.5164401531219482
3858562,9.655713081359863,0.3193580210208893,1.7717788219451904,0.6009699702262878,0.4403015077114105,0.636738121509552,0.6684473156929016,-0.2979523241519928,-0.5690131783485413,-0.3750022053718567,9.716687202453612,-0.345089703798294,-1.2832897901535034,0.037746712565422,-0.1562374532222747,0.7290846705436707,0.4106700420379638,-0.6077481508255005,-0.441944807767868,-0.5164080262184143
3858728,9.672186851501465,0.3513002395629883,1.7777366638183594,0.7143317461013794,0.4539530575275421,0.5771501660346985,0.6684955954551697,-0.2979523241519928,-0.5689281225204468,-0.3750451207160949,9.725549697875977,-0.3283852040767669,-1.2492226362228394,0.3472121655941009,-0.011192750185728,0.617259681224823,0.4106943011283874,-0.6077408790588379,-0.4419524073600769,-0.5163907408714294
3858895,9.674298286437988,0.3571482002735138,1.7952615022659302,0.5019640326499939,0.4668361842632293,0.5637034773826599,0.6685563325881958,-0.2979381084442138,-0.5688480138778687,-0.3750696182250976,9.712360382080078,-0.3108439445495605,-1.2669036388397217,0.5140532851219177,0.0900990739464759,0.3903055191040039,0.4107262790203094,-0.6076980233192444,-0.4419912993907928,-0.5163825154304504
3859062,9.640714645385742,0.3544200360774994,1.805408954620361,0.5960907340049744,0.3316396176815033,0.462456464767456,0.6686093807220459,-0.2979059517383575,-0.5687944293022156,-0.3750820159912109,9.689383506774902,-0.2837470173835754,-1.2814730405807495,0.3704428970813751,0.0341993570327758,0.2168691456317901,0.4107364416122436,-0.607650101184845,-0.4420472383499145,-0.5163829326629639
3859228,9.656719207763672,0.3462421298027038,1.7778037786483765,0.8261696100234985,0.139365091919899,0.5301380753517151,0.6686721444129944,-0.2978489100933075,-0.568778395652771,-0.3750396072864532,9.707582473754885,-0.245792731642723,-1.2658307552337646,0.2368342280387878,0.1433734744787216,0.0783300399780273,0.410696804523468,-0.6076220273971558,-0.4420586824417114,-0.5164377093315125
3859395,9.668947219848633,0.3465911448001861,1.7947182655334473,0.7688612937927246,0.1457554847002029,0.5391281247138977,0.6687050461769104,-0.2978412210941314,-0.5687350630760193,-0.375052809715271,9.700995445251465,-0.2584381997585296,-1.270844578742981,-0.241194799542427,0.212578997015953,0.2136675268411636,0.4106447994709015,-0.6076126098632812,-0.4420366287231445,-0.5165089964866638
3859562,9.668115615844728,0.3656210303306579,1.8191237449646,0.6239446401596069,0.380034863948822,0.400653064250946,0.668761670589447,-0.2977955639362335,-0.5686814188957214,-0.3750696778297424,9.710484504699709,-0.2683373391628265,-1.2762737274169922,-0.4004417359828949,0.294360339641571,0.7464500665664673,0.4106364250183105,-0.6076287627220154,-0.4419678449630737,-0.5165554881095886
3859728,9.653085708618164,0.3241304159164428,1.749059796333313,0.5385262370109558,0.0917254760861396,0.661582350730896,0.6688005924224854,-0.2978017926216125,-0.5686360001564026,-0.3750640749931335,9.69264793395996,-0.245964378118515,-1.2697144746780396,-0.3682081401348114,0.4883637130260467,0.5490530133247375,0.410620242357254,-0.6076223254203796,-0.4418981671333313,-0.516635537147522
3859895,9.646944046020508,0.3147100210189819,1.8098115921020508,0.2506010234355926,0.372709572315216,0.5545469522476196,0.6688514947891235,-0.2978005409240722,-0.5685582756996155,-0.3750919103622436,9.672560691833496,-0.2945006787776947,-1.2698289155960083,-0.4697497487068176,0.5303686261177063,0.329565018415451,0.4105846881866455,-0.6076008081436157,-0.441843181848526,-0.5167361497879028
3860062,9.647123336791992,0.3428831696510315,1.801682472229004,0.509238064289093,-0.1761257201433181,-0.0432342328131198,0.6688405871391296,-0.297747403383255,-0.5685773491859436,-0.3751246035099029,9.684683799743652,-0.3121352791786194,-1.2639856338500977,-0.418165773153305,0.300917237997055,0.3223806917667389,0.4105261862277984,-0.6076029539108276,-0.4417925179004669,-0.5168233513832092
3860228,9.682799339294434,0.408667504787445,1.7793097496032717,0.5751523375511169,0.0669323876500129,0.4716514647006988,0.6688203811645508,-0.2978094816207886,-0.5685049295425415,-0.3752213418483734,9.697830200195312,-0.3127428889274597,-1.2363234758377075,-0.0895163789391517,0.2868558168411255,0.3457906246185303,0.4105026423931122,-0.6075835824012756,-0.4417715072631836,-0.5168827176094055
3860395,9.67055320739746,0.3235209882259369,1.7917405366897583,0.0340200699865818,0.663093626499176,0.785010039806366,0.6689033508300781,-0.297824501991272,-0.56838059425354,-0.3752500712871551,9.69257640838623,-0.2992284297943115,-1.2336090803146362,0.1214618161320686,0.4483054578304291,0.5884069204330444,0.4105306565761566,-0.6075509190559387,-0.441741019487381,-0.5169249176979065
3860562,9.654241561889648,0.3007519841194153,1.797778606414795,1.028868556022644,0.3124301135540008,0.5120426416397095,0.6689786314964294,-0.2977496981620788,-0.568350613117218,-0.3752204775810241,9.695448875427246,-0.2777604460716247,-1.2681732177734375,0.3543965220451355,0.4574876129627228,0.5010932683944702,0.4105653166770935,-0.6075046062469482,-0.4417257905006408,-0.5169649124145508
3860728,9.652780532836914,0.3617333769798279,1.7912578582763672,0.2501528263092041,0.2311738133430481,0.171803593635559,0.6689988970756531,-0.2977212369441986,-0.5683035850524902,-0.3752782344818115,9.673697471618652,-0.2540820240974426,-1.2564178705215454,0.3441258370876312,0.3867197334766388,0.3178215324878692,0.4105719923973083,-0.607459545135498,-0.4417204856872558,-0.5170171856880188
3860895,9.637535095214844,0.3696222901344299,1.766445875167847,0.2734859883785248,0.1054923012852668,0.1488161832094192,0.6689907312393188,-0.2977221310138702,-0.5682567358016968,-0.3753629922866821,9.699922561645508,-0.2495084106922149,-1.2471235990524292,0.0021450638305395,0.2176375240087509,0.2127327024936676,0.4105347692966461,-0.6074355244636536,-0.4417161345481872,-0.5170785188674927
3861062,9.641379356384276,0.3638111352920532,1.7886686325073242,0.3304230272769928,-0.0398661643266677,0.3095102310180664,0.668985903263092,-0.297731876373291,-0.568223774433136,-0.3754138350486755,9.710429191589355,-0.2281298339366912,-1.2687668800354004,-0.3154075443744659,0.089305080473423,0.1651186645030975,0.4104614555835724,-0.6074332594871521,-0.441705048084259,-0.5171489119529724
3861228,9.657955169677734,0.3594696223735809,1.7803361415863037,0.4642750024795532,-0.0203364826738834,0.2914277017116546,0.6689706444740295,-0.297751247882843,-0.5681833028793335,-0.3754866421222687,9.712149620056152,-0.2289060056209564,-1.2250657081604004,-0.611439049243927,0.1726488023996353,0.2675438225269317,0.4103978276252746,-0.607428789138794,-0.4416861832141876,-0.5172207951545715
3861395,9.688522338867188,0.3592588305473327,1.8009604215621948,0.5567240118980408,0.2448766082525253,0.329897940158844,0.6689923405647278,-0.2977361977100372,-0.5681279301643372,-0.3755435347557068,9.725662231445312,-0.2270371168851852,-1.232494592666626,-0.8047637939453125,0.3494788408279419,0.3491202890872955,0.4103199243545532,-0.6074391007423401,-0.441618949174881,-0.5173279047012329
3861562,9.648317337036133,0.3686104118824005,1.8043110370635984,0.099409282207489,0.4038418233394623,0.263292133808136,0.6690157651901245,-0.2977330684661865,-0.5680446028709412,-0.375630646944046,9.710156440734863,-0.2412356734275818,-1.24020516872406,-0.9891752004623412,0.4981990158557892,0.3058348298072815,0.4102211594581604,-0.6074550747871399,-0.4415202140808105,-0.5174717307090759
3861728,9.649168968200684,0.3724333941936493,1.819034218788147,0.0065120290964841,0.2175094336271286,0.1897068470716476,0.6690168976783752,-0.2977409660816192,-0.5679783225059509,-0.3757226467132568,9.706847190856934,-0.2749510109424591,-1.2308727502822876,-1.0433590412139893,0.5450062155723572,0.2752532958984375,0.4101209938526153,-0.6074656248092651,-0.4414214789867401,-0.5176228880882263
3861895,9.65726375579834,0.3874782919883728,1.810076117515564,0.1134066209197044,-0.1325072944164276,0.4449373781681061,0.6690200567245483,-0.2977592945098877,-0.5679507851600647,-0.3757440149784088,9.678462028503418,-0.2795124351978302,-1.2440639734268188,-0.8922312259674072,0.4214377999305725,0.4220268726348877,0.410033106803894,-0.6074885725975037,-0.4413245320320129,-0.5177480578422546
3862062,9.671366691589355,0.3580391705036163,1.815318703651428,-0.0686548426747322,-0.0689365789294242,0.7313001751899719,0.6690191030502319,-0.2978411018848419,-0.5678808689117432,-0.3757866024971008,9.68070125579834,-0.3003338277339935,-1.237944483757019,-0.5892073512077332,0.3628871142864227,0.6540778875350952,0.4099942743778229,-0.6075052618980408,-0.4412440061569214,-0.5178280472755432
3862228,9.653002738952637,0.3213043510913849,1.814084768295288,0.0629368051886558,0.0338407754898071,0.747052013874054,0.6690294742584229,-0.2979112267494201,-0.5678043961524963,-0.375828355550766,9.692859649658203,-0.3045428991317749,-1.236315131187439,-0.1508203744888305,0.3051304817199707,0.9171330332756042,0.4099786877632141,-0.6075437664985657,-0.4411391615867615,-0.5178845524787903
3862395,9.626989364624023,0.3317790627479553,1.8009207248687744,0.1269173175096511,0.0154124405235052,0.7298657894134521,0.6690332293510437,-0.2979852557182312,-0.5677278637886047,-0.3758783936500549,9.701801300048828,-0.3187456429004669,-1.2334542274475098,0.4096943438053131,0.2272935211658477,1.0817972421646118,0.4100439846515655,-0.6075447201728821,-0.4410951137542724,-0.5178691148757935
3862562,9.641172409057615,0.337622582912445,1.8200534582138064,0.3416029512882232,-0.1463125348091125,0.685709536075592,0.6690458059310913,-0.2980203032493591,-0.5676929950714111,-0.3758809268474579,9.686647415161133,-0.3055647611618042,-1.224842548370361,0.8032334446907043,0.2092109322547912,1.0407272577285769,0.4101733565330505,-0.6074925661087036,-0.4411251544952392,-0.5178022384643555
3862728,9.655620574951172,0.3484298884868622,1.8033239841461184,0.2234900146722793,-0.0311450418084859,0.6032110452651978,0.6690499782562256,-0.2980660796165466,-0.5676371455192566,-0.375921368598938,9.679844856262209,-0.2957603931427002,-1.261062741279602,0.9770156741142272,0.1014198958873748,0.8702875375747681,0.4102865755558014,-0.607437014579773,-0.441176027059555,-0.5177342891693115
3862895,9.652387619018556,0.3250593245029449,1.7981022596359253,0.3801628947257995,0.0536137856543064,0.4795145988464355,0.6690878868103027,-0.2980413436889648,-0.5676084160804749,-0.3759171068668365,9.690783500671388,-0.2792609632015228,-1.2278693914413452,0.9673725366592408,-0.0049688639119267,0.8375033736228943,0.4103805422782898,-0.6073955297470093,-0.4412248134613037,-0.5176669955253601
3863062,9.659502029418944,0.3360081017017364,1.81474769115448,0.5930427312850952,-0.1314187496900558,0.64804607629776,0.6691045761108398,-0.2980567216873169,-0.5675821900367737,-0.3759148120880127,9.705406188964844,-0.2381127625703811,-1.2292509078979492,0.9463829398155212,-0.0340008586645126,0.954143524169922,0.4104514420032501,-0.607387900352478,-0.4412309825420379,-0.5176143646240234
3863228,9.65721607208252,0.3556343913078308,1.801119327545166,0.7039458155632019,-0.111325591802597,0.7445675134658813,0.6691529750823975,-0.2980377674102783,-0.5675716996192932,-0.3758591413497925,9.693398475646973,-0.2349793910980224,-1.2268627882003784,0.5517680048942566,0.0764731243252754,0.8873328566551208,0.4105115234851837,-0.6073721051216125,-0.4412337839603424,-0.5175831317901611
3863395,9.657297134399414,0.3602414131164551,1.7929424047470093,0.5562373995780945,0.0248891394585371,0.6680496335029602,0.6691859364509583,-0.2980434894561767,-0.5675305724143982,-0.3758582770824432,9.683874130249023,-0.2231199145317077,-1.240583419799805,0.1300292611122131,-0.1411003619432449,0.9462931752204896,0.4105535447597503,-0.6073768138885498,-0.4412471652030945,-0.5175327658653259
3863562,9.647534370422363,0.3511370718479156,1.816516637802124,0.3884870111942291,-0.3562854528427124,0.5933502316474915,0.6691659092903137,-0.2980951368808746,-0.5675123333930969,-0.3758803606033325,9.697240829467772,-0.2349262833595276,-1.2299516201019287,-0.3723958134651184,-0.3370887339115143,0.7586929798126221,0.410475343465805,-0.6074546575546265,-0.4411942660808563,-0.5175484418869019
3863729,9.650978088378906,0.359108418226242,1.7848278284072876,0.1574476659297943,-0.3874817192554474,0.6353678107261658,0.669160008430481,-0.2981374263763428,-0.5675022602081299,-0.3758725523948669,9.707245826721191,-0.2761420905590057,-1.226540446281433,-0.7033888697624207,-0.460439532995224,0.7034080624580383,0.410380870103836,-0.6075359582901001,-0.4411596059799194,-0.5175575017929077
3863895,9.67287540435791,0.3681848347187042,1.803971290588379,0.0464038103818893,-0.0315036214888095,0.3948645889759063,0.6691523194313049,-0.2981707751750946,-0.5674514174461365,-0.3759366571903229,9.69790267944336,-0.2883724868297577,-1.218551754951477,-0.699252188205719,-0.2098960429430008,0.804847002029419,0.4102973639965057,-0.6076154708862305,-0.4410857558250427,-0.517593264579773
3864062,9.68935489654541,0.3280780613422394,1.8112739324569704,0.5324175953865051,-0.0287246406078338,0.7230912446975708,0.6691847443580627,-0.298181802034378,-0.5674135684967041,-0.3759271502494812,9.702767372131348,-0.3272643387317657,-1.2416815757751465,-0.5373672842979431,-0.2067072987556457,0.9833932518959044,0.4102542996406555,-0.6076857447624207,-0.4410231113433838,-0.5175983309745789
3864229,9.616044044494627,0.3271269500255584,1.8165401220321653,-0.1716050803661346,0.2412523925304412,0.8841951489448547,0.669211745262146,-0.2982688546180725,-0.5672991871833801,-0.3759827315807342,9.688958168029783,-0.3159123063087463,-1.2620470523834229,-0.0745201557874679,-0.2153515666723251,0.9776046872138976,0.4102518558502197,-0.6077278256416321,-0.4409974217414856,-0.517572820186615
3864395,9.595096588134766,0.3148063719272613,1.769446611404419,0.2056763619184494,-0.3974322378635406,0.5776112079620361,0.6692111492156982,-0.2982905209064483,-0.5673010945320129,-0.3759638667106628,9.70192813873291,-0.2904917299747467,-1.2419166564941406,0.1415037512779235,-0.2279914170503616,0.3654740154743194,0.4102013409137726,-0.607735812664032,-0.4410190284252167,-0.5175850987434387
3864562,9.679040908813477,0.3443565666675567,1.8021259307861328,0.4036369025707245,-0.6423665285110474,0.0988970324397087,0.6691626310348511,-0.2982819378376007,-0.5673503875732422,-0.3759826719760895,9.70467472076416,-0.3230640888214111,-1.236938714981079,0.2648673355579376,-0.1882405430078506,-0.1940930485725402,0.4101279973983764,-0.6076921820640564,-0.4411046504974365,-0.5176215171813965
3864729,9.73193359375,0.3634218275547027,1.7926809787750244,0.8969886898994446,-0.3019609153270721,-0.0540812127292156,0.669137716293335,-0.2982200086116791,-0.5673860907554626,-0.3760219216346741,9.708097457885742,-0.3099570274353027,-1.238150954246521,0.3507082760334015,-0.2068225443363189,0.0082536917179822,0.4100818634033203,-0.6076532602310181,-0.4411859214305877,-0.5176345705986023
3864895,9.669575691223145,0.3699295222759247,1.7941439151763916,0.9982230067253112,0.5620643496513367,0.668254554271698,0.6692582964897156,-0.2981148660182953,-0.5673364400863647,-0.375965803861618,9.702733039855955,-0.2711337804794311,-1.2328299283981323,0.453876256942749,-0.0511997900903224,0.5144246816635132,0.4101033508777618,-0.6076199412345886,-0.4412334859371185,-0.5176158547401428
3865062,9.603440284729004,0.2861983478069305,1.847990155220032,0.9550655484199524,0.1338455826044082,0.9761704206466676,0.6693586707115173,-0.2980617582798004,-0.5673133134841919,-0.3758639991283417,9.691771507263184,-0.237112209200859,-1.237083911895752,0.257542073726654,-0.0345003046095371,0.8561492562294006,0.4101346433162689,-0.6076180934906006,-0.4412363767623901,-0.5175907015800476
3865229,9.637118339538574,0.2900387346744537,1.8389045000076292,1.2254972457885742,-0.8600103855133057,0.2166001945734024,0.6693421602249146,-0.2979821264743805,-0.5674297213554382,-0.375780701637268,9.670211791992188,-0.2318335473537445,-1.249877691268921,0.0903039723634719,-0.0716002956032753,0.9058635830879213,0.4101634323596954,-0.6076225638389587,-0.4412381649017334,-0.5175610780715942
3865395,9.668404579162598,0.374653697013855,1.7833044528961182,0.3613759875297546,-0.4361074268817901,0.300776332616806,0.6693029999732971,-0.2980082035064697,-0.5674334764480591,-0.3758243322372436,9.705209732055664,-0.2527926862239837,-1.2466171979904177,-0.3453104197978973,-0.1522930860519409,0.8225774168968201,0.410144567489624,-0.6076515913009644,-0.4412223696708679,-0.5175555944442749
3865562,9.653481483459473,0.3546596169471741,1.784591794013977,0.2840256094932556,-0.0144071439281106,0.4419150948524475,0.66932612657547,-0.29799485206604,-0.5674049258232117,-0.3758367300033569,9.715391159057615,-0.2691673338413238,-1.2523229122161863,-0.5455760955810547,-0.0921288728713989,0.6869261860847473,0.4100724756717682,-0.6077028512954712,-0.4411667883396148,-0.517599880695343
3865729,9.625977516174316,0.3247767090797424,1.8217347860336304,0.5572106838226318,-0.1278201937675476,0.544762909412384,0.6693576574325562,-0.2979688644409179,-0.5673983097076416,-0.3758112788200378,9.707834243774414,-0.2828743755817413,-1.2692227363586426,-0.5551040768623352,0.0521538630127906,0.7109380960464478,0.4100391864776611,-0.6077210903167725,-0.4411338567733764,-0.5176330208778381
3865895,9.65166473388672,0.3467991352081299,1.820475459098816,0.2988809645175934,-0.0003841904981527,0.5957449674606323,0.669366717338562,-0.2980021834373474,-0.5673429369926453,-0.3758523464202881,9.718503952026367,-0.3098104000091553,-1.2631735801696775,-0.2619411051273346,0.1700875461101532,0.7350268959999084,0.4100032746791839,-0.6077461242675781,-0.4410694539546966,-0.5176869630813599
3866062,9.677996635437012,0.351419597864151,1.7984389066696167,0.3054634630680084,-0.2019305229187011,0.609588623046875,0.6693733334541321,-0.2980273067951202,-0.5673173666000366,-0.3758593201637268,9.697264671325684,-0.3247082829475403,-1.2642626762390137,0.0583521276712417,0.2144871354103088,0.8914051055908203,0.4100215435028076,-0.6077491641044617,-0.4410264194011688,-0.5177057385444641
3866229,9.662250518798828,0.3437021374702453,1.8166275024414065,0.2820278406143188,-0.2450751215219497,0.5084568858146667,0.6693785190582275,-0.2980352342128753,-0.5673062801361084,-0.3758605420589447,9.6861572265625,-0.2987420558929443,-1.2476993799209597,0.1807040125131607,0.109808050096035,0.754723072052002,0.4100267291069031,-0.6077499389648438,-0.441002607345581,-0.5177208781242371
3866395,9.642084121704102,0.342969000339508,1.7959104776382446,0.2452223896980285,-0.2473930567502975,0.4737133383750915,0.669358491897583,-0.298076182603836,-0.5672774314880371,-0.3759071230888366,9.686967849731444,-0.2737622261047363,-1.2669318914413452,0.3713392913341522,-0.044117871671915,0.6954039931297302,0.4100587666034698,-0.607726514339447,-0.4410367310047149,-0.5176938772201538
3866562,9.665335655212402,0.3263607919216156,1.7741317749023438,0.4310425519943237,-0.3482302725315094,0.5322511196136475,0.6693574786186218,-0.2980853021144867,-0.5672789812088013,-0.3758996129035949,9.707865715026855,-0.2684229612350464,-1.2537072896957395,0.3422176539897918,-0.0040596132166683,0.6023658514022827,0.410077303647995,-0.6077013611793518,-0.4410668313503265,-0.5176830887794495
3866729,9.668816566467283,0.3259428143501282,1.7984315156936646,0.4335013329982757,-0.0807568356394767,0.4843425452709198,0.6693822741508484,-0.2980659008026123,-0.5672619342803955,-0.3758963048458099,9.696017265319824,-0.2772812247276306,-1.2623225450515747,0.2899037301540375,0.1933822780847549,0.645408034324646,0.4101138412952423,-0.6076610684394836,-0.441086083650589,-0.5176849365234375
3866895,9.668397903442385,0.3471174836158752,1.8294262886047363,0.4235764145851135,-0.0057116318494081,0.4035472869873047,0.6694064140319824,-0.2980397641658783,-0.567238986492157,-0.3759087026119232,9.692516326904297,-0.2929432094097137,-1.253252625465393,0.1999647468328476,0.2346059083938598,1.008570432662964,0.4101587533950805,-0.6076576113700867,-0.4410483837127685,-0.5176854729652405
3867062,9.644450187683104,0.334525316953659,1.778212070465088,0.3072563409805298,-0.3436327576637268,0.6555377840995789,0.6694189310073853,-0.2980526983737945,-0.5672376155853271,-0.3758781254291534,9.697392463684082,-0.2633158564567566,-1.27085280418396,0.2734091877937317,0.2796586751937866,0.8036177158355713,0.4102067947387695,-0.6076250076293945,-0.4410431981086731,-0.5176900625228882
3867229,9.646099090576172,0.3144022524356842,1.8010355234146118,0.3077429831027984,0.063577115535736,0.7230656743049622,0.6694732904434204,-0.2980420589447021,-0.5671975016593933,-0.3758504092693329,9.722684860229492,-0.2733116447925567,-1.258785605430603,0.0278730224817991,0.1822023391723632,0.626979649066925,0.4101856648921966,-0.6076263785362244,-0.4410083889961242,-0.5177350044250488
3867395,9.638726234436035,0.3356123864650726,1.7878997325897217,0.3871167600154876,-0.1516527980566024,0.0597608350217342,0.6694536209106445,-0.2980158030986786,-0.567192554473877,-0.3759135603904724,9.73068141937256,-0.2864184379577636,-1.2394919395446775,-0.1831564307212829,0.2608973681926727,0.6123420596122742,0.4101860821247101,-0.607602596282959,-0.4409977793693542,-0.5177715420722961
3867562,9.687337875366213,0.4044833481311798,1.7858184576034546,0.4713313579559326,0.0114552807062864,0.362054705619812,0.6694636344909668,-0.2980029582977295,-0.5671601891517639,-0.3759545981884002,9.725526809692385,-0.2923668920993805,-1.231683373451233,-0.2399525493383407,0.5036801695823669,0.675349235534668,0.4101629257202148,-0.6076004505157471,-0.4409171938896179,-0.5178611278533936
3867729,9.65241527557373,0.3236386775970459,1.7997816801071167,0.0641534030437469,0.3403223156929016,0.7860345244407654,0.6695194244384766,-0.2980263531208038,-0.567066490650177,-0.375978410243988,9.70732593536377,-0.2900952100753784,-1.2410978078842163,-0.1894059032201767,0.67084139585495,0.8862825632095337,0.4101856350898742,-0.6075835824012756,-0.4408294558525085,-0.5179375410079956
3867895,9.65133571624756,0.2997326552867889,1.844825863838196,0.6687155365943909,0.1100257635116577,0.4299027323722839,0.6695666313171387,-0.2979685068130493,-0.567046582698822,-0.3759703338146209,9.709405899047852,-0.3043194115161896,-1.2365777492523191,-0.0039955810643732,0.7884548902511597,0.977937638759613,0.4102618992328644,-0.6075335144996643,-0.4407672882080078,-0.5179887413978577
3868062,9.642130851745604,0.3552926182746887,1.8296127319335935,-0.0234356205910444,-0.1133105754852294,0.4409162104129791,0.6695609092712402,-0.2979991436004638,-0.5670053958892822,-0.3760183751583099,9.668442726135254,-0.2995038628578186,-1.2362322807312012,0.111652173101902,0.7306855916976929,0.7286621332168579,0.4103182256221771,-0.6074711084365845,-0.4407306015491485,-0.5180485248565674
3868229,9.623821258544922,0.3390709459781647,1.8255395889282229,-0.1171012595295906,-0.1481822580099105,0.3309608697891235,0.6695299744606018,-0.2980497181415558,-0.566957414150238,-0.3761056065559387,9.673952102661133,-0.3065882623195648,-1.2397065162658691,0.184084877371788,0.4554130136966705,0.613545835018158,0.4103531241416931,-0.6074196696281433,-0.4407232403755188,-0.5180875658988953
3868395,9.632872581481934,0.3148994445800781,1.8139740228652956,-0.0254206042736768,-0.2083849161863327,0.4042772352695465,0.6695153713226318,-0.2980811595916748,-0.5669274926185608,-0.3761519491672516,9.68569278717041,-0.2984237670898437,-1.2226086854934692,0.3092669546604156,0.2793897092342376,0.4799627363681793,0.4104032218456268,-0.6073436737060547,-0.4407782256603241,-0.5180903673171997
3868562,9.659013748168944,0.3427653610706329,1.7897734642028809,0.283577412366867,-0.2528101503849029,0.3233154714107513,0.6694945096969604,-0.2980952560901642,-0.5669129490852356,-0.3761995732784271,9.670479774475098,-0.2976298630237579,-1.2251120805740356,0.3444203436374664,0.1702412068843841,0.519342303276062,0.4104215204715729,-0.6073020100593567,-0.4408028423786163,-0.5181036591529846
3868729,9.65996551513672,0.3478469550609588,1.7943406105041504,0.5796729922294617,-0.1765611320734024,0.3981173634529114,0.6695091128349304,-0.298064112663269,-0.5669139623641968,-0.3761967420578003,9.681877136230469,-0.2718203663825989,-1.2304620742797852,0.3457266390323639,-0.0733547806739807,0.6646687984466553,0.4104675352573395,-0.6072608828544617,-0.440867155790329,-0.5180606842041016
3868895,9.65811252593994,0.3312926888465881,1.7922985553741455,0.4240118861198425,-0.0503801815211772,0.3272855281829834,0.669506847858429,-0.2980598509311676,-0.5668842196464539,-0.376248836517334,9.707289695739746,-0.2504418194293976,-1.2156492471694946,0.2514975070953369,-0.1541372239589691,0.5977299809455872,0.4104509055614471,-0.6072633266448975,-0.4408843219280243,-0.518056333065033
3869062,9.65035915374756,0.3362779319286346,1.7975198030471802,0.2243864387273788,0.0549968667328357,0.1402743458747863,0.66949063539505,-0.2980593144893646,-0.5668385624885559,-0.3763467967510223,9.706205368041992,-0.2627904415130615,-1.2269788980484009,-0.0166738647967576,-0.2187708616256714,0.5849363803863525,0.4104274213314056,-0.6072674989700317,-0.4409120082855224,-0.5180466175079346
3869229,9.65291690826416,0.3577423095703125,1.7926204204559326,0.4567704498767853,-0.1488738059997558,0.2339912056922912,0.6694780588150024,-0.2980473041534424,-0.5668256282806396,-0.3763983249664306,9.719579696655272,-0.2790172398090362,-1.2177739143371582,-0.2795242369174957,-0.2477516680955886,0.7709998488426208,0.410390168428421,-0.6073030233383179,-0.4409027099609375,-0.5180421471595764
3869395,9.653982162475586,0.356465607881546,1.8321374654769895,0.1681793630123138,-0.1413564831018448,0.4336805939674377,0.669482946395874,-0.2980516254901886,-0.5668025016784668,-0.3764211237430572,9.71527862548828,-0.3161852955818176,-1.212795615196228,-0.2254429906606674,-0.173692524433136,0.8515647053718567,0.4103705883026123,-0.607333242893219,-0.4408883154392242,-0.5180345177650452
3869562,9.635403633117676,0.3204245865345001,1.818651556968689,0.1032896116375923,-0.0629432052373886,0.4040979444980621,0.6694733500480652,-0.2980799376964569,-0.5667561292648315,-0.376485675573349,9.701093673706056,-0.3261667191982269,-1.2187482118606567,-0.1234403997659683,-0.0009860888822004,0.8844384551048279,0.4103629291057586,-0.6073551774024963,-0.4408558011054992,-0.5180425047874451
3869729,9.616839408874512,0.3115520179271698,1.8344513177871704,-0.0413517020642757,-0.3719092309474945,0.2822327613830566,0.6694300174713135,-0.2981222867965698,-0.5667409896850586,-0.3765519559383392,9.661606788635254,-0.3437736630439758,-1.2158889770507812,0.1251116245985031,-0.1368358433246612,0.7436582446098328,0.4103495180606842,-0.6073704957962036,-0.4408526122570038,-0.5180378556251526
3869895,9.636948585510254,0.3340928554534912,1.835288166999817,-0.1046791151165962,-0.7702122926712036,0.1011637598276138,0.6693627238273621,-0.2981458008289337,-0.5667858123779297,-0.3765853345394134,9.663787841796877,-0.335140585899353,-1.2265321016311646,0.2773534953594208,-0.3359233438968658,0.5226078629493713,0.4103339612483978,-0.6073665618896484,-0.4409076273441314,-0.5180081129074097
3870062,9.648529052734377,0.3190155625343323,1.8199390172958372,-0.136310800909996,-0.7868221402168274,-0.0073124263435602,0.6692570447921753,-0.2982084453105926,-0.5668112635612488,-0.3766853213310241,9.66989517211914,-0.320745587348938,-1.2417224645614624,0.5375785827636719,-0.6314683556556702,0.3769229352474212,0.4103272557258606,-0.6073472499847412,-0.4410310387611389,-0.5179310441017151
3870229,9.65566349029541,0.2992606163024902,1.816523790359497,0.0797131210565567,-0.7015190124511719,0.0621556155383586,0.6691820621490479,-0.2982357442378998,-0.5668453574180603,-0.3767455816268921,9.69278049468994,-0.3136775493621826,-1.2416672706604004,0.5604378581047058,-0.8405703902244568,0.2670955955982208,0.4103034734725952,-0.6073325276374817,-0.4411821663379669,-0.5178384780883789
3870395,9.629216194152832,0.3066723346710205,1.8165621757507324,0.5360161066055298,-0.6459010243415833,0.1043525412678718,0.6691643595695496,-0.298174500465393,-0.5669213533401489,-0.3767111897468567,9.699949264526367,-0.3038033545017242,-1.22021222114563,0.5822726488113403,-0.8162896037101746,0.2254365533590316,0.4102707505226135,-0.6073201894760132,-0.4413252472877502,-0.5177567601203918
3870562,9.644193649291992,0.3258378803730011,1.820124864578247,0.600508987903595,-0.6401509642601013,0.151108518242836,0.66911780834198,-0.2981614172458648,-0.566970705986023,-0.3767299056053161,9.70424747467041,-0.2634188532829284,-1.245400071144104,0.3805726766586303,-0.8384572863578796,0.3337654769420624,0.4102218747138977,-0.607332706451416,-0.4414390325546264,-0.5176838040351868
3870729,9.648630142211914,0.341678112745285,1.7932891845703125,0.7335541844367981,-0.6544044613838196,0.055624384433031,0.6690825819969177,-0.2981109023094177,-0.5670421123504639,-0.3767250478267669,9.713261604309082,-0.2534636855125427,-1.2285773754119873,0.1318605840206146,-0.744240939617157,0.3338935077190399,0.4101185202598572,-0.6073843240737915,-0.4414847195148468,-0.517666220664978
3870895,9.647746086120604,0.3431775271892547,1.7876752614974976,0.5711055397987366,-0.6165745258331299,0.0299476478248834,0.6690274477005005,-0.298093169927597,-0.567090630531311,-0.3767638206481933,9.704099655151367,-0.257805198431015,-1.2513864040374756,-0.1892138123512268,-0.7730680704116821,0.2533415853977203,0.4100089371204376,-0.6074268221855164,-0.4415503144264221,-0.5176473259925842
3871062,9.650543212890623,0.3512488007545471,1.7905412912368774,0.5298691391944885,-0.7389007806777954,0.1333076804876327,0.6689872145652771,-0.2980636060237884,-0.5671611428260803,-0.376752644777298,9.677972793579102,-0.2542682886123657,-1.239014744758606,-0.470479667186737,-0.7367236614227295,0.1962637156248092,0.409879982471466,-0.6074730753898621,-0.4416069388389587,-0.5176469087600708
3871229,9.635294914245604,0.3790678381919861,1.80964469909668,0.4129471182823181,-0.8070561289787292,0.0251580737531185,0.668919026851654,-0.2980564832687378,-0.567227840423584,-0.3767789900302887,9.687017440795898,-0.2447103261947631,-1.2697901725769043,-0.758635401725769,-0.9231841564178468,0.0925450921058654,0.4097012877464294,-0.607547402381897,-0.4416568875312805,-0.517658531665802
3871395,9.636317253112791,0.358810156583786,1.778366208076477,0.2991371154785156,-0.9166272878646852,0.0424850657582283,0.6688536405563354,-0.2980441451072693,-0.5673108696937561,-0.3767799139022827,9.70107078552246,-0.2638826072216034,-1.257028102874756,-0.8424273729324341,-1.0241621732711792,-0.0865709260106086,0.4095211625099182,-0.60760098695755,-0.4417528808116913,-0.517656147480011
3871562,9.666098594665527,0.3670654892921448,1.7490335702896118,0.1678720414638519,-0.7625924944877625,-0.0401094853878021,0.6687697172164917,-0.2980602383613586,-0.567358672618866,-0.3768438398838043,9.713553428649902,-0.2797104716300964,-1.2540996074676514,-0.748390257358551,-0.854542076587677,0.0647040754556655,0.4093695282936096,-0.6076472997665405,-0.4418307244777679,-0.5176553726196289
3871729,9.703656196594238,0.3511370718479156,1.7815055847167969,0.2976003587245941,-0.4300756156444549,-0.1384110301733017,0.6687202453613281,-0.2980272769927978,-0.5673913359642029,-0.3769087791442871,9.705039024353027,-0.276056557893753,-1.2780903577804563,-0.7034527659416199,-0.7284891605377197,0.2847811877727508,0.4092151820659637,-0.6077216267585754,-0.4418482184410095,-0.5176751017570496
3871895,9.634836196899414,0.3341754674911499,1.7879623174667358,0.8305878043174744,-0.3407769501209259,0.4600872993469238,0.6687318682670593,-0.2979899942874908,-0.5674170255661011,-0.3768789768218994,9.720526695251465,-0.3000009655952453,-1.2805391550064087,-0.4766523838043213,-0.5561925768852234,0.4335909783840179,0.4090982675552368,-0.6077831387519836,-0.4418539106845855,-0.5176904797554016
3872062,9.60288906097412,0.3421822488307953,1.7515655755996704,-0.1970640867948532,-0.2826745212078094,0.2151274234056472,0.6686953902244568,-0.2980213761329651,-0.5673955678939819,-0.3769509196281433,9.712160110473633,-0.2446411848068237,-1.2740453481674194,-0.1588499695062637,-0.6423024535179138,0.2357712984085083,0.4090248048305511,-0.6077894568443298,-0.4419481754302978,-0.5176606774330139
3872229,9.638678550720217,0.3526008427143097,1.7718853950500488,0.8808783292770386,-0.8893240690231323,-0.054567851126194,0.6686424612998962,-0.2979566752910614,-0.5675053596496582,-0.376930832862854,9.724444389343262,-0.2492723762989044,-1.2839871644973757,-0.185692086815834,-0.4484399557113647,-0.403694599866867,0.4089177548885345,-0.6077380180358887,-0.4420904815196991,-0.5176841020584106
3872395,9.718859672546388,0.3780368566513061,1.805232048034668,0.8632568717002869,-0.5974546074867249,-0.4171028137207031,0.6685832738876343,-0.2978619039058685,-0.5675941109657288,-0.3769772946834564,9.709495544433594,-0.2702682912349701,-1.285296082496643,-0.219987466931343,-0.3509451746940613,-0.2689333260059356,0.4087882041931152,-0.607719361782074,-0.4421714842319488,-0.5177391767501831
3872562,9.716187477111816,0.3972069025039673,1.7693341970443726,1.0666985511779783,0.0652803778648376,0.0517184436321258,0.6686092019081116,-0.2977550029754638,-0.5676063299179077,-0.3769971132278442,9.718353271484377,-0.2551584541797638,-1.2541974782943726,-0.0738542154431343,-0.0942163094878196,0.0944532305002212,0.4087217450141907,-0.6076900959014893,-0.4422246515750885,-0.5177804827690125
3872729,9.629180908203123,0.3398838341236114,1.8121510744094849,0.9310024976730348,0.379765897989273,0.9886438250541688,0.668695867061615,-0.2977369427680969,-0.5675318241119385,-0.3769698143005371,9.70224380493164,-0.226484790444374,-1.281773567199707,0.0526148863136768,0.1562694907188415,0.4705245196819305,0.4087091386318207,-0.6076606512069702,-0.4422362446784973,-0.5178150534629822
3872895,9.611248970031738,0.2931148409843445,1.809342741966248,1.0852934122085571,-0.4774463474750519,0.4479341208934784,0.6687180399894714,-0.2976635992527008,-0.5675952434539795,-0.3768929839134216,9.68741226196289,-0.221653327345848,-1.2738558053970337,-0.0800909027457237,0.1524980068206787,0.6163311004638672,0.4087105095386505,-0.6076356172561646,-0.4422437846660614,-0.5178368091583252
3873062,9.672602653503418,0.3818132877349853,1.7620450258255005,0.6952247023582458,-0.7641036510467529,0.0939025580883026,0.6686784625053406,-0.297617495059967,-0.5676787495613098,-0.3768738210201263,9.692326545715332,-0.2372277081012725,-1.270715832710266,-0.047857329249382,0.2894811034202575,0.6606603264808655,0.408734530210495,-0.6075950860977173,-0.4422501027584076,-0.5178602337837219
3873229,9.66801929473877,0.414307177066803,1.7668251991271973,0.2817460894584656,-0.2235604524612426,0.4647488594055176,0.6686770915985107,-0.2976254820823669,-0.5676642656326294,-0.3768917620182037,9.690853118896484,-0.2476201653480529,-1.2936965227127075,-0.0836126506328582,0.3453552424907684,0.6196544170379639,0.4087206721305847,-0.6075788140296936,-0.4422137141227722,-0.5179213881492615
3873395,9.63589859008789,0.3541052639484405,1.767319679260254,0.7168163061141968,-0.0556692071259021,0.6398628950119019,0.6687172651290894,-0.2975966930389404,-0.567649781703949,-0.37686488032341,9.701104164123535,-0.2589341104030609,-1.2756725549697876,-0.1141942292451858,0.3935583233833313,0.7619713544845581,0.4087346196174621,-0.6075559854507446,-0.4421792328357696,-0.517966628074646
3873562,9.638101577758787,0.343432068824768,1.7997545003890991,0.5557891726493835,-0.170554980635643,0.7639180421829224,0.6687481999397278,-0.2975996434688568,-0.5676326751708984,-0.3768334686756134,9.715813636779783,-0.2704682052135467,-1.2701032161712646,0.1003441587090492,0.445552110671997,1.018584966659546,0.4087910056114197,-0.6075319051742554,-0.4421364665031433,-0.5179866552352905
3873729,9.665696144104004,0.3585268855094909,1.7805211544036863,0.5579149723052979,-0.2302581667900085,0.8137730956077576,0.6687917113304138,-0.2975880801677704,-0.5676307678222656,-0.3767681419849396,9.701708793640137,-0.2675354182720184,-1.2651821374893188,0.2595270872116089,0.4928843975067138,1.065148949623108,0.4088736176490783,-0.6074932217597961,-0.4421053528785705,-0.5179936289787292
3873895,9.678211212158203,0.3526793122291565,1.7766025066375732,0.5064334869384766,-0.0923465937376022,0.7899789214134216,0.6688212156295776,-0.2976044118404388,-0.5675965547561646,-0.3767546415328979,9.704475402832031,-0.279313713312149,-1.273809790611267,0.4364212155342102,0.3894731402397156,1.1362497806549072,0.4089741110801697,-0.6074533462524414,-0.4420914649963379,-0.5179728865623474
3874062,9.681791305541992,0.3564585149288177,1.783010721206665,0.3474811017513275,-0.0632121413946151,0.6973633766174316,0.6688389778137207,-0.2976299524307251,-0.5675532817840576,-0.3767681717872619,9.681267738342283,-0.2755103707313537,-1.280444622039795,0.5333523750305176,0.2254621684551239,1.2053143978118896,0.4090860784053802,-0.607417643070221,-0.4420981705188751,-0.5179205536842346
3874229,9.667102813720703,0.3465149700641632,1.774669885635376,0.4368309676647186,-0.267178863286972,0.7846641540527344,0.6688530445098877,-0.2976582646369934,-0.5675346851348877,-0.3767484724521637,9.694355964660645,-0.264163076877594,-1.2720882892608645,0.5763946175575256,0.0623861290514469,1.144189715385437,0.4091778397560119,-0.6073950529098511,-0.4421130716800689,-0.5178617238998413
3874395,9.668512344360352,0.3569028973579407,1.7748035192489624,0.6604170203208923,-0.0993004292249679,0.9310665130615234,0.668894350528717,-0.2976743280887604,-0.5675023794174194,-0.3767114579677582,9.70224666595459,-0.2526549696922302,-1.241402506828308,0.4644158780574798,0.0096367793157696,1.157559514045715,0.4092503190040588,-0.6073898673057556,-0.4421136081218719,-0.517810046672821
3874562,9.663333892822266,0.3585973083972931,1.7809641361236572,0.5236452221870422,-0.0745585560798645,0.772818386554718,0.6689403653144836,-0.2976633906364441,-0.5674808621406555,-0.376670777797699,9.69698429107666,-0.2808411121368408,-1.2568421363830566,0.3038370609283447,0.1036097854375839,1.199526071548462,0.4093275368213653,-0.6073815822601318,-0.4421042203903198,-0.5177669525146484
3874729,9.646326065063477,0.3604857921600342,1.813887476921081,0.2691958546638489,-0.0583713389933109,0.822878360748291,0.6689744591712952,-0.2976877987384796,-0.5674378275871277,-0.3766558170318603,9.678662300109863,-0.258901983499527,-1.2957183122634888,0.3908818364143371,0.0948630347847938,1.3707726001739502,0.4094313979148865,-0.6073739528656006,-0.4420945644378662,-0.5177018046379089
3874895,9.633648872375488,0.3211134970188141,1.745598077774048,0.475634217262268,-0.208397701382637,1.0256284475326538,0.6690292954444885,-0.2976973950862884,-0.5674223303794861,-0.376574158668518,9.70557689666748,-0.2690117955207824,-1.2793995141983032,0.2000671774148941,0.1169027611613273,1.070002555847168,0.409471720457077,-0.6073781251907349,-0.4420665204524994,-0.5176889300346375
3875062,9.639727592468262,0.3291434049606323,1.7939794063568115,0.284992516040802,0.1309193074703216,0.7302564382553101,0.6690755486488342,-0.2977005541324615,-0.5673668384552002,-0.3765731155872345,9.728768348693848,-0.2890833914279938,-1.2590546607971191,0.068008117377758,0.2118106186389923,0.981164813041687,0.4095222651958465,-0.6073583364486694,-0.4420571327209472,-0.5176802277565002
3875229,9.656006813049316,0.372429609298706,1.812379002571106,0.5131312012672424,-0.1095198839902877,0.1986456960439682,0.6690816879272461,-0.2976528704166412,-0.5673691630363464,-0.376596450805664,9.741466522216797,-0.2849977016448974,-1.2658354043960571,-0.1025404408574104,0.3067184388637543,0.9920758008956908,0.409560352563858,-0.6073461771011353,-0.4420230090618133,-0.5176936984062195
3875395,9.66193389892578,0.3857737183570862,1.801280856132507,0.197467491030693,0.1727640479803085,1.0375384092330933,0.6691383123397827,-0.2976967096328735,-0.567286491394043,-0.3765856623649597,9.711812019348145,-0.292366474866867,-1.2580736875534058,-0.0221293698996305,0.5297794342041016,0.9542202353477478,0.4096066653728485,-0.6073184609413147,-0.4419731199741363,-0.5177320837974548
3875562,9.653570175170898,0.2779191136360168,1.785016417503357,0.2832316160202026,0.1810881793498993,0.8082151412963867,0.6691907644271851,-0.297706663608551,-0.56722092628479,-0.3765832781791687,9.70665168762207,-0.3027107715606689,-1.2581636905670166,0.0265411585569381,0.592043936252594,1.1577773094177246,0.4096924960613251,-0.607282817363739,-0.4419237971305847,-0.5177481174468994
3875729,9.65298080444336,0.3231818675994873,1.8622705936431885,0.4128447473049164,-0.0043029338121414,0.6818037629127502,0.6692250967025757,-0.2977061569690704,-0.5671848058700562,-0.3765769898891449,9.693451881408691,-0.3086239993572235,-1.2534536123275757,0.1632617563009262,0.8209319114685059,0.9716882109642028,0.4097868204116821,-0.6072137355804443,-0.4418821036815643,-0.5177899599075317
3875895,9.63596534729004,0.3521276712417602,1.8219882249832156,-0.1067537367343902,-0.2611086666584015,0.663106381893158,0.6692204475402832,-0.2977606952190399,-0.5671499371528625,-0.3765946924686432,9.690324783325195,-0.3120735585689544,-1.2290852069854736,0.2179192453622818,0.7365764379501343,0.7923225164413452,0.4098650217056274,-0.6071382164955139,-0.4418625831604004,-0.5178332328796387
3876062,9.65744972229004,0.32696533203125,1.7900992631912231,0.1081176102161407,-0.1870495676994323,0.5211352109909058,0.6692196130752563,-0.2977840006351471,-0.5671226978302002,-0.3766185939311981,9.669037818908691,-0.2998006045818329,-1.2537717819213867,0.1867613941431045,0.6038898229598999,0.5384494066238403,0.4099219441413879,-0.6070505976676941,-0.4418815970420837,-0.5178748369216919
3876229,9.64466667175293,0.3321045041084289,1.7836440801620483,0.2586818337440491,-0.2235732227563858,0.5019384622573853,0.6692404747009277,-0.2977651953697204,-0.5671230554580688,-0.3765960335731506,9.67104434967041,-0.2896406054496765,-1.2393202781677246,0.2974722683429718,0.405199259519577,0.4952023327350616,0.4099641740322113,-0.6069756746292114,-0.4419146180152893,-0.5179009437561035
3876395,9.630901336669922,0.345164805650711,1.774624943733215,0.3314218819141388,-0.3618433773517608,0.4456929266452789,0.6692296862602234,-0.297772079706192,-0.567127525806427,-0.3766031563282013,9.686859130859377,-0.2784864604473114,-1.231088161468506,0.1591253131628036,0.1688965409994125,0.4780674576759338,0.4099619388580322,-0.6069389581680298,-0.4419347643852234,-0.5179286003112793
3876562,9.655506134033203,0.3345935344696045,1.8150503635406492,0.5039618611335754,-0.3159326314926147,0.5491426587104797,0.6692278385162354,-0.2977796196937561,-0.5671265125274658,-0.3766018450260162,9.68825912475586,-0.2675682604312897,-1.2314060926437378,0.0512830279767513,0.0895612016320228,0.5209046602249146,0.4099685251712799,-0.6069003939628601,-0.4419707953929901,-0.5179377794265747
3876729,9.651768684387209,0.3343396186828613,1.7950092554092407,0.4082984030246734,0.0329571403563022,0.3413724601268768,0.669257640838623,-0.2977333664894104,-0.5671095252037048,-0.3766111433506012,9.706262588500977,-0.2574619054794311,-1.2397780418395996,-0.2334597706794738,-0.0012806351296603,0.5217499136924744,0.4099442958831787,-0.6068859100341797,-0.441990315914154,-0.517957329750061
3876895,9.63381290435791,0.3359594941139221,1.810869812965393,0.3073844015598297,-0.077004574239254,0.1767340302467346,0.6692575812339783,-0.2977001965045929,-0.5670991539955139,-0.3766531348228454,9.680471420288086,-0.2752356827259063,-1.241004228591919,-0.3460531830787658,-0.0388672687113285,0.5338518619537354,0.4098855853080749,-0.6069005727767944,-0.4419766962528229,-0.5179982781410217
3877062,9.66207504272461,0.3610506355762481,1.800491213798523,0.3614144027233124,-0.2135714739561081,0.3142998218536377,0.6692409515380859,-0.2977029681205749,-0.5670871138572693,-0.3766986131668091,9.67286491394043,-0.2850310802459717,-1.2393090724945068,-0.5711632370948792,-0.152715727686882,0.5820934176445007,0.4098163843154907,-0.6069292426109314,-0.4419639110565185,-0.5180303454399109
3877229,9.669907569885254,0.3407374620437622,1.796876072883606,0.1925626695156097,-0.2351117581129074,0.5975378155708313,0.6692526340484619,-0.2977144122123718,-0.5670728087425232,-0.3766903877258301,9.69058895111084,-0.2914960980415344,-1.244925856590271,-0.4467495381832123,-0.270201176404953,0.692381739616394,0.4097664952278137,-0.6069602966308594,-0.4419660568237304,-0.5180315375328064
3877395,9.649066925048828,0.3322331011295318,1.806224584579468,0.1929980814456939,-0.1255534440279007,0.4687316119670868,0.6692467927932739,-0.2977377772331238,-0.5670382976531982,-0.3767339587211609,9.68517780303955,-0.3172060251235962,-1.256650686264038,-0.3270101547241211,-0.2849540710449219,0.6334084272384644,0.4097241759300232,-0.6069796085357666,-0.4419861137866974,-0.518025279045105
3877562,9.64488124847412,0.3261680006980896,1.8012783527374268,0.2136291116476059,-0.2484303712844848,0.2983687222003937,0.6692357063293457,-0.2977324724197387,-0.5670346021652222,-0.3767634630203247,9.68796730041504,-0.3212650120258331,-1.2506319284439087,-0.1052297726273536,-0.3281242847442627,0.5571722388267517,0.4096865355968475,-0.6069895625114441,-0.442024677991867,-0.5180104970932007
3877729,9.644280433654783,0.3277593851089477,1.7793598175048828,0.2428788095712661,-0.203966736793518,0.2896091639995575,0.669241189956665,-0.2977034747600555,-0.5670379400253296,-0.3767717182636261,9.702943801879885,-0.2973294556140899,-1.2479676008224487,0.0921352729201316,-0.3386639058589935,0.5625381469726562,0.4096423983573913,-0.6070088744163513,-0.4420507848262787,-0.5180004239082336
3877895,9.642165184020996,0.3418315649032593,1.7943086624145508,0.2839359939098358,-0.2107925117015838,0.395184725522995,0.669240415096283,-0.297698974609375,-0.5670293569564819,-0.3767894804477691,9.70389175415039,-0.2886178195476532,-1.2358049154281616,0.3104835450649261,-0.3269076645374298,0.5990234017372131,0.4096407890319824,-0.6070001125335693,-0.4421121776103973,-0.517959713935852
3878062,9.656317710876465,0.3179713189601898,1.7966150045394895,0.4633017182350158,-0.3463221192359924,0.3462132513523102,0.6692379713058472,-0.2976740896701813,-0.5670493245124817,-0.376783549785614,9.71003246307373,-0.2793768942356109,-1.2475098371505735,0.4252412319183349,-0.3037537932395935,0.6271589398384094,0.409665584564209,-0.6069739460945129,-0.4421928822994232,-0.5179018974304199
3878229,9.648332595825195,0.3347015976905823,1.7892531156539917,0.5926842093467712,-0.4552145004272461,0.4109365344047546,0.6692261099815369,-0.2976620495319366,-0.5670767426490784,-0.3767728507518768,9.70115566253662,-0.2857818901538849,-1.2591038942337036,0.3625157475471496,-0.2082056105136871,0.6622483134269714,0.4096841514110565,-0.6069544553756714,-0.4422490298748016,-0.5178620219230652
3878395,9.64696216583252,0.3260285258293152,1.8057773113250728,0.5597206950187683,-0.3691045641899109,0.3991290628910064,0.6692222356796265,-0.2976431250572204,-0.5670968294143677,-0.3767643570899963,9.689590454101562,-0.263176679611206,-1.268852710723877,0.2982790768146515,-0.2629015445709228,0.5671611428260803,0.4096800088882446,-0.6069424748420715,-0.4423041343688965,-0.5178322196006775
3878562,9.65771198272705,0.3373042941093445,1.8077155351638796,0.4929099977016449,-0.3545438051223755,0.3372104167938232,0.6692083477973938,-0.2976318895816803,-0.5671107769012451,-0.3767768442630768,9.699267387390137,-0.258488267660141,-1.252877712249756,0.0825689360499382,-0.2647456526756286,0.5805054306983948,0.4096453189849853,-0.6069545745849609,-0.4423282146453857,-0.5178249478340149
3878729,9.66096305847168,0.3331523239612579,1.7993580102920532,0.5225182771682739,-0.4350572824478149,0.1646704524755478,0.6691858172416687,-0.2975990772247314,-0.567146360874176,-0.3767892122268677,9.683035850524902,-0.2714126706123352,-1.2368313074111938,-0.091731883585453,-0.2309496998786926,0.4957786202430725,0.409606009721756,-0.6069563627243042,-0.4423621296882629,-0.5178250074386597
3878895,9.65356731414795,0.3403798341751098,1.8130226135253904,0.3706606030464172,-0.4624885618686676,0.265417993068695,0.6691602468490601,-0.2975904941558838,-0.5671721696853638,-0.3768025934696197,9.684891700744627,-0.2805999517440796,-1.2382832765579224,-0.1260528862476349,-0.2917158305644989,0.3752452433109283,0.4095377326011657,-0.6069678068161011,-0.4423928260803222,-0.5178394317626953
3879062,9.650795936584473,0.352074533700943,1.798320770263672,0.4620595276355743,-0.366684228181839,0.2242839932441711,0.6691356301307678,-0.2975770533084869,-0.5671886801719666,-0.3768319487571716,9.691286087036133,-0.2889362275600433,-1.271774172782898,-0.1540475785732269,-0.3367301225662231,0.3298339545726776,0.4094853103160858,-0.6069603562355042,-0.4424567520618438,-0.5178349018096924
3879229,9.646307945251465,0.3471531569957733,1.7823102474212646,0.3490690588951111,-0.3257038593292236,0.1490595191717147,0.6691072583198547,-0.2975637316703796,-0.5671996474266052,-0.3768766224384308,9.690771102905272,-0.2828458249568939,-1.2575732469558716,-0.1785589456558227,-0.3127310574054718,0.2628695070743561,0.4094099104404449,-0.6069633960723877,-0.4425027370452881,-0.517851710319519
3879395,9.643068313598633,0.3499673306941986,1.7856824398040771,0.3337142467498779,-0.3771341741085052,0.0423185788094997,0.669097363948822,-0.2975026667118072,-0.5672422051429749,-0.3768783509731293,9.696660995483398,-0.2788622975349426,-1.265587568283081,-0.2484944015741348,-0.5250987410545349,0.1908850371837616,0.4093252420425415,-0.606968343257904,-0.4425809979438782,-0.517845869064331
3879562,9.641608238220217,0.3413883149623871,1.7844022512435913,0.3721973299980163,-0.56102055311203,-0.0434647463262081,0.6690403819084167,-0.2974830865859985,-0.5672863125801086,-0.3769285678863525,9.712885856628418,-0.2831605076789856,-1.273305058479309,-0.2606476545333862,-0.5798971056938171,0.0796106681227684,0.409203827381134,-0.6069909334182739,-0.4426442384719848,-0.5178613066673279
3879729,9.660795211791992,0.3492595553398132,1.7506428956985474,0.2659814655780792,-0.4612590670585632,-0.0204645451158285,0.6690128445625305,-0.2974341213703155,-0.5673329830169678,-0.3769459128379822,9.70807647705078,-0.3067386746406555,-1.26952862739563,-0.1209943890571594,-0.5572938919067383,0.0971297547221183,0.4091085195541382,-0.6069951057434082,-0.4427283108234405,-0.5178597569465637
3879895,9.694354057312012,0.3512298166751861,1.8037101030349727,0.2889176607131958,-0.3325168490409851,-0.2204997241497039,0.6689684391021729,-0.2973849773406982,-0.5673636794090271,-0.3770169913768768,9.686657905578612,-0.2747170925140381,-1.2555241584777832,0.0355056039988994,-0.3168675303459167,0.4576028883457184,0.4090892374515533,-0.6069793701171875,-0.4427995383739471,-0.5178328156471252
3880062,9.668988227844238,0.2948958277702331,1.794979453086853,1.0177397727966309,-0.3224510848522186,0.2987657189369201,0.6689813137054443,-0.2973124086856842,-0.5674083828926086,-0.3769844472408294,9.722145080566406,-0.3081439435482025,-1.2687132358551023,0.039962213486433,-0.2357649207115173,0.6591107845306396,0.409079760313034,-0.6069799661636353,-0.4428347945213318,-0.5178093910217285
3880229,9.615008354187012,0.3328268826007843,1.7891335487365725,0.0515135377645492,0.0249787848442792,0.2238997966051101,0.6689738035202026,-0.2973136007785797,-0.5673667788505554,-0.3770592510700226,9.708047866821287,-0.2595968842506408,-1.2875454425811768,0.3657941520214081,-0.1723990738391876,0.4681040942668915,0.4090969860553741,-0.606936514377594,-0.4429182708263397,-0.5177753567695618
3880396,9.602825164794922,0.3300031721591949,1.7729425430297852,1.0917348861694336,-0.7020440697669983,0.0865004882216453,0.6689523458480835,-0.2972296476364136,-0.5674655437469482,-0.3770150542259216,9.723525047302246,-0.2423738688230514,-1.2666103839874268,0.2387551814317703,0.0279626660048961,-0.3661079406738281,0.4090443551540375,-0.6068392992019653,-0.4430437684059143,-0.5178235769271851
3880562,9.71075439453125,0.3716276586055755,1.820669174194336,1.0111061334609983,-0.5493411421775818,-0.461617648601532,0.668912947177887,-0.2970958054065704,-0.5675708651542664,-0.3770317733287811,9.722145080566406,-0.2646214663982391,-1.253042221069336,0.0528710149228572,0.1367141604423523,-0.4561493396759033,0.4089589118957519,-0.6067530512809753,-0.4431376159191131,-0.5179117321968079
3880729,9.724442481994627,0.3978118896484375,1.7777011394500732,1.2484591007232666,-0.260852575302124,-0.5360866189002991,0.6689023971557617,-0.2969183623790741,-0.5676636099815369,-0.3770508170127868,9.720399856567385,-0.2649897933006286,-1.271334528923035,0.0333413295447826,0.3173861801624298,-0.1442763358354568,0.4089254438877105,-0.6066587567329407,-0.443213015794754,-0.5179839730262756
3880896,9.649506568908691,0.3654583394527435,1.812888979911804,0.96126389503479,0.3426403105258941,0.69941246509552,0.6689985990524292,-0.2968350648880005,-0.5676300525665283,-0.3769963085651397,9.71850299835205,-0.2302684485912323,-1.265905737876892,0.0047575584612786,0.6335365176200867,0.3528469502925873,0.4089336693286896,-0.6065859794616699,-0.4432078897953033,-0.5180671215057373
3881062,9.598633766174316,0.290150910615921,1.8573639392852783,1.1266067028045654,-0.5468183159828186,0.5572618842124939,0.6690227389335632,-0.2967694699764251,-0.5676997303962708,-0.3768998980522156,9.68341064453125,-0.2310229837894439,-1.2588428258895874,-0.0916550382971763,0.5176517963409424,0.5839118957519531,0.4089502394199371,-0.6065365076065063,-0.4431902766227722,-0.5181269645690918
3881229,9.668827056884766,0.3495682179927826,1.8255552053451536,0.9711247682571412,-0.9654322862625122,-0.0106164645403623,0.6689627766609192,-0.2967128157615661,-0.5678166747093201,-0.3768748939037323,9.667015075683594,-0.2500739395618438,-1.247274398803711,-0.1988569796085357,0.5705292820930481,0.6481485962867737,0.4089889526367187,-0.6064736247062683,-0.4431828558444977,-0.5181763172149658
3881396,9.658985137939451,0.4093219637870788,1.76916766166687,0.2954488694667816,-0.4000575840473175,0.35643270611763,0.668948233127594,-0.2967099547386169,-0.5678313374519348,-0.3768805861473083,9.69979763031006,-0.2754448056221008,-1.2561280727386477,-0.286132276058197,0.4677966833114624,0.6439352631568909,0.4089843928813934,-0.6064478158950806,-0.4431421160697937,-0.5182450413703918
3881562,9.643221855163574,0.3571880161762237,1.773712992668152,0.4911811053752899,-0.3295585811138153,0.5715410113334656,0.668950617313385,-0.2967149913311004,-0.5678340196609497,-0.3768684267997741,9.693198204040527,-0.2915576100349426,-1.2569656372070312,-0.2331780195236206,0.4224494993686676,0.5786485075950623,0.4089915156364441,-0.6064056754112244,-0.4431305527687073,-0.5182986259460449
3881729,9.642578125,0.3364638984203338,1.7959140539169312,0.4673484861850738,0.0117754368111491,0.519995391368866,0.6689872145652771,-0.2966848909854889,-0.5678120851516724,-0.3768602907657623,9.713655471801758,-0.2914072573184967,-1.2577663660049438,0.144513264298439,0.4486384689807892,0.5906736254692078,0.4090290665626526,-0.6063445210456848,-0.4431385695934295,-0.5183336734771729
3881896,9.676941871643066,0.3630252182483673,1.7901461124420166,0.7428771257400513,-0.0807312205433845,0.4848420023918152,0.6690218448638916,-0.2966366410255432,-0.5678122639656067,-0.3768364191055298,9.719367027282717,-0.2821379005908966,-1.2599408626556396,0.3838638961315155,0.4709470570087433,0.4536584615707397,0.4090755879878998,-0.6062614321708679,-0.4431716203689575,-0.5183659791946411
3882062,9.67287254333496,0.3606782853603363,1.7922452688217163,0.4964317083358764,-0.1148473396897316,0.4192222356796264,0.6690306067466736,-0.2966215014457702,-0.5677986145019531,-0.3768534064292907,9.711408615112305,-0.2642786204814911,-1.2656244039535522,0.5312777161598206,0.5001711845397949,0.5730648636817932,0.4091481864452362,-0.6061735153198242,-0.4432055354118347,-0.5183825492858887
3882229,9.659643173217772,0.3400830030441284,1.7837084531784058,0.4638907611370086,-0.1708879172801971,0.3095870912075043,0.6690465807914734,-0.296575516462326,-0.5678080320358276,-0.3768471181392669,9.700875282287598,-0.2428185194730758,-1.2422137260437012,0.5385262370109558,0.4315420091152191,0.6839807629585266,0.4092138707637787,-0.6061070561408997,-0.4432214200496673,-0.5183947682380676
3882396,9.655030250549316,0.3564298450946808,1.7848135232925415,0.5864347219467163,-0.3325168192386627,0.3629767298698425,0.6690592169761658,-0.2965281903743744,-0.5678390264511108,-0.3768151104450226,9.699301719665527,-0.2370402216911316,-1.2488220930099487,0.4253436923027038,0.3964141309261322,0.7870973944664001,0.4092752039432525,-0.6060565710067749,-0.4432219862937927,-0.5184049010276794
3882562,9.661667823791504,0.3494380712509155,1.7798677682876587,0.6018022894859314,-0.2487120777368545,0.4331299364566803,0.6690725684165955,-0.2964963912963867,-0.5678516030311584,-0.3767975568771362,9.723936080932615,-0.2317184507846832,-1.2418067455291748,0.1292993128299713,0.3904848396778106,0.8255422115325928,0.409327745437622,-0.6060144305229187,-0.4432132840156555,-0.5184200406074524
3882729,9.657054901123049,0.3599450886249542,1.792878270149231,0.5140916705131531,-0.1899950057268142,0.4275848269462585,0.669074296951294,-0.2964875996112823,-0.5678444504737854,-0.3768121898174286,9.690853118896484,-0.2597001194953918,-1.2485414743423462,-0.1014390811324119,0.2810929715633392,1.0053304433822632,0.4093576967716217,-0.6060125827789307,-0.4431690871715545,-0.5184363722801208
3882896,9.667757987976074,0.3773077428340912,1.8104907274246216,0.2189053297042846,-0.1234531998634338,0.3559716939926147,0.669072151184082,-0.2964871227741241,-0.5678234100341797,-0.3768480718135834,9.678034782409668,-0.2762343883514404,-1.2357217073440552,-0.0464870482683181,0.4083112180233001,1.2948564291000366,0.4094310700893402,-0.6060096025466919,-0.4431051313877105,-0.5184365510940552
3883062,9.649701118469238,0.3441312611103058,1.7497237920761108,0.1421824842691421,-0.3222717940807342,0.693687915802002,0.6690629124641418,-0.296541690826416,-0.5677983164787292,-0.3768594264984131,9.684358596801758,-0.2602277398109436,-1.2301220893859863,-0.0111927492544054,0.1821895241737365,0.9269171953201294,0.4094573557376861,-0.6060045957565308,-0.4430807530879974,-0.5184425711631775
3883229,9.630937576293944,0.3401974439620971,1.8142063617706297,0.0079975659027695,0.0955033376812934,0.6474826335906982,0.6690854430198669,-0.296574592590332,-0.5677316188812256,-0.3768942356109619,9.702096939086914,-0.2862539291381836,-1.2225514650344849,-0.0894139260053634,0.026464320719242,0.5316363573074341,0.4094454646110534,-0.6059833765029907,-0.4431039690971374,-0.5184569358825684
3883396,9.64474105834961,0.3847498297691345,1.7840553522109983,0.4197985231876373,-0.4528837502002716,-0.1053322404623031,0.6690630912780762,-0.2965001463890075,-0.5677912831306458,-0.376902312040329,9.721908569335938,-0.2909459173679352,-1.2442376613616943,-0.1197265610098838,-0.0410059317946434,0.5266931056976318,0.4094136655330658,-0.6059791445732117,-0.4431152045726776,-0.5184773802757263
3883562,9.702176094055176,0.4355392456054687,1.8028265237808228,0.2554418444633484,-0.10575482994318,0.5464789867401123,0.6690729260444641,-0.2965131103992462,-0.5677613019943237,-0.3769198358058929,9.705160140991213,-0.2677828967571258,-1.2232025861740112,-0.1827594190835952,0.1519537419080734,0.5323280096054077,0.4094128012657165,-0.6059446334838867,-0.4431363940238952,-0.5185002088546753
3883729,9.65447235107422,0.3365783393383026,1.790224313735962,0.0488114021718502,0.1056587994098663,0.5906224846839905,0.6691002249717712,-0.2965282499790191,-0.5677027106285095,-0.376947671175003,9.686617851257324,-0.2678579688072204,-1.228370189666748,-0.231833353638649,0.2061758190393448,0.6815346479415894,0.4094018042087555,-0.6059358716011047,-0.4431141316890716,-0.5185380578041077
3883896,9.63447093963623,0.3313281536102295,1.8355635404586792,0.6225998997688293,-0.2995533049106598,0.3601849675178528,0.6690950393676758,-0.2965073883533478,-0.5677163600921631,-0.3769527673721313,9.695908546447754,-0.2719653844833374,-1.2346689701080322,-0.2290799915790558,0.1311178058385849,0.8137602806091309,0.4094040095806122,-0.6059349775314331,-0.4430932402610779,-0.518555223941803
3884062,9.638583183288574,0.3633641302585602,1.796432614326477,0.0020169999916106,-0.6667881608009338,0.2881108224391937,0.6690419316291809,-0.2965421080589294,-0.5677444338798523,-0.3769773542881012,9.683829307556152,-0.264374703168869,-1.2506176233291626,-0.060804545879364,0.1188493221998214,0.718673050403595,0.4094038009643554,-0.6059263944625854,-0.443083792924881,-0.5185733437538147
3884229,9.65023422241211,0.3617154955863952,1.7853893041610718,-0.0627767294645309,-0.3707566261291504,0.1662071943283081,0.6689962148666382,-0.2965680658817291,-0.5677396655082703,-0.3770453035831451,9.693971633911133,-0.2730720639228821,-1.2485394477844238,-0.247380256652832,0.0173846185207366,0.5033215284347534,0.4093564450740814,-0.6059295535087585,-0.4430763721466064,-0.5186135172843933
3884396,9.644824028015137,0.3422680795192718,1.803002119064331,0.1902959644794464,-0.536381185054779,0.331178605556488,0.6689664125442505,-0.2965778112411499,-0.5677652955055237,-0.3770520389080047,9.669337272644045,-0.2958594858646393,-1.2454322576522827,-0.2019689530134201,-0.149193987250328,0.461790531873703,0.4093185067176819,-0.6059240102767944,-0.4431069791316986,-0.5186237692832947
3884562,9.648271560668944,0.3584468364715576,1.7569119930267334,0.1658870577812194,-0.5901294350624084,0.2599496841430664,0.6689169406890869,-0.2966021001338959,-0.5677900314331055,-0.3770835995674133,9.67934226989746,-0.2729612290859222,-1.235687017440796,0.0395011864602565,-0.2527333199977875,0.5212761163711548,0.4092931449413299,-0.6059211492538452,-0.4431496858596802,-0.5186106562614441
3884729,9.6639986038208,0.3561618328094482,1.7968463897705078,0.4846755564212799,-0.716822624206543,0.4258431196212768,0.66888427734375,-0.296609491109848,-0.5678408145904541,-0.3770589828491211,9.697794914245604,-0.2622683048248291,-1.2345283031463623,0.1213849782943725,-0.4053081274032593,0.6311801075935364,0.4092850089073181,-0.6059225797653198,-0.4432105422019958,-0.5185635089874268
3884896,9.65665054321289,0.3580248355865478,1.782821536064148,0.3920471966266632,-0.4018888771533966,0.3628614842891693,0.6688693165779114,-0.2966046929359436,-0.5678579807281494,-0.3770633935928345,9.70833683013916,-0.2631909847259521,-1.2415376901626587,0.0494645237922668,-0.4228400588035583,0.5285884737968445,0.4092478156089782,-0.6059345602989197,-0.4432604312896728,-0.5185360908508301
3885062,9.65326690673828,0.3513588011264801,1.7942476272583008,0.3134289681911468,-0.4566616117954254,0.1918071061372757,0.6688351035118103,-0.2965993583202362,-0.5678821206092834,-0.3770920038223266,9.706345558166504,-0.2377891689538955,-1.2506319284439087,-0.1992155760526657,-0.4311257302761078,0.6056187152862549,0.4091880619525909,-0.6059719324111938,-0.4432788491249084,-0.5185239315032959
