sampleTimeFine,W4_acc_x,W4_acc_y,W4_acc_z,W4_gyro_x,W4_gyro_y,W4_gyro_z,W4_quat_w,W4_quat_x,W4_quat_y,W4_quat_z,W5_acc_x,W5_acc_y,W5_acc_z,W5_gyro_x,W5_gyro_y,W5_gyro_z,W5_quat_w,W5_quat_x,W5_quat_y,W5_quat_z
5034845,0.2499510198831558,0.2513783872127533,0.2801389694213867,-0.1734929084777832,0.0528635270893573,-0.1706246435642242,0.6725942492485046,-0.3052155971527099,-0.5589742064476013,-0.3768397569656372,0.1441463381052017,-0.0058793146163225,-0.1619525104761123,0.0307719744741916,-0.0258482675999403,-0.3048955500125885,0.4056011140346527,-0.6032746434211731,-0.4418128132820129,-0.5256890058517456
5035012,9.6597900390625,0.1226031109690666,1.8268983364105225,0.6534503698348999,-0.1289855539798736,0.208865150809288,0.6721935272216797,-0.3057898283004761,-0.5586557984352112,-0.3775608837604522,9.728081703186035,-0.2126555889844894,-1.130306839942932,-0.1002609133720398,0.4081191420555115,0.3835565745830536,0.4055681228637695,-0.6033393144607544,-0.4416463077068329,-0.5257800817489624
5035178,9.66673469543457,0.1235257759690284,1.8506622314453125,0.7002062797546387,0.0960156023502349,0.2997774183750152,0.671905517578125,-0.3059301078319549,-0.5588163137435913,-0.377722293138504,9.726486206054688,-0.2234590649604797,-1.1319338083267212,-0.3291488289833069,0.4844065606594085,0.3787414133548736,0.4053346812725067,-0.6032615900039673,-0.4413657486438751,-0.5262848138809204
5035345,9.651214599609377,0.1020005866885185,1.8782025575637815,0.5218395590782166,0.1400438398122787,0.0862315520644187,0.6717222332954407,-0.3059515357017517,-0.5589057803153992,-0.3778985440731048,9.707267761230469,-0.2213064432144165,-1.135106086730957,-0.4293328523635864,0.412575751543045,0.400832325220108,0.4052467346191406,-0.6031240224838257,-0.4411992728710174,-0.5266496539115906
5035512,9.633461952209473,0.1411028355360031,1.853877305984497,0.4342056810855865,0.0771390423178672,-0.0287630651146173,0.6716768145561218,-0.3060127794742584,-0.5587862730026245,-0.3781065344810486,9.7183837890625,-0.2415351867675781,-1.1209349632263184,-0.5494691729545593,0.4169427156448364,0.621178388595581,0.405474841594696,-0.602820873260498,-0.4413742125034332,-0.5266744494438171
5035678,9.663362503051758,0.1587156504392624,1.857610821723938,0.2510364651679992,0.0721445679664611,0.1899117678403854,0.6717358827590942,-0.3058556020259857,-0.558803915977478,-0.3781026005744934,9.727367401123049,-0.2551440596580505,-1.116913676261902,-0.4017607867717743,0.3381964862346649,0.8830298185348511,0.405733197927475,-0.6026333570480347,-0.441421627998352,-0.5266504883766174
5035845,9.657549858093262,0.1115884482860565,1.826501488685608,0.06475530564785,0.0805327370762825,0.4431957304477691,0.6717559695243835,-0.3057310879230499,-0.5588219165802002,-0.3781408369541168,9.71876621246338,-0.2726427316665649,-1.1228021383285522,-0.2342665791511535,0.3998462557792663,0.9395955204963684,0.4058454930782318,-0.6026468276977539,-0.4412010014057159,-0.5267334580421448
5036012,9.637874603271484,0.1132656410336494,1.882111430168152,0.0879091769456863,0.1195536702871322,0.3702251315116882,0.6716509461402893,-0.305846095085144,-0.5587643980979919,-0.3783193528652191,9.722681045532228,-0.286517322063446,-1.1236096620559692,0.1896940320730209,0.414983332157135,0.8478763699531555,0.4061041474342346,-0.6025868058204651,-0.4411152899265289,-0.5266744494438171
5036178,9.627774238586426,0.1161302775144577,1.8688759803771973,0.0596711821854114,0.1580623686313629,0.3557924330234527,0.6716270446777344,-0.3059122562408447,-0.5586804151535034,-0.3784324824810028,9.70761013031006,-0.2746309638023376,-1.1292870044708252,0.5404343605041504,0.519790530204773,0.8847970962524414,0.4063089191913605,-0.6026127338409424,-0.4409218430519104,-0.526648759841919
5036345,9.638851165771484,0.1132477596402168,1.861884355545044,0.0856168642640113,0.0993836894631385,0.3729785680770874,0.6716758012771606,-0.3058943748474121,-0.55864018201828,-0.3784199655056,9.716021537780762,-0.2550816535949707,-1.1178350448608398,0.8209190368652344,0.4720612168312073,1.0362834930419922,0.4066084623336792,-0.6025815606117249,-0.4408424794673919,-0.526519775390625
5036512,9.652204513549805,0.1085414662957191,1.857986330986023,0.1214362010359764,0.1182346194982528,0.5038977861404419,0.6716766953468323,-0.3059799373149872,-0.5585454106330872,-0.3784886300563812,9.71014404296875,-0.2532670795917511,-1.1310540437698364,0.9106019139289856,0.4118329584598541,1.0746896266937256,0.4069010317325592,-0.6025381088256836,-0.4407955110073089,-0.5263827443122864
5036678,9.62485408782959,0.1059987843036651,1.8545423746109009,0.292900413274765,0.0191647019237279,0.6207686066627502,0.6717102527618408,-0.3060322105884552,-0.5584903955459595,-0.378468245267868,9.728416442871094,-0.2335138916969299,-1.1141525506973269,0.9586514234542848,0.4220524430274963,1.1908048391342163,0.4070814549922943,-0.6025848388671875,-0.4406414628028869,-0.5263189077377319
5036845,9.640931129455566,0.1062295883893966,1.8741004467010496,0.5613983273506165,-0.0885815173387527,0.6271973252296448,0.6717203855514526,-0.3061094284057617,-0.5584408640861511,-0.3784609138965606,9.722190856933594,-0.2445473819971084,-1.1219041347503662,0.7178918719291687,0.4169554710388183,1.2654656171798706,0.4071942269802093,-0.6026670932769775,-0.4404393136501312,-0.5263065099716187
5037012,9.64388370513916,0.1256429553031921,1.8821288347244265,0.4894010424613952,-0.0575389266014099,0.6584576964378357,0.6718201637268066,-0.3060682713985443,-0.5584483742713928,-0.378305971622467,9.71421241760254,-0.2399009317159652,-1.117103934288025,0.6694710850715637,0.4228464365005493,1.3538168668746948,0.4074028134346008,-0.6026668548583984,-0.440354973077774,-0.5262159705162048
5037178,9.632240295410156,0.1010607779026031,1.890414476394653,0.5372711420059204,-0.0990058779716491,0.6775518655776978,0.6718631386756897,-0.3061036467552185,-0.558414876461029,-0.3782504200935364,9.707549095153809,-0.2532361447811126,-1.1136236190795898,0.5035008788108826,0.3517840504646301,1.343290090560913,0.4075357913970947,-0.6027162671089172,-0.4402176439762115,-0.5261714458465576
5037345,9.63918399810791,0.1133157014846801,1.8692656755447388,0.412434846162796,-0.1041028052568435,0.6906144022941589,0.6718918085098267,-0.3061728775501251,-0.558357298374176,-0.3782283365726471,9.71308422088623,-0.2503319382667541,-1.1160876750946045,0.2559413015842438,0.3395539820194244,1.3208277225494385,0.4077420830726623,-0.6026939153671265,-0.4401828050613403,-0.526066243648529
5037512,9.627696990966797,0.1176214590668678,1.8785923719406128,0.2011045217514038,-0.1434054970741272,0.6797162890434265,0.6718996167182922,-0.3062716722488403,-0.5582915544509888,-0.3782317042350769,9.684216499328612,-0.2794455587863922,-1.1077320575714111,0.2527140974998474,0.0519233420491218,1.181558609008789,0.407867282629013,-0.6027240753173828,-0.4401252865791321,-0.525982677936554
5037679,9.64161205291748,0.1253496408462524,1.8957940340042116,0.0923786014318466,-0.2517216205596924,0.7132176160812378,0.6719273924827576,-0.306339293718338,-0.5582565069198608,-0.3781792521476745,9.708536148071287,-0.2706456184387207,-1.1141139268875122,0.1531831622123718,-0.0424402430653572,1.1388238668441772,0.4079485237598419,-0.6027904152870178,-0.4400343298912048,-0.5259199142456055
5037845,9.650306701660156,0.1131727844476699,1.8541059494018557,0.1603162884712219,-0.2971585690975189,0.6727880239486694,0.6719350218772888,-0.3064214289188385,-0.558216392993927,-0.3781583607196808,9.726399421691896,-0.2802059054374695,-1.101049304008484,0.1946757286787033,-0.1014006733894348,1.1218937635421753,0.4080303907394409,-0.6028562188148499,-0.4399546384811401,-0.5258475542068481
5038012,9.650344848632812,0.1262115091085434,1.8755419254302976,0.2189309448003769,-0.2030446529388427,0.6492499113082886,0.6719436049461365,-0.3064982295036316,-0.5581741333007812,-0.3781432211399078,9.72445011138916,-0.2755204737186432,-1.0821093320846558,0.2525732517242431,-0.0419023782014846,1.0447101593017578,0.4080019295215606,-0.6030048131942749,-0.4397482872009277,-0.525871753692627
5038179,9.63473892211914,0.1043429970741272,1.8716868162155151,0.214102953672409,-0.1751908659934997,0.6162990927696228,0.671988308429718,-0.3065135776996612,-0.558163583278656,-0.3780669867992401,9.719375610351562,-0.2665219902992248,-1.1072824001312256,0.1583313047885894,-0.1942723244428634,1.1167073249816897,0.4080580174922943,-0.6030930876731873,-0.4396438300609588,-0.5258144736289978
5038345,9.646450996398926,0.1260434240102768,1.8780988454818728,0.3101634085178375,-0.1278585940599441,0.4705244898796081,0.6720207333564758,-0.3065241277217865,-0.558151125907898,-0.3780193030834198,9.736947059631348,-0.2861372530460357,-1.123477816581726,0.0914309248328208,-0.2330115288496017,1.0067263841629028,0.4081369340419769,-0.6031461954116821,-0.4395946562290191,-0.5257332921028137
5038512,9.645184516906738,0.1199424192309379,1.8659183979034424,-0.0220909528434276,-0.344541996717453,0.5929659605026245,0.6720215678215027,-0.3065941035747528,-0.5581339001655579,-0.377986341714859,9.717270851135254,-0.2786318063735962,-1.1115018129348757,0.1712144911289215,-0.1789687275886535,1.089493751525879,0.4081936180591583,-0.6032299399375916,-0.43949756026268,-0.5256744027137756
5038679,9.632742881774902,0.1137198135256767,1.8441535234451292,-0.1210200041532516,-0.4807887673377991,0.648391842842102,0.6720325350761414,-0.3066497445106506,-0.558144211769104,-0.37790647149086,9.677553176879885,-0.2786343395709991,-1.0966436862945557,0.2311353981494903,-0.0806800052523613,1.3465428352355957,0.4082484543323517,-0.6033463478088379,-0.4393398463726043,-0.5256300568580627
5038845,9.684515953063965,0.1130617931485176,1.90342915058136,-0.0362931936979293,-0.4423056840896606,0.2813875079154968,0.6720122694969177,-0.3066893815994262,-0.5581626296043396,-0.3778832554817199,9.724658966064451,-0.2925873398780823,-1.1150071620941162,0.2675566673278808,-0.3164320886135101,1.361513376235962,0.4083667397499084,-0.6034170985221863,-0.4392825067043304,-0.525505006313324
5039012,9.650084495544434,0.0533119738101959,1.870449781417847,0.3501448035240173,-0.6465029120445251,0.6706749200820923,0.6720227599143982,-0.3067220151424408,-0.5582093000411987,-0.3777689933776855,9.71045207977295,-0.2841059267520904,-1.1142711639404297,0.4890041053295135,-0.3459891974925995,1.134981989860535,0.4084161818027496,-0.6035210490226746,-0.4391842186450958,-0.5254291892051697
5039179,9.578131675720217,0.0900895744562149,1.893915057182312,-0.4683409929275512,-0.5471641421318054,0.7822951078414917,0.6719634532928467,-0.3069157600402832,-0.5581545233726501,-0.3777981400489807,9.739757537841797,-0.2827170789241791,-1.1057919263839722,0.4749170243740082,-0.3426338732242584,0.5166273713111877,0.4084113240242004,-0.6035908460617065,-0.4391334056854248,-0.5253952741622925
5039345,9.60849380493164,0.1047540456056594,1.825371503829956,0.1829579174518585,-0.9137330055236816,0.5143990516662598,0.671929121017456,-0.306987315416336,-0.5582117438316345,-0.3777165710926056,9.73849868774414,-0.3053365647792816,-1.1216380596160889,0.4382396638393402,-0.2808688580989837,0.2951799035072326,0.4084335267543793,-0.6036069393157959,-0.4391457140445709,-0.5253491401672363
5039512,9.70687198638916,0.1024737879633903,1.8811732530593872,0.8130559921264648,-0.8365107774734497,0.009969743900001,0.6718850135803223,-0.3069735765457153,-0.5583107471466064,-0.3776598274707794,9.732544898986816,-0.3034196496009826,-1.102827548980713,0.4541579484939575,-0.3075700998306274,0.5246313214302063,0.4084460437297821,-0.6036627888679504,-0.4391088783740997,-0.5253060460090637
5039679,9.701793670654297,0.1491878479719162,1.824978828430176,1.394284963607788,-0.7514510154724121,0.1872736662626266,0.6718891263008118,-0.3069041967391968,-0.5584304928779602,-0.377532035112381,9.717602729797363,-0.2782906293869018,-1.1189243793487549,0.4650817811489105,-0.1700170934200287,0.8966429233551025,0.4085194170475006,-0.6037132740020752,-0.4390559494495392,-0.5252354145050049
5039845,9.609639167785645,0.1109812557697296,1.90789532661438,1.047130465507507,-0.1565832495689392,1.2685394287109375,0.671985387802124,-0.3069169521331787,-0.5584326982498169,-0.3773468434810638,9.691106796264648,-0.2489742636680603,-1.120518445968628,0.2047799378633499,-0.1605404019355774,0.8820821046829224,0.4086047112941742,-0.6037467122077942,-0.4390269517898559,-0.525154709815979
5040012,9.582730293273926,0.0585294403135776,1.904274106025696,0.7884036898612976,-0.8822551369667053,0.8102512955665588,0.671988844871521,-0.3069547712802887,-0.5585101842880249,-0.3771952390670776,9.687620162963867,-0.2435182631015777,-1.1148253679275513,-0.0396100394427776,-0.4389760494232178,0.6705211997032166,0.4085801541805267,-0.6038450002670288,-0.4389571249485016,-0.5251191854476929
5040179,9.655418395996094,0.1001926437020301,1.883047699928284,0.6928938627243042,-1.006182074546814,0.2064063251018524,0.6719526052474976,-0.3069535493850708,-0.5586218237876892,-0.377095490694046,9.716326713562012,-0.2748879790306091,-1.0899091958999634,-0.2625685930252075,-0.5760424137115479,0.6214089393615723,0.4085486233234405,-0.6039400100708008,-0.4389161467552185,-0.5250688195228577
5040345,9.64427375793457,0.1314124166965484,1.8602192401885984,0.2641501426696777,-0.8416844606399536,0.3546526432037353,0.6718979477882385,-0.3070280849933624,-0.5586698055267334,-0.3770609498023987,9.710773468017578,-0.3046780228614807,-1.129054307937622,-0.2584449350833893,-0.633568525314331,0.6298995018005371,0.408532440662384,-0.6040236949920654,-0.4388982951641083,-0.5250001549720764
5040512,9.642929077148438,0.1088399365544319,1.8511979579925537,0.4811538159847259,-0.6448637843132019,0.6200003027915955,0.6719115376472473,-0.3070479333400726,-0.5587236285209656,-0.3769409358501434,9.72572422027588,-0.298170655965805,-1.146196365356445,-0.0394051373004913,-0.6883540749549866,0.8807117938995361,0.4085375666618347,-0.6041269898414612,-0.4388622343540191,-0.5249072909355164
5040679,9.629152297973633,0.0848525464534759,1.8334550857543943,0.566853940486908,-0.5946117043495178,0.7587698698043823,0.6719075441360474,-0.3071161210536957,-0.5587453842163086,-0.3768601417541504,9.719552040100098,-0.3135235905647278,-1.1609388589859009,0.2146664261817932,-0.7141589522361755,0.8890360593795776,0.4085665345191955,-0.6042165160179138,-0.4388501942157745,-0.5247917771339417
5040845,9.642687797546388,0.095448687672615,1.8490172624588013,0.5287933945655823,-0.5779634118080139,0.6734668016433716,0.6719018816947937,-0.3071754574775696,-0.5587714910507202,-0.3767832219600677,9.707277297973633,-0.3115812838077545,-1.134431004524231,0.3764106333255768,-0.8638010621070862,0.7449645400047302,0.4086227715015411,-0.6042720079421997,-0.4389112889766693,-0.5246330499649048
5041012,9.651545524597168,0.0924943760037422,1.8551026582717896,0.5603482127189636,-0.7760263681411743,0.5913652181625366,0.6719024777412415,-0.307198017835617,-0.5588438510894775,-0.37665656208992,9.70863151550293,-0.2990307807922363,-1.1429492235183716,0.3105988204479217,-0.9421760439872742,0.6814963221549988,0.4086289703845978,-0.6043630242347717,-0.438937246799469,-0.5245016813278198
5041179,9.658053398132324,0.1028447300195694,1.8369619846343996,0.573858916759491,-0.8357935547828674,0.3700714707374573,0.671877920627594,-0.3072176277637481,-0.5589258074760437,-0.3765628039836883,9.72693920135498,-0.2740135788917541,-1.148508906364441,0.3990778923034668,-1.06277334690094,0.7726903557777405,0.4086456298828125,-0.6044611930847168,-0.4389734268188476,-0.5243452191352844
5041345,9.669110298156738,0.103307694196701,1.855240821838379,0.4476907849311828,-1.0054265260696411,0.4141253530979156,0.671828031539917,-0.3072737753391266,-0.5590103268623352,-0.3764805793762207,9.733129501342772,-0.2779811918735504,-1.147411823272705,0.2536105513572693,-0.9712591171264648,0.6409001350402832,0.4086330831050873,-0.604561984539032,-0.4389926791191101,-0.524222731590271
5041512,9.652341842651367,0.1023172438144683,1.819760799407959,0.5399733185768127,-0.844284176826477,0.5063438415527344,0.6717568039894104,-0.307384043931961,-0.5590447187423706,-0.3764666020870209,9.715267181396484,-0.2747014462947845,-1.1547514200210571,-0.0037010349333286,-0.9000046253204346,0.6667817831039429,0.4085954129695892,-0.6046808958053589,-0.4389767944812774,-0.5241280198097229
5041679,9.64516544342041,0.1044126749038696,1.8520714044570925,0.7339895963668823,-0.8184026479721069,0.3881668746471405,0.6717510223388672,-0.3073723912239074,-0.5591443181037903,-0.376338243484497,9.700411796569824,-0.2832690477371216,-1.1654422283172607,-0.0756983235478401,-0.853402316570282,0.8159500956535339,0.408574640750885,-0.6048020124435425,-0.4389514327049255,-0.5240257382392883
5041845,9.667763710021973,0.1078784987330436,1.869860410690308,0.6355471014976501,-0.834359347820282,0.3046438694000244,0.671686053276062,-0.3074369728565216,-0.5592039227485657,-0.3763129711151123,9.712204933166504,-0.2721500098705292,-1.1511377096176147,-0.2206406146287918,-0.8684754967689514,0.5692999362945557,0.4085022509098053,-0.6049327850341797,-0.4389170408248901,-0.5239599943161011
5042012,9.64596176147461,0.0955767631530761,1.804636120796204,0.1458451151847839,-1.0048117637634275,0.570183515548706,0.6716349124908447,-0.3075278997421264,-0.5592696666717529,-0.3762321472167969,9.722909927368164,-0.2949512600898742,-1.162753701210022,-0.4145671725273132,-0.6816691756248474,0.2302005290985107,0.4084310829639435,-0.6050113439559937,-0.4389251470565796,-0.5239179730415344
5042179,9.62402057647705,0.0899666473269462,1.857678771018982,0.2446973472833633,-0.587875485420227,0.5060877799987793,0.6715916991233826,-0.3076206743717193,-0.5592826008796692,-0.3762142658233642,9.759062767028809,-0.2900925874710083,-1.151409387588501,-0.5255982279777527,-0.6288943290710449,0.2816692888736725,0.4083494246006012,-0.6051025986671448,-0.438908189535141,-0.5238904356956482
5042345,9.660412788391112,0.1173833012580871,1.8228248357772827,0.63444584608078,-1.059200406074524,-0.3052265644073486,0.6715008020401001,-0.3076096177101135,-0.5594125986099243,-0.3761922419071197,9.761286735534668,-0.3101859092712402,-1.1636728048324585,-0.4228400588035583,-0.2014438807964325,0.3446124792098999,0.4083391726016998,-0.6051336526870728,-0.4389030933380127,-0.5238669514656067
5042512,9.690838813781738,0.1505118310451507,1.8533945083618164,0.5904815793037415,-0.4424850344657898,0.365243524312973,0.6714729070663452,-0.3076549470424652,-0.5594335198402405,-0.3761738538742065,9.733047485351562,-0.298094779253006,-1.1683580875396729,-0.4051160216331482,0.0561878569424152,0.4649665057659149,0.4083375036716461,-0.6051676869392395,-0.4388514459133148,-0.5238721966743469
5042679,9.642277717590332,0.0930564925074577,1.8532228469848635,0.0160783715546131,-0.4432533383369446,0.6014693975448608,0.6714574694633484,-0.3077360391616821,-0.5594340562820435,-0.3761341571807861,9.697686195373535,-0.3016496896743774,-1.1722347736358645,-0.3216058611869812,0.2022570818662643,0.4869038164615631,0.4083503186702728,-0.6051905155181885,-0.4387913048267364,-0.5238863229751587
5042845,9.654891967773438,0.0723083540797233,1.8612817525863647,0.7529686093330383,-0.6549936532974243,0.1703949123620987,0.6714333891868591,-0.307723730802536,-0.5595133900642395,-0.3760695457458496,9.689908981323242,-0.2804786264896393,-1.1575076580047607,-0.2903712093830108,0.1683970987796783,0.2241047322750091,0.4083145260810852,-0.6052219867706299,-0.4387249648571014,-0.5239332318305969
5043012,9.660541534423828,0.1123787388205528,1.8745942115783687,0.181100994348526,-0.7251338958740234,0.2022570818662643,0.6713653206825256,-0.3077962696552276,-0.5595536828041077,-0.376071572303772,9.71625518798828,-0.2972185909748077,-1.156169891357422,-0.2537322044372558,0.010481996461749,0.0108661875128746,0.4082629084587097,-0.6052432656288147,-0.4386986494064331,-0.523970901966095
5043179,9.622098922729492,0.1100255921483039,1.847278952598572,-0.0223342757672071,-0.6438648700714111,0.1402359455823898,0.6712896227836609,-0.3078818917274475,-0.5595753788948059,-0.3761042654514313,9.710564613342283,-0.2933920323848724,-1.1465821266174316,-0.1332756876945495,0.2040755897760391,0.0720036923885345,0.4082862436771393,-0.6052069664001465,-0.4387193918228149,-0.5239771604537964
5043345,9.653867721557615,0.1026443019509315,1.82429838180542,0.283526211977005,-0.6029229760169983,0.1389296948909759,0.6712316274642944,-0.3079340159893036,-0.5596102476119995,-0.3761131167411804,9.739709854125977,-0.289276123046875,-1.167263388633728,-0.1321102976799011,0.1854039281606674,0.1335510313510894,0.4082483053207397,-0.6052303314208984,-0.4386606216430664,-0.5240291357040405
5043512,9.65077781677246,0.1083233207464218,1.8328670263290403,0.465158611536026,-0.4218923449516296,0.2303157895803451,0.6712230443954468,-0.3079335689544678,-0.5596515536308289,-0.3760673999786377,9.709803581237791,-0.2888574302196502,-1.1669272184371948,-0.1564423739910125,0.282271146774292,0.2582336664199829,0.4082233011722564,-0.6052560806274414,-0.4385826587677002,-0.5240840911865234
5043679,9.661584854125977,0.1069858148694038,1.8429805040359497,0.569043755531311,-0.4187164604663849,0.2849092781543731,0.671190083026886,-0.3079749345779419,-0.5596696138381958,-0.3760654032230377,9.737372398376465,-0.2801851034164428,-1.149786353111267,-0.1893675029277801,0.2374873608350753,0.3166306316852569,0.4081813395023346,-0.6053040027618408,-0.4384821653366089,-0.5241455435752869
5043845,9.66849136352539,0.1092531308531761,1.8415858745574951,0.3969135582447052,-0.3164576888084411,0.1789111047983169,0.6711881756782532,-0.3079647719860077,-0.5597027540206909,-0.3760278224945068,9.71075439453125,-0.2640349566936493,-1.1639732122421265,-0.2224078625440597,0.1645295768976211,0.3607997000217438,0.4081899523735046,-0.6053159832954407,-0.4384432435035705,-0.5241574048995972
5044012,9.645596504211426,0.0879782736301422,1.8401803970336916,0.4252540469169616,-0.4681361019611358,0.0176407471299171,0.6711549162864685,-0.3079640865325928,-0.559749960899353,-0.3760175704956054,9.705812454223633,-0.2735119163990021,-1.1668699979782104,-0.2150058150291443,0.0587747395038604,0.403854638338089,0.4081598818302154,-0.60536789894104,-0.4383668303489685,-0.5241848230361938
5044179,9.65651798248291,0.1081339344382286,1.844768762588501,0.1037506312131881,-0.4429076015949249,0.126417875289917,0.6710796356201172,-0.3080557286739349,-0.5597426295280457,-0.3760877549648285,9.698254585266112,-0.268551766872406,-1.1434533596038818,-0.2099601030349731,0.0831836462020874,0.5786100625991821,0.4082076549530029,-0.6053760647773743,-0.438347190618515,-0.5241546034812927
5044345,9.660435676574709,0.1165661588311195,1.81388795375824,0.2406120896339416,-0.4392449557781219,0.1664121001958847,0.6710331439971924,-0.3081068396568298,-0.5597571134567261,-0.3761072158813476,9.720294952392578,-0.2796128690242767,-1.1590954065322876,-0.1177415773272514,0.0926219224929809,0.6430644392967224,0.4082322120666504,-0.6054126024246216,-0.4382859468460083,-0.5241444706916809
5044512,9.66638469696045,0.1028266847133636,1.8196207284927368,0.192780390381813,-0.2520929872989654,0.1787958443164825,0.6710286140441895,-0.3081109821796417,-0.5597739815711975,-0.3760870099067688,9.707077980041504,-0.2826598584651947,-1.149915099143982,0.046570286154747,0.0694296136498451,0.6155691742897034,0.4082720279693603,-0.6054353713989258,-0.4382467269897461,-0.5241198539733887
5044679,9.659510612487791,0.0912214294075965,1.8287618160247805,0.2668138742446899,-0.2757079005241394,0.2430708855390548,0.6709955930709839,-0.3081638514995575,-0.5597673654556274,-0.3761124312877655,9.714774131774902,-0.2920151948928833,-1.1603469848632812,0.1421312689781189,0.0391169972717762,0.656856894493103,0.4082673788070678,-0.605502724647522,-0.4381502270698547,-0.5241265296936035
5044845,9.642349243164062,0.0899130031466484,1.8397834300994875,0.1905520856380462,-0.2410923689603805,0.2322111427783966,0.6709709763526917,-0.3082073032855987,-0.5597615242004395,-0.3761293590068817,9.71396255493164,-0.270811915397644,-1.1495325565338137,0.1850965619087219,-0.0596263632178306,0.624264657497406,0.4083146452903747,-0.6055253148078918,-0.4381317496299743,-0.5240790843963623
5045012,9.662605285644531,0.0986314713954925,1.824527382850647,0.322162926197052,-0.3330675065517425,0.270899087190628,0.6709367036819458,-0.3082617223262787,-0.5597613453865051,-0.3761462271213531,9.716480255126951,-0.2816728055477142,-1.146206617355347,0.2674413919448852,0.0109558319672942,0.7318636178970337,0.4083921611309051,-0.6055353879928589,-0.4381183087825775,-0.5240182280540466
5045179,9.651128768920898,0.1004988774657249,1.826704859733581,0.2995725274085998,-0.2864651978015899,0.4084392488002777,0.6708925366401672,-0.3083571195602417,-0.5597326159477234,-0.3761894404888153,9.706233978271484,-0.2605123817920685,-1.1522289514541626,0.2768796682357788,-0.1397172659635543,0.7246152758598328,0.4083618521690368,-0.6056380271911621,-0.4380012452602386,-0.5240210890769958
5045345,9.645298957824709,0.0884071961045265,1.8326205015182493,0.398104578256607,-0.3483070731163025,0.4358448982238769,0.670897901058197,-0.3083758652210235,-0.5597542524337769,-0.3761322200298309,9.70528507232666,-0.2392303645610809,-1.1588269472122192,0.159240573644638,-0.1375529915094375,0.8099311590194702,0.4083765745162964,-0.6057114601135254,-0.4379249215126037,-0.5239885449409485
5045512,9.649304389953612,0.1177680790424346,1.8409993648529053,0.4464485943317413,-0.3181097507476806,0.5404727458953857,0.670903205871582,-0.3084127902984619,-0.5597620606422424,-0.3760811984539032,9.709654808044434,-0.2551013529300689,-1.1453983783721924,0.0213161688297987,-0.1681345552206039,0.8433812856674194,0.40839484333992,-0.605783998966217,-0.4378559291362762,-0.5239481329917908
5045679,9.650009155273438,0.1257072687149047,1.8412675857543943,0.2922729253768921,-0.3894283175468445,0.5783411860466003,0.6709076166152954,-0.3084566593170166,-0.55977463722229,-0.3760184645652771,9.71202278137207,-0.2709476947784424,-1.1455737352371216,-0.0490483157336711,-0.2249179184436798,0.831894040107727,0.4083115458488464,-0.605939507484436,-0.4376813769340515,-0.5239790081977844
5045845,9.646161079406738,0.1271341741085052,1.8139989376068115,0.2267684191465377,-0.4108532965183258,0.6615695953369141,0.6708979606628418,-0.3085351288318634,-0.5597705841064453,-0.3759773075580597,9.721919059753418,-0.2673603594303131,-1.123971939086914,-0.0787718519568443,-0.0680913552641868,0.8401925563812256,0.4083413481712341,-0.6059970259666443,-0.4376168549060821,-0.5239432454109192
5046012,9.644491195678713,0.1092030629515647,1.8430019617080688,0.1738525927066803,-0.3235267996788025,0.6283755302429199,0.6708822846412659,-0.3086240887641907,-0.5597496628761292,-0.3759634792804718,9.706753730773926,-0.2566644251346588,-1.160990595817566,-0.1810049265623092,-0.0536329820752143,0.7330802083015442,0.408368319272995,-0.6060409545898438,-0.4375688433647156,-0.5239116549491882
5046179,9.642531394958496,0.1171386688947677,1.8398942947387693,0.1530807018280029,-0.2330371439456939,0.4970592260360718,0.6708554625511169,-0.3087148368358612,-0.5597158670425415,-0.3759871125221252,9.706993103027344,-0.2709085345268249,-1.1609762907028198,-0.180415853857994,-0.2322431355714798,0.669842541217804,0.4083214998245239,-0.6061418652534485,-0.4374711513519287,-0.5239128470420837
5046345,9.663572311401367,0.126415342092514,1.8125717639923096,-0.1147704944014549,-0.2437688708305359,0.5659829378128052,0.6708301901817322,-0.3088215589523315,-0.5596741437911987,-0.3760066330432892,9.689703941345217,-0.2830208837985992,-1.1446832418441772,-0.1938240975141525,-0.3130512237548828,0.6576252579689026,0.4083160161972046,-0.6062079668045044,-0.4374354183673858,-0.5238705277442932
5046512,9.648443222045898,0.1170814484357833,1.8319014310836792,-0.128114715218544,-0.2411307543516159,0.6475082635879517,0.6708076000213623,-0.3089374899864197,-0.559627115726471,-0.3760215640068054,9.70335578918457,-0.294092983007431,-1.1457524299621582,-0.0740463063120842,-0.390401542186737,0.700923502445221,0.4082951545715332,-0.606295645236969,-0.4373814165592193,-0.5238302946090698
5046679,9.654865264892578,0.1175248995423317,1.8212193250656128,-0.0114744892343878,-0.0089260255917906,0.5224670767784119,0.6708040833473206,-0.3090161085128784,-0.5595711469650269,-0.376046746969223,9.700560569763184,-0.2871741652488708,-1.1513545513153076,0.0971169471740722,-0.3700266480445862,0.925457239151001,0.4083209037780761,-0.6063748598098755,-0.4373347163200378,-0.5237575769424438
5046845,9.682120323181152,0.1154077053070068,1.8451839685440063,0.3090108335018158,-0.0727913007140159,0.4087466597557068,0.6707891225814819,-0.3090787231922149,-0.5595323443412781,-0.3760796785354614,9.716104507446287,-0.2881142199039459,-1.1808679103851318,0.179858773946762,-0.249467670917511,0.9701130390167236,0.4083855748176574,-0.6064252853393555,-0.4373073577880859,-0.5236715078353882
5047012,9.653528213500977,0.0698589831590652,1.822441577911377,0.5427778959274292,0.02479949593544,0.942207932472229,0.6708313226699829,-0.309141993522644,-0.5594807267189026,-0.3760291934013366,9.732451438903809,-0.272224485874176,-1.1519607305526731,0.1773487478494644,-0.449016273021698,0.6833276152610779,0.4082985520362854,-0.606570303440094,-0.4371819496154785,-0.5236761569976807
5047179,9.600329399108888,0.0958888158202171,1.8272488117218015,0.0233907978981733,0.1443467736244201,0.7662999629974365,0.6708260774612427,-0.3092717826366424,-0.5593766570091248,-0.3760868608951568,9.772966384887695,-0.2518758475780487,-1.1738685369491575,0.0162448547780513,-0.1979221403598785,0.0005442698020488,0.408290296792984,-0.6065540909767151,-0.4372399747371673,-0.5236530303955078
5047345,9.660369873046877,0.1011926755309104,1.8042649030685425,0.4871855676174164,-0.428487628698349,0.2420976310968399,0.6708141565322876,-0.3092735111713409,-0.5594167113304138,-0.3760469257831573,9.743349075317385,-0.2803816199302673,-1.1712584495544434,-0.1027581542730331,0.0562647059559822,-0.1031679585576057,0.4082022607326507,-0.6065828800201416,-0.4371940493583679,-0.5237266421318054
5047512,9.725683212280272,0.1266710311174392,1.8383820056915283,1.2586913108825684,-0.283558189868927,0.1605852395296096,0.6708030700683594,-0.3092465996742248,-0.5594548583030701,-0.3760320544242859,9.743534088134766,-0.2894296050071716,-1.1547430753707886,-0.0404552593827247,0.3708398640155792,0.3128783106803894,0.408219963312149,-0.6065695881843567,-0.4371545612812042,-0.5237612128257751
5047679,9.694062232971191,0.1542828828096389,1.8592005968093872,1.3699272871017456,0.2568121552467346,0.2215562611818313,0.6708899736404419,-0.309115320444107,-0.5594818592071533,-0.3759448528289795,9.698969841003418,-0.2791403234004974,-1.1506648063659668,-0.0002305142988916,0.6388127207756042,0.685453474521637,0.4082391858100891,-0.6065964102745056,-0.4370145201683044,-0.5238319039344788
5047845,9.622570991516112,0.0948497429490089,1.875012993812561,1.0965245962142944,0.395325630903244,1.0649441480636597,0.6709912419319153,-0.3091168701648712,-0.5594170689582825,-0.3758594989776611,9.692254066467283,-0.2735527455806732,-1.147179365158081,-0.0635579228401184,0.7430821061134338,0.8907136917114258,0.4083307981491089,-0.6065853238105774,-0.4369104504585266,-0.5238602757453918
5048012,9.61816120147705,0.0514444150030612,1.860587477684021,0.6977347135543823,-0.1972818076610565,0.7875968813896179,0.671036958694458,-0.3091285824775696,-0.5594213604927063,-0.3757615089416504,9.685956001281738,-0.2626079320907593,-1.152254343032837,-0.1102498620748519,0.6224974393844604,0.7726775407791138,0.4083857834339142,-0.6065914630889893,-0.4368025064468384,-0.5239003896713257
5048179,9.672452926635742,0.1076579764485359,1.8381282091140747,0.910973310470581,-0.200726717710495,0.3110342025756836,0.6710710525512695,-0.3090743124485016,-0.5594621896743774,-0.3756844699382782,9.72049617767334,-0.303611695766449,-1.1740927696228027,-0.1601434201002121,0.6116504669189453,0.7247434258460999,0.4084528982639313,-0.6065801382064819,-0.4367209076881408,-0.5239291191101074
5048345,9.633000373840332,0.1438100188970565,1.8528294563293457,0.0297683589160442,0.0100081618875265,0.3714161515235901,0.6710802316665649,-0.3091075122356415,-0.5594269633293152,-0.3756929636001587,9.721454620361328,-0.2965469360351562,-1.1670193672180176,0.018396321684122,0.5510764122009277,0.828474760055542,0.4084528386592865,-0.6066418886184692,-0.4365465939044952,-0.5240028500556946
5048512,9.645270347595217,0.0856644660234451,1.814145565032959,0.1470489203929901,0.0259136483073234,0.5632808804512024,0.6711120009422302,-0.3091351985931396,-0.5593926310539246,-0.3756648600101471,9.729737281799316,-0.3098293840885162,-1.1559467315673828,0.2890584766864776,0.5591828227043152,0.9136497378349304,0.4085522294044494,-0.6066350936889648,-0.4364651143550873,-0.5240013003349304
5048679,9.656763076782228,0.0934794023633003,1.8270455598831177,0.5477595925331116,0.261230319738388,0.6429107189178467,0.6711879372596741,-0.3091131746768951,-0.5593559741973877,-0.3756017386913299,9.710371017456056,-0.3036948144435882,-1.1478172540664673,0.4350636899471283,0.4952535629272461,0.8964765071868896,0.4086456894874573,-0.6066343784332275,-0.4363845288753509,-0.5239961743354797
5048845,9.65403938293457,0.1080622524023056,1.8478013277053835,0.4379835426807403,0.1550912857055664,0.5564807653427124,0.6712258458137512,-0.3091300427913666,-0.5593113303184509,-0.3755865693092346,9.695454597473145,-0.2847609221935272,-1.135101079940796,0.4882996678352356,0.3708014488220215,0.7275094985961914,0.4087129235267639,-0.6066375970840454,-0.4363187849521637,-0.5239947438240051
5049012,9.664610862731934,0.0935607329010963,1.8285648822784424,0.5128494501113892,0.1209495812654495,0.5318413376808167,0.6712406873703003,-0.3091726303100586,-0.5592565536499023,-0.3756066262722015,9.70155906677246,-0.2890520691871643,-1.1468816995620728,0.3641037344932556,0.3398228883743286,0.6939568519592285,0.4087752401828766,-0.6066392064094543,-0.4362611174583435,-0.5239923000335693
5049179,9.65664291381836,0.1082196086645126,1.827306032180786,0.4543629288673401,0.102188266813755,0.3399253785610199,0.6712474822998047,-0.3091962039470672,-0.55921471118927,-0.3756374716758728,9.71965217590332,-0.2718954682350158,-1.1454055309295654,0.2882388830184936,0.2046646773815155,0.752405047416687,0.4087989330291748,-0.6066821217536926,-0.436168760061264,-0.5240010619163513
5049345,9.668426513671877,0.1040533259510994,1.821652054786682,0.522415816783905,0.127877801656723,0.4565143287181854,0.6712836027145386,-0.3091940879821777,-0.5591838359832764,-0.3756206333637237,9.698952674865724,-0.2688556909561157,-1.1276925802230835,0.111741803586483,0.3182697892189026,0.6588546633720398,0.4087738692760467,-0.6067478656768799,-0.4360267221927643,-0.5240626335144043
5049512,9.650495529174805,0.088214486837387,1.8312865495681765,0.4193886816501617,0.263471394777298,0.4380091428756714,0.6713181138038635,-0.3092032074928283,-0.5591293573379517,-0.3756324052810669,9.734798431396484,-0.2997941374778747,-1.1469054222106934,-0.1326097548007965,0.3698921501636505,0.9751458764076232,0.4087968170642853,-0.6068085432052612,-0.4358847737312317,-0.5240926146507263
5049679,9.650663375854492,0.1045003533363342,1.8548678159713743,0.5509868264198303,0.3231233954429626,0.377319872379303,0.6713616251945496,-0.3091889321804046,-0.5590803027153015,-0.3756395578384399,9.704582214355469,-0.2683737874031067,-1.1360939741134644,-0.0900670513510704,0.4756598174571991,0.8800715208053589,0.4088622629642486,-0.6068195700645447,-0.4357943534851074,-0.524104118347168
5049845,9.641679763793944,0.1142848581075668,1.844253659248352,0.0384254530072212,0.1540667861700058,0.318589985370636,0.67136150598526,-0.3092342913150787,-0.5590192079544067,-0.3756933808326721,9.714448928833008,-0.2709584832191467,-1.1370408535003662,-0.1616417318582534,0.6152234077453613,0.4719715714454651,0.4088931977748871,-0.6068024039268494,-0.4357203841209411,-0.524161159992218
5050012,9.627962112426758,0.077614426612854,1.845162034034729,0.2562998831272125,0.2772382497787475,0.6786532402038574,0.6713807582855225,-0.3093104958534241,-0.5589252710342407,-0.3757362067699432,9.711377143859863,-0.2989063858985901,-1.1229610443115234,-0.0969056487083435,0.3502088487148285,0.406953752040863,0.4089061915874481,-0.6067986488342285,-0.4356712698936462,-0.5241962671279907
5050179,9.607184410095217,0.0975911244750022,1.892696976661682,0.4082856476306915,-0.0859690234065055,0.0513214468955993,0.6713629961013794,-0.3093108832836151,-0.5589196085929871,-0.3757759034633636,9.736017227172852,-0.318150132894516,-1.1350631713867188,-0.0326305776834487,0.4436183869838714,0.5248618125915527,0.408933162689209,-0.606796383857727,-0.4356037080287933,-0.5242339372634888
5050345,9.680185317993164,0.1514595299959182,1.8161518573760984,0.4296338260173797,0.0167699139565229,0.1357409060001373,0.6713756918907166,-0.3092859387397766,-0.5589141845703125,-0.3757818341255188,9.73909854888916,-0.3135920464992523,-1.1057485342025757,0.2940530180931091,0.6821622848510742,0.7744448781013489,0.409012496471405,-0.6067808866500854,-0.4355127513408661,-0.524265468120575
5050512,9.650412559509276,0.1173952296376228,1.8800240755081177,-0.0458211190998554,0.5014133453369141,0.7386638522148132,0.6714181900024414,-0.3093603551387787,-0.55879145860672,-0.3758269548416137,9.713094711303713,-0.2948003113269806,-1.1292448043823242,0.4189276993274688,0.8254396915435791,0.8834909200668335,0.4091284275054931,-0.6067470908164978,-0.4354225099086761,-0.5242893695831299
5050679,9.64821720123291,0.0472631566226482,1.849385499954224,0.6950197815895081,0.1090652793645858,0.3184491097927093,0.6714408993721008,-0.3093467652797699,-0.5587677359580994,-0.3758328557014465,9.709006309509276,-0.2883915603160858,-1.133081555366516,0.4850597083568573,0.7497925162315369,0.6295409202575684,0.4091916680335998,-0.6067269444465637,-0.4353247880935669,-0.5243443846702576
5050845,9.66342544555664,0.0932605564594268,1.8753886222839355,0.2485392689704895,0.1363300234079361,0.3242504000663757,0.6714609861373901,-0.309353768825531,-0.5587286949157715,-0.3758491277694702,9.692492485046388,-0.2947833240032196,-1.1299010515213013,0.4288782179355621,0.7013205289840698,0.4133825600147247,0.4092846214771271,-0.6066545844078064,-0.4353086948394775,-0.5243688225746155
5051012,9.6314697265625,0.112890139222145,1.8562089204788208,0.2488337755203247,-0.0624565631151199,0.2257055044174194,0.6714614033699036,-0.3093610107898712,-0.5587146282196045,-0.3758634924888611,9.711788177490234,-0.2819159924983978,-1.109668493270874,0.3034272491931915,0.4399557709693908,0.280657559633255,0.4093116521835327,-0.6066242456436157,-0.4352782070636749,-0.524408221244812
5051179,9.65075969696045,0.0952665880322456,1.846099019050598,0.4348460137844085,-0.0904512405395507,0.1439113467931747,0.6714344024658203,-0.3093878924846649,-0.558692991733551,-0.3759218752384186,9.721407890319824,-0.2644356191158294,-1.107909083366394,0.2381020486354828,0.4313242435455322,0.4298130869865417,0.4093080461025238,-0.6066368222236633,-0.4351892173290252,-0.5244704484939575
5051345,9.65070629119873,0.1039352938532829,1.8552972078323364,0.5496677160263062,-0.0039699682965874,0.304323673248291,0.671420693397522,-0.3094231486320495,-0.5586555004119873,-0.375973105430603,9.721150398254396,-0.2538999915122986,-1.0991294384002686,0.0633209869265556,0.5216858386993408,0.4357040226459503,0.4093203246593475,-0.6066316962242126,-0.4351110458374023,-0.5245317816734314
5051512,9.664138793945312,0.1003233417868614,1.857489228248596,0.6214473247528076,0.1276857256889343,0.3650386035442352,0.6714394688606262,-0.3094260692596435,-0.5586189031600952,-0.3759914040565491,9.72946548461914,-0.2451488375663757,-1.1102371215820312,-0.1834381371736526,0.617464542388916,0.2959227263927459,0.4093157947063446,-0.6066161394119263,-0.4350327551364898,-0.5246180891990662
5051679,9.655265808105469,0.1084951162338256,1.8617126941680908,0.6495572328567505,0.1657205671072006,0.2618706226348877,0.6714400053024292,-0.3094405829906463,-0.5585708022117615,-0.3760497570037842,9.71448802947998,-0.2487609833478927,-1.1012358665466309,-0.4199074506759643,0.3852470219135284,0.1706894338130951,0.4093154370784759,-0.606582760810852,-0.4350196719169616,-0.5246677994728088
5051845,9.636419296264648,0.1157797202467918,1.874669313430786,0.4871087074279785,-0.0010373143013566,0.1013430431485176,0.6714264154434204,-0.3094437420368194,-0.5585501194000244,-0.3761021196842193,9.70112419128418,-0.2668563425540924,-1.10595965385437,-0.6393569707870483,0.280337393283844,0.3853878974914551,0.4092296659946441,-0.6066456437110901,-0.4348901808261871,-0.524769127368927
5052012,9.654586791992188,0.1343688368797302,1.856680989265442,0.4001920223236084,-0.0104371747002005,0.1093085929751396,0.6714116334915161,-0.3094519376754761,-0.558527410030365,-0.376155823469162,9.695416450500488,-0.2952807247638702,-1.0934414863586426,-0.6532135009765625,0.2273575216531753,0.5600023865699768,0.4091338813304901,-0.606739342212677,-0.4347262382507324,-0.5248713493347168
5052179,9.66320514678955,0.1372476816177368,1.848784685134888,0.3420255780220032,0.0022090950515121,0.4371639490127563,0.6714197993278503,-0.3094808757305145,-0.5584914088249207,-0.3761709332466125,9.71900749206543,-0.2893048822879791,-1.094763159751892,-0.5040963292121887,0.1551425158977508,0.7307239174842834,0.4090519547462463,-0.606846272945404,-0.4345544576644897,-0.5249537825584412
5052345,9.654812812805176,0.0955633595585823,1.8512593507766724,0.1005106419324874,0.1012406051158905,0.5746657848358154,0.6714473366737366,-0.3095166385173797,-0.5584388375282288,-0.3761704862117767,9.739228248596191,-0.308487594127655,-1.099429488182068,-0.1999967694282531,0.0879988372325897,0.8745007514953613,0.409021645784378,-0.6069340109825134,-0.4344184696674347,-0.5249887704849243
5052512,9.637514114379885,0.0894230604171752,1.8544100522994995,0.1300804913043975,0.0708383172750473,0.3722741603851318,0.6714548468589783,-0.3095461130142212,-0.5583933591842651,-0.3762001395225525,9.736039161682127,-0.3189691007137298,-1.1034924983978271,0.0841313078999519,0.1964685916900634,0.6795880794525146,0.4090323746204376,-0.6069639325141907,-0.4343431890010834,-0.5250081419944763
5052679,9.650370597839355,0.1242946088314056,1.8746262788772583,0.0872944891452789,0.0729641765356063,0.3355455994606018,0.6714450120925903,-0.3095968067646026,-0.5583356618881226,-0.3762615919113159,9.713679313659668,-0.3334576487541199,-1.1257160902023315,0.4006402194499969,0.2847940325736999,0.7553889155387878,0.4090637266635895,-0.6069881319999695,-0.4342584609985351,-0.5250255465507507
5052845,9.653642654418944,0.0979129821062088,1.8744404315948489,0.1145592033863067,0.044777400791645,0.4395587146282196,0.6714614033699036,-0.3096220791339874,-0.5582954287528992,-0.3762712180614471,9.714692115783691,-0.3154976665973663,-1.1089012622833252,0.6993226408958435,0.2387679666280746,0.7708205580711365,0.4091860651969909,-0.6069444417953491,-0.434275358915329,-0.524966835975647
5053012,9.64899730682373,0.0958496555685997,1.8770185708999636,0.3309608399868011,-0.1239270493388176,0.4517759978771209,0.671458899974823,-0.3096597790718078,-0.5582696199417114,-0.3762831687927246,9.716979026794434,-0.2813028693199157,-1.1262844800949097,0.9094749093055724,0.2386399358510971,0.79081130027771,0.4092567265033722,-0.6069482564926147,-0.4342236220836639,-0.5249501466751099
5053179,9.654905319213867,0.0891119316220283,1.8704172372817995,0.5117865204811096,-0.1318669766187667,0.6175413727760315,0.6714516878128052,-0.3097249865531921,-0.5582290291786194,-0.3763023316860199,9.710777282714844,-0.2633099555969238,-1.0921173095703125,0.7604859471321106,0.2578366696834564,0.9610077142715454,0.4093479216098785,-0.6069535613059998,-0.4341679811477661,-0.5249189138412476
5053345,9.646937370300291,0.1031986102461814,1.8786603212356567,0.6126238107681274,-0.2145575731992721,0.5173572897911072,0.6714450716972351,-0.309764564037323,-0.5582131743431091,-0.3763051331043243,9.709081649780272,-0.2500221729278564,-1.1011890172958374,0.5509099364280701,0.0663689002394676,0.9487648606300354,0.4093992710113525,-0.6069909930229187,-0.4341002702713012,-0.5248915553092957
5053512,9.642023086547852,0.1007615178823471,1.8903175592422483,0.6742863059043884,-0.2226127684116363,0.4949077665805816,0.671438455581665,-0.3097976148128509,-0.5582017302513123,-0.3763067126274109,9.716943740844728,-0.2448881119489669,-1.09271502494812,0.3515919148921966,0.0334437824785709,1.0084422826766968,0.4094322025775909,-0.6070484519004822,-0.4340114295482635,-0.5248729586601257
5053679,9.651825904846191,0.114320620894432,1.8737859725952148,0.6094477772712708,-0.1974098831415176,0.5071122050285339,0.6714594960212708,-0.3097952008247375,-0.55820631980896,-0.3762643933296203,9.715211868286133,-0.2697403728961944,-1.089774250984192,0.0621812306344509,-0.0941010415554046,1.0076099634170532,0.4094516336917877,-0.6071150302886963,-0.4339328110218048,-0.5248457789421082
5053845,9.65646743774414,0.1018111780285835,1.852546453475952,0.5609757304191589,-0.115487664937973,0.6016102433204651,0.6714816689491272,-0.3098129630088806,-0.558188796043396,-0.3762362003326416,9.71985149383545,-0.2893157601356506,-1.097739338874817,-0.1970769315958023,-0.1004530116915702,0.8243767619132996,0.4094510674476623,-0.6071710586547852,-0.4338719844818115,-0.5248318314552307
5054012,9.658324241638184,0.1098110228776931,1.8691798448562624,0.346418172121048,-0.07480189204216,0.5790838599205017,0.6715124845504761,-0.3098230063915252,-0.5581702589988708,-0.3762003183364868,9.733623504638672,-0.2802029550075531,-1.105427384376526,-0.2055674940347671,-0.0233075581490993,0.738727867603302,0.4093755185604095,-0.6072751879692078,-0.4337296783924103,-0.5248878002166748
5054179,9.65841007232666,0.1079907864332199,1.864104986190796,0.3419231474399566,-0.046820018440485,0.5769836902618408,0.6715390682220459,-0.3098407089710235,-0.5581436157226562,-0.3761778175830841,9.701112747192385,-0.2998614013195038,-1.1011536121368408,-0.2166962176561355,0.0608365610241889,0.5868829488754272,0.4093488454818725,-0.6073169112205505,-0.433661550283432,-0.5249164700508118
5054346,9.642254829406738,0.1011386737227439,1.8966096639633176,0.2418414950370788,-0.0374201536178588,0.5198929309844971,0.6715689301490784,-0.3098474144935608,-0.5581216216087341,-0.3761514127254486,9.71578311920166,-0.2823379933834076,-1.1020833253860474,-0.0946004986763,-0.1392050236463546,0.5542780160903931,0.4093117117881775,-0.6073694825172424,-0.4336103796958923,-0.5249268412590027
5054512,9.644977569580078,0.1202535480260849,1.8839924335479736,0.3072435259819031,-0.1333012878894806,0.5074964165687561,0.6715635061264038,-0.3098963797092438,-0.5580878257751465,-0.3761711120605469,9.7199068069458,-0.3031480610370636,-1.1164953708648682,-0.0793353393673896,-0.1657269597053527,0.3859385251998901,0.4092645645141601,-0.6074091196060181,-0.433581680059433,-0.5249414443969727
5054679,9.645813941955566,0.1121355593204498,1.8682142496109009,0.2198529988527298,-0.1777393221855163,0.5055114030838013,0.6715382933616638,-0.3099735379219055,-0.5580434799194336,-0.3762182891368866,9.7300443649292,-0.2977478802204132,-1.0950168371200562,0.0537162385880947,-0.2374040931463241,0.5168834924697876,0.4092495143413543,-0.6074419617652893,-0.4335736930370331,-0.5249218344688416
5054846,9.637469291687012,0.1022758036851883,1.8646669387817385,0.1636587232351303,-0.1941442489624023,0.5237604975700378,0.6715202927589417,-0.3100432157516479,-0.5580052733421326,-0.3762499392032623,9.695984840393066,-0.2891005873680115,-1.1231651306152344,0.0729641839861869,0.0277705714106559,0.782435953617096,0.4092510044574737,-0.6074879169464111,-0.4335026144981384,-0.5249262452125549
5055012,9.676773071289062,0.1185333877801895,1.873335361480713,0.2531879246234894,-0.0980198085308075,0.1964045763015747,0.6715068221092224,-0.310056060552597,-0.5579861402511597,-0.3762917220592499,9.740065574645996,-0.2899671494960785,-1.1163476705551147,0.1510060727596283,-0.0055323434062302,0.9223197102546692,0.4092649519443512,-0.6075423955917358,-0.433424562215805,-0.5249168276786804
5055179,9.655025482177734,0.066310241818428,1.853374481201172,0.6589826941490173,-0.1455569565296173,0.6930091381072998,0.6715648770332336,-0.3100272119045257,-0.5579965114593506,-0.3761964440345764,9.716796875,-0.2780930399894714,-1.1242700815200806,0.1660215109586715,-0.1015159338712692,0.7417564988136292,0.4092592597007751,-0.6075921654701233,-0.4333690702915191,-0.524909496307373
5055346,9.595579147338867,0.0911467969417572,1.8989624977111816,0.0140677755698561,-0.1233507469296455,0.6512348651885986,0.6715487241744995,-0.3101232945919037,-0.5579337477684021,-0.3762390911579132,9.739150047302246,-0.266470342874527,-1.0863909721374512,0.0352878980338573,-0.2065536081790924,-0.0577438287436962,0.4091850817203522,-0.6075974702835083,-0.4333944618701935,-0.5249398946762085
5055512,9.631392478942873,0.1011229157447815,1.849023699760437,0.541100263595581,-0.7177318334579468,0.198171854019165,0.6715042591094971,-0.3101323843002319,-0.5579953193664551,-0.3762196898460388,9.718279838562012,-0.3070996105670929,-1.1012606620788574,-0.1244777143001556,-0.0194784570485353,-0.2148521095514297,0.4091171026229858,-0.6075707674026489,-0.4334351420402527,-0.524990439414978
5055679,9.721604347229004,0.1099991723895073,1.8925206661224363,1.078518629074097,-0.5185034871101379,-0.0337575376033782,0.6715002059936523,-0.3100398778915405,-0.5580882430076599,-0.376165360212326,9.732032775878906,-0.277953565120697,-1.0969228744506836,-0.0331044122576713,0.0093166194856166,0.2129119485616684,0.4090809524059295,-0.6075714826583862,-0.4334314465522766,-0.5250208377838135
5055846,9.703478813171388,0.1548376083374023,1.8581105470657349,1.5858807563781738,-0.3104259371757507,0.223272293806076,0.671525239944458,-0.309943825006485,-0.5581559538841248,-0.3760994374752044,9.722033500671388,-0.2716200947761535,-1.0774970054626465,-0.08344616740942,0.1914357244968414,0.4023818969726562,0.4090601205825805,-0.6075776815414429,-0.4333896338939667,-0.5250644683837891
5056012,9.60567855834961,0.1138598546385765,1.9245049953460691,1.1850290298461914,0.2897884547710418,1.0683375597000122,0.6716377139091492,-0.3099060356616974,-0.558114230632782,-0.3759917318820953,9.691082000732422,-0.2489219158887863,-1.12645161151886,-0.1774319559335708,0.2235412150621414,0.5798906683921814,0.4090653955936432,-0.6075819730758667,-0.4333457052707672,-0.5250915884971619
5056179,9.613579750061035,0.0650671273469924,1.9155710935592647,0.8675340414047241,-0.4898684918880462,0.4127934277057647,0.6716423630714417,-0.3098799288272857,-0.5581649541854858,-0.3759292662143707,9.6983060836792,-0.2537819743156433,-1.1010499000549316,-0.45675128698349,0.1658742576837539,0.381123423576355,0.4090132415294647,-0.6076054573059082,-0.4332864284515381,-0.5251540541648865
5056346,9.668707847595217,0.1112433448433876,1.8779600858688357,0.7831786870956421,-0.5351389050483704,-0.0242424178868532,0.6716015934944153,-0.3098505735397339,-0.5582225322723389,-0.3759410083293915,9.71557903289795,-0.2956916987895965,-1.1120399236679075,-0.5443594455718994,0.117594301700592,0.3233923316001892,0.4089100658893585,-0.6076624989509583,-0.433187872171402,-0.5252497792243958
5056512,9.632532119750977,0.1343187689781189,1.890926718711853,0.2322495430707931,-0.4500663578510284,0.2593093514442444,0.6715676188468933,-0.3098790943622589,-0.5582364797592163,-0.3759573101997375,9.727678298950195,-0.3152391314506531,-1.100324273109436,-0.394704520702362,0.0991787761449813,0.6199105978012085,0.4088613390922546,-0.6077137589454651,-0.4330996572971344,-0.525300920009613
5056679,9.63369846343994,0.0845916047692298,1.893623232841492,0.4531462490558624,-0.4190877676010132,0.4623412191867828,0.6715385913848877,-0.3099280595779419,-0.558234691619873,-0.3759715259075165,9.732993125915527,-0.3233042359352112,-1.105796456336975,-0.140933871269226,0.0988970249891281,0.8322141766548157,0.4088629782199859,-0.607753574848175,-0.4330261051654815,-0.525314211845398
5056846,9.643987655639648,0.0852534770965576,1.861841082572937,0.4455009400844574,-0.3652499318122864,0.583028256893158,0.6715307235717773,-0.3099690079689026,-0.5582300424575806,-0.3759588599205017,9.717329978942873,-0.3175564110279083,-1.1081234216690063,0.1649521887302398,0.0985512658953666,0.7221948504447937,0.4088815748691559,-0.6077693700790405,-0.4329839050769806,-0.5253162384033203
5057012,9.648075103759766,0.1185299903154373,1.870864033699036,0.2613455653190613,-0.3481405973434448,0.6016742587089539,0.671522319316864,-0.3100203573703766,-0.5582172274589539,-0.3759504556655884,9.700340270996094,-0.3117522895336151,-1.1274315118789673,0.3611454367637634,-0.1153595894575119,0.6319100856781006,0.4088988304138183,-0.6077824234962463,-0.4329798817634582,-0.5252909660339355
5057179,9.667572975158691,0.0806223303079605,1.8731205463409424,0.4357808530330658,-0.4313306510448456,0.4873008131980896,0.6715108156204224,-0.3100463151931762,-0.5582290291786194,-0.375931978225708,9.702866554260254,-0.3002557158470154,-1.1300057172775269,0.513976514339447,-0.3143191039562225,0.634253740310669,0.4089412987232208,-0.6077818274497986,-0.4330279231071472,-0.5252190232276917
5057346,9.6821870803833,0.0990732908248901,1.8490468263626096,0.5646383762359619,-0.5199506282806396,0.5310088396072388,0.6715074181556702,-0.3100576102733612,-0.5582602024078369,-0.375882476568222,9.710800170898438,-0.2881845533847809,-1.1027724742889404,0.5806719064712524,-0.3621379435062408,0.7554272413253784,0.408951461315155,-0.6078242063522339,-0.4330223500728607,-0.5251666307449341
5057512,9.657254219055176,0.0894407778978347,1.8348461389541624,0.6200129985809326,-0.3924377560615539,0.5079318284988403,0.6715068221092224,-0.3100672960281372,-0.5582758784294128,-0.3758524060249328,9.742661476135254,-0.2869691848754883,-1.1145106554031372,0.4289678335189819,-0.2379163354635238,0.6049399375915527,0.4089813828468323,-0.6078259944915771,-0.4330549240112304,-0.5251144766807556
5057679,9.646354675292969,0.1095685437321662,1.864834308624268,0.6929067373275757,-0.3296482264995575,0.5428547263145447,0.6714912056922913,-0.3101067543029785,-0.5582667589187622,-0.3758614361286163,9.711030960083008,-0.2578624486923218,-1.10461163520813,0.2255774289369583,-0.0585506297647953,0.6169906854629517,0.4089857041835785,-0.6078425049781799,-0.4330379664897918,-0.525105893611908
5057846,9.648808479309082,0.1113324835896492,1.871225953102112,0.8235315680503845,-0.2040948122739792,0.3698281943798065,0.6714938282966614,-0.3100946247577667,-0.5582699179649353,-0.3758617639541626,9.707368850708008,-0.2791334390640259,-1.1256130933761597,0.0603627264499664,-0.0636859685182571,0.8956055641174316,0.4090145826339721,-0.6078712344169617,-0.433006227016449,-0.5250764489173889
5058012,9.6453275680542,0.119949571788311,1.8966879844665527,0.6070273518562317,-0.1251948624849319,0.2675438523292541,0.6715048551559448,-0.3100649118423462,-0.5582727789878845,-0.3758623301982879,9.700730323791504,-0.2525660693645477,-1.1411463022232056,-0.0827546268701553,-0.0707550719380378,0.6904606819152832,0.4090350270271301,-0.6078787446022034,-0.433007001876831,-0.5250512957572937
5058179,9.634921073913574,0.111931711435318,1.8428446054458616,0.0903167873620987,-0.4364404082298279,0.5121323466300964,0.6714529991149902,-0.3101634979248047,-0.5582429766654968,-0.3759177029132843,9.712342262268066,-0.2877984941005707,-1.1281791925430298,-0.2844546139240265,-0.2105876058340072,0.2628310918807983,0.4089473783969879,-0.6079208850860596,-0.4329831302165985,-0.5250903964042664
5058346,9.641050338745115,0.0732013881206512,1.8922606706619265,0.3143254518508911,-0.1330451667308807,0.6757205724716187,0.6714418530464172,-0.3102408647537231,-0.5581862330436707,-0.3759580850601196,9.722795486450195,-0.2973830997943878,-1.1034780740737915,-0.3673885464668274,-0.4219819903373718,0.2110294252634048,0.4088489115238189,-0.6079691052436829,-0.4329872727394104,-0.5251078605651855
5058512,9.62590217590332,0.1248672306537628,1.8320342302322388,0.5243752002716064,-0.5564230680465698,-0.0843170061707496,0.671406626701355,-0.3101961016654968,-0.558251678943634,-0.3759608864784241,9.73953628540039,-0.3055761754512787,-1.1126904487609863,-0.2852230072021484,-0.2636955380439758,0.3095870912075043,0.4087778925895691,-0.6080036759376526,-0.4329835474491119,-0.525126039981842
5058679,9.700186729431152,0.1566450446844101,1.851377248764038,0.5217626690864563,0.0408202409744262,0.3965293765068054,0.6714256405830383,-0.3101877272129059,-0.5582202672958374,-0.3759805262088775,9.730066299438477,-0.3207572102546692,-1.103520750999451,-0.1358881741762161,-0.0190814584493637,0.5525234937667847,0.4087266325950622,-0.6080482006072998,-0.4329231977462768,-0.5251641869544983
5058846,9.635778427124023,0.0832255259156227,1.869287371635437,0.1570634692907333,0.0576733909547328,0.5414844155311584,0.6714367270469666,-0.3102259933948517,-0.5581604242324829,-0.3760178685188293,9.72593879699707,-0.3024827539920807,-1.1172930002212524,-0.0796811133623123,0.0832989141345024,0.4148297011852264,0.4086804687976837,-0.6080690622329712,-0.4328784644603729,-0.5252128839492798
5059012,9.651253700256348,0.0712630823254585,1.866007685661316,0.6489297747612,0.0236725378781557,0.1963533461093902,0.6714534163475037,-0.3101826906204223,-0.5581503510475159,-0.376038908958435,9.720174789428713,-0.2933062314987182,-1.135420799255371,-0.0041108382865786,0.2633689939975738,0.2707197964191437,0.408677726984024,-0.6080325841903687,-0.4328845739364624,-0.525252103805542
5059179,9.638601303100586,0.1180148422718048,1.891699194908142,0.4143686294555664,-0.1284989118576049,0.1748642921447754,0.6714324951171875,-0.3101888000965118,-0.5581318736076355,-0.3760986924171448,9.727849006652832,-0.2868905067443847,-1.1183909177780151,0.0318685993552207,0.2139492779970169,0.0466471277177333,0.4086493253707886,-0.6079900860786438,-0.4329071640968323,-0.5253047943115234
5059346,9.634248733520508,0.1302347481250763,1.9157849550247192,0.0344042591750621,-0.1842961758375167,0.1439881920814514,0.6713985800743103,-0.3102168142795563,-0.558107852935791,-0.3761718571186065,9.718511581420898,-0.2820875644683838,-1.1199358701705933,-0.0343466289341449,0.2929644584655761,-0.0724199041724205,0.4086244106292724,-0.6079267859458923,-0.4329466521739959,-0.5253649950027466
5059512,9.644991874694824,0.0995830669999122,1.892135500907898,0.2818485200405121,-0.2693431377410888,-0.0432726554572582,0.6713439226150513,-0.3102315664291382,-0.5581014752388,-0.3762665688991546,9.71289348602295,-0.2838650345802307,-1.1425875425338743,-0.0331812500953674,0.2525732219219208,0.0991275459527969,0.4085860848426819,-0.6078959703445435,-0.4329466223716736,-0.5254305005073547
5059679,9.635010719299316,0.1138628646731376,1.8566523790359497,0.4568217396736145,-0.2561910450458526,0.01399093773216,0.6712974905967712,-0.3102389872074127,-0.5580970048904419,-0.3763500154018402,9.72671604156494,-0.259882777929306,-1.1121394634246826,-0.0612911917269229,0.2126046121120453,0.13962122797966,0.4085446298122406,-0.6078729629516602,-0.4329428374767303,-0.5254924893379211
5059846,9.660605430603027,0.1049831435084343,1.878184676170349,0.5473625063896179,-0.2566904723644256,0.2151402682065963,0.6712806224822998,-0.3102319836616516,-0.558100700378418,-0.3763804733753204,9.742189407348633,-0.2399170249700546,-1.11827290058136,-0.2871823906898498,0.2017576247453689,0.2400101870298385,0.4084795117378235,-0.6078784465789795,-0.4329021871089935,-0.525570273399353
5060012,9.644959449768066,0.101067416369915,1.871135950088501,0.651759922504425,-0.2266851812601089,0.2581695914268493,0.6712652444839478,-0.3102281093597412,-0.5580984354019165,-0.3764141798019409,9.732945442199709,-0.2381575256586074,-1.0923954248428345,-0.4840543866157532,0.3227392137050628,0.3399253487586975,0.4084008038043976,-0.6079011559486389,-0.4328181743621826,-0.5256744027137756
5060179,9.653406143188477,0.1146493032574653,1.871232390403748,0.3612863421440124,-0.1594262421131134,-0.0058781146071851,0.671238899230957,-0.3102108538150787,-0.5580947399139404,-0.3764808773994446,9.714899063110352,-0.2627671658992767,-1.1060853004455566,-0.7453935742378235,0.4278537333011627,0.528217077255249,0.4083452820777893,-0.607921838760376,-0.4327219128608703,-0.525772750377655
5060346,9.660884857177734,0.137201189994812,1.858233094215393,0.2218251973390579,-0.1020025834441185,0.1029566600918769,0.6712281107902527,-0.3101958334445953,-0.5580824017524719,-0.3765307664871216,9.716578483581545,-0.2767537236213684,-1.1168198585510254,-0.7736315727233887,0.3166690170764923,0.7103490829467773,0.4083194136619568,-0.6079428791999817,-0.4326444566249847,-0.5258322954177856
5060512,9.669979095458984,0.1189875677227974,1.8631682395935056,-0.2194496095180511,-0.0976356044411659,0.2007715404033661,0.671190083026886,-0.3102502822875976,-0.5580304265022278,-0.3766306936740875,9.721514701843262,-0.2830764353275299,-1.1237540245056152,-0.5503912568092346,0.3151194155216217,0.5553025007247925,0.4082789719104767,-0.6079590320587158,-0.4325718283653259,-0.5259047746658325
5060679,9.65980052947998,0.089287169277668,1.8530118465423584,0.0581728406250476,-0.4189085066318512,0.3767820000648498,0.6711416244506836,-0.3103188574314117,-0.5580116510391235,-0.3766884803771972,9.723281860351562,-0.3114769160747528,-1.126498103141785,-0.3807967901229858,0.2172661125659942,0.5937600135803223,0.4082511365413666,-0.6079735159873962,-0.4325168132781982,-0.5259547233581543
5060846,9.62669563293457,0.1155973449349403,1.911815166473389,0.128543734550476,0.005423488561064,0.3082168102264404,0.6711506247520447,-0.3103165924549103,-0.5579781532287598,-0.3767238855361938,9.711669921875,-0.305551141500473,-1.101732850074768,-0.0241655819118022,0.2742671966552734,0.5087898969650269,0.4082414805889129,-0.6079654693603516,-0.4324814081192016,-0.5260006189346313
5061012,9.631040573120115,0.1051512211561203,1.8980505466461184,-0.2001248449087143,-0.3347451686859131,0.201066106557846,0.671100914478302,-0.3103716075420379,-0.5579555034637451,-0.3768006563186645,9.700572967529297,-0.2931345701217651,-1.085207223892212,0.183316484093666,0.1018168851733207,0.5775855779647827,0.4082693457603454,-0.6079424023628235,-0.4324950277805328,-0.5259944200515747
5061179,9.670270919799805,0.0986101105809211,1.8532695770263672,0.1911539882421493,-0.287912368774414,0.4522754848003387,0.6710887551307678,-0.3104028105735779,-0.5579398274421692,-0.3768197894096374,9.718732833862305,-0.2683693170547485,-1.1083738803863523,0.3918550908565521,-0.0077478410676121,0.6536680459976196,0.4082641303539276,-0.6079606413841248,-0.4324658513069153,-0.526001513004303
5061346,9.641206741333008,0.0938289016485214,1.872580885887146,0.106965035200119,-0.0695897042751312,0.4740590453147888,0.6710891127586365,-0.3104355633258819,-0.5578952431678772,-0.3768581449985504,9.716872215270996,-0.2593464255332947,-1.104195237159729,0.4383165240287781,-0.1721557527780532,0.7121931314468384,0.4082936644554138,-0.6079622507095337,-0.4324883818626404,-0.525958240032196
5061512,9.642695426940918,0.1005701050162315,1.8636367321014404,0.4217578768730163,-0.3252428472042084,0.3544349372386932,0.6710378527641296,-0.3104990720748901,-0.5578658580780029,-0.3769407570362091,9.71665859222412,-0.2444874048233032,-1.1079161167144775,0.3249931633472442,-0.177342340350151,0.598921000957489,0.408268392086029,-0.6079918742179871,-0.4324720501899719,-0.5259568095207214
5061679,9.653753280639648,0.1165092587471008,1.8561373949050903,0.4756214618682861,-0.2531943321228027,0.5007347464561462,0.6710750460624695,-0.3104576468467712,-0.5578864216804504,-0.3768781125545501,9.716961860656738,-0.2636236548423767,-1.090503454208374,0.1753765344619751,-0.1835149824619293,0.6874896287918091,0.4082690179347992,-0.6080095171928406,-0.4324756562709808,-0.5259330868721008
5061846,9.636923789978027,0.112890139222145,1.8736393451690676,0.4786309003829956,-0.1780210584402084,0.3320366144180298,0.6710672378540039,-0.3104602694511413,-0.5578721761703491,-0.3769108951091766,9.730170249938965,-0.2488718777894973,-1.098128080368042,0.0309977661818265,-0.1981398165225982,0.740571916103363,0.408251404762268,-0.6080465316772461,-0.4324548542499542,-0.5259210467338562
5062012,9.635668754577637,0.0991288870573043,1.8698557615280151,0.4993388056755066,-0.220666229724884,0.3204212784767151,0.6710721254348755,-0.3104385137557983,-0.5578769445419312,-0.3769129514694214,9.710850715637209,-0.2601369023323059,-1.113048076629639,-0.0429268814623355,-0.0643262863159179,0.5798138380050659,0.4082256257534027,-0.608065128326416,-0.4324381351470947,-0.5259332656860352
5062179,9.636459350585938,0.1237689554691314,1.866014838218689,0.5200082063674927,-0.1356576532125473,0.3471096754074096,0.6710861325263977,-0.3104124665260315,-0.557873010635376,-0.3769154250621795,9.702470779418944,-0.259049654006958,-1.114371418952942,-0.193900927901268,-0.0848804861307144,0.5162175297737122,0.408196359872818,-0.6080767512321472,-0.432436466217041,-0.5259440541267395
5062346,9.650395393371582,0.1283212155103683,1.9032541513442995,0.4451423585414886,-0.1710159927606582,0.3777040839195251,0.6710658073425293,-0.3104420602321625,-0.5578420758247375,-0.376973032951355,9.719680786132812,-0.2692168951034546,-1.1171749830245972,-0.2063615471124649,-0.1320334821939468,0.4000255763530731,0.4081389009952545,-0.6080968976020813,-0.432430237531662,-0.525970458984375
5062512,9.652602195739746,0.1219806000590324,1.84845232963562,0.2596807479858398,-0.2906144857406616,0.3352381885051727,0.6710663437843323,-0.3104311227798462,-0.5578489899635315,-0.3769708573818207,9.722427368164062,-0.2744807302951813,-1.079331636428833,-0.240170270204544,-0.2062590569257736,0.2310329377651214,0.4080568253993988,-0.6081172227859497,-0.4324363470077514,-0.5260056257247925
5062679,9.653549194335938,0.124573603272438,1.8938664197921755,0.4430676400661468,-0.2688949108123779,0.3211128115653991,0.6710586547851562,-0.3104254901409149,-0.5578501224517822,-0.376987487077713,9.739228248596191,-0.2671963274478912,-1.1061245203018188,-0.2077573984861374,-0.1799676418304443,0.2897116541862488,0.4079965054988861,-0.6081263422966003,-0.4324536025524139,-0.5260276198387146
5062846,9.659969329833984,0.1328528672456741,1.857556939125061,0.4129727780818939,-0.2520033419132232,0.3443178832530975,0.6710605621337891,-0.3104111850261688,-0.5578535795211792,-0.3769907355308532,9.7216157913208,-0.2550086081027984,-1.1099402904510498,-0.218937337398529,-0.1170628368854522,0.3675101995468139,0.4079215824604034,-0.6081547737121582,-0.4324327111244201,-0.5260700583457947
5063012,9.633218765258787,0.1152397021651268,1.8825191259384155,0.4363443255424499,-0.1369126737117767,0.2693879604339599,0.6710514426231384,-0.3104075193405151,-0.5578362345695496,-0.3770358264446258,9.703344345092772,-0.2592857480049133,-1.119449496269226,-0.2234067618846893,-0.2157869488000869,0.4115640223026275,0.4078757166862488,-0.6081669926643372,-0.4324521720409393,-0.526075541973114
5063179,9.651546478271484,0.1304958015680313,1.9077385663986208,0.3416669964790344,-0.1876002252101898,0.1985688507556915,0.6710286140441895,-0.3104117810726166,-0.5578205585479736,-0.3770959675312042,9.713125228881836,-0.2669459879398346,-1.1168030500411987,-0.3494724631309509,-0.3730617761611938,0.3641805648803711,0.4078024923801422,-0.6081976890563965,-0.4324727654457092,-0.5260799527168274
5063346,9.649772644042969,0.1080050393939018,1.8655321598052976,0.2669419348239898,-0.3563878834247589,0.2812466621398926,0.6710180640220642,-0.310402363538742,-0.5578339695930481,-0.3771026134490967,9.727456092834473,-0.2731972634792328,-1.1046615839004517,-0.2000736147165298,-0.259917676448822,0.5798394680023193,0.4077561795711517,-0.608231782913208,-0.4324681162834167,-0.5260802507400513
5063512,9.66679859161377,0.1052976474165916,1.8581976890563965,0.1439625769853592,-0.1998302787542343,0.2532775700092315,0.671000599861145,-0.3104125559329986,-0.5578160881996155,-0.3771517276763916,9.71587371826172,-0.2785208821296692,-1.1199073791503906,-0.0430677533149719,-0.1810689717531204,0.8434581756591797,0.4077253341674804,-0.6082855463027954,-0.432420939207077,-0.5260807871818542
5063679,9.688864707946776,0.1284502148628235,1.8789643049240112,0.241226777434349,0.0411275885999202,0.0424082241952419,0.6710047721862793,-0.3103689551353454,-0.5577974319458008,-0.3772078156471252,9.749170303344728,-0.2807865440845489,-1.1081377267837524,0.10962875187397,-0.0574748963117599,0.9096285700798036,0.4077467322349548,-0.6083040237426758,-0.4324024617671966,-0.5260581374168396
5063846,9.652383804321287,0.0900414437055587,1.87459933757782,0.7169186472892761,-0.0651971250772476,0.6809200048446655,0.6710237264633179,-0.3103853166103363,-0.5577587485313416,-0.3772179782390594,9.712485313415527,-0.2516613900661468,-1.1290733814239502,0.4058652222156524,0.0422673523426055,0.6181817054748535,0.4077630043029785,-0.6082907915115356,-0.4324093461036682,-0.526055097579956
5064012,9.595120429992676,0.1147926598787307,1.874211668968201,0.094427615404129,-0.009591955691576,0.4954840838909149,0.6710355877876282,-0.3104046285152435,-0.557711124420166,-0.3772513270378113,9.727931022644045,-0.2502525150775909,-1.107933759689331,0.2644831240177154,0.081339530646801,-0.1172933578491211,0.4076969623565674,-0.6082491874694824,-0.4324505925178528,-0.5261204242706299
5064179,9.638399124145508,0.1334944665431976,1.8821461200714111,0.7039586901664734,-0.5837774276733398,0.152248278260231,0.671005129814148,-0.3103745281696319,-0.5577647089958191,-0.3772511482238769,9.725631713867188,-0.2574261426925659,-1.117228627204895,0.2810673713684082,-0.000653123948723,-0.0145224016159772,0.4076656103134155,-0.6081938743591309,-0.4325253069400787,-0.5261470675468445
5064346,9.714933395385742,0.1522446125745773,1.888269305229187,1.0374358892440796,-0.523510754108429,-0.0474859438836574,0.6710023283958435,-0.3102643489837646,-0.5578551888465881,-0.3772129416465759,9.73205852508545,-0.2382933348417282,-1.1029558181762695,0.3427171111106872,0.1950343251228332,0.5965518355369568,0.407713770866394,-0.6081458926200867,-0.4325571954250335,-0.5261391997337341
5064512,9.696887016296388,0.1556243300437927,1.842368721961975,1.5164190530776978,-0.3969456255435943,0.2939121425151825,0.67104172706604,-0.3101402223110199,-0.5579372048377991,-0.3771236836910248,9.728046417236328,-0.2296822816133499,-1.108152151107788,0.3081015646457672,0.4137667417526245,0.8293071985244751,0.4077699780464172,-0.6081136465072632,-0.4325300455093384,-0.5261551141738892
5064679,9.624862670898438,0.10561303794384,1.9047584533691408,1.241300106048584,0.2252444624900818,1.1753090620040894,0.6711545586585999,-0.310098797082901,-0.5578934550285339,-0.3770217895507812,9.70603084564209,-0.2202056348323822,-1.091120362281799,0.0575325191020965,0.5507562756538391,1.01817524433136,0.4078122675418854,-0.608109176158905,-0.4324420690536499,-0.5261998772621155
5064846,9.632060050964355,0.0847324058413505,1.8971134424209597,0.9634793996810912,-0.4482221901416778,0.467207670211792,0.6711731553077698,-0.3100461661815643,-0.5579416751861572,-0.3769603371620178,9.699710845947266,-0.240099236369133,-1.1301854848861694,-0.0589860416948795,0.5647664070129395,0.8723365068435669,0.4078570008277893,-0.608082115650177,-0.4323849380016327,-0.5262435078620911
5065012,9.666033744812012,0.1306567341089248,1.8786317110061648,0.6044533252716064,-0.3699882328510284,0.2087243050336837,0.6711525917053223,-0.3100263178348541,-0.5579610466957092,-0.3769847154617309,9.725403785705566,-0.2936146557331085,-1.1164029836654663,-0.1314187347888946,0.4814226925373077,0.8938127756118774,0.40789595246315,-0.6080633997917175,-0.4323307573795318,-0.5262793898582458
5065179,9.637234687805176,0.1358493864536285,1.885129690170288,0.1286589801311493,-0.4318172931671142,0.5420863032341003,0.6711254119873047,-0.3100806474685669,-0.5579466223716736,-0.3770097494125366,9.733872413635254,-0.2946581840515136,-1.1130226850509644,0.0530374981462955,0.4017671942710876,0.9798714518547058,0.4079728126525879,-0.608028769493103,-0.4323113560676574,-0.5262758135795593
5065346,9.637249946594238,0.1031982600688934,1.869703769683838,0.4709342420101166,-0.2899997532367706,0.7033054232597351,0.6711323261260986,-0.3101090490818023,-0.5579285025596619,-0.3770009279251098,9.719822883605955,-0.2939676344394684,-1.1141633987426758,0.4631096720695495,0.5080854892730713,1.1398354768753052,0.4080467224121094,-0.6080182790756226,-0.4322362840175628,-0.5262922644615173
5065512,9.632363319396973,0.1116547361016273,1.87289297580719,0.5435718894004822,0.0068065747618675,0.8186522722244263,0.6711781620979309,-0.3101155161857605,-0.5578844547271729,-0.376979112625122,9.716583251953123,-0.2798531651496887,-1.1197569370269775,0.6419503092765808,0.2831676006317138,1.0983814001083374,0.4081449806690216,-0.6079909801483154,-0.4322218000888824,-0.5262595415115356
5065679,9.650967597961426,0.1174731701612472,1.8506848812103271,0.4303125441074371,-0.1039491295814514,0.7632904052734375,0.6711981892585754,-0.3101475238800049,-0.5578400492668152,-0.3769828081130981,9.705644607543944,-0.2585165500640869,-1.1020240783691406,0.6123548746109009,0.0594534836709499,1.02045476436615,0.4082264900207519,-0.6079723834991455,-0.4322331249713897,-0.5262085199356079
5065846,9.66352367401123,0.0934534519910812,1.8584083318710327,0.3952488005161285,-0.2220108956098556,0.6585217714309692,0.6712034344673157,-0.3101774156093597,-0.5578120946884155,-0.3769902288913727,9.699522972106934,-0.2667882740497589,-1.107744216918945,0.6929707527160645,-0.1048455759882927,1.001680612564087,0.4082770049571991,-0.607981264591217,-0.4322319328784942,-0.5261600613594055
5066012,9.667800903320312,0.1100470498204231,1.854824900627136,0.4852389395236969,-0.3861114382743835,0.5453135371208191,0.6712108850479126,-0.3101721704006195,-0.5578249096870422,-0.3769623041152954,9.71606159210205,-0.2720092535018921,-1.0975093841552734,0.531726062297821,-0.1919928193092346,1.0054329633712769,0.4083112776279449,-0.6080038547515869,-0.4322272539138794,-0.5261110663414001
5066179,9.66751766204834,0.1171878054738044,1.880010724067688,0.5917110443115234,-0.3122700154781341,0.5840399265289307,0.6712033152580261,-0.3101966381072998,-0.5578116178512573,-0.3769753575325012,9.753663063049316,-0.2560909390449524,-1.0847795009613037,0.4467559158802032,-0.0660551488399505,0.9959306120872498,0.4083721935749054,-0.6079988479614258,-0.4322416186332702,-0.5260577201843262
5066346,9.663536071777344,0.1122261360287666,1.853355884552002,0.6174260377883911,-0.2158894389867782,0.7134609222412109,0.6712273359298706,-0.3102006614208221,-0.5577973127365112,-0.3769503831863403,9.723386764526367,-0.2655521333217621,-1.09577214717865,0.1901358664035797,0.1278585940599441,0.9830281734466552,0.4084145128726959,-0.6079986095428467,-0.4322184026241302,-0.5260443091392517
5066512,9.642485618591309,0.1059048324823379,1.8680144548416135,0.6469831466674805,-0.2085770070552826,0.5588371157646179,0.6712452173233032,-0.310187965631485,-0.557791531085968,-0.376937597990036,9.70328426361084,-0.2798595428466797,-1.1059606075286863,0.2100561708211898,0.1006515100598335,1.1685216426849363,0.4084835350513458,-0.6080009937286377,-0.4321961402893066,-0.5260061621665955
5066679,9.639752388000488,0.1117917969822883,1.9042770862579343,0.4335269331932068,-0.3190445601940155,0.3701739013195038,0.6712155938148499,-0.3102144002914428,-0.5577776432037354,-0.3769891560077667,9.693978309631348,-0.2673509418964386,-1.0887885093688965,0.0463781915605068,-0.0249211564660072,0.8431636691093445,0.4084864854812622,-0.6080169081687927,-0.432176411151886,-0.5260016918182373
5066846,9.64023208618164,0.1287794262170791,1.847500562667847,0.1803069710731506,-0.5495075583457947,0.6011108160018921,0.671195387840271,-0.3102569878101349,-0.5577841997146606,-0.3769803643226623,9.71345329284668,-0.2681261003017425,-1.075758934020996,-0.0167891234159469,-0.028865510597825,0.5991130471229553,0.4084487557411194,-0.608034074306488,-0.4321554899215698,-0.5260283350944519
5067012,9.612162590026855,0.0865745916962623,1.8829013109207156,0.3328562378883362,-0.2451647669076919,0.795229434967041,0.6711962819099426,-0.3103144764900207,-0.557743489742279,-0.3769917488098144,9.740480422973633,-0.2822701632976532,-1.0760877132415771,-0.1904432326555252,-0.1020409986376762,0.5636267066001892,0.4084334075450897,-0.6080282926559448,-0.4321812987327575,-0.5260258316993713
5067179,9.635713577270508,0.1071105673909187,1.847097396850586,0.4529413878917694,-0.7785108685493469,0.0722086057066917,0.6711405515670776,-0.3103003203868866,-0.55781090259552,-0.3770029246807098,9.751046180725098,-0.2991103529930115,-1.08698832988739,-0.1306503713130951,-0.0194656513631343,0.6890263557434082,0.4083893895149231,-0.6080595254898071,-0.4321391582489013,-0.526058554649353
5067346,9.697321891784668,0.1724127233028412,1.8619304895401,0.4492915570735931,-0.1844242364168167,0.5828360915184021,0.6711635589599609,-0.3102911412715912,-0.5577995777130127,-0.3769863843917846,9.738800048828123,-0.3087306022644043,-1.090352177619934,-0.0745841786265373,0.1729945689439773,0.8507962226867676,0.4083960652351379,-0.6080654859542847,-0.4321006536483764,-0.5260781645774841
5067512,9.625880241394045,0.0886596962809562,1.8766064643859863,-0.1058444902300834,-0.2862091660499573,0.8048984408378601,0.6711653470993042,-0.3103590905666351,-0.5577580332756042,-0.3769885599613189,9.71144962310791,-0.2929215133190155,-1.083240628242493,-0.036638967692852,0.2593989968299866,0.8040657639503479,0.408429205417633,-0.6080423593521118,-0.4320886731147766,-0.5260890126228333
5067679,9.637041091918944,0.0727078318595886,1.89767324924469,0.7706925272941589,-0.3817444443702698,0.4296594262123108,0.671170711517334,-0.3103275299072265,-0.5577844381332397,-0.3769659399986267,9.684401512145996,-0.2792016565799713,-1.1002345085144043,-0.0551825650036335,0.1449614763259887,0.4703708589076996,0.4084073305130005,-0.6080248355865479,-0.4320873916149139,-0.5261272192001343
5068012,9.623004913330078,0.1180112659931182,1.869262099266052,-0.0499447658658027,-0.695704996585846,0.2219404429197311,0.6710695028305054,-0.3103976845741272,-0.5578225255012512,-0.3770321011543274,9.709400177001951,-0.2675396502017975,-1.1082451343536377,0.0084714004769921,-0.0079271299764513,0.3834669291973114,0.408403992652893,-0.60798579454422,-0.4321420788764953,-0.5261300206184387
5068179,9.642340660095217,0.1112482696771621,1.840605854988098,0.1709967851638794,-0.6390625238418579,0.2840128242969513,0.6710193157196045,-0.3104266226291656,-0.5578469634056091,-0.3770611882209778,9.71604061126709,-0.2843585610389709,-1.083984136581421,-0.0374073460698127,-0.1271542459726333,0.3149913549423218,0.4083496034145355,-0.6079816818237305,-0.432167500257492,-0.5261560678482056
5068346,9.643007278442385,0.1180184185504913,1.8732352256774905,0.3442218601703644,-0.5534135699272156,0.2949686348438263,0.67098069190979,-0.3104403018951416,-0.5578691363334656,-0.3770859539508819,9.72914218902588,-0.2790621221065521,-1.0903891324996948,0.0117754377424716,-0.2536937594413757,0.4557971656322479,0.4083049893379211,-0.6079909801483154,-0.4321944117546081,-0.5261578559875488
5068512,9.65050220489502,0.1097828298807144,1.8793615102767944,0.5253100395202637,-0.5300676226615906,0.3265427052974701,0.670957088470459,-0.3104327023029327,-0.5579001903533936,-0.3770883977413177,9.708949089050291,-0.2601547837257385,-1.0929962396621704,-0.078259602189064,-0.3454384803771972,0.4064159095287323,0.40824094414711,-0.6080107092857361,-0.4322225153446197,-0.526161789894104
5068679,9.654826164245604,0.1052263230085372,1.8801087141036987,0.4113335311412811,-0.5447821021080017,0.287572979927063,0.6709315776824951,-0.3104241788387298,-0.5579334497451782,-0.3770917057991028,9.716426849365234,-0.2396988719701767,-1.0794960260391235,-0.2490450888872146,-0.2876049876213074,0.402420312166214,0.4081683754920959,-0.6080327033996582,-0.4322388768196106,-0.5261791348457336
5068846,9.644967079162598,0.1150396838784217,1.8609689474105835,0.2438136935234069,-0.68036288022995,0.1201683729887008,0.6708531975746155,-0.3104627728462219,-0.5579572319984436,-0.3771638870239258,9.715545654296877,-0.2612309455871582,-1.0940176248550415,-0.4368886649608612,-0.5532471537590027,0.4604971706867218,0.4080610275268554,-0.6080942749977112,-0.4322449564933777,-0.5261862874031067
5069012,9.65827751159668,0.1203465312719345,1.8646273612976076,0.1778994053602218,-0.7526035308837891,0.1977236419916153,0.6707987785339355,-0.3104756474494934,-0.5580048561096191,-0.3771794736385345,9.704710960388184,-0.2732926905155182,-1.1129542589187622,-0.6844226121902466,-0.59892737865448,0.4504185318946838,0.4079123437404632,-0.608185350894928,-0.4322182536125183,-0.5262182354927063
5069179,9.660527229309082,0.1105409041047096,1.8655880689620967,0.2317629158496856,-0.7329586148262024,0.3770893514156341,0.6707473397254944,-0.3105127811431885,-0.5580365061759949,-0.3771938383579254,9.717103004455566,-0.2769579589366913,-1.1128212213516235,-0.5761191844940186,-0.5414524078369141,0.6203075647354126,0.4078495800495147,-0.6082285046577454,-0.4322503209114074,-0.5261906385421753
5069346,9.652201652526855,0.0923376753926277,1.8485915660858157,0.153938740491867,-0.6862410306930542,0.4427603185176849,0.6706973910331726,-0.3105636239051819,-0.5580542683601379,-0.3772144317626953,9.724355697631836,-0.2851008474826813,-1.093885898590088,-0.4532807171344757,-0.5593685507774353,0.6992201805114746,0.407781183719635,-0.6082878112792969,-0.4322613775730133,-0.5261661410331726
5069512,9.641533851623535,0.1049259230494499,1.871304154396057,0.1900782436132431,-0.6548911333084106,0.4194143414497375,0.6706417798995972,-0.3106202185153961,-0.558064877986908,-0.3772511482238769,9.7251558303833,-0.3088834881782532,-1.1143461465835571,-0.2914725244045257,-0.5362018346786499,0.6989129185676575,0.4076986610889435,-0.6083592772483826,-0.432249367237091,-0.5261572599411011
5069679,9.636784553527832,0.1127971559762954,1.8657968044281008,0.1562182605266571,-0.6408424973487854,0.3052073121070862,0.6705868244171143,-0.3106591403484344,-0.5580833554267883,-0.3772896230220794,9.718003273010254,-0.3068135380744934,-1.1094717979431152,-0.0428372398018837,-0.4306519031524658,0.6586369872093201,0.4076925814151764,-0.6083645224571228,-0.4323124289512634,-0.5261041522026062
5069846,9.64216423034668,0.0964912176132202,1.8625870943069456,0.2058556675910949,-0.8030221462249756,0.3599416613578796,0.6705317497253418,-0.3106947839260101,-0.5581244230270386,-0.3772972524166107,9.719398498535156,-0.2961978614330292,-1.1112550497055054,0.2875217497348785,-0.4464549422264099,0.7088378667831421,0.4076562523841858,-0.6084045171737671,-0.432325154542923,-0.5260754227638245
5070012,9.645405769348145,0.1081182435154914,1.8717811107635496,0.4323871433734894,-0.7788437604904175,0.3776912689208984,0.6704885363578796,-0.3107105195522308,-0.558173418045044,-0.3772884309291839,9.719493865966797,-0.2965336143970489,-1.1282141208648682,0.3840944468975067,-0.4543052911758423,0.6643229126930237,0.4076674580574035,-0.6084022521972656,-0.4323993921279907,-0.5260083675384521
5070179,9.652702331542969,0.1057859659194946,1.8709338903427124,0.3687652349472046,-0.7893193960189819,0.3555618822574615,0.6704409122467041,-0.310730367898941,-0.5582213401794434,-0.3772856295108795,9.725746154785156,-0.2749924659729004,-1.1303569078445437,0.3424353897571563,-0.4392449557781219,0.6172212362289429,0.4076586663722992,-0.6084092855453491,-0.4324579536914825,-0.5259588956832886
5070346,9.63827133178711,0.1168467998504638,1.847668528556824,0.422065258026123,-0.7169890999794006,0.4063262641429901,0.6703801155090332,-0.3107812404632568,-0.5582424998283386,-0.3773204684257507,9.714524269104004,-0.258338063955307,-1.1170068979263306,0.3138259947299957,-0.4267075061798095,0.5591059923171997,0.4076411724090576,-0.6084153652191162,-0.4325161278247833,-0.5259175896644592
5070512,9.65135383605957,0.1137269660830497,1.8268697261810305,0.4009731709957123,-0.6425713300704956,0.3532567620277405,0.670352578163147,-0.310779720544815,-0.5582834482192993,-0.3773102462291717,9.73422908782959,-0.2621431350708008,-1.1343514919281006,0.0894203335046768,-0.3295073807239532,0.5653682947158813,0.4076359570026397,-0.6084065437316895,-0.4325810670852661,-0.5258784294128418
5070679,9.655191421508787,0.1201216876506805,1.8619147539138796,0.4644991457462311,-0.6299827098846436,0.420458048582077,0.6703250408172607,-0.3107876181602478,-0.5583175420761108,-0.3773020505905151,9.74294662475586,-0.258209228515625,-1.1274279356002808,-0.0361395180225372,-0.2282219678163528,0.5635370016098022,0.4075883626937866,-0.6084270477294922,-0.4325881600379944,-0.525885820388794
5070846,9.642767906188965,0.1165316775441169,1.8690327405929563,0.6472648978233337,-0.6628181338310242,0.3633737564086914,0.6703006029129028,-0.3107738494873047,-0.5583680868148804,-0.3772822618484497,9.723669052124023,-0.237467348575592,-1.1321481466293335,-0.3012693524360657,-0.0163152888417243,0.485751211643219,0.407521903514862,-0.6084445118904114,-0.4325657188892364,-0.525935709476471
5071013,9.66580581665039,0.140746921300888,1.8671051263809204,0.4224110245704651,-0.7273494601249695,0.4048535525798797,0.6702488660812378,-0.3108097612857818,-0.5583987832069397,-0.3772992491722107,9.706480979919434,-0.2440439611673355,-1.1181906461715698,-0.3898380696773529,-0.1624357402324676,0.5018103718757629,0.407456636428833,-0.6084651350975037,-0.432564228773117,-0.5259634256362915
5071179,9.648918151855469,0.1250635385513305,1.8577395677566528,-0.0834205597639083,-0.7302436828613281,0.3935327231884002,0.6701696515083313,-0.3108994364738464,-0.5583993792533875,-0.377364844083786,9.707592964172363,-0.2688020467758178,-1.127907156944275,-0.4374521374702453,-0.3353214859962463,0.4553234279155731,0.4073731303215027,-0.608498215675354,-0.4325747191905975,-0.5259811878204346
5071346,9.655991554260254,0.1179019212722778,1.828468441963196,-0.0940882414579391,-0.7307431101799011,0.5095453858375549,0.670102059841156,-0.3109911382198334,-0.5583988428115845,-0.3774101734161377,9.726218223571776,-0.2827495336532593,-1.1206470727920532,-0.4630903601646423,-0.2928811907768249,0.5445963740348816,0.4072813689708709,-0.608547568321228,-0.4325549602508545,-0.5260114073753357
5071513,9.675531387329102,0.1255103945732116,1.847883462905884,0.0799052268266677,-0.4627062082290649,0.3231874406337738,0.6700843572616577,-0.3109907209873199,-0.5584157705307007,-0.3774170577526092,9.692992210388184,-0.2688200771808624,-1.1232972145080566,-0.3029726147651672,-0.2891930043697357,0.7108228802680969,0.4072171151638031,-0.6085972785949707,-0.4325331151485443,-0.5260216593742371
5071679,9.66295051574707,0.0832914263010025,1.844496488571167,0.3830827474594116,-0.5352926850318909,0.5685827136039734,0.6700419187545776,-0.3110527098178863,-0.5584069490432739,-0.3774542212486267,9.721002578735352,-0.2973199486732483,-1.1528706550598145,-0.2028141468763351,-0.3817316591739654,0.7712944149971008,0.4071706533432007,-0.608643651008606,-0.43253093957901,-0.5260058045387268
5071846,9.610066413879396,0.1137913390994072,1.8448973894119265,-0.1655860990285873,-0.2902047038078308,0.5902126431465149,0.6700128316879272,-0.3111313581466675,-0.5583574175834656,-0.3775146305561065,9.72131061553955,-0.2806407511234283,-1.1058543920516968,0.0995245426893234,-0.4680336415767669,0.7187883853912354,0.4071477651596069,-0.6086702942848206,-0.4325692057609558,-0.52596116065979
5072013,9.622081756591797,0.0974327325820922,1.805860996246338,0.2242071777582168,-0.8223084807395935,0.265046626329422,0.669941782951355,-0.3111724257469177,-0.5583969354629517,-0.3775482475757599,9.746706008911133,-0.2532169222831726,-1.1289228200912476,0.0158350504934787,-0.5052489042282104,0.0419728085398674,0.4070513248443603,-0.6086719632148743,-0.4326488375663757,-0.5259684324264526
5072179,9.705241203308104,0.1239542961120605,1.8565186262130735,0.7223485112190247,-0.9315338730812072,-0.0875185877084732,0.6698594689369202,-0.3111506700515747,-0.5584859251976013,-0.3775806725025177,9.760045051574709,-0.2850594818592071,-1.136404275894165,-0.0711264610290527,-0.3251532018184662,-0.1454545110464096,0.4069513380527496,-0.6086471080780029,-0.4327366948127746,-0.5260022878646851
5072346,9.702268600463867,0.1703775823116302,1.8477256298065183,1.4632854461669922,-0.7510156035423279,-0.0920136272907257,0.6698343753814697,-0.3110325336456299,-0.558605968952179,-0.3775450587272644,9.74508571624756,-0.2803603410720825,-1.1312724351882937,-0.0019721777644008,-0.0887864157557487,0.1746209859848022,0.4069041311740875,-0.6086143255233765,-0.4327960312366485,-0.5260278582572937
5072513,9.651702880859377,0.1294130235910415,1.8526618480682373,1.2299281358718872,-0.0873649194836616,0.9397234916687012,0.6699023246765137,-0.3109941184520721,-0.5585964918136597,-0.377469927072525,9.684331893920898,-0.2551945447921753,-1.132738471031189,0.0738862380385398,0.1207702830433845,0.5078806281089783,0.4068774878978729,-0.6086018085479736,-0.4327907264232635,-0.5260673761367798
5072679,9.612671852111816,0.0605237446725368,1.8771741390228271,0.8380284309387207,-0.6501399874687195,0.8822103142738342,0.6699141263961792,-0.3110043704509735,-0.5586316585540771,-0.3773884177207947,9.69174861907959,-0.2589099705219269,-1.1317652463912964,0.0100465808063745,0.0399109870195388,0.9406967759132384,0.406914621591568,-0.6085928678512573,-0.4327951371669769,-0.5260453224182129
5072846,9.654781341552734,0.0982579961419105,1.8253533840179443,1.0575677156448364,-0.966879427433014,0.2664297223091125,0.6698859333992004,-0.3109469711780548,-0.5587448477745056,-0.3773180544376373,9.707711219787598,-0.2534323334693908,-1.130447506904602,-0.1341977268457412,-0.0371512211859226,0.8519231677055359,0.4069156944751739,-0.6086021065711975,-0.43278768658638,-0.5260399580001831
5073013,9.63880443572998,0.1383920758962631,1.8454052209854128,0.4951255023479461,-0.547048807144165,0.3565479516983032,0.6698558926582336,-0.3109519183635711,-0.5587694644927979,-0.3773313164710998,9.726365089416504,-0.2790800631046295,-1.1161879301071167,-0.0830363631248474,-0.0649538040161132,0.7068400382995605,0.4068910181522369,-0.6086152195930481,-0.4327788650989532,-0.5260511040687561
5073179,9.61079216003418,0.1119245588779449,1.8357030153274536,0.4817043840885162,-0.4362867176532745,0.4473834037780761,0.6698468923568726,-0.3109475374221802,-0.5587849020957947,-0.3773277401924133,9.738203048706056,-0.2803603708744049,-1.1374162435531616,-0.1030654981732368,-0.0667082741856575,0.6605451107025146,0.4068802297115326,-0.6086111664772034,-0.4327949285507202,-0.5260509848594666
5073346,9.659588813781738,0.1003288701176643,1.8378270864486692,0.6454335451126099,-0.4428178966045379,0.6710591316223145,0.6698449850082397,-0.310963898897171,-0.5587897300720215,-0.3773107826709747,9.717925071716309,-0.2793411314487457,-1.1340689659118652,0.1153916046023368,0.0652931705117225,0.7888262867927551,0.4068951308727264,-0.6086013913154602,-0.4327952563762665,-0.526050329208374
5073513,9.674596786499023,0.1272603571414947,1.856316447257996,0.5361185669898987,-0.3056747019290924,0.605375349521637,0.6698395609855652,-0.3109870851039886,-0.5587729215621948,-0.37732595205307,9.720528602600098,-0.2880849540233612,-1.1369657516479492,0.2105811983346939,0.0329187214374542,0.7291486859321594,0.4069139361381531,-0.6085830926895142,-0.4328125715255737,-0.5260427594184875
5073679,9.66849422454834,0.1108829006552696,1.82741117477417,0.4333092272281647,-0.5476634502410889,0.5933501720428467,0.6698213219642639,-0.3110142946243286,-0.5587847828865051,-0.3773181736469269,9.705260276794434,-0.2692597806453705,-1.1233043670654297,0.2785957455635071,-0.0983271673321724,0.7304166555404663,0.4069192707538605,-0.6085800528526306,-0.4328296184539795,-0.5260281562805176
5073846,9.657097816467283,0.1072602495551109,1.8329843282699585,0.562243640422821,-0.5467414855957031,0.4963164925575256,0.6698105335235596,-0.3110108971595764,-0.558813750743866,-0.3772973120212555,9.689733505249023,-0.2596469521522522,-1.1200716495513916,0.2551857233047485,-0.3696424663066864,0.7025371193885803,0.4069171249866485,-0.6085862517356873,-0.4328793287277221,-0.5259817838668823
5074013,9.662633895874023,0.106850154697895,1.806342601776123,0.5535352230072021,-0.5957513451576233,0.4568600952625274,0.6697993874549866,-0.3109987080097198,-0.5588539242744446,-0.3772678673267364,9.695257186889648,-0.2565565109252929,-1.1354418992996216,0.1930621266365051,-0.520193874835968,0.7788117527961731,0.4069139659404754,-0.6086056232452393,-0.4329363107681274,-0.5259148478507996
5074179,9.671339988708496,0.1150763928890228,1.81856381893158,0.5944387316703796,-0.4330722987651825,0.5676478743553162,0.6698036193847656,-0.3109909296035766,-0.5588709115982056,-0.3772414624691009,9.7118501663208,-0.2555873692035675,-1.126598596572876,0.1485216319561004,-0.6320317387580872,0.7963436245918274,0.4068902730941772,-0.6086456775665283,-0.4329829216003418,-0.525848388671875
5074346,9.666545867919922,0.1052084416151046,1.8364217281341555,0.5414716601371765,-0.3024475872516632,0.55918288230896,0.6698227524757385,-0.3109696209430694,-0.5588788390159607,-0.3772132098674774,9.68170928955078,-0.279356300830841,-1.128190279006958,-0.113553911447525,-0.6986632347106934,0.7837038636207581,0.4068321287631988,-0.6087104082107544,-0.4330074787139892,-0.5257982611656189
5074513,9.64840030670166,0.1169958859682083,1.833456754684448,0.5121579766273499,-0.2829563021659851,0.5227359533309937,0.669833779335022,-0.3109566569328308,-0.5588796138763428,-0.3772030770778656,9.720800399780272,-0.2853506505489349,-1.1337419748306274,-0.1299076080322265,-0.775693416595459,1.1317546367645264,0.406816691160202,-0.60878586769104,-0.4330303072929382,-0.5257040858268738
5074679,9.642087936401367,0.1087667718529701,1.7613786458969116,0.0580703951418399,-0.396522969007492,0.6212936639785767,0.6698017120361328,-0.3110302686691284,-0.5588465332984924,-0.3772487342357635,9.695072174072266,-0.2582884728908539,-1.158580660820007,-0.0962781384587287,-0.7313578128814697,0.7096830010414124,0.4067708253860473,-0.6088326573371887,-0.4330858290195465,-0.5256398320198059
5074846,9.62427806854248,0.0761303007602691,1.84663188457489,0.2809136807918548,0.0597608275711536,0.5849235653877258,0.6698290109634399,-0.311032772064209,-0.5587950944900513,-0.3772744536399841,9.733413696289062,-0.2981376647949219,-1.1335396766662598,-0.1942723244428634,-0.6127838492393494,0.2817204892635345,0.4066943824291229,-0.6088459491729736,-0.4331691563129425,-0.5256147384643555
5075013,9.650217056274414,0.1325669288635254,1.828898906707764,0.6155819892883301,-0.6962428092956543,-0.1284732818603515,0.6697673797607422,-0.3109916150569916,-0.5588646531105042,-0.3773143887519836,9.750182151794434,-0.2999579608440399,-1.1333394050598145,-0.2444988489151001,-0.5621987581253052,0.2851269841194153,0.4066023528575897,-0.6088708639144897,-0.433228075504303,-0.5256086587905884
5075179,9.692378997802734,0.1726685613393783,1.845203757286072,0.5569801330566406,0.1163777038455009,0.751418948173523,0.6698121428489685,-0.3109907805919647,-0.5588078498840332,-0.3773198425769806,9.741410255432127,-0.3038917779922485,-1.1481378078460691,-0.0292881224304437,-0.2278889715671539,0.5503208637237549,0.4066090583801269,-0.6088428497314453,-0.4333045780658722,-0.5255727767944336
5075346,9.636788368225098,0.0670431554317474,1.86981999874115,0.2619602680206299,-0.0459363795816898,0.6970304250717163,0.6698322892189026,-0.3110152781009674,-0.5587576031684875,-0.3773383498191833,9.724505424499512,-0.2726679146289825,-1.1374342441558838,0.1279802471399307,-0.1746145784854889,0.7077876329421997,0.4066189527511596,-0.608832836151123,-0.4333454668521881,-0.5255429744720459
5075513,9.660748481750488,0.0691066309809684,1.84646737575531,0.6818419694900513,-0.2238421887159347,0.3038114011287689,0.6698379516601562,-0.3109733164310455,-0.5587670803070068,-0.3773488104343414,9.72465991973877,-0.274420291185379,-1.1343480348587036,0.1135731041431427,-0.0581664368510246,0.7831530570983887,0.406641274690628,-0.6088190078735352,-0.433372437953949,-0.5255194306373596
5075679,9.633719444274902,0.1268123090267181,1.848917007446289,0.2266019284725189,-0.0283532552421093,0.4305430650711059,0.6698336601257324,-0.3109939098358154,-0.558716356754303,-0.3774146437644958,9.703387260437012,-0.2568396329879761,-1.1728315353393557,0.07963627576828,-0.0221421774476766,0.4204388260841369,0.4066083133220672,-0.6088035106658936,-0.4333955347537994,-0.5255438685417175
5075846,9.639856338500977,0.1152683123946189,1.8260793685913088,0.2586946487426758,-0.0984552130103111,0.267799973487854,0.6698316335678101,-0.3109788596630096,-0.5586943626403809,-0.3774631023406982,9.708662986755373,-0.2775565981864929,-1.1513563394546509,0.0548431910574436,-0.1408570259809494,0.2710143625736236,0.4065598547458648,-0.6087843775749207,-0.4334439933300018,-0.5255635976791382
5076013,9.657394409179688,0.1085164323449134,1.8154544830322263,0.3124044835567474,-0.0132545717060565,0.2931693494319916,0.6698378324508667,-0.3109596967697143,-0.5586637854576111,-0.3775131404399872,9.726773262023926,-0.2882816195487976,-1.126208782196045,0.1684867292642593,-0.0539915673434734,0.3354175090789795,0.4065442681312561,-0.6087458729743958,-0.4335047602653503,-0.5255702137947083
5076179,9.659360885620115,0.1142061799764633,1.8467212915420528,0.5956425070762634,0.0172181371599435,0.3869886398315429,0.6698744297027588,-0.3109038472175598,-0.5586500763893127,-0.3775143921375274,9.737944602966309,-0.2779249548912048,-1.159867763519287,0.1863900423049926,0.0952984616160392,0.3995517492294311,0.4065598249435425,-0.6086862683296204,-0.4335700869560241,-0.5255732536315918
5076346,9.63721752166748,0.1184688806533813,1.8400729894638064,0.6177334785461426,0.1583697199821472,0.3516943752765655,0.6699274778366089,-0.3108265399932861,-0.5586301684379578,-0.377513438463211,9.728059768676758,-0.246654599905014,-1.1584980487823486,0.1804734915494918,0.1370343416929245,0.3399637639522552,0.406541645526886,-0.6086458563804626,-0.4336012601852417,-0.5256083011627197
5076513,9.657215118408203,0.1045253872871398,1.8356422185897827,0.3735932111740112,0.0491059459745883,0.1989018023014068,0.6699281930923462,-0.3108022809028625,-0.5585945844650269,-0.377584844827652,9.723526000976562,-0.2374314665794372,-1.1510376930236816,-0.1763050109148025,0.0977316498756408,0.3312426209449768,0.4064944684505462,-0.608624279499054,-0.433615118265152,-0.5256584286689758
5076679,9.649744033813477,0.131890520453453,1.8294589519500728,0.5045124888420105,-0.0873521119356155,0.2411883920431137,0.6699509024620056,-0.3107392191886902,-0.5585981607437134,-0.3775913417339325,9.697068214416504,-0.2290668040513992,-1.153434157371521,-0.4302420914173126,0.0357489287853241,0.3849524557590484,0.4064173996448517,-0.6086317896842957,-0.4335999488830566,-0.5257217884063721
5076846,9.67273235321045,0.1360675394535064,1.8151791095733645,0.3884997963905334,0.0033872793428599,0.3858232498168945,0.6699726581573486,-0.3107104003429413,-0.5585709810256958,-0.3776164650917053,9.696207046508787,-0.2457560151815414,-1.143758773803711,-0.6163696050643921,0.0121724363416433,0.6527460813522339,0.4063514769077301,-0.6086616516113281,-0.433558851480484,-0.5257720947265625
5077013,9.65017318725586,0.106703296303749,1.82420551776886,0.080686405301094,0.1188108995556831,0.5519600510597229,0.6700099110603333,-0.3107022941112518,-0.5585174560546875,-0.3776361048221588,9.723974227905272,-0.2623311877250671,-1.1371113061904907,-0.6451454758644104,-0.2286317497491836,0.756567120552063,0.4062865078449249,-0.6087092161178589,-0.433533251285553,-0.5257883667945862
5077179,9.66518211364746,0.10428237169981,1.823444128036499,0.2485648393630981,0.2032303512096405,0.4625333249568939,0.6700450778007507,-0.3106833100318908,-0.5584594011306763,-0.3776751160621643,9.7308988571167,-0.2888673543930053,-1.155274748802185,-0.5435270667076111,-0.1732955276966095,0.8507705926895142,0.4062252640724182,-0.6087656021118164,-0.433485209941864,-0.5258100628852844
5077346,9.656782150268556,0.1057377234101295,1.8267481327056885,0.1120235323905944,0.2988041341304779,0.2722949981689453,0.6700626611709595,-0.310669869184494,-0.5583861470222473,-0.3777633309364319,9.730087280273438,-0.2914215624332428,-1.1291052103042605,-0.2838911712169647,-0.0321439392864704,0.75319904088974,0.4062047302722931,-0.6087762713432312,-0.4334762096405029,-0.5258209705352783
5077513,9.644244194030762,0.1024511829018592,1.8648312091827397,0.0878323465585708,0.3275672197341919,0.311533659696579,0.6700915098190308,-0.3106487095355987,-0.5583135485649109,-0.3778369128704071,9.742204666137695,-0.3093276619911194,-1.1287834644317627,0.1542332917451858,0.0720036998391151,0.697043240070343,0.4062306582927704,-0.6087451577186584,-0.4335057437419891,-0.5258125066757202
5077679,9.666874885559082,0.1149712651968002,1.8496962785720823,0.2553265988826751,0.2486544847488403,0.4502520561218261,0.6701259613037109,-0.310631662607193,-0.5582486987113953,-0.3778855502605438,9.728848457336426,-0.2841059863567352,-1.1345471143722534,0.5457873940467834,0.2599624693393707,0.6819316744804382,0.4062921106815338,-0.6086840033531189,-0.4335434138774872,-0.5258048176765442
5077846,9.655906677246094,0.1146532073616981,1.8584226369857788,0.5053449273109436,0.2132449299097061,0.4981862604618072,0.6701746582984924,-0.3105912506580353,-0.5582016706466675,-0.3779018521308899,9.717955589294434,-0.2766736447811126,-1.1373915672302246,0.6209863424301147,0.3285149037837982,0.8048470616340637,0.406371533870697,-0.6086229681968689,-0.4335689544677734,-0.5257930755615234
5078013,9.629149436950684,0.1088490188121795,1.877709150314331,0.208621859550476,0.0208551418036222,0.6569849848747253,0.6701965928077698,-0.3106130361557007,-0.5581443309783936,-0.3779298365116119,9.707438468933104,-0.2435658723115921,-1.140075922012329,0.6078213453292847,0.3501448035240173,0.6920102834701538,0.4064430892467499,-0.6085535883903503,-0.4336027801036834,-0.525790274143219
5078179,9.63598346710205,0.1092174649238586,1.875377058982849,0.2736268639564514,-0.0863147974014282,0.4478316009044647,0.6702033877372742,-0.3106141984462738,-0.5581121444702148,-0.3779643476009369,9.720949172973633,-0.2577925622463226,-1.1401729583740234,0.4397892355918884,0.3149913251399994,0.7967534065246582,0.4065174758434295,-0.6084932684898376,-0.4336306750774383,-0.5257795453071594
5078346,9.668015480041504,0.1298985332250595,1.8701164722442627,0.2869967222213745,0.084989346563816,0.4180441200733185,0.6702141761779785,-0.3106157183647156,-0.5580577850341797,-0.3780244886875152,9.683722496032717,-0.2356674522161483,-1.1355713605880735,0.1748002767562866,0.3119690716266632,1.0447356700897217,0.4065844118595123,-0.608466625213623,-0.4336136281490326,-0.5257726907730103
5078513,9.661735534667969,0.088220290839672,1.833300232887268,0.7681825160980225,0.0025292541831731,0.8593893647193909,0.6702839136123657,-0.3105812966823578,-0.5580341219902039,-0.3779639899730682,9.718510627746582,-0.2753144204616546,-1.1228373050689695,0.0468136109411716,0.3117385506629944,1.0759190320968628,0.406635582447052,-0.6084551811218262,-0.4335760772228241,-0.5257773995399475
5078679,9.61696434020996,0.1232903376221656,1.8557664155960083,0.102329134941101,0.2933358550071716,0.8787268400192261,0.6703541278839111,-0.3105887472629547,-0.5579495429992676,-0.3779583573341369,9.699158668518066,-0.2775037884712219,-1.1235874891281128,-0.0818837955594062,0.093697652220726,0.971611261367798,0.4066463112831116,-0.6084675192832947,-0.4335420429706573,-0.5257827639579773
5078846,9.615984916687012,0.1230644434690475,1.814767837524414,0.0836830884218216,-0.1092637702822685,0.3965165913105011,0.6703621745109558,-0.3105840384960174,-0.5579232573509216,-0.3779868185520172,9.72198486328125,-0.2600546479225158,-1.1517889499664309,-0.0660167261958122,-0.0649538114666938,0.6054778099060059,0.4066373705863952,-0.6084539294242859,-0.4335708022117615,-0.5257816910743713
5079013,9.711026191711426,0.1066353470087051,1.839679718017578,0.4231537878513336,-0.1494756937026977,0.2652259171009063,0.6703751087188721,-0.3105376064777374,-0.5579257607460022,-0.3779982328414917,9.731958389282228,-0.2814081609249115,-1.1149362325668335,-0.1638188064098358,-0.0188381392508745,0.0015303586842492,0.4065560102462768,-0.6084213256835938,-0.4336192309856415,-0.5258423686027527
5079179,9.684456825256348,0.1360823214054107,1.826766014099121,1.3109924793243408,-0.0687188729643821,0.0815956592559814,0.6704151630401611,-0.3103992044925689,-0.5579699277877808,-0.3779757022857666,9.72629737854004,-0.2974115014076233,-1.1270556449890137,-0.0855079963803291,0.0930061116814613,0.1578062325716018,0.4065196216106415,-0.6083697080612183,-0.4336749911308288,-0.5258841514587402
5079346,9.655258178710938,0.1202069297432899,1.846399188041687,1.1912400722503662,0.5318028330802917,0.5590676069259644,0.6705096364021301,-0.3103004693984985,-0.557915210723877,-0.3779698610305786,9.706652641296388,-0.2923942804336548,-1.1489925384521484,0.1123821213841438,0.2925674319267273,0.4249594807624817,0.4065272808074951,-0.6083135008811951,-0.4337026178836822,-0.5259205102920532
5079513,9.598346710205078,0.0823331996798515,1.892403244972229,0.6993483901023865,-0.0560790076851844,0.7968559861183167,0.6705670356750488,-0.3102719187736511,-0.5578964948654175,-0.3779191374778747,9.701644897460938,-0.2496477663516998,-1.1259257793426514,0.1130736619234085,0.3705581128597259,0.4461539983749389,0.4065374433994293,-0.6082561612129211,-0.4337189495563507,-0.5259655117988586
5079679,9.6526460647583,0.0659285187721252,1.836648106575012,0.8103922009468079,-0.4977315664291382,0.1997598260641098,0.670551598072052,-0.3102223575115204,-0.5579459071159363,-0.3779143691062927,9.70262622833252,-0.2549192011356354,-1.1165956258773804,-0.0954841449856758,0.2970368862152099,0.4184538722038269,0.4065268039703369,-0.60821133852005,-0.433731198310852,-0.5260154604911804
5079846,9.649944305419922,0.1237832605838775,1.845694899559021,0.6367892622947693,-0.1699018329381942,0.1834573447704315,0.6705560088157654,-0.3101676702499389,-0.5579560399055481,-0.3779362142086029,9.721193313598633,-0.2724926769733429,-1.128214716911316,-0.1778033822774887,0.1376106441020965,0.3008916079998016,0.4064864814281463,-0.6081787943840027,-0.4337531328201294,-0.5260661840438843
5080013,9.6360445022583,0.1136661693453788,1.840681076049805,0.2933870553970337,-0.178225964307785,0.352539598941803,0.670555055141449,-0.3101581037044525,-0.5579421520233154,-0.3779664039611816,9.736413955688477,-0.2925552129745483,-1.1344623565673828,-0.1586450636386871,0.2788774669170379,0.4528261125087738,0.4064864814281463,-0.6081289649009705,-0.4337758421897888,-0.5261052250862122
5080179,9.654500961303713,0.0819805413484573,1.8526511192321775,0.7261648178100586,0.0131457168608903,0.4763897955417633,0.6705994606018066,-0.3101008832454681,-0.5579305291175842,-0.3779516518115997,9.735201835632324,-0.290316492319107,-1.136196851730347,0.0236469246447086,0.3020825684070587,0.6471240520477295,0.4064952433109283,-0.608098566532135,-0.4337659478187561,-0.5261414647102356
5080346,9.649497985839844,0.1022791862487793,1.88728928565979,0.7520336508750916,-0.0174038298428058,0.5024635195732117,0.6706578135490417,-0.3100244402885437,-0.5579336285591125,-0.3779062330722809,9.714001655578612,-0.2859034538269043,-1.1299992799758911,0.261038213968277,0.336185872554779,0.5452238917350769,0.4065361618995666,-0.6080313324928284,-0.4338006675243377,-0.5261589288711548
5080513,9.643908500671388,0.0971297919750213,1.862957239151001,0.5910834670066833,-0.0529286414384841,0.3802269101142883,0.670672595500946,-0.30999556183815,-0.5579146146774292,-0.3779317140579223,9.711637496948242,-0.2913892567157745,-1.1329171657562256,0.3340344130992889,0.3195504546165466,0.4882613122463226,0.4065698385238647,-0.6079645156860352,-0.4338370561599731,-0.52618008852005
5080679,9.665515899658203,0.1059345826506614,1.8621344566345213,0.540344774723053,-0.171310544013977,0.346264511346817,0.6706815958023071,-0.3099638819694519,-0.5579123497009277,-0.3779451847076416,9.701252937316896,-0.2865972518920898,-1.1203434467315674,0.4161359369754791,0.1264307051897049,0.3969648480415344,0.4066051542758941,-0.6078907251358032,-0.4339148700237274,-0.526174008846283
5080846,9.655559539794922,0.0980452969670295,1.8478227853775024,0.6324607729911804,-0.2535144686698913,0.4009091258049011,0.6706897020339966,-0.3099340200424194,-0.5579195618629456,-0.3779444992542267,9.710121154785156,-0.2611596882343292,-1.1445508003234863,0.4991594552993774,-0.1075989454984664,0.4878386259078979,0.4066253900527954,-0.6078477501869202,-0.4339878559112549,-0.5261478424072266
5081013,9.649772644042969,0.0956670343875885,1.8599534034729004,0.6598278880119324,-0.0730602145195007,0.3927642703056335,0.670708417892456,-0.3098981082439422,-0.5579072833061218,-0.3779588639736175,9.728385925292969,-0.246400699019432,-1.1260265111923218,0.3679328262805938,-0.0060061775147914,0.5115048289299011,0.4066587090492248,-0.6077926754951477,-0.434061735868454,-0.5261248350143433
5081179,9.653924942016602,0.1067605167627334,1.856913447380066,0.7106307148933411,0.0694296211004257,0.2848196029663086,0.6707504391670227,-0.3098181188106537,-0.5579012632369995,-0.3779589831829071,9.734217643737791,-0.2680832147598266,-1.1205902099609375,0.1539387255907058,0.0188829619437456,0.6481869220733643,0.4066749513149261,-0.6077654957771301,-0.4340938031673431,-0.526117205619812
5081346,9.634162902832031,0.1354846060276031,1.8779808282852173,0.3799836337566376,0.1091293171048164,0.1959307640790939,0.6707462072372437,-0.3098049461841583,-0.5578529238700867,-0.3780487477779388,9.736533164978027,-0.2415106147527694,-1.1137971878051758,0.0355312153697013,0.286305159330368,0.8808270692825317,0.4067057371139526,-0.6077476143836975,-0.4340692162513733,-0.5261344313621521
5081513,9.640792846679688,0.0898200199007988,1.813913106918335,0.2370263189077377,-0.0822295770049095,0.4574363827705383,0.6707519888877869,-0.3098111152648926,-0.5578179359436035,-0.3780847787857055,9.72468376159668,-0.2363872975111007,-1.1258758306503296,-0.1174470260739326,0.3458802402019501,0.474993884563446,0.4066988527774811,-0.6077060103416443,-0.4340686500072479,-0.5261883735656738
5081679,9.606700897216797,0.0882178843021392,1.9066907167434688,0.3533335924148559,0.1702155917882919,0.3720948696136474,0.6707834005355835,-0.3097786605358124,-0.5577723979949951,-0.3781227171421051,9.711129188537598,-0.2577661573886871,-1.1461602449417114,-0.1819910258054733,0.2795818448066711,0.2304950952529907,0.4066623449325561,-0.607658326625824,-0.4340879321098327,-0.5262556076049805
5081846,9.65505599975586,0.1526644378900528,1.8330204486846924,0.4909889996051788,-0.501803994178772,-0.3099776804447174,0.6707279086112976,-0.309716135263443,-0.5578296780586243,-0.3781878650188446,9.729433059692385,-0.2701397240161896,-1.1210267543792725,-0.3032799661159515,0.1657589823007583,0.3249419033527374,0.4066281020641327,-0.6076219081878662,-0.4341111183166504,-0.5263049006462097
5082013,9.682881355285645,0.1557509750127792,1.8554829359054563,0.1329875290393829,0.3418975174427032,0.5414972305297852,0.6707823872566223,-0.3096950352191925,-0.5577556490898132,-0.3782177865505218,9.736546516418455,-0.2664059996604919,-1.1250712871551514,-0.2886038720607757,0.4194014966487884,0.5345433354377747,0.4066138863563537,-0.607589602470398,-0.4340863823890686,-0.526373565196991
5082179,9.63421630859375,0.0741419270634651,1.9042695760726929,0.2796714603900909,0.156077355146408,0.516678512096405,0.6708195209503174,-0.3096785545349121,-0.5577031373977661,-0.3782429099082947,9.731484413146973,-0.275927186012268,-1.116023302078247,-0.0096816001459956,0.5420351028442383,0.7510859966278076,0.4066505432128906,-0.6075434684753418,-0.43405881524086,-0.526421308517456
5082346,9.656886100769045,0.0865549445152282,1.8776626586914065,0.5812482237815857,0.1295682489871978,0.0833373218774795,0.6708672046661377,-0.3095654845237732,-0.5577074885368347,-0.3782444298267364,9.711739540100098,-0.263208657503128,-1.1023255586624146,0.0797131210565567,0.6047607660293579,0.6597639918327332,0.406697541475296,-0.6074770092964172,-0.4340484142303467,-0.5264701843261719
5082513,9.642337799072266,0.1304779201745987,1.86957323551178,0.109359823167324,-0.0097200190648436,0.1627878993749618,0.6708677411079407,-0.3095408380031585,-0.5576803684234619,-0.3783036768436432,9.70491886138916,-0.2612491548061371,-1.112475872039795,0.1598936766386032,0.500222384929657,0.4109877347946167,0.4067323207855224,-0.6073930859565735,-0.4340792894363403,-0.5265147089958191
5082679,9.646958351135254,0.1178753674030304,1.8382134437561035,0.0200227256864309,-0.0594982989132404,0.126699611544609,0.6708686351776123,-0.3095093071460724,-0.5576632618904114,-0.3783531785011291,9.699951171875,-0.2647466361522674,-1.1045902967453003,0.1623140722513198,0.2922216355800628,0.3618369698524475,0.406738668680191,-0.6073315739631653,-0.4341133236885071,-0.526552677154541
5082846,9.639799118041992,0.1193811371922493,1.852103352546692,0.3815971910953522,-0.0852134525775909,0.0996910333633422,0.6708813905715942,-0.3094429969787597,-0.5576691627502441,-0.3783759176731109,9.704829216003418,-0.2470443993806839,-1.1129872798919678,0.2601033747196197,0.2952567934989929,0.4112567007541656,0.4067477881908417,-0.6072752475738525,-0.43413907289505,-0.5265893340110779
5083013,9.651114463806152,0.135892316699028,1.861412048339844,0.4457954168319702,0.0110967000946402,0.2381916940212249,0.6708880066871643,-0.3094121217727661,-0.5576435327529907,-0.3784272968769073,9.717988967895508,-0.2252366840839386,-1.11569082736969,0.241867110133171,0.2444667965173721,0.489413857460022,0.4067509174346924,-0.60723477602005,-0.4341513216495514,-0.5266234874725342
5083179,9.650391578674316,0.1155973225831985,1.8696483373641968,0.4759927988052368,0.1925498843193054,0.2437240779399871,0.6709252595901489,-0.3093477785587311,-0.5576131939888,-0.3784587383270263,9.730151176452637,-0.2153126746416092,-1.111495852470398,0.1235748678445816,0.2100817561149597,0.4223982095718384,0.406740128993988,-0.6071962714195251,-0.4341672360897064,-0.526663064956665
5083346,9.651063919067385,0.1174497976899147,1.8730134963989256,0.3766411244869232,0.0482863411307334,0.0657670050859451,0.6709287762641907,-0.3092979788780212,-0.5575932264328003,-0.3785224556922912,9.73044204711914,-0.2166180312633514,-1.0924955606460571,-0.2752468585968017,0.162557378411293,0.4290447235107422,0.4067133963108063,-0.60716712474823,-0.4341800808906555,-0.5267067551612854
5083513,9.64296054840088,0.1448292434215545,1.8687900304794312,0.3245193064212799,0.0205605961382389,0.1866077333688736,0.6709259748458862,-0.3092769086360931,-0.557560920715332,-0.3785921931266784,9.70486068725586,-0.2245858162641525,-1.1071866750717163,-0.3825128376483917,0.0764090791344642,0.5217370986938477,0.4066790640354156,-0.6071565747261047,-0.4341817796230316,-0.5267440676689148
5083679,9.657780647277832,0.1459915041923523,1.8796759843826292,0.1927419602870941,-0.0639036819338798,0.4689109623432159,0.670936107635498,-0.3092813491821289,-0.557525098323822,-0.3786233067512512,9.697953224182127,-0.2507315874099731,-1.1073106527328491,-0.3846130669116974,-0.1107108891010284,0.7831786274909973,0.4066465198993683,-0.6071820855140686,-0.4341641664505005,-0.5267543792724609
5083846,9.656371116638184,0.1162982583045959,1.8501150608062744,0.21419258415699,-0.0093486355617642,0.5205588936805725,0.670943558216095,-0.309300810098648,-0.5574740767478943,-0.3786693215370178,9.704933166503906,-0.2656537294387817,-1.1045925617218018,-0.3182121813297272,-0.1319054067134857,1.0529444217681885,0.4066384732723236,-0.607222855091095,-0.4341283440589905,-0.5267431139945984
5084013,9.640643119812012,0.1080121919512748,1.873600006103516,-0.015149911865592,-0.0307352375239133,0.5240422487258911,0.670952558517456,-0.3093244433403015,-0.5574233531951904,-0.3787088692188263,9.72976779937744,-0.27171391248703,-1.0866230726242063,-0.1699530482292175,-0.2429876625537872,1.0863561630249023,0.406622439622879,-0.6072795987129211,-0.4340879619121551,-0.5267234444618225
5084179,9.64023208618164,0.1153684481978416,1.8564878702163696,0.110422745347023,0.0412812680006027,0.4972641468048095,0.6709679365158081,-0.3093350529670715,-0.5573707818984985,-0.3787503242492676,9.734386444091797,-0.3048064708709717,-1.121852159500122,0.1869663000106811,-0.2386719137430191,0.973621904850006,0.4066290259361267,-0.607308030128479,-0.434083878993988,-0.526688814163208
5084346,9.640869140625,0.1042106822133064,1.8784276247024536,0.1638252288103103,0.008855590596795,0.5605658888816833,0.6709825396537781,-0.3093532621860504,-0.5573182702064514,-0.3787868618965149,9.728923797607422,-0.3027934730052948,-1.110094666481018,0.5095198154449463,-0.1186124011874198,0.8966172933578491,0.4066862165927887,-0.6072866320610046,-0.4341273903846741,-0.5266334414482117
5084513,9.641794204711914,0.1100935414433479,1.890329480171204,0.3456241488456726,-0.1752036660909652,0.6166064739227295,0.6709878444671631,-0.3093767762184143,-0.5572866201400757,-0.3788047432899475,9.717337608337402,-0.2953133583068847,-1.1071064472198486,0.6949302554130554,-0.0790920183062553,0.8257214426994324,0.4067549407482147,-0.6072487235069275,-0.4341862499713897,-0.52657550573349
5084679,9.627694129943848,0.1014276146888732,1.8966412544250488,0.5562629699707031,-0.2688436806201935,0.5743327140808105,0.6710053086280823,-0.3093632757663727,-0.5572875738143921,-0.3787834942340851,9.695096015930176,-0.2539055049419403,-1.1155120134353638,0.8402311205863953,-0.0488306172192096,0.885847270488739,0.4068394601345062,-0.6072067618370056,-0.4342449009418487,-0.5265102982521057
5084846,9.629890441894531,0.1190333142876625,1.866294384002685,0.5164480805397034,-0.2989642024040222,0.6599047780036926,0.6710132956504822,-0.3093768358230591,-0.5572773814201355,-0.3787731826305389,9.697171211242676,-0.2331140637397766,-1.1226459741592407,0.6138403415679932,-0.3052137494087219,1.0064830780029297,0.406901478767395,-0.6072016358375549,-0.4342959225177765,-0.5264261364936829
5085013,9.6434326171875,0.1114739254117012,1.8707025051116943,0.4816532135009765,-0.3839215636253357,0.5891112685203552,0.671019971370697,-0.3093767166137695,-0.5572856068611145,-0.3787492513656616,9.716814041137695,-0.2352821379899978,-1.1110551357269287,0.4412363767623901,-0.5050952434539795,0.9965965151786804,0.4069209694862366,-0.607232928276062,-0.4343306422233581,-0.5263463258743286
5085179,9.62986660003662,0.1294012814760208,1.8441931009292605,0.225154846906662,-0.3954984545707702,0.6620177626609802,0.6710246801376343,-0.3093986809253692,-0.5572828650474548,-0.3787271976470947,9.702796936035156,-0.2605737149715423,-1.1227269172668457,0.1570378541946411,-0.4295121729373932,1.1241990327835083,0.4069515466690063,-0.6072653532028198,-0.4343525171279907,-0.5262672305107117
5085346,9.687884330749512,0.1170349568128585,1.874565601348877,0.3560357093811035,-0.1458258926868438,0.4404551684856415,0.6710373163223267,-0.3093849122524261,-0.5572681427001953,-0.3787377476692199,9.704015731811523,-0.2478478997945785,-1.1082923412322998,-0.0642238482832908,-0.4282059371471405,1.3005681037902832,0.4069644212722778,-0.6073315143585205,-0.4343286454677582,-0.526200532913208
5085513,9.644869804382324,0.0797157064080238,1.8576414585113523,0.7241414785385132,-0.2965438365936279,0.977822482585907,0.6710778474807739,-0.3093957602977752,-0.5572596192359924,-0.3786696195602417,9.732989311218262,-0.286391019821167,-1.1235731840133667,-0.1925818771123886,-0.4366708993911743,1.2640697956085205,0.4069734513759613,-0.6073945164680481,-0.4343109428882599,-0.5261353850364685
5085679,9.597021102905272,0.1195132732391357,1.883652925491333,-0.1087131053209304,0.0659462958574295,0.7818468809127808,0.6711007356643677,-0.3094508051872253,-0.55717933177948,-0.3787022233009338,9.713461875915527,-0.287529319524765,-1.1421304941177368,-0.0607405118644237,-0.4300884306430816,0.917632520198822,0.4069599509239197,-0.6074343323707581,-0.4343241453170776,-0.5260891318321228
