sampleTimeFine,W4_acc_x,W4_acc_y,W4_acc_z,W4_gyro_x,W4_gyro_y,W4_gyro_z,W4_quat_w,W4_quat_x,W4_quat_y,W4_quat_z,W5_acc_x,W5_acc_y,W5_acc_z,W5_gyro_x,W5_gyro_y,W5_gyro_z,W5_quat_w,W5_quat_x,W5_quat_y,W5_quat_z
223871,0.0,0.0,0.0,0.0,0.0,0.0,0.6441496014595032,-0.3388297259807586,-0.5306658744812012,-0.43434938788414,0.0,0.0,0.0,0.0,0.0,0.0,0.3433580696582794,-0.6449801325798035,-0.4139116406440735,-0.5429392457008362
224038,9.620943069458008,0.2256699800491333,2.0333261489868164,1.2390847206115725,-0.1605019718408584,0.2437752932310104,0.6445680856704712,-0.3384342193603515,-0.53083336353302,-0.4338321387767792,9.588767051696776,0.072622038424015,-1.694446325302124,0.8293840885162354,-0.0668619498610496,0.1008564084768295,0.3437912464141845,-0.644638180732727,-0.4142952859401703,-0.5427786111831665
224205,9.615610122680664,0.2526845335960388,2.014397382736206,1.623377561569214,-0.2667434215545654,0.1832140386104583,0.6445553302764893,-0.3385743200778961,-0.5308139324188232,-0.4337655901908874,9.591938018798828,0.0873312354087829,-1.6902568340301514,0.8303444385528564,-0.173154667019844,-0.0505850799381732,0.3438331484794616,-0.6445339322090149,-0.4144027829170227,-0.5427937507629395
224371,9.62184715270996,0.2653722465038299,2.0092060565948486,1.6612589359283447,-0.1727960705757141,0.1057996675372123,0.6445144414901733,-0.338484525680542,-0.5310602784156799,-0.4335947930812835,9.5887451171875,0.1030517295002937,-1.6782281398773191,0.6710975766181946,-0.2668458819389343,-0.0811154171824455,0.3440243601799011,-0.6442175507545471,-0.4148419201374054,-0.5427128672599792
224538,9.621467590332031,0.2926022708415985,1.9871000051498413,1.719066858291626,-0.0791944786906242,0.1728281080722808,0.6444932818412781,-0.3382620811462402,-0.531402587890625,-0.4333806037902832,9.576926231384276,0.1200282424688339,-1.6910382509231567,0.3783571720123291,-0.3144983351230621,-0.0443483851850032,0.3438504338264465,-0.6441210508346558,-0.4149023592472076,-0.5428914427757263
224705,9.611507415771484,0.2813921272754669,2.009328365325928,1.655585765838623,-0.0513790771365165,0.2934255301952362,0.6443789005279541,-0.3380639851093292,-0.5317637920379639,-0.4332618117332458,9.5888671875,0.1152933463454246,-1.6997355222702026,-0.019965099170804,-0.45903080701828,-0.0236021019518375,0.3436557054519653,-0.6440287828445435,-0.4150508642196655,-0.5430107116699219
224871,9.62364101409912,0.3009052574634552,1.9832453727722168,1.4740301370620728,0.0142982909455895,0.3350973427295685,0.6443379521369934,-0.3378437459468841,-0.5320551991462708,-0.4331368803977966,9.609275817871094,0.1035383567214012,-1.682845115661621,0.0264707244932651,-0.4657157659530639,0.2949686348438263,0.3435295522212982,-0.6439704895019531,-0.4151995778083801,-0.5430458188056946
225038,9.607449531555176,0.3042090833187103,2.01492691040039,1.2492016553878784,0.014387933537364,0.3140437006950378,0.6443184614181519,-0.3376030325889587,-0.5323601961135864,-0.4329789578914642,9.605899810791016,0.0893658474087715,-1.6892215013504028,-0.0520065836608409,-0.3943587243556976,0.4168146252632141,0.3434588313102722,-0.643932044506073,-0.4152808785438537,-0.5430741310119629
225205,9.613890647888184,0.2770688533782959,1.9822115898132324,0.8972576260566711,-0.1482847183942794,0.7053160667419434,0.6441863775253296,-0.3375977873802185,-0.5324783325195312,-0.4330340027809143,9.58999729156494,0.0713060051202774,-1.6949721574783323,0.0856296569108963,-0.1902767270803451,0.4876465797424316,0.3434889018535614,-0.6438753604888916,-0.4153580963611603,-0.5430630445480347
225371,9.618635177612305,0.2562211155891418,2.0167758464813232,0.7776975631713867,0.0656517520546913,0.7669786214828491,0.6442294716835022,-0.3374536037445068,-0.5326554775238037,-0.4328646659851074,9.607348442077637,0.0662099048495292,-1.6949684619903564,0.2510876953601837,-0.2438201010227203,0.4989930391311645,0.3435565829277038,-0.6438477039337158,-0.415414422750473,-0.5430100560188293
225538,9.611949920654297,0.2491244971752166,2.0107202529907227,0.6811249256134033,0.0477484725415706,0.882197380065918,0.6443055868148804,-0.3373545408248901,-0.5327728986740112,-0.4326839447021484,9.589739799499512,0.0358908176422119,-1.703687310218811,0.4711136519908905,-0.1404600739479065,0.4453344345092773,0.3437011837959289,-0.6437873840332031,-0.4155089557170868,-0.5429176688194275
225705,9.610018730163574,0.2242784351110458,2.0188136100769043,0.7973554134368896,-0.0249979961663484,0.947240948677063,0.644336998462677,-0.3373595774173736,-0.5328166484832764,-0.4325793981552124,9.545480728149414,0.0232039093971252,-1.7083122730255127,0.8387710452079773,-0.2957882583141327,0.6498646140098572,0.3438757658004761,-0.6437796950340271,-0.4155629575252533,-0.5427748560905457
225871,9.616717338562012,0.2634537518024444,2.0246896743774414,0.8766394257545471,0.2438905239105224,1.1136209964752195,0.644469141960144,-0.3373181819915771,-0.5328373908996582,-0.4323893189430237,9.558819770812988,0.0481027103960514,-1.715342998504639,1.0722179412841797,-0.6730248928070068,0.6012004613876343,0.3439833521842956,-0.6438624262809753,-0.4155587255954742,-0.5426117777824402
226038,9.62093448638916,0.2168899774551391,1.983100414276123,0.710348904132843,0.2131552845239639,1.2244725227355957,0.6446260213851929,-0.3372739255428314,-0.5328503847122192,-0.4321737289428711,9.654125213623049,0.1506166160106659,-1.730987548828125,0.6672683954238892,-0.6149864792823792,-0.2145447731018066,0.34402796626091,-0.6438880562782288,-0.4156444370746612,-0.5424875020980835
226205,9.642804145812988,0.1681616902351379,1.954102873802185,1.3067662715911863,0.4782595038414001,1.2644925117492676,0.6447781920433044,-0.337251752614975,-0.532824695110321,-0.4319954216480255,9.706938743591309,0.111545480787754,-1.7317354679107666,-0.0360626839101314,0.1013302505016326,-0.5379948019981384,0.343941867351532,-0.6438980102539062,-0.4156348705291748,-0.5425376296043396
226371,9.620556831359863,0.3029810190200805,1.99267852306366,1.3543931245803833,1.4243029356002808,0.6976578831672668,0.6450251340866089,-0.337084412574768,-0.5327816605567932,-0.4318105280399322,9.671095848083496,0.0860955640673637,-1.726491093635559,-0.1577102094888687,0.86408931016922,0.0623733289539814,0.3439972400665283,-0.6438315510749817,-0.4156107008457184,-0.5425999164581299
226538,9.645533561706545,0.3414274454116821,2.045436382293701,0.8125565648078918,2.3480379581451416,0.1413885056972503,0.645244300365448,-0.3368862569332123,-0.5326313972473145,-0.4318231642246246,9.627856254577637,0.1267409324645996,-1.6868276596069336,-0.3101826310157776,1.366392731666565,0.8459683060646057,0.3441113233566284,-0.6437941789627075,-0.4154547452926636,-0.5426914095878601
226705,9.65541172027588,0.282019168138504,2.0846352577209477,-0.0576798021793365,1.7533366680145264,1.2462564706802368,0.6454852819442749,-0.336813747882843,-0.5324652791023254,-0.4317243695259094,9.60781955718994,0.1123773530125618,-1.6899210214614868,-0.5136627554893494,1.5120137929916382,0.8736940622329712,0.3442173302173614,-0.6437441110610962,-0.4152823984622955,-0.5428154468536377
226871,9.60673713684082,0.2131959646940231,2.089181900024414,0.2313275188207626,1.2760822772979736,0.6660391092300415,0.6455662846565247,-0.3368223309516907,-0.5322960019111633,-0.4318055510520935,9.57636260986328,0.057991474866867,-1.6574461460113523,-0.5281978845596313,1.4321660995483398,0.7968688011169434,0.3442946374416351,-0.643703281879425,-0.4151049256324768,-0.5429506897926331
227038,9.599510192871094,0.2226126343011856,2.0575954914093018,0.7421343922615051,1.1734906435012815,-0.0100401788949966,0.6456537842750549,-0.3367139101028442,-0.5322020053863525,-0.4318752586841583,9.557640075683594,0.0277388598769903,-1.649688482284546,-0.1812482625246048,1.1049511432647705,0.7566183805465698,0.3444231748580932,-0.6436416506767273,-0.4150069952011108,-0.5430168509483337
227205,9.615808486938477,0.2632358074188232,2.0560145378112797,1.1239558458328247,0.6610702872276306,0.6467655301094055,0.6458009481430054,-0.3366122245788574,-0.5321692228317261,-0.4317746460437774,9.5564546585083,0.0516530089080333,-1.6557819843292236,0.3313578963279724,0.7196465134620667,0.7444394826889038,0.3445333540439605,-0.6436251401901245,-0.4148994386196136,-0.5430487394332886
227371,9.59084129333496,0.2572946846485138,2.0459072589874268,1.0805933475494385,0.6948916912078857,0.8491697907447815,0.6459565162658691,-0.3365319073200226,-0.5321167707443237,-0.4316692650318146,9.556527137756348,0.0534537471830844,-1.650587558746338,0.5328786373138428,0.3641037344932556,0.7434918284416199,0.3446637094020843,-0.6436120271682739,-0.414845198392868,-0.5430231690406799
227538,9.57899570465088,0.2309776395559311,2.039804697036743,0.7839215993881226,0.5748322606086731,0.766223132610321,0.6460744142532349,-0.3364898264408111,-0.5320550799369812,-0.4316014647483825,9.575488090515137,0.0498362779617309,-1.6619817018508911,0.6329986453056335,-0.0604459680616855,0.8720547556877136,0.3447043001651764,-0.6437004208564758,-0.4147036969661712,-0.5430005788803101
227705,9.587230682373049,0.2289200276136398,2.047348737716675,0.8123642802238464,0.449842244386673,0.6472265124320984,0.6461935043334961,-0.3364259004592895,-0.5320249199867249,-0.4315102100372314,9.59434700012207,0.091106541454792,-1.6593562364578247,0.5953351259231567,-0.2326657474040985,0.849541187286377,0.3448688685894012,-0.6436978578567505,-0.414732426404953,-0.542877197265625
227871,9.587910652160645,0.2353305518627166,2.0400002002716064,0.7748546004295349,0.3839407861232757,0.9265843033790588,0.6463180780410767,-0.3364002704620361,-0.5319794416427612,-0.4313997626304626,9.622281074523926,0.0870330035686492,-1.6607823371887207,0.4713825285434723,-0.125771164894104,0.737588107585907,0.3449560105800628,-0.6437307000160217,-0.4146862328052521,-0.5428181886672974
228038,9.590208053588867,0.2388640195131302,2.041380882263184,0.5961291790008545,0.4896700382232666,0.8466342687606812,0.6464537978172302,-0.3363586068153381,-0.5319305658340454,-0.4312890768051147,9.641660690307615,0.0897758081555366,-1.655815839767456,0.3229312598705292,-0.0514302961528301,0.8547533750534058,0.3450499773025512,-0.6437636017799377,-0.4146253764629364,-0.5427658557891846
228205,9.605292320251465,0.2575427591800689,2.0458016395568848,0.738817572593689,0.5203027725219727,0.7170467972755432,0.6465483903884888,-0.3363436460494995,-0.5318623781204224,-0.4312430918216705,9.613369941711426,0.0922233238816261,-1.652243971824646,0.1410043090581894,0.0492340065538883,0.9437830448150636,0.3451086282730102,-0.6438238024711609,-0.4145022332668304,-0.5427511930465698
228371,9.62448501586914,0.2758581340312958,2.0773301124572754,0.6253212094306946,0.360767662525177,0.8946003913879395,0.6466646790504456,-0.3363256752490997,-0.5318179726600647,-0.4311374723911285,9.558939933776855,0.0780045688152313,-1.6450802087783811,-0.0744689181447029,-0.198703333735466,1.009658932685852,0.345188558101654,-0.6438764929771423,-0.4144320487976074,-0.5426915287971497
228538,9.610315322875977,0.2479208111763,2.100024461746216,0.5777648687362671,0.1188365146517753,0.9915636777877808,0.6467863917350769,-0.3363058865070343,-0.5318055152893066,-0.430985689163208,9.542886734008787,0.0566023886203765,-1.653475642204285,-0.1082776933908462,-0.5618274807929993,1.1001743078231812,0.3451966643333435,-0.6440049409866333,-0.414306104183197,-0.5426302552223206
228705,9.580848693847656,0.2742719650268554,2.0675556659698486,0.6612494587898254,-0.0840864852070808,0.6731977462768555,0.6468575596809387,-0.3362902402877807,-0.5318146347999573,-0.4308799803256988,9.570265769958496,0.089968241751194,-1.6513017416000366,-0.1632681787014007,-0.8672588467597961,1.00082266330719,0.3451852798461914,-0.6441457271575928,-0.414214015007019,-0.5425405502319336
228871,9.590063095092772,0.227493479847908,2.04196834564209,0.5278201103210449,-0.2956345677375793,0.9840463995933532,0.6469364166259766,-0.3363076150417328,-0.5318301916122437,-0.4307288825511932,9.584476470947266,0.0793920457363128,-1.6764105558395386,-0.5050824880599976,-0.9971280097961426,0.6634778380393982,0.3451381027698517,-0.6442682147026062,-0.4141724109649658,-0.5424569249153137
229038,9.588146209716797,0.2639903128147125,2.066066265106201,0.3217275142669678,-0.171400174498558,0.7805148959159851,0.6469842791557312,-0.3363436758518219,-0.5318182110786438,-0.4306435883045196,9.614180564880373,0.062752291560173,-1.6778825521469116,-0.623490035533905,-0.9697865843772888,0.3450094759464264,0.3450474739074707,-0.6443814039230347,-0.4141423106193542,-0.5424032211303711
229205,9.578710556030272,0.2773527503013611,2.0539231300354004,0.0458275228738784,0.0610670745372772,0.2596423327922821,0.6469885110855103,-0.3363680243492126,-0.5317811965942383,-0.4306636750698089,9.658384323120115,0.0306624006479978,-1.6472117900848389,-0.3994556665420532,-0.6189565062522888,0.352539598941803,0.344987004995346,-0.6444658637046814,-0.4140970110893249,-0.5423757433891296
229371,9.616853713989258,0.2864899635314941,2.0128109455108643,-0.1859994232654571,0.0033104412723332,0.4878898561000824,0.6469712853431702,-0.3364574313163757,-0.5317105054855347,-0.4307069480419159,9.649174690246582,0.0347357913851738,-1.684969425201416,-0.0388160422444343,-0.2836990356445312,0.4652738869190216,0.3449982702732086,-0.6445075273513794,-0.4140584766864776,-0.5423485040664673
229538,9.619942665100098,0.2520261108875274,2.117140054702759,0.1168003156781196,0.2471817731857299,0.7763657569885254,0.6470251679420471,-0.3364977836608886,-0.5316425561904907,-0.4306783378124237,9.613636016845703,0.0329976640641689,-1.659825086593628,0.2765082716941833,-0.0759032294154167,0.5271157622337341,0.3450671732425689,-0.644514262676239,-0.4140395820140838,-0.5423110723495483
229705,9.611742973327637,0.2320243567228317,2.1313552856445312,-0.09364003688097,0.263637900352478,0.6121370792388916,0.6470768451690674,-0.3365239202976227,-0.5315778255462646,-0.4306602478027344,9.601097106933594,0.0478174686431884,-1.689142823219299,0.496739000082016,0.0794185698032379,0.326517105102539,0.3451205790042877,-0.644509494304657,-0.4140113294124603,-0.5423043370246887
229871,9.591140747070312,0.2058286070823669,2.110527276992798,0.3607228398323059,-0.0134338596835732,0.4274055063724518,0.6470884084701538,-0.3365485370159149,-0.5315491557121277,-0.4306590557098388,9.586864471435549,0.0665246993303299,-1.6294232606887815,0.5516399145126343,0.0719652846455574,0.1537466198205948,0.3452688455581665,-0.6444135904312134,-0.4141281247138977,-0.5422347784042358
230038,9.59790325164795,0.2162264436483383,2.09416937828064,0.8739628791809082,-0.1194063946604728,0.0968992412090301,0.647142231464386,-0.3364519774913788,-0.5316110849380493,-0.4305770993232727,9.581077575683594,0.0680088698863983,-1.6509921550750732,0.6361105442047119,-0.1624357402324676,0.2645087242126465,0.345340222120285,-0.6443982720375061,-0.4141580760478973,-0.5421848297119141
230205,9.606586456298828,0.2447732239961624,2.09768009185791,1.16854727268219,-0.4621171057224273,0.1940354108810424,0.647172212600708,-0.3363804221153259,-0.5317031741142273,-0.4304742515087127,9.589686393737791,0.0883580148220062,-1.6567468643188477,0.6028269529342651,-0.3501640558242798,0.5148217082023621,0.3453867435455322,-0.6444368362426758,-0.4141360521316528,-0.5421260595321655
230371,9.584118843078612,0.2507820725440979,2.100829839706421,1.26039457321167,-0.5979669094085693,0.4415181577205658,0.6472209692001343,-0.3363163471221924,-0.5318081974983215,-0.4303211867809295,9.58363437652588,0.1085547506809234,-1.6629797220230105,0.4244856536388397,-0.6482189297676086,0.7356542944908142,0.3454396426677704,-0.6445016264915466,-0.4141246974468231,-0.5420240759849548
230538,9.591898918151855,0.2533132135868072,2.0773234367370605,1.0783522129058838,-0.4960539042949676,0.5101473927497864,0.6472468972206116,-0.3363003730773926,-0.5318676829338074,-0.4302212595939636,9.598918914794922,0.0795263350009918,-1.6501023769378662,0.2182393968105316,-0.7749505639076233,0.8433429002761841,0.3454634249210357,-0.6445992588996887,-0.4140841662883758,-0.5419235825538635
230705,9.595025062561035,0.2272444367408752,2.089920997619629,1.0527524948120115,-0.4119418561458587,0.6047863364219666,0.647325336933136,-0.3362373113632202,-0.5319456458091736,-0.4300560057163238,9.582988739013672,0.0471265614032745,-1.6665198802947998,0.1623012721538543,-0.899389922618866,1.0113238096237185,0.3454804718494415,-0.6447243094444275,-0.4140218794345855,-0.541811466217041
230871,9.580121040344238,0.2673082649707794,2.0761544704437256,0.8705306649208069,-0.553208589553833,0.5736283659934998,0.6473615765571594,-0.3362238705158233,-0.5320103168487549,-0.4299321174621582,9.576904296875,0.0269829016178846,-1.6815890073776243,0.2832828760147095,-1.0991177558898926,1.1175525188446045,0.3455107808113098,-0.64486163854599,-0.4139755964279175,-0.541664183139801
231038,9.60347843170166,0.2669080793857574,2.0735208988189697,0.3802269101142883,-0.6869581341743469,0.8886774182319641,0.6473698019981384,-0.3363047540187835,-0.532031774520874,-0.4298299252986908,9.561695098876951,0.0110460333526134,-1.6620603799819946,0.5962316989898682,-1.270197868347168,1.073870062828064,0.3455779254436493,-0.644978940486908,-0.4139910340309143,-0.541469931602478
231205,9.627811431884766,0.2373484820127487,2.078310251235962,0.2746257781982422,-0.8407624363899231,1.0731016397476196,0.6473088264465332,-0.3364972174167633,-0.5320031642913818,-0.4298067092895508,9.589902877807615,0.0394856967031955,-1.695335030555725,0.6363027095794678,-1.398146152496338,0.6687027812004089,0.3456233441829681,-0.6450703740119934,-0.4140689671039581,-0.5412724018096924
231371,9.60365867614746,0.203945055603981,2.062370777130127,0.0578014552593231,-0.8440024256706238,1.23333477973938,0.6473239064216614,-0.3366276025772095,-0.5320137739181519,-0.4296686053276062,9.611431121826172,0.0563729666173458,-1.7139856815338137,0.5834893584251404,-1.2379001379013062,0.3053097724914551,0.3456362187862396,-0.645136833190918,-0.4141590893268585,-0.5411160588264465
231538,9.584609985351562,0.2295538187026977,2.0637357234954834,0.3651154339313507,-0.7752068042755127,0.996865451335907,0.6473221778869629,-0.3367354869842529,-0.5320308804512024,-0.4295655786991119,9.612566947937012,0.0604718104004859,-1.6951125860214231,0.4934990406036377,-1.058995485305786,0.1917174458503723,0.345618724822998,-0.6452049016952515,-0.4142171442508697,-0.5410014986991882
231705,9.598163604736328,0.2492734789848327,2.076856851577759,0.6360978484153748,-0.5634537935256958,0.8040659427642822,0.6473473310470581,-0.3367781937122345,-0.532061755657196,-0.4294556677341461,9.586013793945312,0.0767460986971855,-1.704994559288025,0.3040291368961334,-0.917408525943756,0.3736700713634491,0.3456625044345855,-0.6452388763427734,-0.4143041670322418,-0.5408662557601929
231871,9.61069679260254,0.2514227628707886,2.085723400115967,0.5701067447662354,-0.6221068501472473,0.9401974081993104,0.6473724246025085,-0.3368419110774994,-0.532086968421936,-0.4293365776538849,9.60892391204834,0.0646267533302307,-1.732965350151062,0.1137780100107193,-1.1274582147598269,0.5631912350654602,0.345697283744812,-0.6453045606613159,-0.4143789410591125,-0.5407083630561829
232038,9.61085319519043,0.2360816150903701,2.07738733291626,0.5649200677871704,-0.7610045075416565,0.9584976434707642,0.6474013924598694,-0.3368986248970032,-0.5321348309516907,-0.4291891157627105,9.57627010345459,0.0432307720184326,-1.730170965194702,-0.0482543185353279,-0.9275125861167908,0.6484174728393555,0.3456641435623169,-0.6454222202301025,-0.4143395721912384,-0.5406192541122437
232205,9.592889785766602,0.2205879390239715,2.078226089477539,0.5757286548614502,-0.9066638946533204,0.8347243070602417,0.6473690271377563,-0.3370067179203033,-0.53216952085495,-0.4291100800037384,9.52805233001709,-0.002165543846786,-1.7210350036621094,0.2820022106170654,-1.2260288000106812,1.003409504890442,0.3457076847553253,-0.6455411911010742,-0.4143515229225158,-0.5404402613639832
232371,9.612133026123049,0.236650601029396,2.072617053985596,0.5129903554916382,-0.8056987524032593,0.7627013325691223,0.6473666429519653,-0.3370724022388458,-0.5322171449661255,-0.4290030002593994,9.547420501708984,-0.016925573348999,-1.7454290390014648,0.5804926753044128,-1.6818193197250366,0.9844433069229126,0.3457359075546264,-0.6456921100616455,-0.4143936336040497,-0.5402097105979919
232538,9.61349868774414,0.204374149441719,2.0476105213165283,0.1208599284291267,-0.9156540036201476,0.9926009774208068,0.6473497152328491,-0.3372008800506592,-0.5322386026382446,-0.4289010763168335,9.629386901855469,0.0842408090829849,-1.7478041648864746,0.5141044855117798,-1.8327935934066768,0.1335766166448593,0.3456799387931824,-0.6458099484443665,-0.4145147800445556,-0.5400116443634033
232705,9.62349796295166,0.1362695544958114,1.9833152294158936,0.5747169256210327,-1.0794343948364258,1.1181159019470217,0.647418737411499,-0.3372220396995544,-0.5323517322540283,-0.4286397397518158,9.674519538879396,0.0804815962910652,-1.7440601587295532,-0.279857188463211,-1.1925657987594604,-0.5257135033607483,0.3455252945423126,-0.6458850502967834,-0.4145925641059875,-0.5399609804153442
232871,9.632342338562012,0.2329275161027908,2.0321621894836426,0.6949941515922546,-0.2149801850318908,0.733131468296051,0.6474488377571106,-0.3372589945793152,-0.5323415994644165,-0.4285778105258941,9.649127006530762,0.0539053417742252,-1.7411174774169922,-0.3821542859077453,-0.7723510265350342,-0.3242055475711822,0.3453867435455322,-0.6459554433822632,-0.4146054685115814,-0.5399554967880249
233038,9.63351345062256,0.307858258485794,2.06399917602539,0.7143062353134155,0.5592597126960754,-0.2799212038516998,0.6474483609199524,-0.337201863527298,-0.5322883129119873,-0.4286895096302032,9.619543075561523,0.0754329413175582,-1.7157963514328003,-0.4450591206550598,-0.2808176577091217,0.1845779418945312,0.3453748226165771,-0.645972490310669,-0.4146171510219574,-0.5399337410926819
233205,9.64350700378418,0.281353235244751,2.095709800720215,-0.0377915389835834,-0.2927275896072387,0.898038923740387,0.6474193930625916,-0.3373564779758453,-0.5322127342224121,-0.4287055134773254,9.590774536132812,0.072649173438549,-1.7282978296279907,-0.8604329824447632,-0.033731922507286,0.1266739815473556,0.3453130722045898,-0.6460031270980835,-0.4145645201206207,-0.5399770140647888
233371,9.614566802978516,0.2012165635824203,2.114957571029663,0.1150842607021331,-0.5710607171058655,0.669253408908844,0.6474106311798096,-0.3374345898628235,-0.5322226881980896,-0.4286449551582336,9.589730262756348,0.0313160978257656,-1.7185848951339722,-0.9394353032112122,0.0118138566613197,-0.0471145585179328,0.3451950848102569,-0.6460521817207336,-0.4144754111766815,-0.5400621891021729
233538,9.577943801879885,0.1792069375514984,2.065481185913086,0.5141173005104065,-0.6150633692741394,-0.1517936736345291,0.6473679542541504,-0.337413877248764,-0.5323010683059692,-0.4286284446716308,9.54707145690918,0.0032293151598423,-1.7264283895492554,-0.777191698551178,-0.1830667555332183,0.0777665600180625,0.3450946807861328,-0.646112859249115,-0.4144016802310943,-0.5401102900505066
233705,9.623674392700195,0.2456299513578415,2.06679916381836,0.5181897282600403,-0.8932556509971619,0.2986888587474823,0.6472681164741516,-0.3375253975391388,-0.5323325395584106,-0.4286523461341858,9.536983489990234,-0.0020956574007868,-1.713478922843933,-0.3398036956787109,-0.5305030345916748,0.0456866510212421,0.3449822068214416,-0.6462007164955139,-0.4143460690975189,-0.5401197671890259
233871,9.619462966918944,0.2227275967597961,2.0643579959869385,0.8509500026702881,-0.9016565680503844,0.6555378437042236,0.6472489237785339,-0.3375800251960754,-0.5324019193649292,-0.4285521507263183,9.54650592803955,0.0212761331349611,-1.726612567901611,-0.015969518572092,-0.8713439702987671,0.0343786440789699,0.3449152112007141,-0.6462712287902832,-0.4143765568733215,-0.5400547981262207
234038,9.593178749084473,0.2130714207887649,2.0264692306518555,0.6187323927879333,-0.7110213041305542,0.5651890635490417,0.6471980214118958,-0.3376743793487549,-0.5324199199676514,-0.4285323023796081,9.589649200439451,0.0215886700898408,-1.7461938858032229,0.2640221416950226,-1.1667354106903076,0.1427716016769409,0.344844788312912,-0.6463736295700073,-0.4144086539745331,-0.5399527549743652
234205,9.571786880493164,0.2258660048246383,2.037111282348633,0.6603018045425415,-0.5384301543235779,0.2750355899333954,0.6472039818763733,-0.3376576006412506,-0.5324859619140625,-0.4284543395042419,9.59870719909668,0.052386924624443,-1.774502158164978,0.4001664221286773,-1.1652498245239258,0.1745185554027557,0.3447940051555633,-0.6464680433273315,-0.4144530594348907,-0.5398378372192383
234371,9.581914901733398,0.1974105983972549,2.029772996902466,0.430235743522644,-0.5352669954299927,0.3579054772853851,0.6471877098083496,-0.3376888632774353,-0.5325207114219666,-0.428411066532135,9.630901336669922,0.0577549301087856,-1.7291144132614136,0.4787205457687378,-1.076488971710205,0.0995629653334617,0.3447577059268951,-0.6465412974357605,-0.4145164489746094,-0.5397247076034546
234538,9.60140895843506,0.2076524794101715,2.048086881637573,0.3657301068305969,-0.4218667447566986,0.3274135291576385,0.6471633911132812,-0.3377315998077392,-0.5325330495834351,-0.4283986687660217,9.618170738220217,0.0768612325191497,-1.7475111484527588,0.3405528366565704,-0.8830874562263489,0.1053514331579208,0.3447640538215637,-0.6465725898742676,-0.4146114289760589,-0.5396100878715515
234705,9.624743461608888,0.2211667150259018,2.052821636199951,0.3086393773555755,-0.5435143113136292,0.2154732346534729,0.6470881700515747,-0.3378183841705322,-0.5325336456298828,-0.4284432530403137,9.608915328979492,0.0791412889957428,-1.7417093515396118,0.2581439912319183,-0.6100432872772217,0.1502376794815063,0.3447641730308532,-0.646602988243103,-0.4146606624126434,-0.5395357608795166
234871,9.6336088180542,0.22545126080513,2.0364246368408203,0.4821654558181762,-0.4745776653289795,0.2542764544486999,0.6470629572868347,-0.3378454148769378,-0.532563328742981,-0.4284231066703796,9.515165328979492,0.0673006623983383,-1.7431901693344116,0.0220973547548055,-0.7533462643623352,0.0265155471861362,0.3447120189666748,-0.6466575860977173,-0.4146968722343445,-0.5394759178161621
235038,9.626604080200195,0.2300848215818405,2.0938961505889893,0.7150489091873169,-0.7141717672348022,0.2755606472492218,0.6470452547073364,-0.3378504514694214,-0.532639741897583,-0.4283508360385895,9.545333862304688,0.066877968609333,-1.764996886253357,-0.0187997184693813,-1.128495454788208,0.2671340405941009,0.3446283936500549,-0.6467761397361755,-0.4146981239318847,-0.5393862724304199
235205,9.618152618408203,0.244300827383995,2.0850791931152344,0.8261951804161072,-0.9243878722190856,-0.0072996187955141,0.6469900608062744,-0.3378472030162811,-0.5327491164207458,-0.4283007085323334,9.549819946289062,0.0789581909775734,-1.7635350227355957,-0.0764026865363121,-1.2785604000091553,0.1799740642309188,0.3445652425289154,-0.6468716263771057,-0.4147619307041168,-0.5392630696296692
235371,9.60634422302246,0.2285286039113998,1.994253635406494,0.6089739203453064,-1.416715145111084,0.2677231431007385,0.6469320058822632,-0.3378801345825195,-0.5329002141952515,-0.4281744956970215,9.577506065368652,0.0961516425013542,-1.7833319902420044,-0.402913361787796,-1.2856680154800415,-0.1649970114231109,0.3443965315818786,-0.6469990611076355,-0.414777010679245,-0.5392061471939087
235538,9.597979545593262,0.2487296760082245,2.032490491867065,0.4846627116203308,-1.0116119384765625,0.5761640071868896,0.6468833088874817,-0.3379669785499573,-0.5329632759094238,-0.428101122379303,9.610154151916504,0.0856352895498275,-1.7671021223068235,-0.5409146547317505,-1.1278040409088137,-0.3692711293697357,0.3442384302616119,-0.6470850706100464,-0.4148304760456085,-0.5391629338264465
235705,9.609508514404297,0.268898606300354,2.032426595687866,0.1166978627443313,-0.3975987732410431,-0.0427860207855701,0.6468161940574646,-0.338013231754303,-0.532969057559967,-0.4281587600708008,9.632234573364258,0.0856655538082122,-1.7822303771972656,-0.6131808161735535,-0.8098351359367371,-0.191237211227417,0.3440956175327301,-0.6471683979034424,-0.4148330986499786,-0.5391520261764526
235871,9.599008560180664,0.2828064858913421,2.033560276031494,0.058211263269186,-0.5318476557731628,0.0463781915605068,0.6467185616493225,-0.3381076455116272,-0.5329620838165283,-0.4282402694225311,9.635497093200684,0.0779541656374931,-1.776309370994568,-0.6256029605865479,-0.5041090846061707,0.0442779511213302,0.3440180718898773,-0.6472192406654358,-0.4148339629173279,-0.5391398072242737
236038,9.620670318603516,0.248017132282257,2.022946119308472,0.0273479595780372,-0.5976082682609558,-0.0320927128195762,0.6465667486190796,-0.3382551670074463,-0.5329300165176392,-0.4283929169178009,9.619142532348633,0.0815303772687912,-1.79335355758667,-0.6579645872116089,-0.0275208447128534,0.2004641741514206,0.3439570665359497,-0.6472600102424622,-0.4147684276103973,-0.5391802191734314
236205,9.64549446105957,0.2397201210260391,2.087932586669922,0.1233187317848205,-0.4877682626247406,0.1591509133577346,0.6464645266532898,-0.3383706212043762,-0.5329040288925171,-0.4284883439540863,9.586041450500488,0.0544727891683578,-1.7649762630462646,-0.67356276512146,0.2521505951881408,0.1103202998638153,0.343918114900589,-0.6472631692886353,-0.4147137105464935,-0.5392432808876038
236371,9.616095542907717,0.2259090095758438,2.068174362182617,-0.3094910383224487,-0.2974658608436584,0.0745137482881546,0.6463391780853271,-0.3385224044322967,-0.532827615737915,-0.4286526143550873,9.552650451660156,0.0347857698798179,-1.750843167304993,-0.5278264880180359,0.3031326532363891,-0.0466151125729084,0.3438701927661896,-0.6472561955451965,-0.4146661162376404,-0.5393187999725342
236538,9.607609748840332,0.2279653400182724,2.0533223152160645,-0.0401222892105579,-0.4083304405212402,-0.060804545879364,0.6462827324867249,-0.338554710149765,-0.5328422784805298,-0.4286940395832062,9.524702072143556,0.0644754394888877,-1.7588073015213013,-0.3231682181358337,0.1071827262639999,-0.2449598610401153,0.3438064455986023,-0.6472485065460205,-0.4146533608436584,-0.5393785834312439
236705,9.605311393737791,0.2465243190526962,2.044994115829468,0.3172837197780609,-0.7898443937301636,-0.1550464630126953,0.6461935639381409,-0.3385883867740631,-0.5329076051712036,-0.4287206530570984,9.531779289245604,0.0801535323262214,-1.7607170343399048,-0.1309961527585983,-0.2883477509021759,-0.3300964534282684,0.3437758088111877,-0.6472216248512268,-0.4147389531135559,-0.5393645167350769
236871,9.602984428405762,0.2539919912815094,2.047648668289185,0.5535096526145935,-0.841863751411438,-0.2987593114376068,0.6460737586021423,-0.3386281132698059,-0.5329762697219849,-0.4287842810153961,9.57061767578125,0.0998618006706237,-1.7747753858566284,-0.1730778217315673,-0.5436039566993713,-0.1679296791553497,0.3436693251132965,-0.6472797393798828,-0.414735734462738,-0.5393649935722351
237038,9.592745780944824,0.2558647394180298,2.0129573345184326,0.6888982653617859,-0.6822710037231445,-0.1239526495337486,0.6459742784500122,-0.3386703431606293,-0.5330221652984619,-0.4288437962532043,9.593071937561035,0.1165772080421447,-1.7527670860290527,-0.2122396230697631,-0.73084557056427,-0.1587218940258026,0.3435543179512024,-0.6473502516746521,-0.4147458374500274,-0.5393460392951965
237205,9.601519584655762,0.2475164532661438,2.0207645893096924,0.5799676179885864,-0.4881652593612671,0.0896124392747879,0.6459214091300964,-0.3386974036693573,-0.5330515503883362,-0.4288655519485473,9.605262756347656,0.101371593773365,-1.7444844245910645,-0.2749523222446441,-0.5630951523780823,0.0397060886025428,0.3435016572475433,-0.6473889946937561,-0.4147763848304748,-0.5393096208572388
237371,9.60988426208496,0.2563854455947876,2.013014793395996,0.4872495830059051,-0.2025196254253387,-0.0667466968297958,0.6458949446678162,-0.3386796414852142,-0.5330711007118225,-0.4288951158523559,9.60261344909668,0.0870734974741935,-1.776620388031006,-0.1694023758172989,-0.5406456589698792,0.3904079496860504,0.343465656042099,-0.647458553314209,-0.4147544801235199,-0.5392659306526184
237538,9.616121292114258,0.265387088060379,2.017427921295166,0.2728584706783294,-0.193401500582695,0.1920632272958755,0.6458899974822998,-0.3386821746826172,-0.5330760478973389,-0.4288944005966186,9.57408618927002,0.0617897100746631,-1.7630702257156372,-0.0002561270084697,-0.4418702721595764,0.5479645133018494,0.3434493541717529,-0.647532045841217,-0.4147092401981354,-0.5392225384712219
237705,9.605363845825195,0.2496836334466934,2.053862333297729,0.178462877869606,-0.4639483988285064,0.3333300650119781,0.6458451151847839,-0.3387496173381805,-0.5330756306648254,-0.4289091229438782,9.56916332244873,0.0668116807937622,-1.7822345495224,0.2488594055175781,-0.5002416372299194,0.6377882361412048,0.3434815406799316,-0.6475865244865417,-0.4147040545940399,-0.5391407012939453
237871,9.628703117370604,0.2285556942224502,2.048140525817871,0.259629487991333,-0.650421679019928,0.3604539036750793,0.6457743048667908,-0.338844358921051,-0.5330826044082642,-0.4289323985576629,9.557228088378906,0.0744709372520446,-1.7899632453918457,0.3603770732879638,-0.6134241223335266,0.35643270611763,0.3434672057628631,-0.6476489901542664,-0.4147060513496399,-0.5390732884407043
238038,9.609474182128906,0.2276159822940826,2.03547739982605,0.4111030697822571,-0.6936303973197937,0.3875137865543365,0.6457387208938599,-0.3388929069042206,-0.5331247448921204,-0.4288951158523559,9.564208030700684,0.0934530273079872,-1.7718030214309692,0.3284507989883423,-0.4671627879142761,-0.0560918003320694,0.343427836894989,-0.6476753950119019,-0.4147394299507141,-0.5390409827232361
238205,9.62193202972412,0.2383148819208145,2.0242013931274414,0.592677891254425,-0.4581087827682495,0.2196289151906967,0.6456513404846191,-0.3389824628829956,-0.5331095457077026,-0.4289748668670654,9.584357261657717,0.1202714294195175,-1.7782082557678225,0.1379179805517196,-0.444572389125824,-0.0228977520018816,0.3433687090873718,-0.64771568775177,-0.4147472679615021,-0.5390243530273438
238371,9.61031723022461,0.2686482667922973,2.0336174964904785,0.6020969748497009,-0.3883653581142425,0.3321646749973297,0.6456499695777893,-0.3389839828014374,-0.5331411957740784,-0.4289364814758301,9.597806930541992,0.1293049305677414,-1.784058928489685,-0.1598104387521743,-0.2776800692081451,0.0440346300601959,0.3433199226856231,-0.6477431058883667,-0.4147461950778961,-0.5390232801437378
238538,9.601734161376951,0.2723925709724426,2.031657695770264,0.6878867149353027,-0.2353550940752029,0.2703612744808197,0.6456570029258728,-0.3389672935009002,-0.533163845539093,-0.4289108514785766,9.594027519226074,0.1320693343877792,-1.7766239643096924,-0.3734075725078583,-0.1431493759155273,0.439264178276062,0.3433206081390381,-0.6477699279785156,-0.4147228598594665,-0.5390084981918335
238705,9.61689281463623,0.2930471003055572,2.034574508666992,0.7809503674507141,-0.2939313352108001,0.3682145476341247,0.6456669569015503,-0.3389565050601959,-0.5331907868385315,-0.4288710355758667,9.572549819946287,0.1150149181485176,-1.7765586376190186,-0.4962844848632812,-0.2256606966257095,0.7481662034988403,0.3433145582675934,-0.6478383541107178,-0.4146486520767212,-0.5389871597290039
238871,9.61420726776123,0.2893151640892029,2.053633451461792,0.4719332158565521,-0.36443030834198,0.3854391276836395,0.6456260085105896,-0.3390187919139862,-0.5331793427467346,-0.4288976788520813,9.59568977355957,0.0835473537445068,-1.7695753574371338,-0.5387246608734131,-0.0994412899017334,0.5994331240653992,0.3432725369930267,-0.6479112505912781,-0.4145455360412597,-0.5390055775642395
239038,9.606962203979492,0.2504096031188965,2.052839517593384,0.1782579571008682,-0.4029005765914917,0.4010500311851501,0.6456049680709839,-0.3390659391880035,-0.5331814289093018,-0.4288891553878784,9.550251007080078,0.0199480839073658,-1.78318989276886,-0.1156797558069229,-0.2141605913639068,0.7099391222000122,0.3432661592960357,-0.6479831337928772,-0.4144638478755951,-0.5389862060546875
239205,9.591498374938965,0.2604373097419739,2.041574478149414,0.325210839509964,-0.5247145891189575,0.5116201043128967,0.6455703377723694,-0.339138388633728,-0.533183753490448,-0.4288813769817352,9.492999076843262,-0.0010695639066398,-1.8007031679153442,0.3818149268627167,-0.6868173480033875,0.9958025217056274,0.3432991206645965,-0.6480857133865356,-0.4144157767295837,-0.5388787984848022
239371,9.62374210357666,0.2577801644802093,2.0516951084136963,0.2572859823703766,-0.4421776831150055,0.648186981678009,0.6455353498458862,-0.3392371237277984,-0.5331576466560364,-0.4288885593414306,9.571172714233398,0.0776536539196968,-1.815207600593567,0.8281033635139465,-1.0153515338897705,0.457743763923645,0.3433355987071991,-0.6481419205665588,-0.4144975841045379,-0.5387250185012817
239538,9.587787628173828,0.1981553584337234,1.9831472635269165,0.2457730770111084,-0.8566551804542542,0.8116856813430786,0.645473837852478,-0.3393800556659698,-0.5331582427024841,-0.4288671612739563,9.663485527038574,0.1630451381206512,-1.811991810798645,0.2605387568473816,-0.6616528034210205,-0.5301572680473328,0.3432366847991943,-0.6481590270996094,-0.4145797789096832,-0.5387042164802551
239705,9.624052047729492,0.2028905004262924,1.956865906715393,0.8230577707290649,-0.3273046910762787,0.903635323047638,0.6454942226409912,-0.3394348621368408,-0.5331460237503052,-0.428808331489563,9.63917064666748,0.1230215579271316,-1.8144172430038448,-0.3064431548118591,-0.1240679174661636,-0.5647345185279846,0.3431410193443298,-0.6481380462646484,-0.4146286845207214,-0.538752555847168
239872,9.617547988891602,0.3277459740638733,2.029942274093628,0.7367939949035645,0.7188395261764526,-0.233344480395317,0.6455320119857788,-0.3393301665782928,-0.5330958962440491,-0.4288966357707977,9.620338439941406,0.1200457736849784,-1.8105443716049197,-0.3350525200366974,0.3663576245307922,0.1417855024337768,0.3431289792060852,-0.6481208801269531,-0.4145874977111816,-0.5388126373291016
240038,9.63608741760254,0.3246138393878937,2.081270694732666,0.317975252866745,0.7967150211334229,0.0294225867837667,0.6455713510513306,-0.3392791450023651,-0.5329999327659607,-0.428997129201889,9.5954008102417,0.1458861380815506,-1.789313554763794,-0.7334965467453003,0.9362658858299256,0.5636138916015625,0.3431088626384735,-0.6481334567070007,-0.4144014120101928,-0.5389534831047058
240205,9.640555381774902,0.2900181114673614,2.103343725204468,-0.1514350622892379,-0.1206101924180984,0.9251371026039124,0.6455718278884888,-0.3393982052803039,-0.5329161882400513,-0.4290060400962829,9.562243461608888,0.1037872359156608,-1.78131103515625,-0.9628326892852784,1.086318016052246,0.7333876490592957,0.3430797457695007,-0.6481623649597168,-0.4141635298728943,-0.539120078086853
240372,9.58069133758545,0.2007324993610382,2.0684032440185547,0.2567992806434631,0.0065120281651616,0.0635130926966667,0.6455289125442505,-0.3394283354282379,-0.532872200012207,-0.4291015267372131,9.562933921813965,0.0560770593583583,-1.7677991390228271,-0.8114743232727051,1.1416668891906738,0.8105971217155457,0.3431247770786285,-0.6481442451477051,-0.4139898419380188,-0.539246678352356
240538,9.613131523132324,0.2480958104133606,2.0888447761535645,0.3763978481292724,-0.0773375555872917,-0.2333060801029205,0.6454976797103882,-0.3393912315368652,-0.532882034778595,-0.4291656017303467,9.535470962524414,0.0557503253221511,-1.7704802751541138,-0.2567160725593567,0.9983381628990172,0.7831658720970154,0.3432069420814514,-0.6481111645698547,-0.4138641655445099,-0.5393304824829102
240705,9.604708671569824,0.2741551399230957,2.0474038124084477,0.3563814461231231,-0.4086377620697021,0.3776656091213226,0.6454780697822571,-0.3394237458705902,-0.5328909158706665,-0.4291583895683288,9.534502029418944,0.0443122945725917,-1.7794808149337769,0.2213769555091858,0.6509146690368652,0.8520768284797668,0.3432626724243164,-0.6481290459632874,-0.4137187600135803,-0.5393851399421692
240872,9.582937240600586,0.2288019806146621,2.038172483444214,0.4837406277656555,-0.4127742350101471,0.6376473307609558,0.6454201340675354,-0.339540034532547,-0.5328467488288879,-0.4292083978652954,9.557657241821287,0.0616194196045398,-1.7658859491348269,0.5918646454811096,0.3941858112812042,0.8643709421157837,0.3434254229068756,-0.6480821967124939,-0.4137195348739624,-0.5393372178077698
241038,9.585301399230955,0.2273406833410263,2.009345531463623,0.7302629351615906,-0.134146511554718,0.6182841658592224,0.6454229354858398,-0.3395790457725525,-0.5328150391578674,-0.4292128384113312,9.582037925720217,0.0825029164552688,-1.7701762914657593,0.7435944080352783,0.3335222005844116,0.7525972127914429,0.3435622751712799,-0.648047149181366,-0.4137123525142669,-0.5392977595329285
241205,9.58084201812744,0.2266421318054199,1.995870590209961,0.6651042103767395,0.1874017119407653,0.4162383675575256,0.6454344391822815,-0.3395884931087494,-0.5327587723731995,-0.4292576014995575,9.603734016418455,0.0934923291206359,-1.7686457633972168,0.6926249861717224,0.277315080165863,0.6263009905815125,0.3436561524868011,-0.6480304598808289,-0.4136857986450195,-0.5392782688140869
241372,9.597267150878906,0.2353573590517044,2.003838300704956,0.6639003753662109,0.1595863252878189,0.4307479560375213,0.6454513072967529,-0.3395927250385284,-0.5327097773551941,-0.4292898774147033,9.614380836486816,0.1032356172800064,-1.7808756828308103,0.5886118412017822,0.4561557471752167,0.5744608044624329,0.3437350690364837,-0.6480106711387634,-0.4136330485343933,-0.5392922163009644
241538,9.616308212280272,0.2517394721508026,2.0266945362091064,0.8238004446029663,0.2567353248596191,0.3689829707145691,0.6454904079437256,-0.3395574688911438,-0.5326733589172363,-0.4293040633201599,9.606894493103027,0.0997869148850441,-1.783197045326233,0.4823190867900848,0.4331683218479156,0.4590755999088287,0.3437823057174682,-0.6479990482330322,-0.4135714471340179,-0.5393233299255371
241705,9.638554573059082,0.2762289345264435,2.041663885116577,0.9063116908073424,0.1725463420152664,0.5527796745300293,0.6455633640289307,-0.3395024240016937,-0.5326610803604126,-0.4292531013488769,9.53136157989502,0.109170876443386,-1.7428395748138428,0.1780274510383606,0.6797930598258972,0.4202211499214172,0.3438862264156341,-0.6479232907295227,-0.4135680198669433,-0.5393507480621338
241872,9.631750106811523,0.2651019096374511,2.051445722579956,0.8398597240447998,0.038233358412981,0.4391617774963379,0.6455651521682739,-0.3395155668258667,-0.5326226949691772,-0.4292876720428467,9.52186393737793,0.0964861065149307,-1.7569013833999634,0.0596199631690979,0.2335685938596725,0.7498693466186523,0.3439598083496094,-0.6479215025901794,-0.4135254621505737,-0.5393385887145996
242038,9.627676010131836,0.2784065902233124,2.071199417114258,0.8593125343322754,-0.0397381037473678,0.3567913174629211,0.6455669403076172,-0.3395122289657593,-0.532604992389679,-0.429309606552124,9.545207977294922,0.0984744429588317,-1.774349570274353,-0.0089516388252377,-0.0963037461042404,0.747052013874054,0.3439887464046478,-0.6479626297950745,-0.4134727120399475,-0.5393111109733582
242205,9.598146438598633,0.2667272984981537,2.0284359455108643,0.9593812823295592,-0.3894026577472687,0.3900877833366394,0.6455596089363098,-0.3395096957683563,-0.532633364200592,-0.4292875528335571,9.566597938537598,0.0946907624602317,-1.7623618841171265,-0.2830715477466583,-0.1616033166646957,0.5798779129981995,0.3439850211143493,-0.6480041146278381,-0.4134310483932495,-0.5392956137657166
242372,9.603925704956056,0.2610283493995666,2.019261598587036,0.5934910178184509,-0.632441520690918,0.675848662853241,0.6455053091049194,-0.339613139629364,-0.5326254367828369,-0.4292972385883331,9.574110984802246,0.0896376371383667,-1.7798748016357422,-0.3678112030029297,0.0138244554400444,0.2719492316246032,0.3439365923404693,-0.648034930229187,-0.4133756160736084,-0.5393320322036743
242538,9.601791381835938,0.2895118594169616,2.015507459640503,0.4890168309211731,-0.0802830085158348,0.3323055505752563,0.645420491695404,-0.3397230803966522,-0.5325390696525574,-0.4294450879096985,9.611175537109377,0.0788660496473312,-1.791126012802124,-0.4439833164215088,0.0321887582540512,0.342896431684494,0.343930184841156,-0.6480391025543213,-0.4133589267730713,-0.5393437147140503
242705,9.596927642822266,0.2941323220729828,2.0242228507995605,0.1814339458942413,-0.0076069715432822,0.2485136091709137,0.6454064249992371,-0.3397429883480072,-0.5324996709823608,-0.429498940706253,9.64309310913086,0.0785624161362648,-1.774084448814392,-0.35417240858078,0.5028092861175537,0.518253743648529,0.3439332842826843,-0.6480438113212585,-0.413260281085968,-0.5394118428230286
242872,9.60890293121338,0.2700212597846985,2.0350661277771,0.1411964297294616,-0.1999199390411377,0.37213334441185,0.6453734040260315,-0.3397998213768005,-0.5324621796607971,-0.4295500218868255,9.615575790405272,0.0849118754267692,-1.753818154335022,-0.0831004008650779,0.9116391539573668,0.6637594699859619,0.3440213799476623,-0.6479929089546204,-0.413177877664566,-0.5394798517227173
243038,9.613313674926758,0.2438794523477554,2.072197437286377,0.0876402556896209,-0.0439257808029651,0.5774703621864319,0.6453843116760254,-0.3398401439189911,-0.5324143171310425,-0.4295613169670105,9.602446556091309,0.0811014920473098,-1.7566899061203003,-0.0143303042277693,1.092170238494873,0.7956136465072632,0.3441047072410583,-0.6479570865631104,-0.4130403697490692,-0.5395750999450684
243205,9.619915008544922,0.2367485016584396,2.093801498413086,0.1203988939523696,0.0922249257564544,0.4138819873332977,0.6453784704208374,-0.3398794531822204,-0.532348096370697,-0.4296209514141083,9.55451488494873,0.0714651122689247,-1.7282428741455078,0.0688917636871337,1.0583616495132446,0.5630888342857361,0.344158798456192,-0.6479183435440063,-0.4129127860069275,-0.5396846532821655
243372,9.605402946472168,0.2319313436746597,2.112454891204834,0.2350285202264785,0.2401382774114608,0.288712739944458,0.6453944444656372,-0.3398735225200653,-0.5322906374931335,-0.42967289686203,9.550174713134766,0.0686322227120399,-1.7370697259902954,0.1772078573703766,0.8695191144943237,0.4140740931034088,0.3442190587520599,-0.6478649377822876,-0.4128410220146179,-0.539765477180481
243538,9.590229034423828,0.2553698122501373,2.062860012054444,0.6701242327690125,-0.0269829779863357,0.2193151414394378,0.6453948020935059,-0.3398530185222626,-0.532278299331665,-0.4297037422657013,9.557231903076172,0.0938361063599586,-1.738662600517273,0.2347979992628097,0.5869725942611694,0.2783011794090271,0.3442510068416595,-0.6478269696235657,-0.41279336810112,-0.5398269295692444
243705,9.583186149597168,0.2838557660579681,2.051582336425781,0.8368117809295654,-0.1248363032937049,0.184059277176857,0.6454117894172668,-0.3397973179817199,-0.5323016047477722,-0.4296934306621551,9.564970970153809,0.127230629324913,-1.7386267185211182,0.1359714120626449,0.4130752086639404,0.3459059000015259,0.3443023264408111,-0.6477850079536438,-0.4127824008464813,-0.5398529171943665
243872,9.59490966796875,0.2811032831668854,2.044426441192627,0.727573573589325,-0.170875146985054,0.4088235795497894,0.6454277038574219,-0.3397791683673858,-0.5323063731193542,-0.4296779334545135,9.57211971282959,0.1289544552564621,-1.7508538961410522,-0.0304022766649723,0.2129119485616684,0.5752676725387573,0.3443433344364166,-0.6477805972099304,-0.4127472639083862,-0.5398590564727783
244038,9.594430923461914,0.2727036774158478,2.0378336906433105,0.6923304796218872,-0.1181898117065429,0.367971271276474,0.6454377174377441,-0.3397644162178039,-0.5323015451431274,-0.4296804368495941,9.593608856201172,0.1221990063786506,-1.7372785806655884,-0.2199618518352508,-0.1073812395334243,0.782935380935669,0.3443551361560821,-0.6478288769721985,-0.4126847982406616,-0.53984135389328
244205,9.589170455932615,0.2848983407020569,2.0347299575805664,0.4603947103023529,-0.2865164875984192,0.3776784837245941,0.6454203128814697,-0.3397867083549499,-0.5322948694229126,-0.429697573184967,9.601213455200195,0.0879655629396438,-1.7490298748016355,-0.2052473574876785,-0.0263938847929239,0.9268147349357604,0.344393789768219,-0.6478707194328308,-0.4126182794570923,-0.5398173928260803
244372,9.614706993103027,0.2721097767353058,2.0305886268615723,0.1561414152383804,-0.3476155698299408,0.4277512729167938,0.6453655362129211,-0.3398701548576355,-0.5322561860084534,-0.4297616183757782,9.593954086303713,0.0493635646998882,-1.7437944412231443,-0.1445964872837066,-0.0971617624163627,1.025423526763916,0.3444172739982605,-0.647939145565033,-0.4125219881534576,-0.5397937893867493
244538,9.607531547546388,0.2705873548984527,2.025202751159668,0.1942275017499923,-0.4652163088321686,0.6928043365478516,0.645357072353363,-0.3399311900138855,-0.5322476625442505,-0.4297366142272949,9.592116355895996,0.045788075774908,-1.7610124349594116,0.1630440354347229,-0.0169043838977813,0.9003568291664124,0.3444706201553345,-0.6479735970497131,-0.4124650359153747,-0.5397619009017944
244705,9.604723930358888,0.2648110091686249,2.0462486743927,0.0175895206630229,-0.4743343889713287,0.6605451107025146,0.6453085541725159,-0.3400422036647796,-0.532207727432251,-0.4297711849212646,9.574766159057615,0.0467124208807945,-1.744713544845581,0.3232002258300781,-0.1284989118576049,0.7277784943580627,0.3445349037647247,-0.6479858756065369,-0.4124624133110046,-0.5397080183029175
244872,9.61361598968506,0.2628323137760162,2.063216209411621,0.1659126579761505,-0.513841986656189,0.7705773115158081,0.6453254222869873,-0.3400818705558777,-0.5322190523147583,-0.4297004342079162,9.585015296936035,0.0695536583662033,-1.7502530813217163,0.5145143270492554,-0.0281355530023574,0.6366484761238098,0.3446229994297027,-0.6479693651199341,-0.4124875664710998,-0.5396523475646973
245038,9.603153228759766,0.2451311349868774,2.050450563430786,0.0938001051545143,-0.4704668521881103,0.6663848161697388,0.6453030109405518,-0.3401578664779663,-0.5322004556655884,-0.4296967387199402,9.594038009643556,0.0863689854741096,-1.7504247426986694,0.4544781148433685,0.1140341311693191,0.5123372673988342,0.3446760177612304,-0.6479588747024536,-0.4124784171581268,-0.539638102054596
245205,9.593053817749023,0.2649251818656921,2.056644916534424,0.3387471437454223,-0.4516158998012543,0.4832284152507782,0.6452789306640625,-0.340200126171112,-0.5322012901306152,-0.4296985864639282,9.594080924987791,0.1015177965164184,-1.76333487033844,0.1996317654848098,0.2843201458454132,0.470806211233139,0.3447116017341614,-0.6479452848434448,-0.4124448001384735,-0.539657473564148
245372,9.598419189453123,0.2682012319564819,2.038634777069092,0.1899886280298233,-0.4776512384414673,0.459792822599411,0.6452358365058899,-0.3402658998966217,-0.532189667224884,-0.4297255277633667,9.605668067932127,0.1105620265007019,-1.7304015159606934,-0.0153676187619566,0.4586785733699798,0.4642749726772308,0.3447300791740417,-0.647932767868042,-0.4123792350292206,-0.5397108197212219
245538,9.582919120788574,0.2853098213672638,2.0738353729248047,0.1886951774358749,-0.4510396122932434,0.4472168982028961,0.6452005505561829,-0.3403204083442688,-0.5321815013885498,-0.4297454059123993,9.59926986694336,0.0980622097849845,-1.7447826862335205,-0.3701034486293793,0.5291391611099243,0.541548490524292,0.3447329998016357,-0.6479308605194092,-0.412284642457962,-0.5397835969924927
245705,9.572792053222656,0.273608922958374,2.07586669921875,0.307986319065094,-0.4779329299926758,0.252534806728363,0.6451438069343567,-0.3403662145137787,-0.5321822166442871,-0.4297936558723449,9.579798698425291,0.0884497612714767,-1.730372190475464,-0.6583616137504578,0.6167857646942139,0.7034719586372375,0.3447178900241852,-0.6479520201683044,-0.4121384024620056,-0.5398794412612915
245872,9.596199989318848,0.2906058728694916,2.03291654586792,0.2685811519622803,-0.6375384330749512,0.376205712556839,0.6451053023338318,-0.3404034972190857,-0.532209038734436,-0.4297885298728943,9.543745040893556,0.0638524517416954,-1.7308789491653442,-0.6093902587890625,0.3972978293895721,0.7483454942703247,0.3447034657001495,-0.6479858160018921,-0.4120103716850281,-0.5399458408355713
246038,9.629703521728516,0.2781702876091003,2.054885149002075,0.0964638367295265,-0.7931613326072693,0.4198498129844665,0.6450534462928772,-0.3404637575149536,-0.5322414040565491,-0.429778516292572,9.585442543029783,0.0556720085442066,-1.7272107601165771,-0.4752308130264282,0.2580030858516693,0.6471624374389648,0.344689667224884,-0.6480139493942261,-0.4119153618812561,-0.5399934649467468
246205,9.59774112701416,0.2581348121166229,2.044778823852539,-0.1491939723491668,-0.9064205288887024,0.4455392956733703,0.6449597477912903,-0.3405838012695312,-0.5322496294975281,-0.4298140406608581,9.565435409545898,0.032225202769041,-1.7346893548965454,-0.2809329032897949,0.061336014419794,0.5503721237182617,0.3446912467479706,-0.648029088973999,-0.4118747413158417,-0.5400051474571228
246372,9.580071449279783,0.2433606833219528,2.018205404281616,-0.1528950184583664,-0.9014902114868164,0.2897244691848755,0.6448361277580261,-0.3407168686389923,-0.5322481989860535,-0.4298955798149109,9.499329566955566,0.0129315657541155,-1.732865571975708,0.0834269598126411,-0.2624277174472809,0.6253148317337036,0.3446659445762634,-0.6480924487113953,-0.4118137955665588,-0.5399917364120483
246538,9.605947494506836,0.2723925411701202,2.0417356491088867,-0.0735724791884422,-0.6628438830375671,0.2253084927797317,0.6447492241859436,-0.340799331665039,-0.5322475433349609,-0.4299614727497101,9.5718994140625,0.069540299475193,-1.766732931137085,0.3834541440010071,-0.8344618082046509,0.5695943832397461,0.3446534276008606,-0.6481645703315735,-0.4118385314941406,-0.5398941040039062
246705,9.606842041015623,0.2208398878574371,1.994826316833496,-0.1681729555130005,-0.9528820514678956,0.4435799121856689,0.644649088382721,-0.3409247994422912,-0.532257616519928,-0.4299997985363006,9.677419662475586,0.1491743475198745,-1.768627405166626,-0.0387776270508766,-0.6662375926971436,-0.1256303042173385,0.3445773124694824,-0.6481866836547852,-0.4119136929512024,-0.539858877658844
246872,9.605043411254885,0.1990764439105987,1.969740390777588,0.4910658895969391,-1.037980318069458,0.7580142021179199,0.6446073055267334,-0.3410022258758545,-0.5323114991188049,-0.4299342036247253,9.68066120147705,0.1073435917496681,-1.7452112436294556,-0.5540539622306824,0.1118186339735984,-0.3216698765754699,0.3444686830043793,-0.6481723785400391,-0.4119110703468323,-0.5399474501609802
247038,9.620004653930664,0.3015779852867126,2.0058696269989014,0.5020792484283447,-0.1860634386539459,0.2150121629238128,0.6445907950401306,-0.3409924209117889,-0.532307505607605,-0.4299715161323547,9.648143768310549,0.0791075900197029,-1.755412220954895,-0.531156063079834,0.6421423554420471,0.2648545205593109,0.3444989621639251,-0.6481046676635742,-0.4119007885456085,-0.5400172472000122
247205,9.654511451721191,0.3151032030582428,2.07546615600586,0.0303958728909492,0.4211304485797882,-0.1830667704343795,0.6445677876472473,-0.3409639298915863,-0.5322329998016357,-0.4301207661628723,9.611652374267578,0.117705650627613,-1.719710350036621,-0.721970796585083,1.0931435823440552,0.7274198532104492,0.3445106446743011,-0.6480875015258789,-0.4117317795753479,-0.5401593446731567
247372,9.64475154876709,0.2994033694267273,2.1238481998443604,-0.3126670122146606,-0.3807711899280548,0.8898299336433411,0.6445509195327759,-0.3410774171352386,-0.5321736335754395,-0.4301299154758453,9.58926773071289,0.105823129415512,-1.7106887102127075,-1.0486478805541992,1.281025528907776,0.7178150415420532,0.3445301651954651,-0.6480488181114197,-0.4115642607212066,-0.5403210520744324
247538,9.56355094909668,0.2010865360498428,2.0883514881134038,-0.0536201894283294,-0.5227936506271362,0.1571659296751022,0.6444892883300781,-0.3411190807819366,-0.5321788787841797,-0.4301828145980835,9.566692352294922,0.0640342831611633,-1.7160720825195312,-0.9297793507575988,1.251327633857727,0.4918598532676697,0.3445106446743011,-0.6480156779289246,-0.4113919734954834,-0.5405042767524719
247705,9.585379600524902,0.2434503138065338,2.072047233581543,0.139710858464241,-0.5920631289482117,-0.4318685233592987,0.644379198551178,-0.3411211669445038,-0.5322182774543762,-0.4302971065044403,9.529419898986816,0.0466285161674022,-1.7280362844467163,-0.7720820903778076,1.0298802852630615,0.5417022109031677,0.3445076942443847,-0.6479863524436951,-0.4112522602081299,-0.5406476855278015
247872,9.604117393493652,0.2692204117774963,2.0641448497772217,0.2429940700531005,-0.8011524081230164,0.1372520476579666,0.6443122029304504,-0.341147631406784,-0.5322698354721069,-0.4303126633167267,9.533839225769045,0.0405694805085659,-1.6984020471572876,-0.4053593873977661,0.6492499113082886,0.4912451505661011,0.34448903799057,-0.647983193397522,-0.4111369252204895,-0.5407510995864868
248038,9.597295761108398,0.2642352283000946,2.0364997386932373,0.0743472650647163,-0.7235587239265442,0.2754325866699219,0.6442715525627136,-0.3411701619625091,-0.5323126912117004,-0.4303026497364044,9.57386302947998,0.0501991584897041,-1.7212607860565186,-0.0206694491207599,0.3246473670005798,0.6444731950759888,0.3445309996604919,-0.6479710936546326,-0.4110924303531647,-0.5407726168632507
248205,9.59687042236328,0.2354896813631057,2.022134304046631,0.2201475501060485,-0.6478219628334045,0.4675149917602539,0.644252359867096,-0.3411933481693268,-0.5323449969291687,-0.4302731156349182,9.55872631072998,0.0772711113095283,-1.7040449380874634,0.1171588897705078,0.1798459589481353,0.5586833953857422,0.34454345703125,-0.647978663444519,-0.4110415577888489,-0.5407942533493042
248372,9.580376625061035,0.2331220060586929,2.001152992248535,0.2432502061128616,-0.5236132144927979,0.4844706058502197,0.6442168354988098,-0.3412431180477142,-0.532343327999115,-0.4302889406681061,9.601975440979004,0.0861400887370109,-1.7206380367279053,0.216856300830841,-0.0085674477741122,0.3939808905124664,0.3445561826229095,-0.6479743719100952,-0.4110423624515533,-0.5407906770706177
248538,9.589592933654783,0.2253511250019073,1.9950337409973145,0.2317116856575012,-0.393590360879898,0.3071410953998565,0.6442304849624634,-0.3412082493305206,-0.5323787927627563,-0.4302522540092468,9.622830390930176,0.0888437181711196,-1.738437294960022,0.117504671216011,-0.0737901851534843,0.2812466621398926,0.3445896506309509,-0.647940456867218,-0.411101758480072,-0.5407648086547852
248705,9.599169731140137,0.2602620720863342,2.011359214782715,0.2499991506338119,-0.4894458651542663,0.1778865754604339,0.644171416759491,-0.3412404954433441,-0.5323837399482727,-0.430308997631073,9.61472988128662,0.1130546405911445,-1.7239571809768677,0.0009924919577315,-0.0308504942804574,0.2433142364025116,0.3445900380611419,-0.6479226350784302,-0.4111281633377075,-0.5407658219337463
248872,9.610068321228027,0.2898817062377929,2.01504135131836,0.0793417319655418,-0.8230128288269043,0.1842129230499267,0.6440557837486267,-0.3413380980491638,-0.5323907136917114,-0.4303960502147674,9.586424827575684,0.1220522373914718,-1.7305628061294556,-0.2849028408527374,0.1485600769519806,0.3479165136814117,0.3445520997047424,-0.6479336619377136,-0.4110773503780365,-0.5408154129981995
249038,9.634312629699709,0.2911716401576996,2.0393226146698,0.2096463292837143,-0.9087385535240172,0.0871664211153984,0.6439765095710754,-0.3413673341274261,-0.5324532985687256,-0.4304139018058777,9.540431022644045,0.0943367704749107,-1.7176272869110107,-0.3385871052742004,-0.0439257845282554,0.5223134160041809,0.3445019721984863,-0.6479792594909668,-0.411005288362503,-0.5408474206924438
249205,9.619514465332031,0.2723888158798218,2.045433759689331,-0.0007427682285197,-1.006335735321045,0.0944660305976867,0.6438798904418945,-0.3414221107959747,-0.5325117111206055,-0.4304426610469818,9.53575611114502,0.093918353319168,-1.728606343269348,-0.3540315330028534,-0.3994427919387817,0.5039490461349487,0.344449907541275,-0.6480352282524109,-0.4109793603420257,-0.5408332347869873
249372,9.612696647644045,0.27629154920578,2.032914876937866,-0.1643054783344268,-1.3125611543655396,0.0728361159563064,0.6437447667121887,-0.3415159881114959,-0.5325852632522583,-0.4304792582988739,9.55473804473877,0.0984295532107353,-1.7419180870056152,-0.5751203894615173,-0.77390056848526,0.2070978879928589,0.3443303406238556,-0.6481142640113831,-0.4109824001789093,-0.5408124327659607
249538,9.595526695251465,0.245550125837326,1.97400176525116,0.2394851446151733,-1.515311360359192,0.3581231534481048,0.6436249613761902,-0.3416149616241455,-0.5326833724975586,-0.4304586052894592,9.577886581420898,0.0690636932849884,-1.7360559701919556,-0.6605258584022522,-0.7894730567932129,0.1295426338911056,0.3441673219203949,-0.6482150554656982,-0.4109534621238708,-0.5408173203468323
249705,9.600737571716309,0.2989248633384704,1.983282446861267,0.184148907661438,-1.1508042812347412,-0.1662520319223404,0.6435138583183289,-0.3416352868080139,-0.5327830910682678,-0.4304851293563843,9.650798797607422,0.1123046800494194,-1.7414048910140991,-0.6237717270851135,-0.65451979637146,0.2134242355823516,0.3440664708614349,-0.6482753753662109,-0.4109659790992737,-0.5407999157905579
249872,9.601045608520508,0.3174701035022735,2.0066325664520264,-0.3343097865581512,-0.8431316614151001,0.1141750141978263,0.643406093120575,-0.3417214453220367,-0.5327980518341064,-0.4305593371391296,9.662822723388672,0.0921660140156745,-1.7391525506973269,-0.6470407247543335,-0.2610445916652679,0.3240070343017578,0.3439681828022003,-0.6483321785926819,-0.4109144806861877,-0.5408332347869873
250038,9.594715118408203,0.284526914358139,2.0065817832946777,-0.7982070446014404,-0.8886966705322266,0.1213209554553031,0.6432549357414246,-0.3418752551078796,-0.5327740907669067,-0.4306927621364593,9.64328384399414,0.0820276588201522,-1.7330652475357056,-0.6960507035255432,0.3569193482398987,0.4205028712749481,0.3439297080039978,-0.6483334302902222,-0.4108437895774841,-0.540910005569458
250205,9.631802558898926,0.282709926366806,2.049018621444702,-0.7256205081939697,-0.7799322605133057,0.2516383528709411,0.6431496143341064,-0.3419925570487976,-0.5327591896057129,-0.4307753443717956,9.591636657714844,0.0782507956027984,-1.7303489446640017,-0.6334021091461182,0.4770430028438568,0.4993260502815246,0.3439262211322784,-0.6483139395713806,-0.4107846915721893,-0.540980339050293
250372,9.618596076965332,0.2675812244415283,2.04524302482605,-0.8882740139961243,-0.7008658647537231,0.2711360156536102,0.6430633068084717,-0.3420965373516083,-0.5327414274215698,-0.4308436512947082,9.578503608703612,0.0862248465418815,-1.7040244340896606,-0.5514542460441589,0.5721300840377808,0.3222525715827942,0.343905508518219,-0.6482850909233093,-0.4107235372066498,-0.5410745143890381
250538,9.616464614868164,0.2508420646190643,2.036271095275879,-0.2842497229576111,-0.7255821824073792,0.0629368051886558,0.6429553627967834,-0.3421753048896789,-0.5327439904212952,-0.4309391379356384,9.55674171447754,0.0944190248847007,-1.7047566175460815,-0.5538489818572998,0.3819429874420166,0.1259056329727172,0.3438672423362732,-0.6482513546943665,-0.4107031524181366,-0.5411547422409058
250705,9.585931777954102,0.2837323844432831,2.0217294692993164,0.0069858632050454,-0.8394945859909058,-0.0486129000782966,0.6428450345993042,-0.3422264456748962,-0.5327796936035156,-0.4310186207294464,9.56839656829834,0.1192450523376464,-1.703072190284729,-0.5885413885116577,0.2609613835811615,0.046544674783945,0.3437764942646026,-0.6482504606246948,-0.4106510281562805,-0.5412529706954956
250872,9.589151382446287,0.2960489690303802,1.995294213294983,0.1991067081689834,-0.8655939102172852,-0.1025404408574104,0.6427587866783142,-0.3422317802906036,-0.5328487157821655,-0.431057870388031,9.574705123901367,0.1209687888622284,-1.7199554443359375,-0.7521169781684875,0.040730595588684,0.081339530646801,0.3436856865882873,-0.6482574939727783,-0.4106252193450928,-0.5413218140602112
251038,9.615878105163574,0.3066121339797973,2.005417823791504,0.2114648520946502,-0.9766889810562134,0.1239078342914581,0.6426758766174316,-0.3422634303569793,-0.5329155325889587,-0.4310738444328308,9.593877792358398,0.1295778751373291,-1.6957895755767822,-0.840916097164154,-0.1564679741859436,0.3075508773326874,0.3435852825641632,-0.6483029723167419,-0.4105728566646576,-0.5413708686828613
251205,9.60210418701172,0.3025792837142944,1.9944469928741453,0.001094942796044,-0.7801627516746521,0.1902062892913818,0.6425790190696716,-0.3423356115818023,-0.5329290628433228,-0.4311442077159881,9.570011138916016,0.115515649318695,-1.705604910850525,-0.8728679418563843,-0.2746833562850952,0.467117965221405,0.3434717357158661,-0.6483794450759888,-0.4104912281036377,-0.5414131879806519
251372,9.620396614074709,0.2938714027404785,1.999528646469116,-0.2276456952095031,-0.5941122174263,0.2597320079803467,0.6425121426582336,-0.3423940241336822,-0.5329259037971497,-0.4312013983726501,9.5828218460083,0.1067825779318809,-1.7201626300811768,-0.8043156862258911,-0.4322143197059631,0.5530614256858826,0.3433476090431213,-0.6484807729721069,-0.4103975892066955,-0.5414415597915649
251538,9.6184663772583,0.2739380896091461,1.9949710369110107,-0.3911315202713012,-0.8422607779502869,0.395530492067337,0.6424323916435242,-0.3424856960773468,-0.5329338908195496,-0.4312373995780945,9.591005325317385,0.0796685665845871,-1.7382581233978271,-0.7240710258483887,-0.4587875008583069,0.6845698952674866,0.3432661890983581,-0.6485674977302551,-0.410332053899765,-0.5414389967918396
251705,9.609333992004396,0.2785784304141998,1.9826793670654297,-0.4957209825515747,-0.9943618178367616,0.5277816653251648,0.6423415541648865,-0.342609703540802,-0.5329411029815674,-0.4312653839588165,9.582558631896973,0.0819304659962654,-1.727906346321106,-0.4653443098068237,-0.3548639416694641,0.7491137981414795,0.3432113826274872,-0.6486440300941467,-0.4102641642093658,-0.5414334535598755
251872,9.621833801269531,0.2681115865707397,2.014358758926392,-0.3999167084693908,-1.0812017917633057,0.5057803988456726,0.6422221660614014,-0.3427598178386688,-0.5329431295394897,-0.4313212633132934,9.59261417388916,0.0908857285976409,-1.7188003063201904,-0.1173957958817482,-0.3424161672592163,0.5961931943893433,0.3431921005249023,-0.6486822962760925,-0.4102551341056824,-0.5414068102836609
252038,9.61993408203125,0.2732828557491302,2.0041704177856445,-0.3711792528629303,-1.0400805473327637,0.7623428702354431,0.642135739326477,-0.3429087400436401,-0.5329402685165405,-0.4313352108001709,9.602899551391602,0.1052298992872238,-1.7317426204681396,-0.1424834579229354,-0.2369558811187744,0.4808464050292969,0.3431669771671295,-0.6487060189247131,-0.4102502763271332,-0.5413979291915894
252205,9.607873916625977,0.2647147178649902,2.0040204524993896,-0.3528790175914764,-1.004773497581482,0.4744560420513153,0.642052948474884,-0.3430085182189941,-0.5329641103744507,-0.4313495755195617,9.611207008361816,0.0974658280611038,-1.7388375997543335,-0.2108693420886993,-0.1715666502714157,0.39362233877182,0.3431456089019775,-0.6487128734588623,-0.4102610349655151,-0.5413950681686401
252372,9.604658126831056,0.2848774492740631,2.0387723445892334,-0.0640061274170875,-0.8330017328262329,0.44875368475914,0.6419890522956848,-0.343077540397644,-0.5329851508140564,-0.4313637018203735,9.602409362792969,0.1179433166980743,-1.7324864864349363,-0.2488657832145691,-0.0220269188284873,0.5893033742904663,0.3431373536586761,-0.6487273573875427,-0.410233587026596,-0.5414038896560669
252538,9.619568824768066,0.2618408501148224,1.9856611490249636,-0.0067617520689964,-0.8571417331695557,0.5928506851196289,0.6419255137443542,-0.3431660532951355,-0.532996416091919,-0.4313740134239197,9.580409049987791,0.1200818493962287,-1.7448599338531494,-0.3349628448486328,-0.1157437860965728,0.6196544170379639,0.3431136906147003,-0.6487573385238647,-0.4101978242397308,-0.541409969329834
252705,9.627307891845703,0.2826088368892669,2.005534648895264,0.0150154437869787,-0.7263376712799072,0.6859145164489746,0.6418743133544922,-0.3432568907737732,-0.5329886078834534,-0.4313874840736389,9.595114707946776,0.1098074465990066,-1.73599112033844,-0.5313225984573364,-0.1575180888175964,0.6199361681938171,0.3430596590042114,-0.6488068103790283,-0.4101384580135345,-0.5414298176765442
252872,9.618040084838867,0.2833553850650787,2.002309083938598,0.0864108353853225,-0.8093868494033813,0.5124012231826782,0.6418262720108032,-0.3433112800121307,-0.5330153107643127,-0.4313827455043793,9.539374351501465,0.0848312601447105,-1.740451097488403,-0.3636234700679779,-0.0959963947534561,0.6275559067726135,0.3430114686489105,-0.6488542556762695,-0.4100711941719055,-0.5414544939994812
253038,9.602123260498049,0.2746519148349762,1.986534833908081,0.2504217624664306,-1.011035680770874,0.7195439338684082,0.6417896151542664,-0.3433713912963867,-0.5330654978752136,-0.4313274323940277,9.515012741088867,0.0556114204227924,-1.731137752532959,-0.026419498026371,-0.4004288911819458,0.8419598340988159,0.3429929912090301,-0.6489218473434448,-0.4100253283977508,-0.5414199233055115
253205,9.63288116455078,0.2844993472099304,1.98686957359314,0.0877427011728286,-0.7974002361297607,0.551447868347168,0.6417279243469238,-0.3434489667415619,-0.5330751538276672,-0.431345671415329,9.612321853637695,0.1041982024908065,-1.7816126346588137,0.1617890000343322,-0.9611036777496338,0.7435686588287354,0.3429804742336273,-0.6489959955215454,-0.4100677073001861,-0.5413068532943726
253372,9.599149703979492,0.2352679073810577,1.958645582199097,0.0382589697837829,-1.1743037700653076,0.950237512588501,0.6416563391685486,-0.3435890674591064,-0.5330947041511536,-0.4313164353370666,9.70669174194336,0.1636615544557571,-1.790928840637207,-0.3337206542491913,-0.4864619672298431,0.0765243396162986,0.3428850471973419,-0.6490264534950256,-0.4100966155529022,-0.5413088798522949
253538,9.560808181762695,0.2264232635498047,1.907431721687317,0.1231010481715202,-1.1195695400238037,0.9082326889038086,0.6416019201278687,-0.3437005579471588,-0.5331255793571472,-0.4312704801559448,9.66285800933838,0.1029482781887054,-1.748822569847107,-0.5443594455718994,0.114405520260334,0.0963741838932037,0.34281986951828,-0.6490110754966736,-0.4100940227508545,-0.541370689868927
253705,9.6759614944458,0.318682998418808,2.0117669105529785,0.0996270030736923,0.0273863766342401,0.3828650414943695,0.6416104435920715,-0.3436910510063171,-0.5330812931060791,-0.4313200414180755,9.601739883422852,0.0916621759533882,-1.7281081676483154,-0.4028109312057495,0.503731369972229,0.6246744990348816,0.3428262770175934,-0.6489941477775574,-0.4100256264209747,-0.5414386987686157
253872,9.676898002624512,0.3133687674999237,2.047646999359131,-0.0801165252923965,0.4208102822303772,0.511760950088501,0.6416195034980774,-0.3437198400497436,-0.5329588055610657,-0.4314349293708801,9.557535171508787,0.1003040447831153,-1.7210626602172852,-0.3281883001327514,0.6693174839019775,0.9357278943061828,0.342862069606781,-0.6489876508712769,-0.4099113643169403,-0.5415104031562805
254038,9.634665489196776,0.2724413275718689,2.0293140411376958,-0.6278953552246094,-0.3215034008026123,0.9464083909988404,0.6415993571281433,-0.3438433706760406,-0.5328726768493652,-0.4314730167388916,9.555333137512209,0.0972979813814163,-1.7246688604354858,-0.2618642151355743,0.6827641129493713,0.784920334815979,0.3428850471973419,-0.648973286151886,-0.409806877374649,-0.5415921211242676
254205,9.58723258972168,0.2058464884757995,2.0076398849487305,0.1596503555774688,-0.5233058333396912,0.2432630062103271,0.6415470242500305,-0.3438662588596344,-0.5328798294067383,-0.4315236806869507,9.551312446594238,0.0712288692593574,-1.7240647077560425,-0.1401654928922653,0.7174822092056274,0.7468727231025696,0.3428961932659149,-0.6489642262458801,-0.409687340259552,-0.5416861772537231
254372,9.575552940368652,0.2335840612649917,1.9996577501297,0.4041875898838043,-0.4412427544593811,0.1034432873129844,0.641512393951416,-0.3438407778739929,-0.5329073667526245,-0.4315612018108368,9.561734199523926,0.0540221855044364,-1.711626410484314,0.196647897362709,0.4389440417289734,0.6738380193710327,0.3429389894008636,-0.648939311504364,-0.4096419513225555,-0.5417231917381287
254538,9.586827278137209,0.2642548382282257,1.982949137687683,0.598434329032898,-0.6097999215126038,0.4659398794174194,0.6414837837219238,-0.3438527882099151,-0.5329335927963257,-0.4315618872642517,9.58444595336914,0.0695584490895271,-1.692268133163452,0.4828698337078094,0.2557620406150818,0.8310360908508301,0.343036413192749,-0.64890456199646,-0.4096446931362152,-0.5417012572288513
254705,9.582719802856444,0.2582101225852966,1.99152946472168,0.5882789492607117,-0.5194896459579468,0.6792680621147156,0.6414888501167297,-0.3438592851161957,-0.5329510569572449,-0.4315276443958282,9.585047721862791,0.0854472294449806,-1.727717041969299,0.5539194345474243,0.1058380678296089,0.8691092729568481,0.3431189954280853,-0.6488913893699646,-0.4096385240554809,-0.5416693091392517
254872,9.62310791015625,0.25584676861763,1.97174072265625,0.5978066921234131,-0.4456609785556793,0.7538905739784241,0.6414875388145447,-0.3438880443572998,-0.5329440236091614,-0.4315154254436493,9.599520683288574,0.0857826992869377,-1.7125661373138428,0.6248666644096375,-0.0573340281844139,0.7222974300384521,0.3432038128376007,-0.6488664150238037,-0.4096802771091461,-0.5416138768196106
255038,9.609423637390137,0.2469978928565979,1.9696682691574097,0.568313717842102,0.0070755081251263,0.55829918384552,0.6415161490440369,-0.3438645303249359,-0.5329100489616394,-0.4315336048603058,9.578410148620604,0.0856977626681327,-1.7069436311721802,0.5879075527191162,-0.0972130000591278,0.6082568168640137,0.343251883983612,-0.6488556861877441,-0.4097058773040771,-0.5415770411491394
255205,9.61984920501709,0.2759785950183868,1.9746713638305664,0.7969455718994141,0.060119405388832,0.4602922797203064,0.6415694355964661,-0.3437895774841308,-0.532902717590332,-0.4315232336521148,9.5884428024292,0.0952866971492767,-1.69871187210083,0.5946051478385925,-0.1811714172363281,0.6971200108528137,0.3433061838150024,-0.6488534808158875,-0.4097322225570678,-0.5415253639221191
255372,9.638642311096191,0.2851800322532654,2.005387544631958,0.7851252555847168,-0.1594390273094177,0.6850180625915527,0.6416301727294922,-0.3437322676181793,-0.5329132676124573,-0.4314652681350708,9.598247528076172,0.129397913813591,-1.7384587526321411,0.3415645360946655,-0.1456082016229629,0.6388127207756042,0.3433641791343689,-0.648835301399231,-0.4097782075405121,-0.5414754152297974
255538,9.63097858428955,0.2766370773315429,1.9657081365585327,0.8413963317871094,-0.4215850234031677,0.6704828143119812,0.6416593194007874,-0.3437014520168304,-0.5329416990280151,-0.4314112961292267,9.540117263793944,0.075203463435173,-1.7056317329406738,0.0821335315704345,-0.2405801266431808,0.8438937067985535,0.3434039354324341,-0.6488516330718994,-0.4097864031791687,-0.541424572467804
255705,9.626060485839844,0.2724714875221252,1.9651024341583248,0.8258366584777832,-0.4127998948097229,0.5034624338150024,0.6416952013969421,-0.3436363339424133,-0.5329911708831787,-0.4313487708568573,9.558475494384766,0.0846001505851745,-1.7225171327590942,0.181446760892868,-0.3594614267349243,1.0028715133666992,0.3434259295463562,-0.6489062309265137,-0.409753680229187,-0.5413699746131897
256038,9.607792854309082,0.235042005777359,1.9600461721420288,0.5077268481254578,-0.8925897479057312,0.6799595355987549,0.641649603843689,-0.3436700701713562,-0.5330521464347839,-0.4313142299652099,9.549710273742676,0.105033591389656,-1.750479221343994,-0.1090972870588302,-0.5915637016296387,0.6139683723449707,0.3434160351753235,-0.6489408016204834,-0.4097941815853119,-0.5413039326667786
256205,9.612521171569824,0.2622923552989959,1.953591108322144,0.4558099508285522,-0.6274598836898804,0.4906560480594635,0.641643226146698,-0.3436591327190399,-0.5330944061279297,-0.4312803745269775,9.577544212341309,0.0799246579408645,-1.733992099761963,-0.2461124211549759,-0.7292318940162659,0.3179624080657959,0.3433355093002319,-0.6489942669868469,-0.4098286032676697,-0.5412649512290955
256372,9.592174530029297,0.2997570335865021,1.9574373960494995,0.6838783025741577,-0.6863307952880859,0.2205829918384552,0.6415992379188538,-0.3436448872089386,-0.5331471562385559,-0.4312920868396759,9.60942268371582,0.0891262367367744,-1.7601805925369265,-0.2259552329778671,-0.6296497583389282,0.1732763051986694,0.3432493507862091,-0.6490310430526733,-0.4098720550537109,-0.5412425994873047
256539,9.620689392089844,0.3194791376590729,1.958530068397522,0.3655636310577392,-0.8492146134376526,0.5908401012420654,0.6415655612945557,-0.3436786234378814,-0.5331900119781494,-0.431262344121933,9.656983375549316,0.1051259338855743,-1.752834677696228,-0.2205253392457962,-0.3289438784122467,0.3168482780456543,0.3432005643844604,-0.6490471363067627,-0.4098963141441345,-0.5412359237670898
256705,9.641180992126465,0.2631530165672302,1.994959831237793,0.2207238674163818,-0.4710816144943237,0.7407256960868835,0.6415502429008484,-0.3437300026416778,-0.5331705808639526,-0.4312682747840881,9.646514892578123,0.0982311144471168,-1.74805748462677,-0.3696424663066864,0.2449278384447097,0.4841888546943664,0.3431985974311828,-0.6490245461463928,-0.4098820388317108,-0.541275143623352
256872,9.646864891052246,0.251317948102951,2.0164945125579834,-0.027149461209774,0.0267844796180725,0.5590547919273376,0.6415702104568481,-0.3437327146530151,-0.533115029335022,-0.4313049912452698,9.605341911315918,0.0866986215114593,-1.7265210151672363,-0.4249275326728821,0.691254734992981,0.552152156829834,0.3432055413722992,-0.6489868760108948,-0.4098131358623504,-0.5413680076599121
257039,9.632771492004396,0.2440296560525894,2.032337188720703,0.135074958205223,-0.0291216392070055,0.3195888102054596,0.6415674090385437,-0.3437200784683227,-0.5330770015716553,-0.4313662648200989,9.559179306030272,0.0745278969407081,-1.713868498802185,-0.4020681381225586,0.7208245396614075,0.569850504398346,0.3432264626026153,-0.6489397287368774,-0.4097541570663452,-0.5414557456970215
257205,9.621481895446776,0.2703295648097992,1.9805964231491089,0.3895627558231354,-0.4007106721401214,0.2148713171482086,0.6415091156959534,-0.3437409698963165,-0.5330670475959778,-0.4314483404159546,9.541632652282717,0.0733551606535911,-1.7134824991226196,-0.2828922569751739,0.5778416395187378,0.4356912076473236,0.3432216942310333,-0.6489035487174988,-0.4097024202346802,-0.541541337966919
257372,9.605704307556152,0.2547987103462219,1.9686050415039065,0.7072498202323914,-0.6587330102920532,0.2551473081111908,0.6414933204650879,-0.3436950147151947,-0.5331355929374695,-0.4314237236976623,9.547318458557127,0.0779756233096122,-1.704817295074463,-0.2345867156982422,0.2476555854082107,0.2762521803379059,0.3432075381278991,-0.6488674879074097,-0.4097084999084472,-0.5415889620780945
257539,9.59242820739746,0.2646407186985016,1.9539520740509035,0.8047574162483215,-0.5883620977401733,0.3120843470096588,0.6414724588394165,-0.3436641097068786,-0.5331853628158569,-0.4314180910587311,9.56682014465332,0.1001125201582908,-1.70318341255188,-0.262005090713501,-0.1108773723244667,0.1843537986278534,0.3431604504585266,-0.6488567590713501,-0.4097367823123932,-0.5416103005409241
257705,9.588109970092772,0.2792046368122101,1.9433937072753904,0.7441193461418152,-0.2784100472927093,0.3637067377567291,0.6415051817893982,-0.3435854613780975,-0.53322434425354,-0.4313839375972748,9.584220886230469,0.1171422451734542,-1.7091374397277832,-0.3917718231678009,-0.2874513268470764,0.0806351825594902,0.3430882096290588,-0.6488551497459412,-0.4097813367843628,-0.5416243076324463
257872,9.626049041748049,0.2970147430896759,1.966882348060608,0.4194656014442444,0.030319033190608,0.3120843172073364,0.6415000557899475,-0.3435678780078888,-0.5331816673278809,-0.4314581155776977,9.619422912597656,0.1286150366067886,-1.7259706258773804,-0.545921802520752,-0.399225115776062,0.2169971466064453,0.3429948389530182,-0.64888596534729,-0.4097937941551208,-0.5416370630264282
258039,9.624690055847168,0.2900876402854919,1.9764875173568728,0.2729225158691406,0.0473130568861961,0.4713568985462188,0.6415098309516907,-0.3435607552528381,-0.5331296920776367,-0.4315136075019836,9.595592498779297,0.0947674810886383,-1.711648941040039,-0.6481293439865112,-0.2450367212295532,0.5177287459373474,0.3429311513900757,-0.6489223837852478,-0.4097703695297241,-0.5416514277458191
258205,9.639498710632324,0.260591059923172,1.9780467748641968,0.1474458873271942,-0.0783748552203178,0.6536296606063843,0.6415178775787354,-0.3435834944248199,-0.5330749154090881,-0.4315512478351593,9.604544639587402,0.0888580232858657,-1.7243541479110718,-0.5034048557281494,-0.0940626412630081,0.6105747818946838,0.3428826332092285,-0.648956298828125,-0.4097240567207336,-0.5416765809059143
258372,9.619818687438965,0.2517971694469452,1.9840333461761477,0.1133554056286811,-0.2879763841629028,0.6262113451957703,0.6414968371391296,-0.3436323404312134,-0.5330312252044678,-0.4315975606441498,9.601998329162598,0.0508679710328578,-1.6927369832992554,-0.2799339592456817,0.0220077093690633,0.7574635744094849,0.3428810536861419,-0.648972749710083,-0.4096854329109192,-0.5416871905326843
258539,9.610763549804688,0.2503559589385986,2.0120530128479004,0.3632969260215759,-0.3522514402866363,0.5946948528289795,0.6415287256240845,-0.3435989320278168,-0.5330498218536377,-0.4315537512302398,9.61125946044922,0.0725111067295074,-1.6999609470367432,-0.0858409628272056,0.1995421200990677,0.7389583587646484,0.3428996503353119,-0.6489699482917786,-0.4096456468105316,-0.5417088270187378
258705,9.60910415649414,0.2600618004798889,2.0187618732452397,0.409502238035202,-0.2976451516151428,0.6536808609962463,0.6415334939956665,-0.3436103761196136,-0.5330318808555603,-0.4315597414970398,9.5897216796875,0.0849492326378822,-1.7199126482009888,0.1390449404716491,0.2010660767555236,0.7057130932807922,0.3429252505302429,-0.6489624381065369,-0.4096123576164245,-0.5417267680168152
258872,9.603806495666504,0.2459134012460708,2.0082650184631348,0.4946900606155395,-0.4757686853408813,0.4932557642459869,0.6415368318557739,-0.3435893058776855,-0.5330587029457092,-0.4315385222434997,9.54588794708252,0.0976590663194656,-1.7169156074523926,0.0602346658706665,0.0715554803609848,0.698541522026062,0.3429617285728454,-0.6489485502243042,-0.4096123874187469,-0.5417202711105347
259039,9.61627197265625,0.2729999721050262,1.97444748878479,0.7817828059196472,-0.3363587558269501,0.505806028842926,0.6415344476699829,-0.3435739874839782,-0.5330634713172913,-0.4315482378005981,9.600836753845217,0.0960140228271484,-1.7157320976257324,0.1271606534719467,-0.1064719855785369,0.6460098624229431,0.342993289232254,-0.6489399671554565,-0.4096353054046631,-0.5416932106018066
259205,9.600736618041992,0.2833126783370971,1.9655873775482176,0.8205989003181458,-0.4806991815567016,0.7262672781944275,0.6415484547615051,-0.3435661792755127,-0.5330828428268433,-0.4315097332000732,9.57556438446045,0.077109545469284,-1.7168843746185305,0.2267044186592102,-0.1117738261818885,0.8014918565750122,0.3430173695087433,-0.6489568948745728,-0.4096178114414215,-0.5416709780693054
259372,9.634350776672363,0.2627238631248474,2.0188443660736084,0.6871055364608765,-0.1988954097032547,0.6420911550521851,0.641536295413971,-0.3435921669006347,-0.533042311668396,-0.4315571784973144,9.507091522216797,0.0603379346430301,-1.7213557958602903,0.2395363599061966,-0.2655780613422394,0.8485679030418396,0.3430666327476501,-0.6489664912223816,-0.4096396267414093,-0.5416117310523987
259539,9.601027488708496,0.2310970872640609,1.965216040611267,0.7990073561668396,-0.3897484242916107,0.8859753012657166,0.641582727432251,-0.3435716927051544,-0.5330573916435242,-0.4314858019351959,9.58844757080078,0.0683254078030586,-1.7543424367904663,0.4100400805473327,-0.8800266981124878,0.8663430213928223,0.343053936958313,-0.6490486860275269,-0.4096526503562927,-0.5415114760398865
259705,9.595711708068848,0.2523941099643707,1.9551770687103271,0.8794440031051636,-0.5438215732574463,1.039228916168213,0.6416272521018982,-0.3435697853565216,-0.5330814123153687,-0.4313915371894836,9.695212364196776,0.1642873883247375,-1.767240047454834,-0.1072916090488433,-0.5196817517280579,0.1486497223377227,0.3429771959781647,-0.6490704417228699,-0.4096992015838623,-0.5414987802505493
259872,9.608072280883787,0.2902553975582123,1.9719332456588743,0.6064127087593079,0.1123437136411666,0.6692023277282715,0.6416739821434021,-0.3435388505458832,-0.5330356955528259,-0.431403249502182,9.6798095703125,0.1272233873605728,-1.7523016929626465,-0.7530390024185181,0.1726488173007965,-0.3015511035919189,0.3428706526756286,-0.6490240693092346,-0.4097338616847992,-0.5415956974029541
260039,9.70126724243164,0.3687738180160522,2.015725612640381,0.3974642753601074,0.7975729703903198,0.1937664598226547,0.6417407989501953,-0.3434375822544098,-0.5329428911209106,-0.4314987957477569,9.632058143615724,0.0727913603186607,-1.7377369403839111,-0.8348203301429749,0.544916570186615,0.2434551119804382,0.3428268730640411,-0.6489807963371277,-0.4096986353397369,-0.5417018532752991
260205,9.672054290771484,0.3087867796421051,2.0531134605407715,-0.4884213507175445,0.1167875006794929,1.021543264389038,0.6417820453643799,-0.3435003459453583,-0.5328332781791687,-0.4315231144428253,9.58487319946289,0.1144662424921989,-1.699536919593811,-0.8141764402389526,0.926545798778534,0.5870237946510315,0.3427987992763519,-0.6489531993865967,-0.4095708429813385,-0.5418493151664734
260372,9.59202480316162,0.2050275355577469,2.018139600753784,0.1546686887741089,-0.1941186338663101,0.5462740659713745,0.6417698860168457,-0.3435257971286773,-0.5327903032302856,-0.4315738976001739,9.571854591369627,0.1050611287355423,-1.6925359964370728,-0.9268340468406676,1.1489025354385376,0.6230866312980652,0.3428022861480713,-0.6488965749740601,-0.4094506204128265,-0.5420056581497192
260539,9.598511695861816,0.2539142966270447,2.012914657592773,0.5961163640022278,-0.1394227147102356,0.0024652222637087,0.6417596936225891,-0.3434524536132812,-0.5328046083450317,-0.4316297471523285,9.560141563415527,0.0701166540384292,-1.720797061920166,-0.8482157588005066,1.0315322875976562,0.5555714964866638,0.3427775502204895,-0.6488578915596008,-0.4093217253684997,-0.5421649813652039
260705,9.595954895019531,0.2774063944816589,2.0014636516571045,0.680996835231781,-0.3418782651424408,0.2794153392314911,0.641772985458374,-0.3433827459812164,-0.5328437089920044,-0.4316172003746032,9.538870811462402,0.0474002696573734,-1.6948950290679932,-0.6965628862380981,0.7994043231010437,0.5834892988204956,0.3427545428276062,-0.6488319039344788,-0.4092130959033966,-0.5422926545143127
260872,9.59042263031006,0.2679934799671173,1.9905564785003664,0.5569417476654053,-0.3277016580104828,0.5052937269210815,0.6417919993400574,-0.3433453142642975,-0.5328596234321594,-0.431598961353302,9.55083465576172,0.0484555587172508,-1.7086412906646729,-0.2498646974563598,0.4291727840900421,0.7325295805931091,0.3427968919277191,-0.6487969756126404,-0.4091842174530029,-0.5423295497894287
261039,9.615007400512695,0.2477752566337585,1.989912509918213,0.6597127318382263,-0.2619538903236389,0.7119498252868652,0.6418432593345642,-0.3432989120483398,-0.5328726172447205,-0.4315435290336609,9.579411506652832,0.0485878698527812,-1.71300208568573,0.1164545565843582,0.1024572104215622,0.8358897566795349,0.3428458869457245,-0.648788332939148,-0.4091700911521911,-0.5423194169998169
261205,9.613396644592283,0.244170606136322,1.9508233070373533,0.495381623506546,-0.1040003672242164,0.7096958160400391,0.6418793201446533,-0.343282014131546,-0.5328450798988342,-0.431537389755249,9.57891082763672,0.0654231384396553,-1.7000395059585571,0.3579566776752472,-0.0285837724804878,0.7173668742179871,0.3429250121116638,-0.6487532258033752,-0.409221351146698,-0.5422725677490234
261372,9.6062650680542,0.2412938624620437,1.950731635093689,0.3892297744750976,0.1340248584747314,0.4143686294555664,0.6419230699539185,-0.343220591545105,-0.5328142642974854,-0.4315592646598816,9.610677719116213,0.0754436701536178,-1.716601014137268,0.4362803101539612,-0.0431958176195621,0.5662519335746765,0.3429705798625946,-0.648727536201477,-0.4092597961425781,-0.5422455072402954
261539,9.62778663635254,0.249858871102333,1.9508460760116575,0.5153082609176636,0.1122924759984016,0.4796810448169708,0.6419425010681152,-0.3431960046291351,-0.5327631831169128,-0.4316129982471466,9.61237335205078,0.0767775923013687,-1.7032939195632937,0.4558995962142944,0.0818261727690696,0.5865244269371033,0.3430291414260864,-0.648690402507782,-0.4092944860458374,-0.5422267913818359
261705,9.638818740844728,0.2646044492721557,1.9949244260787964,0.5927098393440247,0.0051801684312522,0.6011108160018921,0.6420074701309204,-0.343125969171524,-0.5327561497688293,-0.4315806925296783,9.606647491455078,0.1047363802790641,-1.7151132822036743,0.4974562227725982,0.0830555781722068,0.662171483039856,0.3430867195129394,-0.6486637592315674,-0.4093119204044342,-0.5422090291976929
261872,9.629902839660645,0.2700390815734863,2.007075309753418,0.7471031546592712,-0.1927995830774307,0.5655987858772278,0.6420179605484009,-0.3431084156036377,-0.5327421426773071,-0.431596428155899,9.584260940551758,0.1095213517546653,-1.7216613292694092,0.3419103026390075,0.2971009016036987,0.6868237257003784,0.3431492149829864,-0.6486251950263977,-0.4093107879161834,-0.542216420173645
262039,9.634787559509276,0.2694058120250702,1.992448329925537,0.7534679770469666,-0.1938881278038025,0.4251900017261505,0.6420133709907532,-0.3430877029895782,-0.532730221748352,-0.4316345453262329,9.524744033813477,0.0732392221689224,-1.7137861251831057,0.198107823729515,-0.0260865334421396,0.9523377418518066,0.3432042896747589,-0.6486319899559021,-0.4092948138713836,-0.5421855449676514
262205,9.61367416381836,0.2728057503700256,1.9997795820236208,0.7124875783920288,-0.36670982837677,0.4403143227100372,0.64202880859375,-0.3430385291576385,-0.5327595472335815,-0.4316141903400421,9.516743659973145,0.068152330815792,-1.7130945920944214,0.2074308395385742,-0.4798922836780548,0.7821926474571228,0.3432191014289856,-0.6486644744873047,-0.409317284822464,-0.5421202778816223
262372,9.60317611694336,0.2538646459579468,1.968433260917664,0.5877665877342224,-0.8095278143882751,0.8861546516418457,0.6420384049415588,-0.3430546820163727,-0.532805860042572,-0.4315301775932312,9.555360794067385,0.108527161180973,-1.706895112991333,-0.1022843047976493,-0.7073202729225159,0.3810465037822723,0.3431770503520965,-0.648693859577179,-0.409385472536087,-0.5420603156089783
262539,9.582880020141602,0.2978495657444,1.9545056819915767,0.7312873601913452,-0.5033151507377625,0.3354302942752838,0.6420429944992065,-0.3429970443248749,-0.5328590273857117,-0.4315033555030823,9.589394569396973,0.0864860191941261,-1.7423051595687866,-0.2696504890918731,-0.8695639371871948,0.0207270756363868,0.3430478870868683,-0.6487464904785156,-0.4094441533088684,-0.5420348644256592
262705,9.607101440429688,0.3323405086994171,1.9621754884719849,0.5873311758041382,-0.2803437709808349,0.3735675811767578,0.6420509815216064,-0.3429535329341888,-0.5328730344772339,-0.4315087795257568,9.639442443847656,0.0815346464514732,-1.7410036325454712,-0.2849412858486175,-0.7910866141319275,0.1782835870981216,0.342953085899353,-0.6487893462181091,-0.4095049500465393,-0.5419974327087402
262872,9.6216459274292,0.2943969666957855,1.9722390174865725,0.0072035719640553,-0.3154716193675995,0.5686851143836975,0.6420380473136902,-0.3429825603961944,-0.5328436493873596,-0.4315412044525146,9.676694869995115,0.0904279798269271,-1.739728331565857,-0.3929885029792785,-0.3585138022899627,0.3624005317687988,0.3428979218006134,-0.6488074064254761,-0.4095299839973449,-0.5419920086860657
263039,9.644047737121582,0.2672070562839508,2.0106189250946045,0.0455713905394077,-0.1597976237535476,0.6141347885131836,0.6420508027076721,-0.3429902493953705,-0.5328073501586914,-0.4315609037876129,9.641115188598633,0.0700114071369171,-1.6981120109558103,-0.4490033984184265,0.178373247385025,0.6074115633964539,0.3428668081760406,-0.6488165855407715,-0.4094745814800262,-0.5420423746109009
263205,9.635858535766602,0.2455066293478012,2.033120393753052,-0.1047687530517578,-0.0942675471305847,0.5758823156356812,0.642058789730072,-0.343004822731018,-0.5327574014663696,-0.4315990805625915,9.603271484375,0.0656019449234008,-1.7174019813537598,-0.3654932081699371,0.4145223796367645,0.5277944803237915,0.3428744375705719,-0.6487811803817749,-0.4094491004943847,-0.5420991778373718
263372,9.6195650100708,0.245935782790184,2.030012607574463,0.169959470629692,-0.334553062915802,0.4390720725059509,0.6420588493347168,-0.3429913222789764,-0.5327581763267517,-0.4316088557243347,9.568625450134276,0.0772138908505439,-1.7222621440887451,-0.1983959674835205,0.4143046140670776,0.2300212681293487,0.3428474962711334,-0.6487395167350769,-0.4094327688217163,-0.5421784520149231
263539,9.602237701416016,0.2616603672504425,2.014380931854248,0.4518144428730011,-0.5788342356681824,0.0732331126928329,0.6420211791992188,-0.3429512679576874,-0.5328091382980347,-0.4316338002681732,9.54070281982422,0.0782867521047592,-1.7036908864974976,-0.066247247159481,0.2208774983882904,0.0530374981462955,0.3428214788436889,-0.6486859917640686,-0.409469336271286,-0.5422313809394836
263705,9.60625457763672,0.2766053378582001,2.008244276046753,0.5876513123512268,-0.4251579940319061,0.0787142217159271,0.6419674754142761,-0.3429339826107025,-0.5328251123428345,-0.4317077696323395,9.56488800048828,0.094537042081356,-1.7187037467956543,-0.0266500134021043,-0.0274696182459592,-0.0074148760177195,0.3427869975566864,-0.6486411094665527,-0.4095358550548553,-0.5422565937042236
263872,9.599116325378418,0.2652294039726257,1.978690505027771,0.5019256472587585,-0.3234627544879913,0.1002288907766342,0.6419199109077454,-0.3429187536239624,-0.5328258275985718,-0.4317896962165832,9.559223175048828,0.1142526715993881,-1.698340892791748,-0.1052169650793075,-0.3179304301738739,-0.0373817309737205,0.3427111804485321,-0.64863121509552,-0.4095972776412964,-0.5422698855400085
264039,9.60896110534668,0.2816585004329681,1.9731724262237549,0.5504617094993591,-0.1720148921012878,0.1365476995706558,0.6419441103935242,-0.3428213894367218,-0.5328593254089355,-0.4317896366119385,9.59148406982422,0.1160729601979255,-1.7281306982040403,-0.3186860084533691,-0.5429508090019226,0.2197505533695221,0.3426483273506164,-0.6486461162567139,-0.4096594750881195,-0.5422448515892029
264205,9.61190128326416,0.2811936140060425,1.9765018224716189,0.526142418384552,-0.079745128750801,0.0492980368435382,0.6419402956962585,-0.3427497744560241,-0.5328638553619385,-0.4318464994430542,9.613513946533203,0.1254783868789672,-1.7122021913528442,-0.3959338665008545,-0.4450462460517883,0.401152491569519,0.3425819277763366,-0.6486795544624329,-0.4096748828887939,-0.542235255241394
264372,9.6285982131958,0.2743880748748779,1.9773529767990112,0.2441722452640533,-0.2625301778316498,0.4478956460952759,0.6419265270233154,-0.3427556455135345,-0.5328423380851746,-0.4318889081478119,9.601755142211914,0.1055124178528785,-1.7072670459747314,-0.3679264187812805,-0.4905599951744079,0.4445275664329529,0.3425001502037048,-0.648730993270874,-0.4096690118312835,-0.5422297716140747
264539,9.630786895751951,0.2748422622680664,2.019205331802368,0.1278394013643264,-0.3001168072223663,0.5776112079620361,0.6419093608856201,-0.3427881002426147,-0.5328084230422974,-0.4319304525852203,9.619568824768066,0.0879854261875152,-1.7465481758117676,-0.2600457072257995,-0.2376602292060852,0.613955557346344,0.3424576222896576,-0.6487666368484497,-0.4096437394618988,-0.5422329902648926
264705,9.632406234741213,0.2501488029956817,2.001283884048462,0.2802477478981018,-0.6451966762542725,0.4956761300563812,0.6418659687042236,-0.3428241312503814,-0.5328187346458435,-0.4319536089897156,9.592048645019531,0.0960712507367134,-1.7350828647613523,-0.1401398777961731,-0.0824728980660438,0.7291102409362793,0.3424622714519501,-0.64877849817276,-0.4096299409866333,-0.5422263741493225
264872,9.627799987792969,0.269707053899765,1.9953829050064087,0.2231826484203338,-0.6685042381286621,0.6457281112670898,0.6418190598487854,-0.3428892195224762,-0.5328132510185242,-0.4319783747196197,9.56521701812744,0.0818987265229225,-1.7274762392044067,0.1108581572771072,-0.0843170061707496,0.6856710910797119,0.3424712419509887,-0.6487869024276733,-0.4096214771270752,-0.5422170162200928
265039,9.62411117553711,0.2556980848312378,2.009042739868164,0.4023691415786743,-0.6657893657684326,0.4910018742084503,0.6418094038963318,-0.3428773880004883,-0.5328574180603027,-0.4319478273391723,9.563214302062988,0.0712273195385932,-1.7213859558105469,0.2794665694236755,-0.2081672102212906,0.6149289011955261,0.3424803912639618,-0.6487942337989807,-0.4096364378929138,-0.5421911478042603
265205,9.62043285369873,0.2764718234539032,1.9832303524017332,0.5458642244338989,-0.4547150433063507,0.4694871306419372,0.641829252243042,-0.3428279757499695,-0.5328977108001709,-0.4319075644016266,9.599187850952148,0.06358502805233,-1.73053777217865,0.4753141105175018,-0.0923465862870216,0.5149241089820862,0.342519998550415,-0.6487674117088318,-0.4096855223178863,-0.5421610474586487
265372,9.613710403442385,0.2638814449310303,1.9661202430725095,0.6925225853919983,-0.5221661329269409,0.6388383507728577,0.6418357491493225,-0.3428154289722442,-0.5329238176345825,-0.4318757057189941,9.56208324432373,0.0687207505106926,-1.725728154182434,0.6193471550941467,-0.2010340988636016,0.6203845143318176,0.3425644636154175,-0.6487566232681274,-0.4097282588481903,-0.5421136021614075
265539,9.629770278930664,0.2598347961902618,2.001124382019043,0.6373143792152405,-0.250773936510086,0.6574844121932983,0.6418715715408325,-0.3427798151969909,-0.5329285264015198,-0.4318450689315796,9.51750659942627,0.0674844682216644,-1.739677906036377,0.8063709735870361,-0.5083736777305603,0.6283755302429199,0.3426311612129211,-0.6487447619438171,-0.4098267257213592,-0.5420112609863281
265705,9.60678005218506,0.2245561182498932,1.9434078931808472,0.8110581636428833,-0.5211672186851501,0.732375979423523,0.6418882608413696,-0.3427654504776001,-0.5329561233520508,-0.4317976832389831,9.640813827514648,0.1540818810462951,-1.7723058462142944,0.6585601568222046,-0.7007762789726257,0.3650898039340973,0.3426272869110107,-0.6487573385238647,-0.4099197089672088,-0.5419282913208008
265872,9.600275039672852,0.2616925239562988,1.9258108139038088,0.7351164817810059,-0.3613951802253723,0.7288797497749329,0.6419230103492737,-0.3427356779575348,-0.5329722762107849,-0.4317496716976166,9.714109420776367,0.200060099363327,-1.7814058065414429,-0.300129622220993,-0.1810689866542816,-0.422980934381485,0.3425131142139435,-0.6487212181091309,-0.4099996984004974,-0.5419832468032837
266039,9.656816482543944,0.3487950563430786,2.0055973529815674,0.6251738667488098,0.6519648432731628,0.001171780982986,0.6419689655303955,-0.3426167368888855,-0.5329102277755737,-0.4318523406982422,9.690645217895508,0.1261313259601593,-1.7530452013015747,-0.9933885931968688,0.5341976881027222,-0.189149796962738,0.3423912823200226,-0.6486788392066956,-0.409964770078659,-0.5421373248100281
266205,9.689753532409668,0.3651738166809082,2.027963161468506,0.1003057286143302,0.6447548866271973,0.3218171596527099,0.6420032978057861,-0.3425781428813934,-0.5327959656715393,-0.4319729804992676,9.617198944091797,0.0983661785721778,-1.714207887649536,-1.024495244026184,1.0422896146774292,0.3405144512653351,0.3423193395137787,-0.6486437916755676,-0.4098292887210846,-0.5423272848129272
266372,9.655945777893066,0.2898533046245575,2.0387284755706787,-0.604779839515686,-0.0425426885485649,0.8299858570098877,0.6420013904571533,-0.3426611125469208,-0.5326932668685913,-0.432036429643631,9.577571868896484,0.1131001487374305,-1.7042735815048218,-1.1335924863815308,1.3227230310440063,0.7039202451705933,0.3422986567020416,-0.6486015915870667,-0.409655898809433,-0.5425216555595398
266539,9.608997344970703,0.2160677909851074,2.008279800415039,0.1836366355419159,-0.2304246574640274,0.0774976313114166,0.6419650316238403,-0.3426393270492553,-0.5326852202415466,-0.4321178197860718,9.54464340209961,0.0750368759036064,-1.7086139917373655,-1.072621464729309,1.167023539543152,0.5793656706809998,0.3422632217407226,-0.6485618352890015,-0.4095057845115661,-0.5427048206329346
266705,9.6030855178833,0.2640921771526336,2.0033984184265137,0.336979866027832,-0.2948149442672729,-0.0528261922299861,0.64192795753479,-0.3425914943218231,-0.5327028632164001,-0.4321891069412231,9.530117988586426,0.0440668687224388,-1.7061669826507568,-0.6831674575805664,0.943142831325531,0.5250795483589172,0.3422501981258392,-0.6485151052474976,-0.4094060063362121,-0.5428441762924194
266872,9.58520793914795,0.2641782760620117,1.99884569644928,0.3140309453010559,-0.2715586721897125,0.2948854565620422,0.6419348120689392,-0.3425439298152923,-0.5327169299125671,-0.4321990311145782,9.536035537719728,0.0574160069227218,-1.7006796598434448,-0.1871007680892944,0.5085593461990356,0.4706525504589081,0.3422679901123047,-0.6484647393226624,-0.4093880653381347,-0.542906641960144
267039,9.593465805053713,0.2635380923748016,1.9745560884475708,0.4408137500286102,-0.1463509649038314,0.2820662260055542,0.6419230699539185,-0.3425188064575195,-0.53270024061203,-0.4322570860385895,9.552031517028809,0.0723538249731063,-1.6842827796936035,0.216075137257576,0.1414653360843658,0.3512717187404632,0.342271625995636,-0.6484314799308777,-0.4094069004058838,-0.5429298281669617
267205,9.615416526794434,0.2565964460372925,1.9722962379455569,0.4691925942897796,-0.0158670675009489,0.3888455629348755,0.6419415473937988,-0.3424758315086365,-0.5326777696609497,-0.4322912991046905,9.579808235168455,0.0815804377198219,-1.6930086612701416,0.4604459404945373,-0.17461459338665,0.5183946490287781,0.342317670583725,-0.648402750492096,-0.4094741940498352,-0.542884349822998
267372,9.591487884521484,0.2412724792957306,1.9678219556808472,0.5922744274139404,-0.021693954244256,0.5007858872413635,0.6419470310211182,-0.3424630761146545,-0.5326372385025024,-0.4323431849479675,9.618751525878906,0.0826950222253799,-1.7098650932312012,0.6295921802520752,-0.2207430750131607,0.6007395386695862,0.3423654735088348,-0.6483871936798096,-0.4095283448696136,-0.54283207654953
267539,9.615363121032717,0.2527828514575958,2.018782138824463,0.6145703196525574,-0.0573724508285522,0.6865804195404053,0.6419807076454163,-0.3424423038959503,-0.5326067209243774,-0.4323474466800689,9.633008003234863,0.0999371111392974,-1.7296040058135986,0.5560581088066101,-0.0500472150743007,0.5614367723464966,0.3424275815486908,-0.648349404335022,-0.4095877408981323,-0.5427930355072021
267705,9.632746696472168,0.2425634115934372,1.9942076206207275,0.6527717113494873,0.0859498158097267,0.3962348699569702,0.6420179009437561,-0.3423752784729004,-0.5325867533683777,-0.4323698580265045,9.629474639892578,0.1071467474102974,-1.7064480781555176,0.4277641475200653,0.1936896592378616,0.5745888948440552,0.3424637913703918,-0.6483210921287537,-0.4095896184444427,-0.5428027510643005
267872,9.627449989318848,0.2802459895610809,2.0134222507476807,0.6314491033554077,-0.0575773492455482,0.4723173379898071,0.6420605778694153,-0.3423089683055877,-0.5325853824615479,-0.4323606193065643,9.623648643493652,0.1051869839429855,-1.687261700630188,0.2634586095809936,0.3263377845287323,0.5336597561836243,0.3425059914588928,-0.6482748985290527,-0.4095965623855591,-0.5428259372711182
268039,9.615765571594238,0.2740139663219452,2.020451545715332,0.7590387463569641,-0.1766635924577713,0.5266931056976318,0.6421156525611877,-0.3422276675701141,-0.5326098799705505,-0.4323131144046783,9.57519817352295,0.124573603272438,-1.6848227977752686,-0.0238326154649257,0.5001968145370483,0.5915700793266296,0.3425452411174774,-0.6482262015342712,-0.4095770418643951,-0.5428741574287415
268205,9.630122184753418,0.2864618599414825,2.054147720336914,0.7737148404121399,-0.3532503843307495,0.3558692634105682,0.6421263217926025,-0.3421688973903656,-0.5326435565948486,-0.432302176952362,9.508858680725098,0.0959674715995788,-1.7066198587417605,-0.1739230453968048,0.0957978963851928,0.6783714890480042,0.3425610363483429,-0.6482162475585938,-0.4095666706562042,-0.5428838133811951
268372,9.605157852172852,0.2938369512557983,1.9848921298980715,0.8353517055511475,-0.6378073692321777,0.2008996158838272,0.6421172618865967,-0.3420990407466888,-0.5327223539352417,-0.4322737753391266,9.526326179504396,0.0949232727289199,-1.706744909286499,-0.2495060712099075,-0.4470312297344208,0.6264417767524719,0.3425179719924927,-0.648261547088623,-0.409563809633255,-0.5428591370582581
268539,9.57852840423584,0.2609632909297943,1.956503629684448,0.4399429261684418,-1.0500952005386353,0.6503897309303284,0.6420747637748718,-0.3421395719051361,-0.5327844023704529,-0.4322284758090973,9.593286514282228,0.1170957535505294,-1.7142120599746704,-0.4715298116207123,-0.6101456880569458,0.2867662012577057,0.3424163162708282,-0.6483112573623657,-0.4095823466777801,-0.5428498387336731
268705,9.608078002929688,0.2982091903686523,1.9489221572875977,0.4147016406059265,-0.4784580767154693,0.2650850415229797,0.6420512199401855,-0.3421162664890289,-0.5328111052513123,-0.4322489500045776,9.620147705078123,0.0822921022772789,-1.7236818075180054,-0.6113751530647278,-0.4789831340312958,0.1815876215696334,0.342308759689331,-0.6483451724052429,-0.4096031486988067,-0.5428614616394043
268872,9.586051940917969,0.3293257653713226,1.991071343421936,0.0631032958626747,-0.2448318153619766,0.3535385131835937,0.6420469880104065,-0.342101514339447,-0.5328001976013184,-0.4322801232337951,9.647974014282228,0.100498579442501,-1.7401896715164185,-0.5556930899620056,-0.2455361187458038,0.041037943214178,0.3422125577926636,-0.6483474969863892,-0.4096332788467407,-0.5428967475891113
269039,9.621045112609863,0.2869548797607422,1.9894405603408811,-0.1466199159622192,-0.3204405307769775,0.3433190286159515,0.6420246362686157,-0.3421112895011902,-0.5327832102775574,-0.4323267042636871,9.637460708618164,0.0882464945316314,-1.7182960510253906,-0.5215898156166077,0.0597224086523056,0.201219767332077,0.3421423733234405,-0.648339033126831,-0.4096271097660064,-0.542955756187439
269205,9.651811599731444,0.2837291359901428,2.042715311050415,0.0399237945675849,-0.3558116257190704,0.4055066406726837,0.6419992446899414,-0.3421276807785034,-0.5327672958374023,-0.4323711097240448,9.615606307983398,0.0874382704496383,-1.703365445137024,-0.3775951862335205,0.4382524788379669,0.5323919057846069,0.3421376347541809,-0.6483110189437866,-0.4095856249332428,-0.5430233478546143
269372,9.640341758728027,0.2465616762638092,2.0235180854797363,-0.1636395305395126,-0.1854487359523773,0.3677407205104828,0.6419681310653687,-0.3421574234962463,-0.5327193140983582,-0.4324527978897095,9.576407432556152,0.088675633072853,-1.6902908086776731,-0.1364900916814804,0.537770688533783,0.4379707872867584,0.3421498537063598,-0.6482607126235962,-0.4095619320869446,-0.5430935025215149
269539,9.60321807861328,0.2454175353050232,2.017879009246826,0.267185240983963,-0.2047607153654098,0.0482223033905029,0.6419442296028137,-0.3421143591403961,-0.532721757888794,-0.4325193166732788,9.550622940063477,0.081108383834362,-1.7003613710403442,-0.1415613889694214,0.4356912076473236,0.2715906500816345,0.3421491384506225,-0.6482037305831909,-0.4095666408538818,-0.5431584119796753
269705,9.598708152770996,0.2862038612365722,1.9802031517028809,0.5208150148391724,-0.298054963350296,-0.008464996702969,0.6419286727905273,-0.3420412242412567,-0.5327565670013428,-0.4325574338436126,9.555017471313477,0.1150144040584564,-1.7010587453842163,-0.0827674493193626,0.2567737400531769,0.0112759917974472,0.3421208560466766,-0.6481441855430603,-0.409606784582138,-0.543217122554779
269872,9.594778060913086,0.2940965592861175,1.9991105794906616,0.5855383276939392,-0.4176406562328338,0.007613374851644,0.6419075727462769,-0.341971218585968,-0.5328056216239929,-0.4325834512710571,9.58535861968994,0.1242016777396202,-1.707449436187744,-0.0657349973917007,-0.0409931279718875,-0.066631443798542,0.3420694172382355,-0.6481032371520996,-0.4096695184707641,-0.5432510375976562
270039,9.596576690673828,0.3025363981723785,1.9696855545043943,0.6347275376319885,-0.284838855266571,0.1305799633264541,0.6419282555580139,-0.3418714106082916,-0.5328561663627625,-0.4325696527957916,9.59371566772461,0.1446467041969299,-1.699510097503662,-0.221165657043457,-0.065658152103424,0.0894203335046768,0.3420170545578003,-0.6480790376663208,-0.4097100496292114,-0.5432823300361633
270205,9.598236083984377,0.2852993309497833,1.9671250581741333,0.6494932174682617,-0.2897308468818664,0.1699850857257843,0.6419462561607361,-0.3417801260948181,-0.5329020023345947,-0.4325585067272186,9.60492706298828,0.1394935399293899,-1.7028683423995972,-0.3961644172668457,-0.2995405197143554,0.3366469144821167,0.3419606983661651,-0.6480913758277893,-0.4097334742546081,-0.5432854294776917
270372,9.61733341217041,0.2945614755153656,1.9647289514541624,0.4346283376216888,-0.2651298940181732,0.2315324246883392,0.6419516801834106,-0.3417218029499054,-0.5329229831695557,-0.4325707554817199,9.603224754333496,0.1452755481004715,-1.7104017734527588,-0.7251722812652588,-0.2078598588705063,0.4921927750110626,0.3418872654438019,-0.6481251120567322,-0.4097068309783935,-0.5433114171028137
270539,9.619830131530762,0.3014282286167145,1.992236971855164,0.2003617584705352,-0.3334901928901672,0.2378075271844864,0.6419283151626587,-0.341705322265625,-0.5329258441925049,-0.4326149523258209,9.614665031433104,0.10145965218544,-1.7125107049942017,-0.4720036387443542,-0.2494805008172989,0.7631880640983582,0.3418471813201904,-0.6481720805168152,-0.4096666574478149,-0.5433109998703003
270705,9.631386756896973,0.2923179566860199,1.9618723392486568,0.1285821497440338,-0.5916149020195007,0.6183993816375732,0.641904354095459,-0.3417424261569977,-0.5329287052154541,-0.4326176941394806,9.609081268310549,0.0752538219094276,-1.6986337900161743,-0.2107540965080261,-0.1439049392938614,0.9505320191383362,0.3418513834476471,-0.6482100486755371,-0.4096222817897796,-0.5432964563369751
270872,9.617735862731934,0.2594563663005829,2.012655019760132,0.0826970040798187,-0.6710783243179321,0.8675214052200317,0.6418820023536682,-0.3418152928352356,-0.5329192876815796,-0.4326049089431762,9.565546989440918,0.0793280899524688,-1.7092143297195437,0.1078486666083335,-0.1478493064641952,0.8238260746002197,0.3418714106082916,-0.6482277512550354,-0.4096105992794037,-0.543271541595459
271039,9.631754875183104,0.2514898180961609,2.0043423175811768,0.1933054476976394,-0.628369152545929,0.8146182894706726,0.6418748497962952,-0.3418590128421783,-0.5329231023788452,-0.4325763583183288,9.59615707397461,0.0864726155996322,-1.7330833673477173,0.3764746487140655,-0.1934399157762527,0.6854406595230103,0.3419228196144104,-0.6482135653495789,-0.4096576571464538,-0.5432206988334656
271205,9.595590591430664,0.2610147893428802,1.9761481285095213,0.4516735374927521,-0.6980229020118713,0.7787733674049377,0.6418665051460266,-0.3418881893157959,-0.5329462885856628,-0.432536780834198,9.586946487426758,0.0833470895886421,-1.715917944908142,0.5152058601379395,-0.0956890508532524,0.5461076498031616,0.3419748842716217,-0.6481809616088867,-0.4097168445587158,-0.5431819558143616
271372,9.624213218688965,0.2742900550365448,1.9999701976776123,0.5738204717636108,-0.4420239329338074,0.7436454892158508,0.6418683528900146,-0.3419043123722076,-0.5329443216323853,-0.4325238466262817,9.518790245056152,0.0977295786142349,-1.7019023895263672,0.6562678217887878,-0.2271846681833267,0.6805999279022217,0.3420617878437042,-0.6481470465660095,-0.4098013639450073,-0.5431041121482849
271539,9.612785339355469,0.2510755360126495,1.976750731468201,0.5663543939590454,-0.3431589305400848,0.7586673498153687,0.6419110298156738,-0.3418751657009125,-0.5329577326774597,-0.4324669539928436,9.530226707458496,0.0915553718805313,-1.7180622816085815,0.7112839221954346,-0.7813155055046082,0.7839343547821045,0.3420933187007904,-0.6481860876083374,-0.4098672270774841,-0.5429878830909729
271705,9.600810050964355,0.2428182661533355,1.9160248041152956,1.0941168069839478,-0.6559028029441833,0.8460834622383118,0.6419467329978943,-0.3418416082859039,-0.5330176949501038,-0.4323665499687195,9.648947715759276,0.1706277877092361,-1.740064263343811,0.2693111002445221,-0.912375509738922,0.1370727568864822,0.3420307636260986,-0.6482143998146057,-0.4099728167057037,-0.5429137349128723
271872,9.605916023254396,0.2914996445178985,1.9428976774215696,0.8796745538711548,-0.247764453291893,0.762458086013794,0.6420081853866577,-0.3417836129665375,-0.5330383777618408,-0.4322957396507263,9.680639266967772,0.1656964123249054,-1.7507644891738892,-0.7353020906448364,-0.3238341510295868,-0.2098448425531387,0.3418899774551391,-0.6482182741165161,-0.4100140631198883,-0.5429666042327881
272039,9.660414695739746,0.3581927716732025,1.9912281036376955,0.7109124660491943,0.6193855404853821,0.168153777718544,0.6420871019363403,-0.34164559841156,-0.532994270324707,-0.4323421716690063,9.653470993041992,0.0933920666575431,-1.7231621742248535,-0.8707677125930786,0.0881012827157974,0.2532391548156738,0.3417992889881134,-0.6482229828834534,-0.4099822044372558,-0.5430423021316528
272205,9.68540859222412,0.3636305332183838,2.065412759780884,-0.4048599302768707,0.0846947953104972,1.0206340551376345,0.6421282291412354,-0.3417041003704071,-0.5328922271728516,-0.4323605597019195,9.62052059173584,0.1152250096201896,-1.7032194137573242,-0.9220443964004515,0.5348123908042908,0.6446268558502197,0.3417542576789856,-0.6482232213020325,-0.4098793864250183,-0.5431480407714844
272372,9.62043571472168,0.251207947731018,2.021641969680786,-0.5095390677452087,-0.2619538605213165,0.6461251378059387,0.6421059370040894,-0.3417747020721435,-0.5328283905982971,-0.432416707277298,9.572487831115724,0.0941865444183349,-1.6724326610565186,-0.99843430519104,0.6269028186798096,0.6504665613174438,0.3417163789272308,-0.6482142806053162,-0.4097746312618255,-0.5432614684104919
272539,9.615398406982422,0.2442370802164077,2.0456478595733643,-0.0810129716992378,-0.2739918529987335,-0.0287118386477231,0.6420619487762451,-0.3417532742023468,-0.5328262448310852,-0.432501345872879,9.553470611572266,0.0584550686180591,-1.6759300231933594,-0.856680691242218,0.5159742832183838,0.6601353287696838,0.3416833281517029,-0.6482094526290894,-0.4096826314926147,-0.5433574914932251
272705,9.605542182922363,0.2688807249069214,1.991976022720337,0.2602314054965973,-0.4540362954139709,0.4177238941192627,0.642060399055481,-0.3417321145534515,-0.5328486561775208,-0.4324927628040313,9.513745307922363,0.039499208331108,-1.6831741333007812,-0.3081079423427582,0.2413036227226257,0.6106259822845459,0.3416950404644012,-0.6481866836547852,-0.4096669256687164,-0.5433890223503113
272872,9.5900239944458,0.2529072165489197,1.9997360706329343,0.5736923813819885,-0.549917459487915,0.5974609851837158,0.6420696973800659,-0.3417125642299652,-0.5328840613365173,-0.432450920343399,9.545512199401855,0.0564218237996101,-1.6841254234313965,0.299342006444931,-0.1886119097471237,0.7139731645584106,0.3417325317859649,-0.6481841802597046,-0.4096944630146026,-0.5433476567268372
273039,9.595627784729004,0.2512150704860687,1.973076581954956,0.7199282646179199,-0.460285872220993,0.7326449155807495,0.6420944929122925,-0.3416934311389923,-0.5329076647758484,-0.432400107383728,9.55711555480957,0.0801316648721695,-1.6740095615386963,0.6326912641525269,-0.4708766639232635,0.6641564965248108,0.3417770266532898,-0.6481879353523254,-0.4097615480422973,-0.543264627456665
273206,9.583584785461426,0.2471780925989151,1.9676443338394165,0.6517855525016785,-0.3379083275794983,0.5790454745292664,0.6421138048171997,-0.3416635990142822,-0.5329217314720154,-0.4323775768280029,9.596869468688965,0.0784781724214553,-1.7296879291534424,0.7486912608146667,-0.7044773697853088,0.6963005065917969,0.3418269455432892,-0.648201584815979,-0.4098535776138305,-0.5431474447250366
273372,9.602619171142578,0.2522972226142883,1.981234669685364,0.6077316999435425,-0.1903920024633407,0.7873919606208801,0.642158567905426,-0.3416408896446228,-0.5329114198684692,-0.432341605424881,9.603337287902832,0.1133728623390197,-1.7282506227493286,0.754274845123291,-0.8794121146202087,0.6078470349311829,0.3418460786342621,-0.6482336521148682,-0.4099473059177398,-0.543026328086853
273539,9.613935470581056,0.2763225138187408,1.9551727771759035,0.7037922143936157,-0.2939569354057312,0.7305318117141724,0.6422014236450195,-0.3416053652763366,-0.5329235792160034,-0.4322910904884338,9.638643264770508,0.1228673458099365,-1.7096810340881348,0.4059932827949524,-0.7835820317268372,0.6086664795875549,0.3418493866920471,-0.6482676267623901,-0.4100211560726166,-0.5429279208183289
273706,9.625934600830078,0.2829406261444092,2.0048184394836426,0.8005056977272034,-0.3520977795124054,0.6739405989646912,0.6422398686408997,-0.3415614664554596,-0.5329492688179016,-0.432236909866333,9.624338150024414,0.1094941720366478,-1.7052372694015503,0.1417214572429657,-0.5197840929031372,0.7266514301300049,0.34184131026268,-0.6483091115951538,-0.4100368916988373,-0.5428715944290161
273872,9.651801109313965,0.2707460522651672,2.013859272003174,0.6862346529960632,-0.5944195985794067,0.7684770226478577,0.6422566771507263,-0.3415546715259552,-0.5329832434654236,-0.4321753680706024,9.597929000854492,0.1076115444302558,-1.722183346748352,-0.1149754002690315,-0.3832812309265136,0.6474698185920715,0.3418112099170685,-0.6483475565910339,-0.4100334644317627,-0.542847216129303
274039,9.637459754943848,0.2762133181095123,2.013317584991455,0.682776927947998,-0.72599196434021,0.7868030071258545,0.6422551870346069,-0.3415694236755371,-0.5330211520195007,-0.4321192502975464,9.489434242248535,0.0788947120308876,-1.69588041305542,-0.13706636428833,-0.3909266293048858,0.6385181546211243,0.3417958915233612,-0.6483739018440247,-0.4100502729415893,-0.5428126454353333
274206,9.616096496582031,0.2792966663837433,2.023071050643921,0.4764410257339477,-0.7694054245948792,0.5336469411849976,0.6422193050384521,-0.3415925502777099,-0.5330590009689331,-0.4321078360080719,9.517462730407717,0.0829505249857902,-1.707544445991516,-0.0214890539646148,-1.0904221534729004,0.6644126176834106,0.3417348265647888,-0.6484639644622803,-0.4100885987281799,-0.542714536190033
274372,9.591872215270996,0.2525585293769836,1.9180881977081297,0.4896699786186218,-1.2930058240890503,0.6382748484611511,0.6421451568603516,-0.3416616320610046,-0.5331372618675232,-0.4320668876171112,9.561396598815918,0.1002714186906814,-1.7198258638381958,-0.0437592975795269,-1.2285131216049194,0.3886407017707824,0.3416557610034942,-0.6485392451286316,-0.4101743698120117,-0.5426095724105835
274539,9.578786849975586,0.2766997218132019,1.9418809413909912,0.4816020429134369,-1.0581631660461426,0.6940593123435974,0.6421136856079102,-0.3416945040225982,-0.5332072377204895,-0.4320012629032135,9.576441764831545,0.1005458831787109,-1.7218549251556396,-0.2072451561689376,-1.2572633028030396,0.004040403291583,0.3415266871452331,-0.6486040949821472,-0.4102815985679626,-0.5425323247909546
274706,9.61217975616455,0.3105363845825195,1.953395962715149,0.2349132597446441,-0.4048599004745483,0.3003024756908417,0.6420907974243164,-0.341684877872467,-0.5332167148590088,-0.4320309162139892,9.615240097045898,0.1073894947767257,-1.7801941633224487,-0.3173157274723053,-1.167324423789978,-0.0526981279253959,0.3413864970207214,-0.6486649513244629,-0.4103791415691376,-0.5424739122390747
274872,9.615863800048828,0.2923763990402221,1.9513860940933228,0.0151050882413983,-0.5660534501075745,0.3299363851547241,0.6420542001724243,-0.3416982889175415,-0.5332324504852295,-0.4320554137229919,9.6416597366333,0.1142254993319511,-1.7630844116210938,-0.3482559025287628,-1.0668201446533203,-0.019171105697751,0.3412609994411468,-0.6487149000167847,-0.4104766547679901,-0.54241943359375
