sampleTimeFine,W4_acc_x,W4_acc_y,W4_acc_z,W4_gyro_x,W4_gyro_y,W4_gyro_z,W4_quat_w,W4_quat_x,W4_quat_y,W4_quat_z,W5_acc_x,W5_acc_y,W5_acc_z,W5_gyro_x,W5_gyro_y,W5_gyro_z,W5_quat_w,W5_quat_x,W5_quat_y,W5_quat_z
896528,0.0,0.0,0.0,0.0,0.0,0.0,0.6727674603462219,-0.3083372712135315,-0.4800310134887695,-0.4710436761379242,0.0,0.0,0.0,0.0,0.0,0.0,0.3566035330295563,-0.6017099618911743,-0.4074521362781524,-0.5871642231941223
896695,9.235026359558104,0.3366638422012329,3.353355646133423,0.3548831343650818,0.259744793176651,0.3808160126209259,0.6727119088172913,-0.3086152076721191,-0.479750782251358,-0.4712266325950622,9.78930950164795,0.5641109347343445,-0.5121557712554932,-0.0867117866873741,0.0220461301505565,-0.7947108149528503,0.3562135696411133,-0.6015578508377075,-0.4073123931884765,-0.587653398513794
896862,9.19534683227539,0.3969768583774566,3.4737863540649414,0.8879987597465515,1.036911129951477,0.2190462201833725,0.6726601719856262,-0.3089573085308075,-0.4801571071147918,-0.4706624150276184,9.764248847961426,0.6030488610267639,-0.5099183917045593,-0.5271861553192139,0.0644223392009735,-0.9004784822463989,0.355567067861557,-0.6011238098144531,-0.4074451923370361,-0.5883969068527222
897028,9.19493293762207,0.4367621839046478,3.461146354675293,0.4176086485385895,-0.4810833632946014,-0.1998558938503265,0.6725661754608154,-0.3088502585887909,-0.4802379310131073,-0.4707842767238617,9.771540641784668,0.591582179069519,-0.512388288974762,-0.9387567043304444,-0.0814996138215065,-0.4255422055721283,0.3551819622516632,-0.6004102230072021,-0.4080687165260315,-0.5889256596565247
897195,9.256007194519045,0.3884907960891723,3.4247469902038574,0.65606290102005,0.4118329882621765,-0.2277225404977798,0.6724029183387756,-0.3085059821605682,-0.4801862239837646,-0.4712957441806793,9.778890609741213,0.5815315842628479,-0.5098134279251099,-0.9127597212791444,0.2081095874309539,0.2906593084335327,0.3547857999801636,-0.6000201106071472,-0.408301830291748,-0.5894003510475159
897362,9.18282413482666,0.3520173132419586,3.471151828765869,0.9945218563079834,0.4195552468299866,0.2453632354736328,0.6724607348442078,-0.3081544637680053,-0.4803108274936676,-0.4713161587715149,9.777425765991213,0.5776674151420593,-0.4825958013534546,-0.8913091421127319,0.3252364695072174,0.7910162210464478,0.3545446991920471,-0.5998115539550781,-0.408336728811264,-0.5897332429885864
897528,9.187106132507324,0.3775284886360168,3.451349973678589,0.6433205008506775,-0.1526516675949096,0.5772398114204407,0.6727133393287659,-0.3078621327877044,-0.4803788363933563,-0.4710773229598999,9.76120376586914,0.565401017665863,-0.5063130259513855,-0.7874624133110046,0.6647839546203613,1.0311609506607056,0.3546909987926483,-0.5994820594787598,-0.408471405506134,-0.5898871421813965
897695,9.17152976989746,0.3705912232398987,3.452345609664917,0.2922728955745697,-0.3031775057315826,0.4497654139995575,0.6728834509849548,-0.3076891303062439,-0.4804046154022217,-0.4709212779998779,9.71456241607666,0.4964654445648193,-0.485986977815628,-0.5148664712905884,0.497020810842514,1.171672224998474,0.3547442853450775,-0.5993593335151672,-0.4084131419658661,-0.5900200605392456
897862,9.158366203308104,0.3740462362766266,3.4448282718658447,0.0222382266074419,-0.3791703879833221,0.3462388515472412,0.6730211973190308,-0.3075773417949676,-0.4804093241691589,-0.4707925021648407,9.716224670410156,0.4591842591762543,-0.4975500106811523,0.1286589950323104,0.082005463540554,1.1942113637924194,0.3549545407295227,-0.5992907285690308,-0.408374011516571,-0.5899903178215027
898028,9.182019233703612,0.3600344657897949,3.4640040397644043,0.1648113131523132,-0.3142422139644623,0.3068849742412567,0.6729422211647034,-0.307683378458023,-0.480281114578247,-0.4709670841693878,9.735187530517578,0.4419651925563812,-0.5083392262458801,0.9594837427139282,-0.308364063501358,1.2959065437316897,0.3553307354450226,-0.5992487668991089,-0.4084086716175079,-0.5897825360298157
898195,9.175321578979492,0.3413093090057373,3.458890199661255,0.4704348742961883,-0.3714866042137146,0.5077269673347473,0.6729713678359985,-0.3077096343040466,-0.4802179038524627,-0.4709728062152862,9.779500007629396,0.4689917266368866,-0.5190191864967346,1.5561569929122925,-0.4009027481079101,1.1883970499038696,0.3556819260120392,-0.5992853045463562,-0.4083841145038605,-0.5895504951477051
898362,9.186367988586426,0.3330453336238861,3.4279136657714844,0.7471031546592712,-0.2498134523630142,0.6678062081336975,0.6731046438217163,-0.3076609969139099,-0.480195015668869,-0.4708372354507446,9.81277847290039,0.5370070934295654,-0.502638041973114,1.8112084865570068,-0.2428723722696304,0.8246840238571167,0.3560890853404999,-0.5992498993873596,-0.4084673225879669,-0.5892832279205322
898528,9.207776069641112,0.3712506890296936,3.4392311573028564,0.6240214109420776,0.0389248989522457,0.8104561567306519,0.6733198165893555,-0.3075718581676483,-0.4801836609840393,-0.4705993235111236,9.762310981750488,0.5358659029006958,-0.5319283604621887,1.6436759233474731,-0.1236197054386138,0.597691535949707,0.3564579486846924,-0.599172055721283,-0.4085921943187713,-0.5890527367591858
898695,9.190951347351074,0.3803834915161133,3.4539198875427246,0.5001968741416931,0.1254446059465408,0.8157068490982056,0.6734424829483032,-0.3075718283653259,-0.4801196157932281,-0.4704891741275787,9.748598098754885,0.5621124505996704,-0.5256043076515198,1.3153849840164185,-0.3832940459251404,0.7870718240737915,0.3566180765628814,-0.5992493033409119,-0.4085546731948852,-0.5889031291007996
898862,9.150238990783691,0.3604550361633301,3.4489192962646484,0.4765306711196899,-0.4464933574199676,0.8167953491210938,0.6735308170318604,-0.3075925409793854,-0.480127215385437,-0.4703413844108581,9.728785514831545,0.571857750415802,-0.5432877540588379,1.039433836936951,-0.6827321648597717,0.8070369362831116,0.3567627668380737,-0.5993240475654602,-0.4085820913314819,-0.5887206196784973
899028,9.266363143920898,0.3410402238368988,3.337428092956543,0.9380331039428712,-0.6936303377151489,1.0244630575180054,0.6736413240432739,-0.3075917065143585,-0.4801861345767975,-0.4701235294342041,9.780630111694336,0.5903478264808655,-0.5379120707511902,0.4357680380344391,-0.8325023651123047,0.7095678448677063,0.3568441569805145,-0.5994117856025696,-0.4086255431175232,-0.5885517001152039
899195,9.157440185546877,0.4235305190086365,3.48832631111145,0.7627909779548645,0.2137315571308136,0.863564133644104,0.6736771464347839,-0.3076599538326263,-0.4801185131072998,-0.4700967073440552,9.803744316101074,0.5655569434165955,-0.5303282141685486,-0.021770792081952,-0.638934314250946,0.7180967926979065,0.3568430840969085,-0.5995251536369324,-0.408597856760025,-0.5884559750556946
899362,9.24476718902588,0.4062133133411407,3.392088890075684,0.5702604055404663,-0.7604154944419861,0.5140405297279358,0.6736476421356201,-0.3077305555343628,-0.480167955160141,-0.4700421988964081,9.77932834625244,0.5380936861038208,-0.5567235350608826,-0.4392833709716797,-0.4912515580654144,0.8010947704315186,0.3567235767841339,-0.5997112393379211,-0.4084323942661285,-0.5884537100791931
899528,9.193846702575684,0.3921741545200348,3.444378137588501,0.4311321377754211,0.1769261211156845,0.5583760738372803,0.6737130284309387,-0.3077086508274078,-0.4801604151725769,-0.4699705243110657,9.7890625,0.5282562971115112,-0.5372235774993896,-0.4088426828384399,-0.3869182169437408,0.9392111897468568,0.356647789478302,-0.5998798608779907,-0.4082814455032348,-0.5884326696395874
899695,9.222949028015137,0.3589753210544586,3.4245731830596924,0.7579245567321777,-0.2693303525447845,1.0178167819976809,0.6738285422325134,-0.3076760768890381,-0.480222076177597,-0.4697631597518921,9.77583122253418,0.500566840171814,-0.5382566452026367,-0.2536425590515136,-0.1366821527481079,1.0497429370880127,0.3566954135894775,-0.5999668836593628,-0.4082059562206268,-0.5883673429489136
899862,9.204516410827637,0.3657655715942383,3.4425840377807617,0.3725302815437317,-0.1477468609809875,1.0441080331802368,0.6738730669021606,-0.3077433109283447,-0.4802040755748749,-0.4696735441684723,9.770563125610352,0.5049862265586853,-0.5235016942024231,-0.1016183719038963,0.0463013537228107,0.9094108939170836,0.3567744195461273,-0.6000135540962219,-0.4081577360630035,-0.5883052349090576
900028,9.18389892578125,0.3549904227256775,3.451023817062378,0.2190974205732345,-0.1810177415609359,0.9494690895080566,0.6739251613616943,-0.3077983558177948,-0.4801962077617645,-0.4695707559585571,9.757593154907228,0.487229973077774,-0.5482262372970581,-0.0233203619718551,0.1266611963510513,0.8364146947860718,0.3568949103355407,-0.600021481513977,-0.4081485271453857,-0.5882304906845093
900195,9.187837600708008,0.386802613735199,3.4224231243133545,0.1162624433636665,-0.3553377687931061,0.8105074763298035,0.6739886403083801,-0.3078291416168213,-0.4802242517471313,-0.4694308638572693,9.752392768859863,0.4834997355937958,-0.5408482551574707,0.3281306624412536,-0.0589348226785659,0.6341255903244019,0.3569160997867584,-0.6000900864601135,-0.4080880582332611,-0.5881896018981934
900362,9.185420036315918,0.3562617599964142,3.447163343429565,0.054433386772871,-0.3339255452156067,0.7012052536010742,0.6740216612815857,-0.3078753054141998,-0.4802402257919311,-0.4693368673324585,9.75137996673584,0.4890153706073761,-0.5262435078620911,0.5373480916023254,-0.0299924723803997,0.6803309321403503,0.3569520115852356,-0.6001579761505127,-0.4080250561237335,-0.5881423354148865
900528,9.185898780822754,0.3155321180820465,3.414250135421753,0.4698585271835327,-0.6317500472068787,0.7978419661521912,0.6740468144416809,-0.3079220652580261,-0.4802979826927185,-0.4692110121250152,9.795380592346191,0.5243046283721924,-0.5326086282730103,0.5923128724098206,-0.0394051410257816,0.6314747333526611,0.3570434153079986,-0.600183367729187,-0.4080235958099365,-0.5880618691444397
900695,9.21806526184082,0.3565777242183685,3.4114551544189453,0.6445499062538147,-0.6100432872772217,0.6507610082626343,0.6740142703056335,-0.3080042898654938,-0.4803324937820434,-0.469168484210968,9.78095531463623,0.5470488667488098,-0.5225411057472229,0.4828057587146759,0.2136162966489792,0.596551775932312,0.3571605086326599,-0.6001719236373901,-0.4080284237861633,-0.587999165058136
900862,9.205406188964844,0.3624109625816345,3.42757248878479,0.5616416335105896,-0.3533783853054046,0.7410586476325989,0.6740128993988037,-0.3080722689628601,-0.4803420603275299,-0.4691158831119537,9.762012481689451,0.5535110831260681,-0.5205849409103394,0.2793641090393066,0.2941426336765289,0.6279658079147339,0.3571986854076385,-0.6002087593078613,-0.4079428315162658,-0.5879976153373718
901028,9.207711219787598,0.3596985042095184,3.4544517993927,0.3323183357715606,-0.3921304643154144,0.5953992009162903,0.6740659475326538,-0.3080754280090332,-0.4803975224494934,-0.4689807891845703,9.774182319641112,0.5676406621932983,-0.5148379802703857,0.0545998699963092,0.402420312166214,0.7250122427940369,0.3572649955749511,-0.6002263426780701,-0.4078618586063385,-0.5879956483840942
901195,9.199091911315918,0.3686500191688537,3.4620580673217773,0.3528597354888916,-0.238710343837738,0.5830667018890381,0.6739656329154968,-0.3082331120967865,-0.4803298115730285,-0.4690906107425689,9.772727012634276,0.5365428924560547,-0.5100051760673523,-0.2107156813144683,0.5155771970748901,0.7690148949623108,0.3573866188526153,-0.6001982092857361,-0.4078225195407867,-0.5879778265953064
901362,9.192237854003906,0.3714169263839721,3.4444029331207275,0.5693254470825195,-0.3218363523483276,0.6220363974571228,0.6740068197250366,-0.3082386255264282,-0.4803697764873504,-0.4689868986606598,9.764975547790527,0.5047475695610046,-0.4970895946025848,-0.2786405682563782,0.6197056174278259,0.7590387463569641,0.3574279546737671,-0.6002172231674194,-0.4076918959617615,-0.5880237221717834
901529,9.192465782165527,0.365586906671524,3.451685667037964,0.5757542848587036,-0.2880788445472717,0.6094350218772888,0.6739771962165833,-0.308313250541687,-0.4803592562675476,-0.4689910411834717,9.77239227294922,0.4918502569198608,-0.5126534104347229,-0.248135820031166,0.6174517273902893,0.911690354347229,0.3575102388858795,-0.6002264618873596,-0.4075730741024017,-0.5880467295646667
901695,9.181995391845703,0.3473889827728271,3.445286273956299,0.3839279413223266,-0.3026780486106872,0.5101088881492615,0.6741002798080444,-0.3082269728183746,-0.4804514944553375,-0.4687764942646026,9.779550552368164,0.4936842918395996,-0.505635142326355,-0.0492788292467594,0.8414731621742249,0.9730328321456908,0.3577138781547546,-0.6001518368721008,-0.40753835439682,-0.5880231857299805
901862,9.188438415527344,0.3549993634223938,3.442650318145752,0.5112742781639099,-0.2527845203876495,0.578366756439209,0.674111008644104,-0.3082595765590668,-0.4804597795009613,-0.4687311947345733,9.774983406066896,0.4865373969078064,-0.4829300940036773,0.0538314953446388,0.8707870244979858,0.8274632096290588,0.3578216433525085,-0.6001266241073608,-0.4074248671531677,-0.5880619883537292
902029,9.188071250915527,0.3485485315322876,3.45023512840271,0.5487073063850403,-0.2364308387041092,0.6557940244674683,0.6741646528244019,-0.3082572221755981,-0.4804876446723938,-0.4686269164085388,9.77216339111328,0.4895918071269989,-0.4599360823631286,0.2187260687351226,0.8522177338600159,0.8244664072990417,0.3579624593257904,-0.6000808477401733,-0.407343327999115,-0.5880793333053589
902195,9.19583511352539,0.3497735261917114,3.422872304916382,0.4508411586284637,-0.2919207811355591,0.8094574213027954,0.6742164492607117,-0.3082838654518127,-0.4805032014846802,-0.468519002199173,9.756162643432615,0.4848071336746216,-0.4689476191997528,0.4187228381633758,0.7538778185844421,0.7684770226478577,0.3580999076366424,-0.6000365614891052,-0.4072747826576233,-0.58808833360672
902362,9.196556091308594,0.3336092829704284,3.467573881149292,0.3528725504875183,-0.5505449175834656,0.745617687702179,0.6742173433303833,-0.3083579242229461,-0.4805252254009247,-0.4684464037418365,9.769563674926758,0.4946934282779693,-0.4866473972797394,0.5887399315834045,0.596001148223877,0.9273397922515868,0.3582333028316498,-0.6000224947929382,-0.4071886241436004,-0.5880812406539917
902529,9.202738761901855,0.3410583436489105,3.441361427307129,0.2825913429260254,-0.4120699465274811,0.7420063614845276,0.6741011738777161,-0.3085569441318512,-0.4804451167583465,-0.4685646295547485,9.764423370361328,0.5174201726913452,-0.4853146970272064,0.6120986938476562,0.4280714392662048,1.0982789993286133,0.3583357632160187,-0.6000574827194214,-0.4070590138435364,-0.5880727171897888
902695,9.181971549987791,0.3306583166122436,3.4393789768218994,0.5778033137321472,-0.3806815445423126,0.7402134537696838,0.6741036176681519,-0.3086194097995758,-0.4804496765136719,-0.4685153663158417,9.759586334228516,0.5120784640312195,-0.4828746020793915,0.6342408657073975,0.2529702186584472,1.1603256464004517,0.3584850132465362,-0.6000743508338928,-0.4069870710372925,-0.5880144238471985
902862,9.186631202697754,0.3379414081573486,3.4450879096984863,0.8009666800498962,-0.4642429947853088,0.8010947704315186,0.6741549968719482,-0.3086288869380951,-0.4805008769035339,-0.4683825969696045,9.758808135986328,0.5112806558609009,-0.5178475975990295,0.6216138005256653,-0.0507515668869018,1.227840781211853,0.358607679605484,-0.6001299023628235,-0.4069110155105591,-0.5879353284835815
903029,9.183724403381348,0.327843427658081,3.424277067184448,0.6295154094696045,-0.5097055435180664,0.8360818028450012,0.6741523742675781,-0.3087080419063568,-0.4805123209953308,-0.468322604894638,9.762357711791992,0.4982746243476867,-0.4684604406356811,0.5279609560966492,-0.0900158286094665,1.3117350339889526,0.3587525486946106,-0.6001808643341064,-0.4068499505519867,-0.5878374576568604
903195,9.21624755859375,0.3443906605243683,3.410040855407715,0.4910658597946167,-0.497321754693985,0.8026699423789978,0.6741109490394592,-0.3088301718235016,-0.4804939329624176,-0.4683204293251037,9.78018569946289,0.4896857440471649,-0.4817996621131897,0.4461155831813812,-0.1660983562469482,1.2926921844482422,0.3588783740997314,-0.6002446413040161,-0.4067809283733368,-0.5877431035041809
903362,9.213264465332031,0.3358494341373443,3.424757480621338,0.4976099729537964,-0.2153515666723251,0.8213416337966919,0.6741782426834106,-0.3088439106941223,-0.4805066287517547,-0.4682014286518097,9.771175384521484,0.490005612373352,-0.4986826181411743,0.435537576675415,-0.1876642554998397,1.3208661079406738,0.3589956164360046,-0.6003184914588928,-0.4067002534866333,-0.5876519083976746
903529,9.185730934143066,0.3308766186237335,3.4260921478271484,0.5083032250404358,-0.3713584840297699,0.91986083984375,0.6742689609527588,-0.3088463246822357,-0.4805493652820587,-0.4680252373218536,9.77732753753662,0.4919915497303009,-0.4973016679286957,0.3834029138088226,-0.2438841313123703,1.201741337776184,0.3590699136257171,-0.6004099249839783,-0.406603455543518,-0.5875800848007202
903695,9.18333911895752,0.3395086228847503,3.4383816719055176,0.4665032625198364,-0.5245480537414551,0.8655107021331787,0.6742590665817261,-0.3089464008808136,-0.4805508553981781,-0.4679720997810364,9.763623237609863,0.4812816083431244,-0.4886879920959472,0.3811233639717102,-0.2773599028587341,1.3247079849243164,0.3591978549957275,-0.6004800200462341,-0.4065443277359009,-0.5874711871147156
903862,9.187378883361816,0.3469953536987304,3.4281094074249268,0.3738365471363067,-0.3778001070022583,0.7321325540542603,0.6742560267448425,-0.3090258836746216,-0.4805437326431274,-0.467931181192398,9.762423515319824,0.466055154800415,-0.4898584485054016,0.4318877756595611,-0.3815395832061767,1.4770524501800537,0.3593326210975647,-0.600568413734436,-0.4064770638942718,-0.5873450040817261
904029,9.185269355773926,0.3479609787464142,3.444556474685669,0.3176679015159607,-0.531296968460083,0.7548766732215881,0.6742680072784424,-0.3090949356555938,-0.4805648028850555,-0.4678466916084289,9.758926391601562,0.466064453125,-0.5160934925079346,0.5382700562477112,-0.5868765115737915,1.6401152610778809,0.3594125509262085,-0.6007242798805237,-0.4063472151756286,-0.5872266888618469
904195,9.168952941894531,0.3441337347030639,3.423934936523437,0.5055754780769348,-0.785912811756134,0.6561397314071655,0.6742492318153381,-0.3091705739498138,-0.4806180596351623,-0.467769056558609,9.74526023864746,0.457124650478363,-0.502766489982605,0.8022857308387756,-0.6599751710891724,1.5673497915267944,0.3595084846019745,-0.6008661389350891,-0.4062539339065552,-0.5870872139930725
904362,9.221542358398438,0.3386813402175903,3.409052610397339,0.2913508415222168,-0.6172659993171692,0.6458690166473389,0.6742814183235168,-0.3092038035392761,-0.4806734621524811,-0.4676437675952911,9.709095001220703,0.4366149604320526,-0.5273515582084656,0.9444490075111388,-0.8731496930122375,1.4979265928268433,0.3596172630786896,-0.6010019779205322,-0.4062091708183288,-0.5869125723838806
904529,9.234271049499512,0.3258032202720642,3.422938108444214,0.0377211049199104,-0.4206758141517639,0.4285708665847778,0.6742700338363647,-0.3092651665210724,-0.4806824624538421,-0.4676104485988617,9.839855194091797,0.4328351318836212,-0.5348709225654602,1.2328096628189087,-1.055435299873352,1.2786563634872437,0.359809011220932,-0.6010657548904419,-0.4063068926334381,-0.5866618752479553
904695,9.161831855773926,0.3100035190582275,3.4033656120300293,0.162698283791542,-0.4298835694789886,0.3743616342544555,0.6742292046546936,-0.3093428909778595,-0.4806832671165466,-0.4676170945167541,9.787131309509276,0.4533675014972687,-0.5119938850402832,1.3504358530044556,-0.697907567024231,1.1656274795532229,0.3599914014339447,-0.601108729839325,-0.406373530626297,-0.5864598751068115
904862,9.191971778869627,0.3186722695827484,3.352912425994873,0.3997822105884552,-0.4671884775161743,0.5130800008773804,0.6742649674415588,-0.3093494474887848,-0.4807365536689758,-0.4675063788890838,9.789551734924316,0.5020003914833069,-0.5039715766906738,1.165461182594299,-0.6481293439865112,0.6328065991401672,0.360055148601532,-0.6011670827865601,-0.4064068496227264,-0.5863378643989563
905029,9.240114212036133,0.340720921754837,3.3852126598358154,0.740507960319519,0.5965645909309387,0.4197088778018951,0.6743066310882568,-0.3093236088752746,-0.4806631207466125,-0.4675386548042297,9.804362297058104,0.5179294347763062,-0.490125298500061,0.8589282631874084,-0.4046934247016907,0.1698954552412033,0.3600612878799438,-0.6011961102485657,-0.4064374566078186,-0.5862831473350525
905195,9.199933052062988,0.3984180986881256,3.489355564117432,0.533723771572113,-0.3491522967815399,0.0253629740327596,0.6742812395095825,-0.3093182444572449,-0.4807109832763672,-0.4675295650959015,9.789048194885254,0.5259206295013428,-0.506698489189148,0.3332660496234894,-0.2412716001272201,0.1770925968885421,0.3600606024265289,-0.6012173891067505,-0.4064453244209289,-0.586256206035614
905362,9.2846097946167,0.3853364884853363,3.4171950817108154,0.5107107758522034,-0.1255406439304351,-0.3912211656570434,0.6741979122161865,-0.309314489364624,-0.4807242751121521,-0.4676385819911957,9.796025276184082,0.5058295130729675,-0.5207065343856812,-0.0196449421346187,0.0570842996239662,0.4526340365409851,0.3601499199867248,-0.6011912226676941,-0.4064674079418182,-0.5862128734588623
905529,9.177141189575195,0.3371490836143493,3.4489998817443848,0.6563317775726318,0.6621074676513672,0.0743344575166702,0.674256443977356,-0.3092240989208221,-0.4806831479072571,-0.4676563143730163,9.77145767211914,0.524194598197937,-0.4889997243881225,-0.3215546011924743,0.2731658518314361,0.7995452284812927,0.3601901531219482,-0.6012271046638489,-0.4063568413257599,-0.5862280130386353
905695,9.152665138244627,0.3573806881904602,3.474217653274536,0.3042084276676178,-0.3201075196266174,0.4372023642063141,0.6742558479309082,-0.3092595934867859,-0.480697751045227,-0.4676186144351959,9.762129783630373,0.5051739811897278,-0.4981028735637665,-0.5087578892707825,0.3501960635185241,1.0831674337387085,0.3602792024612427,-0.6012563109397888,-0.4062404334545135,-0.5862240195274353
905862,9.158652305603027,0.3413946032524109,3.453675508499145,0.5506794452667236,-0.74338299036026,0.5102369785308838,0.67417311668396,-0.3093751668930053,-0.4807205200195312,-0.4676381945610046,9.749860763549805,0.4816743731498718,-0.4871606528759002,-0.4829530715942383,0.3916245996952057,1.2618800401687622,0.3603846728801727,-0.6012925505638123,-0.4061059951782226,-0.586215078830719
906029,9.181683540344238,0.3410629034042358,3.4345357418060303,0.5149624943733215,-0.5127150416374207,0.4104883372783661,0.6741466522216797,-0.3094213306903839,-0.4807540476322174,-0.4676112830638885,9.73495864868164,0.4183058142662048,-0.4937730729579925,-0.2447293400764465,0.1129712238907814,1.3915444612503052,0.360451340675354,-0.6013847589492798,-0.4059396088123321,-0.5861948132514954
906195,9.158323287963867,0.3466564416885376,3.457138061523437,0.4186716079711914,-0.5160703063011169,0.3446764945983886,0.6741422414779663,-0.309440553188324,-0.4808046221733093,-0.467552900314331,9.748993873596191,0.4157642126083374,-0.5179096460342407,0.2050232589244842,-0.0632505640387535,1.6265664100646973,0.360592782497406,-0.6014650464057922,-0.4058253467082977,-0.5861044526100159
906362,9.17371654510498,0.330062985420227,3.421782970428467,0.3123148679733276,-0.4976419806480407,0.2823352217674255,0.6740977168083191,-0.3094980120658874,-0.4808264374732971,-0.4675566256046295,9.795049667358398,0.4299767911434173,-0.4969115555286407,0.5448781847953796,-0.2943027019500732,1.4833275079727173,0.3606565594673157,-0.6015958189964294,-0.4056802093982696,-0.5860313773155212
906529,9.182419776916504,0.3254384398460388,3.4232707023620605,0.3313706517219543,-0.3642509877681732,0.3412956297397613,0.6741143465042114,-0.3095003664493561,-0.4808647632598877,-0.4674917459487915,9.813310623168944,0.4845420122146606,-0.493050217628479,0.6984903216362,-0.1896108090877533,1.20737624168396,0.3607890605926513,-0.6016435623168945,-0.4056408107280731,-0.5859283208847046
906695,9.192130088806152,0.3504003286361694,3.442951440811157,0.3755526542663574,-0.0298131816089153,0.3818021118640899,0.674092173576355,-0.3095474541187286,-0.4808269143104553,-0.4675314724445343,9.74594020843506,0.4851531088352203,-0.5168890953063965,0.4946388304233551,-0.0786694064736366,0.9807935357093812,0.360860675573349,-0.6016991138458252,-0.4055675566196441,-0.5858777165412903
906862,9.202180862426758,0.3643438518047333,3.4690253734588623,0.2084681391716003,-0.0420816615223884,0.3370438814163208,0.6741035580635071,-0.3095621466636657,-0.4808105528354645,-0.4675221741199493,9.77622127532959,0.4696595370769501,-0.5334975719451904,0.3285020589828491,-0.3778641521930694,1.0353869199752808,0.3608814477920532,-0.6018075942993164,-0.4054683744907379,-0.5858221650123596
907029,9.160727500915527,0.3451430201530456,3.4516234397888184,0.2603466808795929,-0.6192254424095154,0.5741534233093262,0.6740657687187195,-0.3096550703048706,-0.4808250367641449,-0.4675002098083496,9.724250793457031,0.503887951374054,-0.5238518714904785,0.1838159412145614,-0.5007282495498657,0.9965324997901917,0.3609147071838379,-0.6019067764282227,-0.405404657125473,-0.5857438445091248
907195,9.254664421081545,0.3262881636619568,3.3230631351470947,0.4426066279411316,-0.8366771936416626,0.7921047806739807,0.6740795969963074,-0.3097148537635803,-0.4808919131755829,-0.4673718512058258,9.764493942260742,0.5179381370544434,-0.5373863577842712,-0.3977780044078827,-0.8555665612220764,0.7812577486038208,0.3608686029911041,-0.6020457148551941,-0.4053418338298797,-0.5856730937957764
907362,9.184289932250977,0.4007283449172973,3.492123603820801,0.4197729825973511,0.3530646860599518,0.6206148862838745,0.6741009950637817,-0.309749037027359,-0.4808085262775421,-0.4674040377140045,9.785184860229492,0.5000508427619934,-0.5256013870239258,-0.8451678156852722,-0.797400176525116,0.6259679794311523,0.3607783019542694,-0.6021895408630371,-0.4052585959434509,-0.5856384634971619
907529,9.203546524047852,0.3787105083465576,3.3887476921081543,0.2325056791305542,-1.3930747509002686,0.1690502166748047,0.6739274859428406,-0.3099222183227539,-0.480881005525589,-0.4674650728702545,9.768671035766602,0.4587778151035309,-0.5411703586578369,-1.017656683921814,-0.8417102098464966,0.7662872076034546,0.3606859445571899,-0.6023510694503784,-0.4051559567451477,-0.5856002569198608
907695,9.225223541259766,0.3738996386528015,3.4229631423950195,0.2805935144424438,-0.063263364136219,0.2086986750364303,0.6739063262939453,-0.3099459409713745,-0.4808619022369385,-0.4674992859363556,9.777920722961426,0.4373697936534881,-0.5362396836280823,-0.9868829250335692,-0.8137410879135132,0.8127229809761047,0.3605923056602478,-0.6025177240371704,-0.4050411581993103,-0.5855658650398254
907862,9.214214324951172,0.3519402146339416,3.4201605319976807,0.2828986346721649,-0.7637706398963928,0.5912883877754211,0.673870861530304,-0.3100344836711883,-0.4809006452560425,-0.4674519300460815,9.745985984802246,0.4617457091808319,-0.5432594418525696,-0.988291561603546,-0.9064077138900756,0.7742655277252197,0.3605168759822845,-0.6026713848114014,-0.4049625694751739,-0.585508406162262
908029,9.227691650390623,0.3490664362907409,3.394199848175049,-0.0046871239319443,-0.563044011592865,0.3462004661560058,0.6737953424453735,-0.3101453781127929,-0.4808950126171112,-0.4674930572509765,9.757269859313965,0.4494701325893402,-0.5193591713905334,-0.9649583697319032,-0.8395202159881592,0.5113767385482788,0.360384851694107,-0.6028302907943726,-0.4048648476600647,-0.585493803024292
908195,9.194668769836426,0.3653489053249359,3.4192798137664795,0.1031231209635734,-0.2510556578636169,0.3188972771167755,0.6737704873085022,-0.3101957738399505,-0.4808850288391113,-0.467505544424057,9.792206764221191,0.4452215433120727,-0.5397934913635254,-0.9417662620544434,-0.7142997980117798,0.2372952401638031,0.3602856993675232,-0.6029285788536072,-0.4048351347446441,-0.5854741930961609
908362,9.165643692016602,0.3609859347343445,3.442088842391968,0.0716963559389114,-0.472848892211914,0.1655412763357162,0.6737183332443237,-0.3102531433105469,-0.4809019565582275,-0.4675253629684448,9.76485824584961,0.4468610286712646,-0.5560349225997925,-0.8487023115158081,-0.7298210263252258,0.0575709454715251,0.3601520359516144,-0.6030307412147522,-0.4048027694225311,-0.5854734182357788
908529,9.18502712249756,0.3612577319145202,3.404299020767212,0.0767932683229446,-0.637295126914978,0.0541004203259944,0.6736392974853516,-0.3103210031986236,-0.480934739112854,-0.4675604701042175,9.790342330932615,0.4356794357299804,-0.5420708060264587,-0.6557106971740723,-0.6994059085845947,-0.0678224340081214,0.3600391745567322,-0.6031042337417603,-0.4048099815845489,-0.585462212562561
908695,9.211398124694824,0.3470566272735595,3.4033870697021484,0.2026028484106063,-0.6110677123069763,0.0503609701991081,0.6735224723815918,-0.3104206919670105,-0.4809438288211822,-0.4676531553268432,9.80298900604248,0.4692413210868835,-0.5526885390281677,-0.5172484517097473,-0.4863467216491699,-0.0770814195275306,0.3599547445774078,-0.6031485795974731,-0.404823362827301,-0.5854592323303223
908862,9.214974403381348,0.3515697717666626,3.4029829502105717,0.3212665021419525,-0.4394114911556244,0.128197968006134,0.6734590530395508,-0.3104707598686218,-0.480961412191391,-0.4676933288574219,9.797077178955078,0.470678836107254,-0.5569803714752197,-0.490111768245697,-0.1063311174511909,-0.2703292369842529,0.3599076271057129,-0.6031274795532227,-0.4048669934272766,-0.585479736328125
909029,9.200133323669434,0.3581571578979492,3.43011212348938,0.44617959856987,-0.3564006984233856,0.1729817688465118,0.6734217405319214,-0.3104937076568603,-0.4809854328632355,-0.4677072167396545,9.768339157104492,0.5051106810569763,-0.5723429918289185,-0.5385966300964355,-0.0533384457230567,-0.1926074922084808,0.3597967028617859,-0.6031565070152283,-0.4048259556293487,-0.5855464935302734
909195,9.202906608581545,0.3730551898479461,3.414347648620605,0.3536537289619446,-0.4533447325229645,0.0441114716231823,0.6733826994895935,-0.3105044662952423,-0.4810302555561065,-0.4677100479602813,9.746706008911133,0.5192724466323853,-0.5836660265922546,-0.5369190573692322,-0.0449759028851985,-0.2395171821117401,0.3597061336040497,-0.6031647324562073,-0.4048148989677429,-0.5856010913848877
909362,9.2062349319458,0.3710597455501556,3.399674654006958,0.2521762549877167,-0.2672557532787323,0.0487729832530021,0.6733436584472656,-0.3105211853981018,-0.4810442924499511,-0.4677406549453735,9.780243873596191,0.517659604549408,-0.5439268350601196,-0.6575676798820496,0.0689685940742492,-0.0005762857035733,0.3595624566078186,-0.6032311320304871,-0.404696524143219,-0.5857028365135193
909529,9.186829566955566,0.3698227405548095,3.4178528785705566,0.4956761598587036,-0.1190734356641769,0.1168131083250045,0.673332929611206,-0.3105060160160064,-0.4810591638088226,-0.4677509069442749,9.793679237365724,0.4912707507610321,-0.5482826232910156,-0.7659862041473389,0.1537338346242904,0.1634666323661804,0.3594701588153839,-0.6032757759094238,-0.4045948982238769,-0.585783839225769
909695,9.195083618164062,0.3697655200958252,3.3858814239501958,0.5014262199401855,-0.2013158202171325,0.1279930621385574,0.6733308434486389,-0.3104823529720306,-0.4810909628868103,-0.4677368402481079,9.791029930114746,0.4790277183055877,-0.5228902697563171,-0.5922552943229675,0.6001503467559814,0.2361170798540115,0.3594050705432892,-0.6032911539077759,-0.4044579565525055,-0.5859024524688721
909862,9.202672004699709,0.3587651252746582,3.418743371963501,0.5303301811218262,-0.0651715174317359,0.2530983090400696,0.6733046174049377,-0.3104999661445617,-0.4810770750045776,-0.4677771329879761,9.786993026733398,0.4727117717266083,-0.5385019779205322,-0.3919127285480499,0.8449181914329529,0.2078406512737274,0.359394371509552,-0.6032559871673584,-0.4043538272380829,-0.5860170722007751
910029,9.19583797454834,0.3701016902923584,3.4281165599823,0.6400165557861328,0.1786037683486938,0.1937280595302581,0.673317015171051,-0.310464471578598,-0.4810632765293121,-0.4677971601486206,9.783796310424805,0.4635043442249298,-0.5366937518119812,-0.2389280796051025,1.020429253578186,0.2922857403755188,0.3593426644802093,-0.603252112865448,-0.4041720628738403,-0.5861780047416687
910195,9.204907417297363,0.3600704371929168,3.414863109588623,0.5976146459579468,0.3558180034160614,0.162877544760704,0.6733358502388,-0.3104205131530761,-0.4810291826725006,-0.4678343534469604,9.76923656463623,0.4725620746612549,-0.5265136361122131,0.0072676031850278,1.1842992305755615,0.0990891307592392,0.3593791723251343,-0.6031591892242432,-0.4040961861610412,-0.5863035917282104
910362,9.194157600402832,0.3544095754623413,3.4255521297454834,0.6410794258117676,0.3589043319225311,0.1753253191709518,0.6733728051185608,-0.3103573024272918,-0.4810071289539337,-0.4678456783294678,9.757052421569824,0.4788258969783783,-0.5109761357307434,0.2039474993944168,1.1449835300445557,0.190295934677124,0.3594814538955688,-0.6030346751213074,-0.4040761888027191,-0.5863828063011169
910529,9.176278114318848,0.3489367067813873,3.423625469207764,0.8882421255111694,0.4031887054443359,0.3299492001533508,0.6733928918838501,-0.3103203475475311,-0.480962723493576,-0.4678868949413299,9.770323753356934,0.4891898930072784,-0.5018235445022583,0.3640781342983246,1.2425936460494995,0.1228961572051048,0.3595660924911499,-0.6029108762741089,-0.4040380716323852,-0.586484432220459
910695,9.191807746887209,0.3594346940517425,3.450188398361206,0.8868716955184937,0.3650898039340973,0.368496298789978,0.6734226942062378,-0.3102786242961883,-0.480926513671875,-0.4679088890552521,9.789472579956056,0.5006614327430725,-0.4955033957958221,0.4390721321105957,1.1225086450576782,0.2246682196855545,0.3596806228160858,-0.6027839779853821,-0.4040266275405884,-0.5865525603294373
910862,9.172669410705566,0.3606288731098175,3.4286484718322754,0.8277191519737244,0.4766075015068054,0.4118458032608032,0.673374354839325,-0.3103266656398773,-0.4808157086372375,-0.4680604934692383,9.78523063659668,0.4910619258880615,-0.4891816675662994,0.4735852181911468,1.185887098312378,0.3532823622226715,0.359747439622879,-0.602701723575592,-0.4039363861083984,-0.5866583585739136
911029,9.17494297027588,0.3628030717372894,3.4459848403930664,0.8119545578956604,0.3849268555641174,0.4999406635761261,0.6733570694923401,-0.3103553056716919,-0.4807299673557281,-0.4681544899940491,9.771380424499512,0.4953171610832214,-0.5014939308166504,0.4641212224960327,1.0888789892196655,0.4995692670345306,0.3598501682281494,-0.602615475654602,-0.4038690626621246,-0.5867301225662231
911195,9.210309028625488,0.3539879322052002,3.433431625366211,0.8476970791816711,0.248372733592987,0.6075908541679382,0.6733814477920532,-0.3103536069393158,-0.4806828498840332,-0.4681689739227295,9.76795482635498,0.5159821510314941,-0.4726909697055816,0.3676126301288605,0.8747441172599792,0.6401445269584656,0.359934002161026,-0.6025671362876892,-0.403782844543457,-0.5867877006530762
911362,9.19993782043457,0.3677878379821777,3.441265821456909,0.8341736197471619,0.3079607188701629,0.6065152287483215,0.6734598278999329,-0.3102969229221344,-0.4806625843048095,-0.4681145846843719,9.758755683898926,0.5172813534736633,-0.4891729354858398,0.1764907091856002,0.7205044031143188,0.6668969988822937,0.3600198924541473,-0.6025251150131226,-0.4037133157253265,-0.5868260264396667
911529,9.19829273223877,0.3669400215148926,3.43234920501709,0.720248281955719,0.2106580436229705,0.6789093613624573,0.673518180847168,-0.3102761209011078,-0.4806320667266845,-0.4680757522583008,9.722265243530272,0.5026700496673584,-0.4903193414211273,0.1321551203727722,0.5271797776222229,0.851526141166687,0.3600909411907196,-0.6025223135948181,-0.4036190211772918,-0.5868502259254456
911695,9.197778701782228,0.3584164977073669,3.452777147293091,0.720542848110199,0.2265891581773758,0.6059260368347168,0.6735588312149048,-0.3102629482746124,-0.4805941879749298,-0.4680649042129516,9.740365028381348,0.4961656928062439,-0.5065158605575562,-0.0294418018311262,0.0314075760543346,0.9804478287696838,0.3601468801498413,-0.6025654077529907,-0.403544157743454,-0.5868229866027832
912029,9.175578117370604,0.361663281917572,3.4352734088897705,0.5399348735809326,-0.0847139954566955,0.8478507399559021,0.6736707091331482,-0.3102790117263794,-0.4805378317832947,-0.4679511189460754,9.771549224853516,0.4726784825325012,-0.4944231808185577,-0.0002177079295506,-0.1956041902303695,1.0149095058441162,0.3601531684398651,-0.6026566028594971,-0.4034382402896881,-0.586798369884491
912195,9.219959259033203,0.3520346879959106,3.419869899749756,0.4264834523200989,-0.0321823544800281,0.6575995683670044,0.6736943125724792,-0.3103038668632507,-0.4805099666118622,-0.4679291248321533,9.766042709350586,0.4490193724632263,-0.5062530040740967,0.0877939239144325,-0.1565960496664047,0.9807807207107544,0.360195904970169,-0.6027172803878784,-0.4033715724945068,-0.5867556929588318
912362,9.231253623962402,0.3457155227661133,3.417623996734619,0.485635906457901,0.1983639448881149,0.5786100625991821,0.6737300753593445,-0.3103028833866119,-0.4804665148258209,-0.4679228961467743,9.750255584716797,0.4499805271625519,-0.5179916024208069,0.1975955665111541,-0.2794985473155975,0.8453535437583923,0.3602190315723419,-0.6027818918228149,-0.4033219218254089,-0.5867093205451965
912529,9.15809154510498,0.3348395526409149,3.40858006477356,0.5152826309204102,0.2592837512493133,0.6362386345863342,0.673783004283905,-0.3102907836437225,-0.4804218113422394,-0.4679005742073059,9.811996459960938,0.4525169134140014,-0.5292293429374695,0.2529318034648895,-0.3472057580947876,0.7726902961730957,0.3602534532546997,-0.6028335094451904,-0.4033045768737793,-0.586647093296051
912695,9.19644260406494,0.346205472946167,3.3645923137664795,0.3822118937969208,0.1085274070501327,0.5367332696914673,0.6738030910491943,-0.3103049397468567,-0.4803808629512787,-0.4679044187068939,9.77106761932373,0.4816401600837707,-0.5314496755599976,0.2026797086000442,-0.2874257266521454,0.4172116816043854,0.360292375087738,-0.6028371453285217,-0.4033485054969787,-0.5865892767906189
912862,9.261999130249023,0.3629482090473175,3.4609646797180176,0.5945028066635132,0.8822486996650696,0.3307175934314728,0.6738551259040833,-0.3102491497993469,-0.4802767932415008,-0.4679732620716095,9.808671951293944,0.5143657922744751,-0.5066162347793579,-0.0469224713742733,-0.3209143579006195,-0.3558500707149505,0.3602170646190643,-0.6028278470039368,-0.4034161865711212,-0.5865985751152039
913029,9.203558921813965,0.4307899177074432,3.4842915534973145,0.3341240882873535,0.1921016424894333,-0.1595159024000167,0.6738301515579224,-0.3102149069309234,-0.4802552759647369,-0.4680540859699249,9.812232971191406,0.5110436081886292,-0.5063694715499878,-0.4299860298633575,-0.119470439851284,-0.5785396695137024,0.3601014018058777,-0.6028071045875549,-0.403461754322052,-0.5866593718528748
913195,9.235508918762209,0.3820068836212158,3.426542997360229,0.5741662979125977,0.503372848033905,-0.2311290204524994,0.6738243103027344,-0.3101385533809662,-0.4802171885967254,-0.4681520462036133,9.791632652282717,0.5204088091850281,-0.5116534233093262,-0.7586225867271423,0.2079687416553497,-0.3354239463806152,0.360016793012619,-0.6027756929397583,-0.4034625887870788,-0.5867429971694946
913362,9.16977882385254,0.3573094010353088,3.472888708114624,0.8375417590141296,0.7795161008834839,0.3696617186069488,0.6738680601119995,-0.3100817799568176,-0.4801287055015564,-0.4682175517082214,9.790035247802734,0.5155670642852783,-0.4912205636501312,-0.7515662908554077,0.3505546152591705,-0.0552337877452373,0.3599219620227813,-0.6027769446372986,-0.4033884406089782,-0.5868509411811829
913529,9.15469741821289,0.3722653090953827,3.487621068954468,0.5020536780357361,-0.1702988296747207,0.5433029532432556,0.673845648765564,-0.3101311326026916,-0.4801042973995209,-0.4682420790195465,9.785017013549805,0.5293933153152466,-0.5066465139389038,-1.0069249868392944,0.7456561923027039,0.5784052610397339,0.3598229885101318,-0.6028345227241516,-0.4031563103199005,-0.5870119333267212
913695,9.162056922912598,0.3579390048980713,3.478440999984741,0.2329539060592651,-0.2016487717628479,0.5550719499588013,0.6738025546073914,-0.3102167844772339,-0.4800587594509125,-0.4682940542697906,9.782753944396973,0.5084765553474426,-0.4653496146202087,-1.0537959337234497,0.893146812915802,0.7074674963951111,0.359781801700592,-0.602859616279602,-0.4029459357261657,-0.587155818939209
913862,9.137092590332031,0.3514591455459595,3.4947268962860107,0.0682130232453346,-0.3000015616416931,0.4940369129180908,0.6737712621688843,-0.3102897107601166,-0.4800339639186859,-0.4683161675930023,9.76091194152832,0.4645021259784698,-0.466679573059082,-0.8806799054145813,0.9443210363388062,0.8265793919563293,0.3597697019577026,-0.6028771996498108,-0.402738481760025,-0.5872876048088074
914029,9.16322135925293,0.3399208486080169,3.4589762687683105,0.2954105138778686,-0.7834413051605225,0.5056523680686951,0.673660397529602,-0.3104320764541626,-0.4800329804420471,-0.4683822989463806,9.745978355407717,0.4130769968032837,-0.4760426878929138,-0.4466471076011657,0.6208966970443726,0.9699209332466124,0.3597930371761322,-0.6029046773910522,-0.4025768041610718,-0.5873558521270752
914195,9.19124698638916,0.3485482633113861,3.456615209579468,0.3193199336528778,-0.4944147169589996,0.5650737881660461,0.6736416816711426,-0.310488224029541,-0.4800464212894439,-0.4683583378791809,9.739527702331545,0.4076970815658569,-0.473772644996643,0.2296242713928222,0.3792920708656311,1.019443154335022,0.3598794341087341,-0.6029109954833984,-0.4024950265884399,-0.587352454662323
914362,9.16240406036377,0.327662855386734,3.4693715572357178,0.3005330264568329,-0.2729417383670807,0.6867597103118896,0.6736006736755371,-0.310585618019104,-0.4800012409687042,-0.4683991372585296,9.760293006896973,0.4416444897651672,-0.45602548122406,0.8673421144485474,0.1837135106325149,0.9567432403564452,0.3600089848041534,-0.6028944253921509,-0.4024870097637176,-0.5872955322265625
914529,9.195606231689451,0.3488520979881286,3.4757800102233887,0.3449070155620575,-0.2974146604537964,0.5732313990592957,0.6735245585441589,-0.310700923204422,-0.4799474477767944,-0.4684870839118957,9.770254135131836,0.4621450006961822,-0.4699189960956573,1.133816480636597,0.2520993649959564,0.6545901298522949,0.3601377606391907,-0.6028417348861694,-0.4025221765041351,-0.5872465968132019
914695,9.20134162902832,0.3657637536525726,3.4731194972991943,0.2474635243415832,-0.0509692728519439,0.4683730900287628,0.6734636425971985,-0.3107916116714477,-0.4798735082149505,-0.4685901701450348,9.766409873962402,0.4741030037403106,-0.4587950110435486,1.3072530031204224,-0.088133305311203,0.5959627032279968,0.3602874875068664,-0.602784276008606,-0.4026271104812622,-0.5871419310569763
914862,9.142657279968262,0.3270638585090637,3.4422717094421387,0.521775484085083,-0.7298082113265991,0.7462452054023743,0.6733870506286621,-0.3109202682971954,-0.4798722863197326,-0.4686160683631897,9.766762733459473,0.5020920634269714,-0.4976996779441833,1.210795521736145,-0.1735900640487671,0.8202659487724304,0.3604158163070678,-0.6027701497077942,-0.4026809930801391,-0.5870406031608582
915029,9.252429008483888,0.3146970570087433,3.3782010078430176,1.112852692604065,-0.4024780094623565,0.99313884973526,0.6734590530395508,-0.3109016716480255,-0.4799224734306335,-0.4684736132621765,9.715744018554688,0.5438352823257446,-0.4862095713615417,1.0251163244247437,-0.5449998378753662,0.8142213821411133,0.3605104386806488,-0.6027930378913879,-0.4027450978755951,-0.5869148969650269
915195,9.141623497009276,0.3958465158939361,3.4978768825531006,0.5053321123123169,-0.2181561589241027,0.7621890902519226,0.6734234094619751,-0.310992956161499,-0.4798729419708252,-0.4685150384902954,9.77430534362793,0.5482610464096069,-0.4788237512111664,0.3283227980136871,-0.987689733505249,0.6581375598907471,0.3604696094989776,-0.6029041409492493,-0.4027519524097442,-0.5868212580680847
915362,9.24158000946045,0.3915043175220489,3.381425380706787,0.4699994027614593,-0.8514685034751892,0.3665497303009033,0.6733647584915161,-0.3110519051551819,-0.4799332022666931,-0.4684984683990478,9.77661418914795,0.5413675308227539,-0.507962167263031,-0.1488994359970092,-1.009934425354004,0.6966334581375122,0.3604045212268829,-0.6030325889587402,-0.4027334451675415,-0.5867420434951782
915529,9.204302787780762,0.3749260008335113,3.4317142963409424,0.3862203061580658,-0.0597160123288631,0.4468967616558075,0.6733863353729248,-0.3110462129116058,-0.4799230098724365,-0.468481570482254,9.765591621398926,0.4830179512500763,-0.4897285103797912,-0.621120810508728,-1.1300324201583862,0.7959082126617432,0.3603129982948303,-0.6031913757324219,-0.4026878774166107,-0.5866661667823792
915695,9.214068412780762,0.3511439263820648,3.447392463684082,0.2370647490024566,-0.4030286073684692,0.6448574066162109,0.6733943819999695,-0.3110878467559814,-0.4799303114414215,-0.4684350192546844,9.764113426208496,0.4792444407939911,-0.512956440448761,-0.744023323059082,-0.9959371089935304,0.945780873298645,0.3602336049079895,-0.6033519506454468,-0.4026145935058594,-0.5866001844406128
915862,9.20447063446045,0.3544951379299164,3.430913209915161,0.1071443185210228,-0.3927451372146606,0.6899869441986084,0.6734396815299988,-0.3111040890216827,-0.4799517691135406,-0.4683371782302856,9.778205871582031,0.475392609834671,-0.5219889879226685,-0.7990906238555908,-0.9878178238868712,0.9493794441223145,0.3601719439029693,-0.6034995913505554,-0.4025593101978302,-0.5865240097045898
916029,9.192920684814451,0.3669334053993225,3.4485437870025635,0.0852710828185081,-0.2902431190013885,0.5098656415939331,0.6733348965644836,-0.3112504780292511,-0.4798736870288849,-0.4684704542160034,9.774763107299805,0.4448539614677429,-0.526581346988678,-0.668337881565094,-0.8880820274353027,0.7339639663696289,0.3600777387619018,-0.6036401987075806,-0.4024971425533294,-0.5864798426628113
916195,9.179752349853516,0.3515090048313141,3.427572965621948,-0.0829211100935936,-0.3484351336956024,0.445705771446228,0.6733183264732361,-0.3113053739070892,-0.4798623919486999,-0.4684693813323974,9.772985458374023,0.4304344058036804,-0.5393513441085815,-0.4861290156841278,-0.8428882956504822,0.4930892884731293,0.3600058555603027,-0.6037365794181824,-0.402494877576828,-0.586426317691803
916362,9.161452293395996,0.3503966927528381,3.4315285682678223,-0.0061982725746929,-0.5112038850784302,0.4745712578296661,0.6733274459838867,-0.3113333284854889,-0.4798920154571533,-0.4684074819087982,9.779112815856934,0.4276309311389923,-0.5446323156356812,-0.301423043012619,-0.7836845517158508,0.2993548214435577,0.3599425256252289,-0.6038031578063965,-0.4025283455848694,-0.5863737463951111
916529,9.211651802062988,0.3497673869132995,3.431320905685425,0.2797226905822754,-0.6593860983848572,0.3981173634529114,0.6733063459396362,-0.3113658130168915,-0.47994065284729,-0.4683664441108703,9.788694381713867,0.4471582174301147,-0.5503532886505127,-0.0400198400020599,-0.6446972489356995,0.1555651277303695,0.3599258959293365,-0.60381680727005,-0.4026186168193817,-0.586307942867279
916695,9.213701248168944,0.362802654504776,3.4317822456359863,0.4363955557346344,-0.4608877301216125,0.2864844501018524,0.6732917428016663,-0.311368465423584,-0.4799809157848358,-0.4683443009853363,9.773423194885254,0.4620957374572754,-0.5411301851272583,0.2036401629447937,-0.5527732372283936,0.0163857247680425,0.3598842620849609,-0.6038287281990051,-0.4026963710784912,-0.5862678289413452
916862,9.191446304321287,0.3616511225700378,3.4220011234283447,0.5295873880386353,-0.3498310446739197,0.2139748930931091,0.673223614692688,-0.3114110827445984,-0.4799796938896179,-0.4684150815010071,9.788190841674805,0.4892756640911102,-0.5675476789474487,0.2157805860042572,-0.3864700198173523,-0.0800780951976776,0.3597979843616485,-0.603851854801178,-0.4027266502380371,-0.5862760543823242
917029,9.214130401611328,0.377279132604599,3.443340539932251,0.448113352060318,-0.4677775204181671,0.1634154170751571,0.6731750965118408,-0.3114299178123474,-0.4800102710723877,-0.4684410393238067,9.770445823669434,0.5048211812973022,-0.5411658883094788,0.0514879301190376,-0.233229249715805,-0.2191294729709625,0.359689861536026,-0.6038652658462524,-0.4027436673641205,-0.5863168835639954
917195,9.199074745178224,0.3704593181610107,3.449359178543091,0.338234931230545,-0.4394883513450622,0.0597224086523056,0.6731517910957336,-0.3114135265350342,-0.4800589978694916,-0.468435525894165,9.772422790527344,0.5252017974853516,-0.5557318925857544,-0.2192703187465667,-0.0539019219577312,-0.221165657043457,0.3596097826957702,-0.6038484573364258,-0.4027726352214813,-0.5863633751869202
917362,9.18269157409668,0.3770752847194671,3.444549322128296,0.3018777072429657,-0.3442091047763824,0.0531399510800838,0.6730695962905884,-0.31145840883255,-0.4800536930561065,-0.4685290157794952,9.803800582885742,0.5312777757644653,-0.531842827796936,-0.322860836982727,0.1054794937372207,-0.0286221876740455,0.3595152795314789,-0.6038551926612854,-0.4027367830276489,-0.5864391326904297
917529,9.220463752746582,0.3708240985870361,3.441305637359619,0.4064286947250366,-0.4830426573753357,0.1311946511268615,0.6730401515960693,-0.3114538788795471,-0.4801004528999328,-0.4685265123844147,9.806392669677734,0.5147917866706848,-0.5372928977012634,-0.5631079077720642,0.380098819732666,0.2217226922512054,0.3594425320625305,-0.6038610339164734,-0.4026511013507843,-0.5865365266799927
917695,9.196110725402832,0.3534297943115234,3.4395854473114014,0.3363651931285858,-0.3203124105930328,0.3245577216148376,0.6729932427406311,-0.3114979267120361,-0.4800918698310852,-0.4685734212398529,9.78164005279541,0.5317561626434326,-0.5333639979362488,-0.6508826613426208,0.7089147567749023,0.5066512227058411,0.3594240844249725,-0.6038470268249512,-0.4025360643863678,-0.586641252040863
917862,9.176008224487305,0.3645871877670288,3.4514262676239014,0.3134801983833313,-0.2103826999664306,0.2891865968704223,0.6729798316955566,-0.311503916978836,-0.4800921380519867,-0.4685884118080139,9.76938247680664,0.5004445314407349,-0.5116887092590332,-0.5440521240234375,0.7858039736747742,0.6997069120407104,0.3594343662261963,-0.6038323044776917,-0.4024087786674499,-0.586737334728241
918029,9.19269847869873,0.3563618957996368,3.4514048099517822,0.2888152301311493,-0.2963645458221435,0.3039907217025757,0.6729690432548523,-0.3115097284317016,-0.4801041781902313,-0.4685876667499542,9.759674072265623,0.4937874376773834,-0.5143531560897827,-0.3805791437625885,0.7330291271209717,0.8226607441902161,0.3594571650028229,-0.6038262844085693,-0.4022787511348724,-0.5868187546730042
918196,9.18909740447998,0.3480474054813385,3.4375932216644287,0.1393010765314102,-0.120815098285675,0.298522412776947,0.6729780435562134,-0.3115025460720062,-0.4800986051559448,-0.4685852229595184,9.765606880187988,0.4712918400764465,-0.5031164288520813,-0.1162560358643531,0.7541595101356506,0.7473593354225159,0.3594978749752044,-0.6037998795509338,-0.4021775722503662,-0.5868902802467346
918362,9.19424533843994,0.3517878949642181,3.4149885177612305,0.1234724223613739,-0.0044950288720428,0.4518016576766968,0.672938346862793,-0.3115676641464233,-0.4800289869308471,-0.4686701893806457,9.759819984436035,0.4727079570293426,-0.507961630821228,0.1966223120689392,0.5855511426925659,0.7990970611572266,0.3595823645591736,-0.6037593483924866,-0.4021304845809936,-0.5869125127792358
918529,9.199522018432615,0.3593300879001617,3.450929641723633,0.3782675266265869,-0.0609838366508483,0.6259807348251343,0.672963559627533,-0.3115771412849426,-0.4800048768520355,-0.4686525464057922,9.764391899108888,0.4651210010051727,-0.4934106171131134,0.4020104706287384,0.5085849761962891,0.7430564165115356,0.3596935570240021,-0.6036986112594604,-0.402129203081131,-0.5869078040122986
918696,9.20373821258545,0.3603635728359222,3.4384450912475586,0.3797274529933929,-0.1147704944014549,0.5685186386108398,0.6729480624198914,-0.3116196393966675,-0.479966402053833,-0.468685895204544,9.775217056274414,0.4736115932464599,-0.4973188638687134,0.675054669380188,0.4450397789478302,0.7372294664382935,0.3597769737243652,-0.603660523891449,-0.4021058678627014,-0.5869117379188538
918862,9.188730239868164,0.362604558467865,3.445263624191284,0.4786949753761291,-0.1369383037090301,0.7144343256950378,0.6729146838188171,-0.3116956055164337,-0.4799093306064605,-0.4687416553497314,9.767478942871094,0.4904845654964447,-0.4868141710758209,0.7037152647972107,0.4440665543079376,0.7413403391838074,0.3598940670490265,-0.603600025177002,-0.4021173417568207,-0.5868943333625793
919029,9.207435607910156,0.3654141128063202,3.456712007522583,0.6179511547088623,-0.31170654296875,0.6889750957489014,0.6729412078857422,-0.3116983473300934,-0.479925274848938,-0.4686855375766754,9.77304744720459,0.5035752654075623,-0.4993281662464142,0.5532407164573669,0.379445731639862,0.6356111168861389,0.3599723279476166,-0.6035546660423279,-0.4021159708499908,-0.5868939161300659
919196,9.18494701385498,0.3774484694004059,3.429060220718384,0.5406520962715149,-0.28211110830307,0.6666793823242188,0.6729508638381958,-0.3117190301418304,-0.4799245297908783,-0.4686585664749145,9.76997184753418,0.5074340105056763,-0.4715929925441742,0.4176342487335205,0.325556606054306,0.671917200088501,0.3599986135959625,-0.6035494804382324,-0.4020619988441467,-0.5869200229644775
919362,9.194583892822266,0.3696617782115936,3.4429149627685547,0.4976867437362671,-0.1921336501836776,0.6784355640411377,0.6730042695999146,-0.3116984069347381,-0.4799375236034393,-0.4685822427272796,9.73304843902588,0.5071219205856323,-0.4972647130489349,0.2243352234363556,0.1863259822130203,0.7910801768302917,0.3600644767284393,-0.6035357713699341,-0.4020457863807678,-0.5869049429893494
919529,9.194745063781738,0.3610472381114959,3.4406986236572266,0.4655556678771972,-0.2274151742458343,0.7541211843490601,0.6730390191078186,-0.31170853972435,-0.4799351692199707,-0.468528002500534,9.74937915802002,0.509810745716095,-0.4975422024726867,0.0318814106285572,-0.2092557549476623,1.0245014429092407,0.3601542115211487,-0.6035487651824951,-0.4020601511001587,-0.5868266224861145
919696,9.17409896850586,0.360462874174118,3.4273524284362797,0.3583536744117737,-0.3753668963909149,0.7509835362434387,0.6730365753173828,-0.3117610812187195,-0.4799253642559051,-0.4685065746307373,9.78756618499756,0.4808193445205688,-0.4895594120025635,-0.1534328460693359,-0.2293360978364944,1.0246167182922363,0.3601199984550476,-0.6036447286605835,-0.4019501209259033,-0.5868242979049683
919862,9.223163604736328,0.3690216839313507,3.446476697921753,0.123766966164112,-0.1566472649574279,0.6186427474021912,0.6730595231056213,-0.3117814362049103,-0.4799041748046875,-0.4684817790985107,9.758684158325195,0.4588474333286285,-0.513690710067749,-0.2482894957065582,-0.0119611304253339,0.8679438829421997,0.3601380288600921,-0.6036760210990906,-0.4018985629081726,-0.5868163108825684
920029,9.216300010681152,0.3307311832904815,3.439664363861084,0.1272759139537811,0.0096367774531245,0.515628457069397,0.673091471195221,-0.3117782771587372,-0.4798743426799774,-0.4684686362743377,9.711984634399414,0.4477697610855102,-0.5145554542541504,-0.1126190274953842,-0.1586962789297104,0.7447468638420105,0.3601244688034057,-0.6037217974662781,-0.4018523395061493,-0.5868092179298401
920196,9.153130531311035,0.3272372782230377,3.432880163192749,0.4877618551254272,-0.0699738934636116,0.5519856214523315,0.6731259226799011,-0.3117586374282837,-0.479867935180664,-0.4684387743473053,9.83281421661377,0.4569498896598816,-0.5176095366477966,-0.063442662358284,-0.1293441355228424,0.535337507724762,0.3601050078868866,-0.6037459373474121,-0.4018339216709137,-0.586808979511261
920362,9.205737113952637,0.3575241863727569,3.373861789703369,0.3017880022525787,0.1217435598373413,0.3957481682300567,0.6730962991714478,-0.3117932081222534,-0.479797750711441,-0.4685302972793579,9.774131774902344,0.4913923442363739,-0.4891929626464844,-0.0738414078950882,0.1622500419616699,0.0192287340760231,0.3600715100765228,-0.6037061214447021,-0.4018597602844238,-0.5868529081344604
920529,9.218167304992676,0.3783499896526336,3.4791338443756104,0.5727960467338562,1.101058006286621,0.1556547880172729,0.6731845140457153,-0.3116621971130371,-0.4796976447105407,-0.4685931801795959,9.795961380004885,0.5282487273216248,-0.4964955747127533,-0.4186908006668091,0.1268917173147201,-0.5825095772743225,0.3599146008491516,-0.6036780476570129,-0.4018701910972595,-0.5869707465171814
920696,9.18104648590088,0.4203903079032898,3.503131151199341,0.1867357790470123,-0.3803869783878326,-0.3185195028781891,0.6731147170066833,-0.3116413056850433,-0.4797342717647552,-0.4686698019504547,9.763934135437012,0.5401913523674011,-0.4965042471885681,-0.8394818902015686,0.1305031031370163,-1.0450109243392944,0.3597381114959717,-0.6036056876182556,-0.4019451141357422,-0.5871021151542664
920862,9.25714111328125,0.3822929859161377,3.419977188110352,0.27196204662323,0.4635322988033294,-0.4857448041439056,0.6730722784996033,-0.3115664422512054,-0.4796855449676513,-0.4688303470611572,9.766090393066406,0.5375972390174866,-0.4828557968139648,-1.1555554866790771,0.0883574113249778,-0.60120689868927,0.359520822763443,-0.6036112308502197,-0.4019071161746979,-0.5872555375099182
921029,9.176591873168944,0.3476357161998749,3.4733567237854004,0.7332340478897095,0.5636650919914246,0.1556675881147384,0.6731213927268982,-0.3114634752273559,-0.479643166065216,-0.4688715934753418,9.802520751953123,0.5383580923080444,-0.4780835807323456,-1.0916388034820557,0.2918374836444855,-0.0490483120083808,0.3593925833702087,-0.6036107540130615,-0.401841938495636,-0.5873792171478271
921196,9.175124168395996,0.3607357144355774,3.5110023021698,0.4660806953907013,0.0951447784900665,0.4037137925624847,0.6731069087982178,-0.3114722669124603,-0.4795929789543152,-0.4689379334449768,9.798054695129396,0.525607168674469,-0.4795171320438385,-1.1604217290878296,0.6965437531471252,0.3793689012527466,0.3592993319034576,-0.6036163568496704,-0.4016931354999542,-0.587532103061676
921362,9.15286636352539,0.3634821474552154,3.466510772705078,0.309971272945404,-0.1733851581811905,0.4906944632530212,0.6730959415435791,-0.3114964962005615,-0.4795694649219513,-0.4689615368843078,9.773900032043455,0.5237128734588623,-0.4707627594470978,-1.0786787271499634,1.0288429260253906,0.5572363138198853,0.3592587113380432,-0.6035917401313782,-0.4015304446220398,-0.5876935124397278
921529,9.146703720092772,0.3604135513305664,3.4528820514678955,0.0900734588503837,-0.3524307608604431,0.317795991897583,0.673031747341156,-0.3115616142749786,-0.4795432090759277,-0.4690373241901397,9.728012084960938,0.4630634188652038,-0.4776257872581482,-0.9099937081336976,0.9945988059043884,0.5893930792808533,0.3592364490032196,-0.6035603284835815,-0.4013848304748535,-0.5878386497497559
921696,9.15946102142334,0.3419390618801117,3.4718642234802246,-0.0307224355638027,-0.4819541573524475,0.1074772849678993,0.6730080842971802,-0.3115615546703338,-0.4795769453048706,-0.469036728143692,9.732499122619627,0.4194256961345672,-0.4862578511238098,-0.3131280839443207,0.6918438076972961,0.5493860244750977,0.3592457175254822,-0.6035206913948059,-0.4013101458549499,-0.5879247188568115
921862,9.16928482055664,0.3325372040271759,3.453486204147339,0.3743872046470642,-0.3489986360073089,0.2231186181306839,0.672950267791748,-0.3115918636322021,-0.4795730710029602,-0.4691035747528076,9.7437162399292,0.413566917181015,-0.4770588874816894,0.4254077076911926,0.2946164906024933,0.5568777918815613,0.3592857718467712,-0.6034848690032959,-0.4013065695762634,-0.587939441204071
922029,9.181139945983888,0.3391245901584625,3.465416431427002,0.608154296875,-0.2682802379131317,0.4582304060459137,0.6729878187179565,-0.3115454912185669,-0.4796085953712463,-0.4690440893173218,9.769593238830566,0.4463658630847931,-0.4760447442531585,1.0596678256988523,0.020048338919878,0.6336773037910461,0.3593754172325134,-0.6034417748451233,-0.4013679325580597,-0.5878871083259583
922196,9.223156929016112,0.3405942916870117,3.4546985626220703,0.6879634857177734,-0.0547215268015861,0.474993884563446,0.6729808449745178,-0.3115435242652893,-0.4795846939086914,-0.4690797924995422,9.802040100097656,0.484127014875412,-0.4508870840072632,1.4208707809448242,0.1894891560077667,0.4085033535957336,0.3594914078712463,-0.6033492684364319,-0.4014753699302673,-0.5878377556800842
922362,9.189658164978027,0.3788205683231354,3.4668219089508057,0.644332230091095,0.1254189610481262,0.4332579970359802,0.6729716658592224,-0.3115405440330505,-0.4795354604721069,-0.4691454768180847,9.746445655822754,0.5254430174827576,-0.4784621894359588,1.4706364870071411,0.1480990350246429,0.3269909620285034,0.3596066236495971,-0.6032496094703674,-0.4016009271144867,-0.5877838730812073
922529,9.1348295211792,0.3527926206588745,3.469653606414795,0.7513164281845093,-0.5536696910858154,0.5241062641143799,0.6729490756988525,-0.3115560710430145,-0.4795708954334259,-0.4691314399242401,9.761338233947754,0.532168447971344,-0.4706479907035827,1.1266707181930542,-0.1601946353912353,0.5191630721092224,0.3596861362457275,-0.6032074093818665,-0.4016933441162109,-0.5877153873443604
922696,9.25465488433838,0.3300343453884125,3.3579938411712646,0.9470232129096984,-0.7030942440032959,0.742454469203949,0.6729565262794495,-0.3115606009960174,-0.4796350598335266,-0.4690519571304321,9.726801872253418,0.566669225692749,-0.4969978630542755,0.8995757102966309,-0.5480093359947205,0.6342408657073975,0.3597491383552551,-0.6032052636146545,-0.4017941057682037,-0.5876099467277527
922862,9.169597625732422,0.3973437547683716,3.501530647277832,0.6541802883148193,0.2266531586647033,0.6393505930900574,0.6730211973190308,-0.3115102648735046,-0.479602187871933,-0.469026118516922,9.785910606384276,0.5737659931182861,-0.4910960495471954,0.1880932599306106,-0.8610092997550964,0.6490321755409241,0.3597086668014526,-0.6032832264900208,-0.4018260836601257,-0.5875328183174133
923029,9.212838172912598,0.4105579257011413,3.374953269958496,0.3750403225421905,-0.915794849395752,0.2654691934585571,0.6729292273521423,-0.3115783035755157,-0.4796526432037353,-0.4690612554550171,9.756752014160156,0.5570111274719238,-0.4850043952465057,-0.5035456418991089,-0.6524962782859802,0.6762969493865967,0.3596552610397339,-0.6033576726913452,-0.4018214046955108,-0.5874922871589661
923196,9.207486152648926,0.3877788782119751,3.4354584217071533,0.0899325907230377,0.103917121887207,0.2883157432079315,0.6728902459144592,-0.311612606048584,-0.4795792400836944,-0.4691696465015411,9.77267074584961,0.5338172912597656,-0.5190285444259644,-0.837637722492218,-0.8528132438659668,0.8036561012268066,0.3595433533191681,-0.6034924387931824,-0.4017594456672668,-0.5874649286270142
923362,9.219930648803713,0.36014124751091,3.426400899887085,0.4155083894729614,-0.3907729387283325,0.6760792136192322,0.6728965640068054,-0.3116357028484344,-0.4795849323272705,-0.4691393375396728,9.770572662353516,0.4982616901397705,-0.5036850571632385,-0.9134257435798644,-0.7433702349662781,1.0232082605361938,0.3594779968261719,-0.6036151051521301,-0.4016960859298706,-0.587422251701355
923529,9.19747829437256,0.3726190626621246,3.4321329593658447,0.2202371805906295,-0.2283756285905838,0.5266419053077698,0.6729112267494202,-0.3116397261619568,-0.4795790910720825,-0.4691216051578522,9.761390686035156,0.4613074362277984,-0.5301505327224731,-0.825241208076477,-0.6755861639976501,0.936701238155365,0.3593925237655639,-0.6037381291389465,-0.4016198813915252,-0.5874000787734985
923696,9.188507080078123,0.3703413009643554,3.441584587097168,0.1325649172067642,-0.1610142290592193,0.4686547815799713,0.6728807687759399,-0.3116861581802368,-0.4795355498790741,-0.4691789746284485,9.77488899230957,0.4708616435527801,-0.5139426589012146,-0.6110677123069763,-0.6717955470085144,0.66602623462677,0.359315276145935,-0.6038256287574768,-0.4015986323356628,-0.5873719453811646
923862,9.177891731262209,0.3597448766231537,3.458603382110596,-0.0597544237971305,-0.1549952328205108,0.3924697339534759,0.6727926731109619,-0.3117905855178833,-0.4794521033763885,-0.4693211913108825,9.777114868164062,0.4531769752502441,-0.4943820536136627,-0.3963565230369568,-0.4264514744281769,0.461265504360199,0.3592503666877746,-0.6038709878921509,-0.4015978276729584,-0.5873655080795288
924029,9.173150062561035,0.3595876395702362,3.436620712280273,-0.0733035504817962,-0.2730570435523987,0.3483903408050537,0.6726714372634888,-0.3119224607944488,-0.4793671667575836,-0.4694940149784088,9.770069122314451,0.4561845660209656,-0.5185893774032593,-0.0456290245056152,-0.3595382869243622,0.1764779090881347,0.3591826260089874,-0.6038844585418701,-0.401634931564331,-0.5873676538467407
924196,9.174280166625977,0.356065422296524,3.4435627460479736,0.4715490043163299,-0.4638459384441376,0.3510412275791168,0.672646164894104,-0.3119283020496368,-0.4793940782546997,-0.4694991111755371,9.77101993560791,0.4899902641773224,-0.5332302451133728,0.1701259464025497,-0.4639228284358978,0.1047879606485366,0.3591569066047668,-0.6038674712181091,-0.401739090681076,-0.5873295664787292
924362,9.21096134185791,0.3615043759346008,3.436109066009521,0.7100160717964172,-0.4529605805873871,0.2933358550071716,0.6725942492485046,-0.3119405210018158,-0.4794159531593323,-0.4695427715778351,9.788708686828612,0.5139081478118896,-0.5301190614700317,0.2667114436626434,-0.3991355001926422,0.0416014268994331,0.359111875295639,-0.6038535833358765,-0.4018273055553436,-0.5873109698295593
924529,9.21187686920166,0.3831691443920135,3.422837972640991,0.574063777923584,-0.3865852653980255,0.2185851782560348,0.6725486516952515,-0.3119428157806396,-0.4794341623783111,-0.4695879817008972,9.781609535217283,0.5459652543067932,-0.4994888603687286,0.0864108353853225,-0.2362131029367447,-0.0757623612880706,0.3590175211429596,-0.6038503050804138,-0.4018688201904297,-0.5873437523841858
924696,9.210474967956545,0.3710211515426636,3.4261996746063232,0.4617009460926056,-0.2393378913402557,0.2507803440093994,0.6725340485572815,-0.3119240403175354,-0.4794448614120483,-0.4696105718612671,9.784588813781738,0.5604703426361084,-0.5173770785331726,-0.1424450427293777,-0.0477420762181282,0.0022731269709765,0.3589481115341186,-0.6038281321525574,-0.4019033312797546,-0.5873854160308838
924862,9.198731422424316,0.3862700164318084,3.435816764831543,0.5982037782669067,-0.3432229459285736,0.1948421895503997,0.6724838614463806,-0.3119260370731354,-0.4794572591781616,-0.4696684777736664,9.787979125976562,0.5601379871368408,-0.5356515049934387,-0.4669834971427917,0.135779321193695,0.0227504801005125,0.3588099777698517,-0.6038433313369751,-0.4018453061580658,-0.5874940156936646
925029,9.187949180603027,0.3921418488025665,3.4419565200805664,0.5366436243057251,-0.1460436135530471,0.2843457758426666,0.6724881529808044,-0.3118881285190582,-0.4794674217700958,-0.4696769714355469,9.795785903930664,0.5459938645362854,-0.50739586353302,-0.6922856569290161,0.4193503260612488,0.2189949750900268,0.3587372004985809,-0.6038218140602112,-0.401790976524353,-0.5875976085662842
925196,9.17660903930664,0.3889771997928619,3.444781541824341,0.5908656716346741,-0.2017384171485901,0.248436763882637,0.6724461317062378,-0.3118892908096313,-0.4794598221778869,-0.4697441458702087,9.770441055297852,0.5387770533561707,-0.5230347514152527,-0.7404887080192566,0.5297922492027283,0.4153546988964081,0.3586735129356384,-0.603810727596283,-0.4017004072666168,-0.5877098441123962
925362,9.18629264831543,0.3811092674732208,3.457162618637085,0.4462437033653259,-0.3433382213115692,0.3390032947063446,0.6723852753639221,-0.311928927898407,-0.4794466495513916,-0.469818502664566,9.786508560180664,0.5137972235679626,-0.4977157413959503,-0.7260815501213074,0.6348171830177307,0.6058363914489746,0.3586558103561401,-0.6037856936454773,-0.4016127586364746,-0.5878063440322876
925529,9.176258087158203,0.3607820868492126,3.447760581970215,0.3696232736110687,-0.1949254423379898,0.449714183807373,0.6723214983940125,-0.3119908571243286,-0.4793970286846161,-0.4699191451072693,9.76965045928955,0.4937672317028045,-0.5304045081138611,-0.5244072079658508,0.5909425616264343,0.5884197354316711,0.3585985004901886,-0.6037880778312683,-0.4014917016029358,-0.5879212617874146
925696,9.19265842437744,0.3615507781505584,3.436835527420044,0.3753733038902282,-0.2914084792137146,0.5057419538497925,0.6723400354385376,-0.3119758665561676,-0.4794113337993622,-0.4698880314826965,9.7507905960083,0.4798528552055359,-0.5133179426193237,-0.2274151593446731,0.5318028330802917,0.7627909183502197,0.3585787415504455,-0.6037901639938354,-0.4013843238353729,-0.5880047082901001
925862,9.230097770690918,0.3692255318164825,3.461174964904785,0.3871039152145386,-0.3027676939964294,0.5697481632232666,0.6723318099975586,-0.3119961619377136,-0.4794041514396667,-0.4698936939239502,9.76728343963623,0.4813799262046814,-0.4783240854740143,0.112087570130825,0.3447917401790619,0.8220202922821045,0.3586117029190063,-0.6037744879722595,-0.4013405442237854,-0.5880306363105774
926029,9.198715209960938,0.3764596283435821,3.429839611053467,0.702255368232727,-0.1477852910757064,0.6578301191329956,0.6723570823669434,-0.3119785785675049,-0.4794008433818817,-0.4698725938796997,9.770428657531738,0.4902191758155823,-0.4854169189929962,0.4445531964302063,0.3302693367004394,0.8344553112983704,0.3586900234222412,-0.6037324666976929,-0.4013414084911346,-0.5880253314971924
926196,9.193708419799805,0.3537323176860809,3.449463129043579,0.5362722873687744,-0.1732571125030517,0.6711487770080566,0.6723460555076599,-0.3120083808898926,-0.4793693125247955,-0.4699007570743561,9.771198272705078,0.4995602667331695,-0.4941636621952057,0.6345354318618774,0.3146328032016754,0.8120313882827759,0.3587515652179718,-0.6037009358406067,-0.401329904794693,-0.588027834892273
926362,9.19283676147461,0.3606187105178833,3.448246479034424,0.5105187296867371,-0.2060925811529159,0.6999245882034302,0.672371506690979,-0.3120059669017792,-0.4793634414672851,-0.4698719382286072,9.78197956085205,0.521170973777771,-0.4785917401313782,0.7981109023094177,0.2799403965473175,0.9590868353843688,0.3588511049747467,-0.6036633849143982,-0.4013353586196899,-0.5880020260810852
926529,9.183969497680664,0.3604926168918609,3.4559195041656494,0.5715537667274475,-0.2461892664432525,0.8435350060462952,0.6723690032958984,-0.3120486438274383,-0.4793337285518646,-0.4698773026466369,9.767723083496094,0.5297169089317322,-0.5077070593833923,0.7262160181999207,0.3184490799903869,1.0706300735473633,0.3589553833007812,-0.6036326289176941,-0.4013226926326751,-0.5879786610603333
926696,9.18271541595459,0.3585418164730072,3.456374406814575,0.5297026038169861,-0.3376906216144562,0.8592228293418884,0.6723629236221313,-0.3120988309383392,-0.4793117642402649,-0.4698750376701355,9.744384765625,0.5132643580436707,-0.490362673997879,0.5852693915367126,0.0525764673948287,1.1875648498535156,0.3590472936630249,-0.6036346554756165,-0.4013081789016723,-0.5879303812980652
926862,9.18537139892578,0.3675472140312195,3.4330523014068604,0.5377833843231201,-0.3374345004558563,0.8341479897499084,0.6723796725273132,-0.3121219277381897,-0.4793073534965515,-0.4698404967784881,9.769013404846191,0.5066626667976379,-0.4759582281112671,0.4917958676815033,-0.1690822541713714,1.3472346067428589,0.3591731190681457,-0.6036416888237,-0.4013263881206512,-0.5878339409828186
927029,9.18868637084961,0.3484155237674713,3.414458036422729,0.4515839517116546,-0.5412859916687012,0.9599319696426392,0.6723742485046387,-0.3121886253356933,-0.4793030023574829,-0.4698083400726318,9.806262969970703,0.490991473197937,-0.4760924279689789,0.3252620995044708,-0.130624771118164,1.2530694007873535,0.3592489957809448,-0.6036678552627563,-0.4013066291809082,-0.5877740383148193
927196,9.23826789855957,0.3542717695236206,3.450868368148804,0.3697257339954376,-0.3545054197311401,0.7877506613731384,0.672393262386322,-0.312211275100708,-0.4793004393577575,-0.4697686731815338,9.720868110656738,0.467048704624176,-0.5014734268188477,0.4099888503551483,0.0520001873373985,1.1490049362182615,0.3593268096446991,-0.6036725044250488,-0.4012865722179413,-0.5877353549003601
927362,9.212857246398926,0.3420083224773407,3.4314889907836914,0.4473962485790252,-0.0977764800190925,0.7512653470039368,0.6724165081977844,-0.3122211098670959,-0.4792698919773102,-0.4697600603103637,9.70087718963623,0.4595732390880584,-0.5113250017166138,0.3188588619232178,-0.3601017594337463,0.8932108283042908,0.3593552708625793,-0.603699266910553,-0.4013075232505798,-0.5876761078834534
927529,9.157014846801758,0.3558396100997925,3.4122912883758545,0.6868237257003784,-0.4024011194705963,0.7460659146308899,0.6724289059638977,-0.3122277855873108,-0.4792858958244324,-0.4697214961051941,9.82378101348877,0.4772913455963135,-0.5293430685997009,0.363809198141098,-0.4031694829463959,0.6173877120018005,0.3593503832817077,-0.6037186980247498,-0.4013473093509674,-0.58763188123703
927696,9.229798316955566,0.3631243705749511,3.346249580383301,0.4609581530094147,0.1884006112813949,0.6264034509658813,0.6725013852119446,-0.3121697008609772,-0.4792591333389282,-0.4696837067604065,9.794212341308594,0.5013449192047119,-0.5006332397460938,0.1894763261079788,-0.1323152035474777,0.2656741142272949,0.3593161702156067,-0.6037038564682007,-0.4013892412185669,-0.5876396298408508
927862,9.191325187683104,0.3884076774120331,3.487919569015503,0.7407128810882568,0.8163983821868896,0.4723942577838897,0.6725932955741882,-0.3120574355125427,-0.479180097579956,-0.4697073101997375,9.829520225524902,0.5505644083023071,-0.4936957657337188,-0.2602762281894684,-0.010885396040976,-0.2524771690368652,0.3592108488082886,-0.6036673188209534,-0.4014386236667633,-0.5877076983451843
928029,9.205357551574709,0.4378207623958587,3.463360071182251,0.37623131275177,-0.379157543182373,-0.0693976059556007,0.6725372076034546,-0.3120357692241668,-0.4792100489139557,-0.4697714447975158,9.80527687072754,0.5563655495643616,-0.4839587211608886,-0.7947749495506287,0.2919143736362457,-0.6634842157363892,0.3590458035469055,-0.6036049723625183,-0.401468276977539,-0.5878523588180542
928196,9.25317096710205,0.3827080428600311,3.441838026046753,0.3152987062931061,0.6426418423652649,-0.2028525620698928,0.6725510358810425,-0.3119294643402099,-0.4791492819786072,-0.469884306192398,9.79992961883545,0.5307251811027527,-0.494144856929779,-1.2955031394958496,0.4566039741039276,-0.2600841224193573,0.3588740229606628,-0.6035822033882141,-0.4014049172401428,-0.5880239009857178
928362,9.166282653808594,0.3395481407642364,3.481104850769043,0.5012085437774658,0.4712032377719879,0.5041411519050598,0.6725821495056152,-0.3118933439254761,-0.4790679514408111,-0.4699465036392212,9.798773765563965,0.507565975189209,-0.5067738890647888,-1.209854245185852,0.7360769510269165,0.3747073709964752,0.3587658107280731,-0.6035774350166321,-0.4012641012668609,-0.5881909728050232
928529,9.167094230651855,0.3411969840526581,3.5078279972076416,0.3888327479362488,-0.1484383940696716,0.8328031897544861,0.6726034283638,-0.3119174540042877,-0.4790347814559936,-0.4699338972568512,9.798474311828612,0.5199497938156128,-0.4862900972366333,-1.0883091688156128,1.080862283706665,0.9850963950157166,0.3587498664855957,-0.6035658717155457,-0.4010719954967499,-0.5883434414863586
928696,9.162035942077637,0.3660891950130462,3.4685957431793213,0.2105940133333206,-0.3075701296329498,0.6624788641929626,0.6726154685020447,-0.3119360506534576,-0.4790264964103699,-0.4699127674102783,9.772284507751465,0.4909644424915313,-0.4511590898036957,-0.8618417382240295,1.293063402175903,1.1485053300857544,0.3587986826896667,-0.6035212278366089,-0.4008934199810028,-0.5884812474250793
928862,9.164241790771484,0.3329091370105743,3.4706125259399414,-0.0305943693965673,-0.3032287359237671,0.4410570561885834,0.6725759506225586,-0.3119886815547943,-0.4789938032627105,-0.4699676036834717,9.731341361999512,0.434324562549591,-0.4582089781761169,-0.430741548538208,1.1396307945251465,1.1173604726791382,0.3588587045669555,-0.603475034236908,-0.400747150182724,-0.5885916352272034
929029,9.16380214691162,0.3260928988456726,3.468853235244751,0.003669018857181,-0.4907008707523346,0.4079654812812805,0.6725137233734131,-0.3120574653148651,-0.4789771437644958,-0.4700280427932739,9.72911262512207,0.3897975385189056,-0.4415023028850555,0.2940273880958557,0.8577501773834229,1.0592708587646484,0.3589739203453064,-0.6034032106399536,-0.400695651769638,-0.5886301398277283
929196,9.18449878692627,0.2948191463947296,3.4667038917541504,0.3433574140071869,-0.6133857369422913,0.5472857356071472,0.672456681728363,-0.3121228814125061,-0.4789813160896301,-0.4700619578361511,9.72730541229248,0.3840191960334778,-0.477129727602005,1.3029627799987793,0.461636871099472,0.9804221391677856,0.3591232299804687,-0.603324830532074,-0.4007318317890167,-0.5885947942733765
929362,9.187407493591309,0.3129052519798279,3.4209630489349365,0.6476106643676758,-0.2861578464508056,0.8457633256912231,0.6724803447723389,-0.3121330738067627,-0.4789761006832123,-0.4700265526771545,9.773694038391112,0.4327502250671386,-0.4305500388145447,1.953602313995361,0.1793721467256546,0.9240102171897888,0.3593442440032959,-0.6032097935676575,-0.4008794128894806,-0.5884771943092346
929529,9.196231842041016,0.3456508219242096,3.4352214336395264,0.8048470616340637,-0.1282556056976318,0.6454720497131348,0.6724897027015686,-0.312122642993927,-0.4789626598358154,-0.4700338542461395,9.790607452392578,0.4917747676372528,-0.4524592757225036,2.0368306636810303,0.4495861530303955,0.6381084322929382,0.3595371842384338,-0.603068470954895,-0.4010173976421356,-0.5884103178977966
929696,9.17944049835205,0.3654215931892395,3.503923177719116,0.6793320178985596,-0.0258560180664062,0.7119497656822205,0.6725454330444336,-0.3120805323123932,-0.4789548516273498,-0.469990074634552,9.75961971282959,0.512111485004425,-0.4420041143894195,1.842225193977356,0.0973986759781837,0.5382059812545776,0.3596721589565277,-0.6029690504074097,-0.4011540412902832,-0.5883364677429199
929862,9.141286849975586,0.3335669040679931,3.4232795238494877,0.704073965549469,-0.9554049372673036,0.7863675355911255,0.6725424528121948,-0.3121049702167511,-0.4790356457233429,-0.4698958098888397,9.75653076171875,0.5554059743881226,-0.4704591035842895,1.4033774137496948,-0.0959067642688751,0.701845645904541,0.3597888052463531,-0.6029067635536194,-0.4012670516967773,-0.5882519483566284
930029,9.28285789489746,0.3627459704875946,3.423314332962036,1.0818227529525757,-0.2999375164508819,0.8372087478637695,0.6725848317146301,-0.3120726346969604,-0.4790617227554321,-0.4698299765586853,9.76042366027832,0.5983819961547852,-0.4860939681529999,0.6962748169898987,-0.4207398593425751,0.6590211987495422,0.3598083555698395,-0.6029144525527954,-0.401328444480896,-0.5881901979446411
930196,9.128729820251465,0.38363778591156,3.4847934246063232,0.7510731816291809,-0.6032302379608154,0.5755365490913391,0.672592043876648,-0.3120559155941009,-0.4791197180747986,-0.4697718322277069,9.800904273986816,0.5762019157409668,-0.4756174385547638,-0.1678144186735153,-0.5393009781837463,0.6058876514434814,0.3597408533096313,-0.6029735207557678,-0.4013282358646393,-0.5881710648536682
930362,9.250593185424805,0.3975240588188171,3.4153709411621094,0.5236324071884155,-0.4618609845638275,0.2989193797111511,0.6725732088088989,-0.3120388686656952,-0.4791560769081116,-0.4697728753089905,9.783489227294922,0.5467147827148438,-0.4988584816455841,-0.8259455561637878,-0.5114343762397766,0.8613103628158569,0.3596874475479126,-0.6030464172363281,-0.4012982249259949,-0.58814936876297
930529,9.187955856323242,0.3513874113559723,3.443594455718994,0.2496277540922165,-0.3530326187610626,0.5050247311592102,0.6725414991378784,-0.3120777010917663,-0.4791395962238312,-0.4698092043399811,9.799891471862791,0.4800224304199219,-0.5005468726158142,-1.1096316576004028,-0.6049718856811523,0.9952390193939208,0.3595900237560272,-0.6031662225723267,-0.4012125134468078,-0.5881446003913879
930696,9.233718872070312,0.3494274318218231,3.4362196922302246,0.1777073293924331,-0.5031231045722961,0.661902666091919,0.6725008487701416,-0.3121506571769714,-0.4791218936443329,-0.4698370695114136,9.783893585205078,0.4536175727844238,-0.4859570264816284,-1.1141653060913086,-0.3618690371513366,1.0037680864334106,0.3594995737075805,-0.603270947933197,-0.4011054933071136,-0.5881655216217041
930862,9.204124450683594,0.352774977684021,3.448658227920532,-0.1319438219070434,-0.4108405113220215,0.5966798663139343,0.6724843382835388,-0.3122060298919678,-0.4791012108325958,-0.4698449373245239,9.756784439086914,0.4412621855735779,-0.4909496605396271,-0.8888375759124756,-0.1664313226938247,0.7305063009262085,0.3594262301921844,-0.6033253073692322,-0.4010407030582428,-0.5881987810134888
931029,9.172975540161133,0.3433766961097717,3.4536256790161133,-0.1133361831307411,-0.4179736077785492,0.4338598847389221,0.6724807620048523,-0.3122245073318481,-0.4791057109832763,-0.4698332250118255,9.774139404296877,0.4240738153457641,-0.4771053791046142,-0.6399589776992798,-0.1256174743175506,0.4080294966697693,0.3593722879886627,-0.6033293604850769,-0.4010464251041412,-0.5882236957550049
931196,9.174903869628906,0.3638646900653839,3.4435555934906006,-0.1696072965860366,-0.5367781519889832,0.2969216108322143,0.672433078289032,-0.3122714161872864,-0.479108065366745,-0.46986785531044,9.775404930114746,0.4327210783958435,-0.511555016040802,-0.3347835838794708,-0.0003457714337855,0.1625702232122421,0.3593097031116485,-0.6033069491386414,-0.4010708034038543,-0.5882682800292969
931362,9.15468692779541,0.3279848098754883,3.440715789794922,0.0587619319558143,-0.7968750596046448,0.1679488718509674,0.6723402142524719,-0.312333881855011,-0.4791381061077118,-0.4699285328388214,9.762133598327637,0.4473192691802978,-0.5016705989837646,-0.0612783916294574,-0.0242680329829454,0.048901043832302,0.3592182099819183,-0.603293776512146,-0.401087075471878,-0.588326632976532
931529,9.19920539855957,0.3386529088020324,3.4163753986358643,0.4469992220401764,-0.7894986271858215,0.3032607436180115,0.6722791790962219,-0.312362790107727,-0.4791905879974365,-0.4699430465698242,9.774163246154783,0.495232880115509,-0.5020280480384827,0.0961436703801155,-0.1395507901906967,-0.0750708132982254,0.359159767627716,-0.6032508015632629,-0.4011708796024322,-0.5883491039276123
931696,9.217206001281738,0.3657136857509613,3.425877809524536,0.275829553604126,-0.6181880831718445,0.107669398188591,0.6722019910812378,-0.312390387058258,-0.4792189300060272,-0.4700064659118652,9.795413970947266,0.5190256834030151,-0.4982908368110657,-0.0161488074809312,-0.0764154866337776,-0.0555795542895793,0.3591092526912689,-0.6032010912895203,-0.4012531042098999,-0.5883748531341553
931862,9.199403762817385,0.3469636440277099,3.420520782470703,0.2448638081550598,-0.4857063889503479,0.0545614510774612,0.6721470355987549,-0.3123895525932312,-0.4792468547821045,-0.4700571298599243,9.788158416748049,0.5423496961593628,-0.4896435737609863,-0.1067153140902519,0.0963741838932037,-0.1235684603452682,0.3590268492698669,-0.6031557321548462,-0.401296466588974,-0.5884421467781067
932029,9.220961570739746,0.3495303988456726,3.418036937713623,0.538833498954773,-0.664457380771637,0.093569591641426,0.6720766425132751,-0.3123942613601684,-0.4792980551719665,-0.4701024293899536,9.805477142333984,0.536710262298584,-0.4893827736377716,-0.3707566559314728,0.2604235410690307,-0.1474907249212265,0.3589186370372772,-0.6031150221824646,-0.4013009071350097,-0.588546633720398
932196,9.248248100280762,0.355742871761322,3.440300464630127,0.5410875082015991,-0.4612846672534942,0.1026108860969543,0.6720417737960815,-0.3123645484447479,-0.47934290766716,-0.4701261818408966,9.779767990112305,0.5224591493606567,-0.5023427605628967,-0.4060509204864502,0.5228896141052246,0.0927884057164192,0.358861893415451,-0.6030551791191101,-0.4012870490550995,-0.5886521339416504
932362,9.202510833740234,0.3726407885551452,3.4371464252471924,0.6471112370491028,-0.3737789392471313,0.1977876722812652,0.672028660774231,-0.3123206198215484,-0.4793851673603058,-0.4701310694217682,9.755857467651367,0.5136756896972656,-0.4716159105300903,-0.4075364470481872,0.449867844581604,0.3090108036994934,0.3588059544563293,-0.6030230522155762,-0.4012446105480194,-0.5887480974197388
932529,9.202736854553224,0.3593906462192535,3.4418632984161377,0.4359985589981079,-0.5303877592086792,0.1685251593589782,0.6719666719436646,-0.3123325407505035,-0.479412168264389,-0.4701841175556183,9.76364517211914,0.5127741098403931,-0.485999584197998,-0.4560469388961792,0.5307015180587769,0.3950951099395752,0.3587629199028015,-0.6029877662658691,-0.4011919796466827,-0.5888463854789734
932696,9.211709976196287,0.3743749856948852,3.4352829456329346,0.24477419257164,-0.4077029228210449,0.0794697999954223,0.6719080805778503,-0.3123387992382049,-0.4794244468212127,-0.4702512919902801,9.76418685913086,0.5126028060913086,-0.4794192016124725,-0.4733354747295379,0.4821654558181762,0.4311705529689789,0.3587420880794525,-0.6029437780380249,-0.4011613726615906,-0.5889248251914978
932862,9.174208641052246,0.3584861755371094,3.4347074031829834,0.3838511407375335,-0.3002960979938507,0.2239254266023636,0.6719018220901489,-0.3123047351837158,-0.479448527097702,-0.4702582359313965,9.778801918029783,0.5001968145370483,-0.4724672436714172,-0.2891673743724823,0.5117737650871277,0.3914580643177032,0.3587073683738708,-0.6029041409492493,-0.4011198282241821,-0.5890148878097534
933029,9.204370498657228,0.3523815870285034,3.424407958984375,0.3438057005405426,-0.3394579589366913,0.2717700004577636,0.6718864440917969,-0.3122884929180145,-0.4794662296772003,-0.4702730476856231,9.799915313720703,0.5001501441001892,-0.4811455309391022,-0.0652227476239204,0.658086359500885,0.5258222818374634,0.3587338924407959,-0.6028337478637695,-0.4010999202728271,-0.5890843868255615
933196,9.205496788024902,0.3540762960910797,3.4391777515411377,0.3119178712368011,-0.3310825824737549,0.4114232361316681,0.6718554496765137,-0.3123093545436859,-0.4794582426548004,-0.4703114032745361,9.801275253295898,0.5013062357902527,-0.4514110088348388,0.111882671713829,0.7667096853256226,0.5165377259254456,0.3587654829025268,-0.6027547121047974,-0.4010744094848633,-0.5891633033752441
933362,9.204435348510742,0.368378221988678,3.439249038696289,0.4180568754673004,-0.3601145446300506,0.4710495471954345,0.6718277335166931,-0.3123296201229095,-0.4794553816318512,-0.4703406691551208,9.797928810119627,0.4955529868602752,-0.4519285559654236,0.2482703328132629,0.7860474586486816,0.5220445394515991,0.3588062822818756,-0.6026700735092163,-0.401054710149765,-0.5892385244369507
933529,9.187114715576172,0.3695548176765442,3.442748546600342,0.5057163238525391,-0.3636106848716736,0.5698889493942261,0.6718299984931946,-0.3123288452625274,-0.4794669449329376,-0.4703259170055389,9.75895881652832,0.4837574958801269,-0.4622159004211426,0.2892506122589111,0.8582494854927063,0.676040768623352,0.3588902056217193,-0.6025712490081787,-0.4010435044765472,-0.5892959833145142
933696,9.191984176635742,0.3494291305541992,3.415756702423096,0.42156583070755,-0.4811089932918548,0.6099216938018799,0.6717888712882996,-0.3123815953731537,-0.4794599711894989,-0.4703570008277893,9.736286163330078,0.5157076120376587,-0.4575090110301971,0.3981173634529114,0.4438872635364532,0.816526472568512,0.3589572012424469,-0.6025201082229614,-0.4010364711284637,-0.5893124341964722
933862,9.192390441894531,0.3550649583339691,3.421194553375244,0.5887015461921692,-0.6044213175773621,0.601802408695221,0.6717780232429504,-0.3123933672904968,-0.4794980585575104,-0.4703257977962494,9.756905555725098,0.4954071640968323,-0.4480228424072265,0.3811106085777282,0.1968143880367279,0.8006850481033325,0.3590288460254669,-0.6024754047393799,-0.401064395904541,-0.589295506477356
934029,9.227913856506348,0.3645526766777038,3.4098875522613525,0.468821257352829,-0.3814115226268768,0.6547565460205078,0.6717684268951416,-0.3124181032180786,-0.4794953465461731,-0.4703258574008941,9.750946998596191,0.4832954108715057,-0.4715240597724914,0.4813587069511413,0.165810227394104,0.9288765788078308,0.3591037094593048,-0.6024452447891235,-0.4010764956474304,-0.5892724990844727
934196,9.2178316116333,0.3686214387416839,3.427694320678711,0.4263553917407989,-0.3619202375411987,0.4637755155563354,0.6717686653137207,-0.3124081790447235,-0.4795125424861908,-0.4703145325183868,9.707015991210938,0.4983752369880676,-0.4600540697574615,0.4602409899234772,-0.0625077933073043,0.8193181753158569,0.3591549694538116,-0.6024287343025208,-0.4011092185974121,-0.5892356038093567
934362,9.197425842285156,0.3486907184123993,3.4209930896759038,0.3890248835086822,-0.3093501925468445,0.4373688399791717,0.6717641949653625,-0.3124012947082519,-0.4795200824737549,-0.4703177213668823,9.807144165039062,0.497883141040802,-0.4730857312679291,0.433462917804718,-0.2459459155797958,0.6687026619911194,0.3591580092906952,-0.602435290813446,-0.4011403620243072,-0.5892060399055481
934529,9.193880081176758,0.3624510467052459,3.3715357780456543,0.6624403595924377,-0.3188908994197845,0.5538809895515442,0.6717806458473206,-0.3123755156993866,-0.4795427024364471,-0.4702884554862976,9.795467376708984,0.5063658952713013,-0.4726673066616058,0.3006739020347595,0.015476475469768,0.5929276347160339,0.3591912984848022,-0.6024001240730286,-0.4011863172054291,-0.5891904830932617
934696,9.242488861083984,0.3677212595939636,3.373161554336548,0.539896547794342,0.6270565390586853,0.3417823016643524,0.6718125939369202,-0.3123132288455963,-0.4794541299343109,-0.4703745543956756,9.794334411621094,0.5420099496841431,-0.4691411852836609,0.0075237303972244,-0.0240119062364101,0.1550272554159164,0.3591355085372925,-0.6023736000061035,-0.401224136352539,-0.5892258286476135
934863,9.200679779052734,0.414614737033844,3.4866018295288086,0.3891017138957977,0.0466215126216411,0.1280442774295807,0.6718099117279053,-0.3122623860836029,-0.4794404506683349,-0.470426082611084,9.807680130004885,0.5687135457992554,-0.4447442889213562,-0.444418728351593,0.2258719801902771,-0.245600163936615,0.3590331375598907,-0.6023170948028564,-0.4012584090232849,-0.589322566986084
935029,9.267967224121094,0.4242813885211944,3.422645092010498,0.225756749510765,-0.2089227885007858,-0.270047515630722,0.6717509627342224,-0.3122206628322601,-0.4794560372829437,-0.4705220758914947,9.794962882995604,0.5539092421531677,-0.4581867754459381,-0.851237952709198,0.4716898798942566,-0.1236452981829643,0.3589089512825012,-0.6022747159004211,-0.4012238681316376,-0.5894650220870972
935196,9.210500717163086,0.3675998151302337,3.4584336280822754,0.4468327462673187,0.7293919324874878,-0.0357297137379646,0.6717759966850281,-0.3121166825294494,-0.4793799519538879,-0.470632940530777,9.821307182312012,0.5150270462036133,-0.4609443843364715,-0.8924489617347717,0.59425950050354,0.1590356677770614,0.3588200211524963,-0.6022351980209351,-0.4011625349521637,-0.5896013379096985
935363,9.16568660736084,0.3580999374389648,3.496053695678711,0.4292624294757843,0.0758071839809417,0.3996797204017639,0.6717805862426758,-0.312093436717987,-0.479343980550766,-0.4706782400608063,9.793899536132812,0.5241057276725769,-0.4325064122676849,-0.8152650594711304,0.9600216150283812,0.5739101767539978,0.3587942719459533,-0.6021846532821655,-0.4010520577430725,-0.5897436738014221
935529,9.164825439453123,0.3749438822269439,3.475705146789551,0.2648801207542419,-0.4392577707767486,0.5365284085273743,0.6717842221260071,-0.3120971620082855,-0.4793625473976135,-0.4706515669822693,9.745394706726074,0.5108892917633057,-0.4269724190235138,-0.6390112638473511,1.0370134115219116,0.7670555710792542,0.3587866127490997,-0.6021413207054138,-0.4009176790714264,-0.5898840427398682
935696,9.158649444580078,0.3614581525325775,3.464507579803467,0.1185163632035255,-0.5445387959480286,0.3988473415374756,0.6717371344566345,-0.3121408820152282,-0.4793689250946045,-0.4706832766532898,9.753223419189451,0.4886285960674286,-0.4317235052585602,-0.5530934929847717,1.021428108215332,0.8629111051559448,0.358805775642395,-0.6020923256874084,-0.4007948935031891,-0.5900058150291443
935863,9.185606956481934,0.3516450822353363,3.449548959732056,0.1024187728762626,-0.6617937088012695,0.3738365471363067,0.6716906428337097,-0.3121808469295501,-0.4793941080570221,-0.4706974625587463,9.742875099182127,0.4430164396762848,-0.4320720434188843,-0.0601258166134357,0.9301572442054749,0.7352573871612549,0.3588534891605377,-0.6020172238349915,-0.400731474161148,-0.5900964140892029
936029,9.191564559936523,0.3467316627502441,3.422698497772217,0.2327105551958084,-0.4819669127464294,0.3731705844402313,0.6716670989990234,-0.3121913075447082,-0.4794133901596069,-0.4707044959068298,9.740962028503418,0.4288575947284698,-0.4462959468364715,0.5384494066238403,0.5826825499534607,0.972226083278656,0.3589496910572052,-0.6019572615623474,-0.4007125496864319,-0.5901119709014893
936196,9.18091106414795,0.3343921899795532,3.4143776893615723,0.6022762060165405,-0.3420447707176208,0.5241830945014954,0.6716914176940918,-0.3121555149555206,-0.4794448018074035,-0.4706615507602691,9.788681983947754,0.4597283005714416,-0.415527880191803,0.99630206823349,0.3312042355537414,0.8469800353050232,0.3590639531612396,-0.6018857359886169,-0.4007597267627716,-0.5900833606719971
936363,9.207645416259766,0.356369137763977,3.4328134059906006,0.7964332699775696,-0.2545133829116821,0.4759927988052368,0.6716880202293396,-0.3121317625045776,-0.4794568419456482,-0.4706698656082153,9.798916816711426,0.4982996582984924,-0.4338085055351257,1.2174164056777954,0.3985271751880646,0.5556867122650146,0.3591814041137695,-0.6017767190933228,-0.4008524715900421,-0.5900599956512451
936529,9.218554496765137,0.357005625963211,3.464704751968384,0.4948693513870239,0.0536906197667121,0.4215017855167389,0.6716914176940918,-0.3121097385883331,-0.4794224500656128,-0.4707146286964416,9.756441116333008,0.5067008137702942,-0.4322370886802673,1.1914323568344116,0.2573884129524231,0.4880179762840271,0.3592878878116607,-0.6016738414764404,-0.4009614586830139,-0.5900260806083679
936696,9.135619163513184,0.3482885658740997,3.436432123184204,0.601213276386261,-0.5315403342247009,0.508098304271698,0.6717253923416138,-0.3120616376399994,-0.479488730430603,-0.4706305563449859,9.773488998413086,0.5282389521598816,-0.4324239492416382,1.1315497159957886,0.0054875211790204,0.6162478923797607,0.3593782186508178,-0.6016079187393188,-0.4010600745677948,-0.5899713039398193
936863,9.28037166595459,0.3379665315151214,3.3546512126922607,1.0410345792770386,-0.5061325430870056,0.8352493047714233,0.6717727780342102,-0.3120229542255401,-0.4795472025871277,-0.4705289900302887,9.740056037902832,0.5711796283721924,-0.4429634213447571,0.7784788608551025,-0.3491907715797424,0.4882741272449493,0.3593885600566864,-0.6015945672988892,-0.4011412262916565,-0.5899233222007751
937029,9.147697448730469,0.405175507068634,3.499404191970825,0.6671019196510315,0.0325345285236835,0.6315387487411499,0.6718055605888367,-0.3119917809963226,-0.4795229732990265,-0.4705276191234588,9.784167289733888,0.5634494423866272,-0.4475659728050232,0.2579006850719452,-0.5709326863288879,0.3824168145656585,0.3593498170375824,-0.60160893201828,-0.4012173116207123,-0.5898805260658264
937196,9.265381813049316,0.4179737567901611,3.384149074554444,0.5573258996009827,-0.9090715050697328,0.1919223368167877,0.6717581152915955,-0.3119839131832123,-0.4796165525913238,-0.4705052673816681,9.78725814819336,0.53605717420578,-0.4636767208576202,-0.3127822875976562,-0.4995501041412353,0.6275303363800049,0.359295129776001,-0.6016553044319153,-0.4012283682823181,-0.589859127998352
937363,9.190266609191896,0.375105082988739,3.4146950244903564,0.4669130742549896,0.2245401293039322,0.3161951601505279,0.6717696189880371,-0.3119405806064605,-0.4795718789100647,-0.470563143491745,9.763483047485352,0.5189861059188843,-0.4458449482917785,-0.6488592624664307,-0.6378458142280579,0.8881780505180359,0.3592162430286407,-0.6017519235610962,-0.4011866450309753,-0.5898370146751404
937529,9.220717430114746,0.3564441502094269,3.4225733280181885,0.3566375970840454,-0.440205454826355,0.6140323877334595,0.6717441082000732,-0.3119800984859466,-0.4795673787593841,-0.4705779254436493,9.749763488769531,0.513313353061676,-0.4393301904201507,-0.7606202960014343,-0.7334324717521667,0.9487264156341552,0.3591406345367431,-0.6018573045730591,-0.4011479616165161,-0.5898019075393677
937696,9.20826530456543,0.3592979609966278,3.4266252517700195,0.1054538935422897,-0.3688101172447204,0.4807183742523193,0.6717108488082886,-0.3120223879814148,-0.4795498549938202,-0.4706152975559234,9.765681266784668,0.4968344569206238,-0.4634884893894195,-0.7397075891494751,-0.7657556533813477,0.8214440941810608,0.3590374886989593,-0.6019675135612488,-0.4011081159114837,-0.5897793769836426
937863,9.199289321899414,0.3662680089473724,3.420123815536499,-0.1141813918948173,-0.1686980426311493,0.3598391711711883,0.6716660857200623,-0.3120715022087097,-0.4794983267784118,-0.4706989824771881,9.754185676574709,0.4845823943614959,-0.4726746380329132,-0.7116615772247314,-0.8399300575256348,0.5681984424591064,0.358955055475235,-0.6020389199256897,-0.4011400043964386,-0.5897347927093506
938029,9.186568260192873,0.3833231925964355,3.4327869415283203,0.1344858855009079,-0.1404856741428375,0.1620323359966278,0.6716418862342834,-0.3120591044425964,-0.4794841110706329,-0.4707561433315277,9.75705623626709,0.4644534289836883,-0.4809868633747101,-0.5716114044189453,-0.958299160003662,0.1809088885784149,0.3588156104087829,-0.6021099090576172,-0.401195228099823,-0.5897095799446106
938196,9.190216064453123,0.3711750209331512,3.3955695629119877,0.214102953672409,-0.1656629294157028,0.1248170807957649,0.6716505885124207,-0.3120038509368896,-0.4795016944408417,-0.4707625210285187,9.769994735717772,0.4564974904060364,-0.4817054271697998,-0.3515342772006988,-1.145233392715454,-0.00444380287081,0.3586500883102417,-0.6021867394447327,-0.4012773334980011,-0.589676022529602
938363,9.21763515472412,0.3631279766559601,3.41599702835083,0.5447244644165039,0.1112551614642143,0.0689045637845993,0.6716670989990234,-0.3119165897369385,-0.4795025587081909,-0.4707960188388824,9.785624504089355,0.4760313630104065,-0.4862630069255829,-0.1344282478094101,-1.004747748374939,-0.0607789307832717,0.3585086166858673,-0.602236270904541,-0.4013768136501312,-0.5896437168121338
938529,9.184690475463867,0.3763636350631714,3.417963743209839,0.588035523891449,0.1993244290351867,0.1215514615178108,0.6716799736022949,-0.311838299036026,-0.4794853627681732,-0.4708468914031982,9.809558868408203,0.5165044069290161,-0.4640772938728332,-0.0415437966585159,-0.682578444480896,-0.0694872513413429,0.3584099411964416,-0.6022422313690186,-0.4014841318130493,-0.5896245837211609
938696,9.196760177612305,0.3748222887516022,3.461872339248657,0.4430036544799804,0.2011045068502426,-0.0322976149618625,0.6716691851615906,-0.3117701113224029,-0.4794607162475586,-0.4709326028823852,9.80599594116211,0.5428789854049683,-0.4686619639396667,-0.068770095705986,-0.3241671025753021,-0.2099601030349731,0.3583249747753143,-0.6022058725357056,-0.4015899300575256,-0.5896413326263428
938863,9.20832633972168,0.3805048763751983,3.4460582733154297,0.2766107320785522,0.2240790873765945,-0.0841249078512191,0.6716473698616028,-0.3117145597934723,-0.4794236123561859,-0.4710383415222168,9.78139877319336,0.5450854897499084,-0.4655900001525879,-0.4094446003437042,-0.087954007089138,-0.2074884623289108,0.3582206964492798,-0.6021692752838135,-0.4016509056091308,-0.5897005200386047
939029,9.19838047027588,0.3776224553585052,3.4648728370666504,0.4931788742542267,0.4184666574001312,0.0450335256755352,0.6716731786727905,-0.3116178214550018,-0.4793865382671356,-0.4711031019687652,9.79764175415039,0.5684956908226013,-0.4674926102161407,-0.5811649560928345,0.1959051340818405,-0.016110386699438,0.3581574857234955,-0.602112889289856,-0.4016885459423065,-0.5897707939147949
939196,9.18779182434082,0.3642688989639282,3.453125,0.5776880383491516,0.2883669734001159,0.0115065053105354,0.6716708540916443,-0.311539888381958,-0.4793561398983001,-0.4711888134479522,9.815262794494627,0.5430759191513062,-0.4580911695957184,-0.7381836175918579,0.5102369785308838,0.1677311658859253,0.3580799400806427,-0.6020709276199341,-0.4016467034816742,-0.5898891687393188
939363,9.193696022033691,0.3852970004081726,3.472693920135498,0.6633881330490112,0.1479069292545318,0.1794745773077011,0.6716836094856262,-0.3114655613899231,-0.4793436825275421,-0.4712324738502502,9.795429229736328,0.5316610932350159,-0.4681560099124908,-0.6954488158226013,0.6675245761871338,0.3495044708251953,0.3580467104911804,-0.6020137071609497,-0.4015997350215912,-0.589999794960022
939529,9.184698104858398,0.3859836161136627,3.467326164245605,0.6233810782432556,0.1157501935958862,0.24424909055233,0.6717196106910706,-0.311378538608551,-0.4793435931205749,-0.4712388217449188,9.796289443969728,0.5342028141021729,-0.4510324001312256,-0.670335590839386,0.9641197323799132,0.5100193023681641,0.3580247461795807,-0.6019530296325684,-0.4015043973922729,-0.5901399254798889
939696,9.191117286682127,0.380422979593277,3.4823460578918457,0.4687571823596954,0.2614351809024811,0.2045750319957733,0.6717469096183777,-0.3113029599189758,-0.4793144166469574,-0.4712793827056885,9.776293754577637,0.5092803239822388,-0.4404001235961914,-0.3855863809585571,0.9800059199333192,0.6306614875793457,0.3580396175384521,-0.6018829941749573,-0.4014225304126739,-0.590258002281189
939863,9.170061111450195,0.3630243837833404,3.446791410446167,0.5740894079208374,0.1908082067966461,0.3781779110431671,0.671786367893219,-0.3112340569496155,-0.4792913198471069,-0.4712921679019928,9.746830940246582,0.4892430603504181,-0.4500167369842529,-0.0908866673707962,0.7789782881736755,0.7669018507003784,0.3581026494503021,-0.6018079519271851,-0.4013862907886505,-0.5903209447860718
940029,9.183409690856934,0.3492662906646728,3.442810297012329,0.8387070298194885,-0.0076966159977018,0.6147496104240417,0.6718144416809082,-0.3111956417560577,-0.4792779386043548,-0.4712911546230316,9.756091117858888,0.4968290627002716,-0.4473019540309906,0.4004737436771393,0.3470200002193451,0.9988119602203368,0.3581998944282532,-0.6017608642578125,-0.4013901352882385,-0.5903074145317078
940196,9.185262680053713,0.3673483431339264,3.4275593757629395,0.794320285320282,0.025580683723092,0.7156380414962769,0.6718393564224243,-0.3111766576766968,-0.4792470633983612,-0.4712994694709778,9.790817260742188,0.4875377416610718,-0.4337708950042724,0.6940849423408508,0.2144615203142166,1.136877179145813,0.3583064079284668,-0.6017312407493591,-0.4013943076133728,-0.590269923210144
940363,9.20887851715088,0.3812044560909271,3.405822277069092,0.6588290333747864,0.1348060369491577,0.6938159465789795,0.6718919277191162,-0.31113401055336,-0.4792153835296631,-0.4712849855422973,9.749322891235352,0.4783750772476196,-0.4207174479961395,0.9243303537368774,0.1188621446490287,1.106334209442139,0.3584220707416534,-0.6016979217529297,-0.4014228880405426,-0.5902143120765686
940529,9.233131408691406,0.3556744456291199,3.4354023933410645,0.6860297322273254,0.0636027380824089,0.7017558813095093,0.6719234585762024,-0.3111122548580169,-0.4791806936264038,-0.471289575099945,9.725881576538086,0.5014393925666809,-0.4365298151969909,1.1857463121414185,-0.2618130147457123,1.004651665687561,0.3585463762283325,-0.6016668081283569,-0.4015185832977295,-0.5901054739952087
940696,9.19716739654541,0.3552729785442352,3.4551830291748047,0.5639467239379883,0.0158350504934787,0.762432336807251,0.6719738245010376,-0.3110863268375397,-0.4791549742221832,-0.4712610840797424,9.7685546875,0.5193513035774231,-0.4507043659687042,1.252608299255371,-0.6304821968078613,0.8860393166542053,0.3586205542087555,-0.6016727685928345,-0.4016262590885162,-0.589981198310852
940863,9.17380428314209,0.3771087527275085,3.3774518966674805,0.7067632079124451,0.1149818077683448,0.8046549558639526,0.6720461845397949,-0.3110368549823761,-0.4791310727596283,-0.4712149202823639,9.78073787689209,0.5303049087524414,-0.4555336236953735,1.087303876876831,-0.903974711894989,0.9707789421081544,0.3587064146995544,-0.6016929745674133,-0.4017600417137146,-0.5898171663284302
941029,9.242505073547363,0.3546960949897766,3.373349666595459,1.1244680881500244,0.5385006070137024,0.7907728552818298,0.6721518039703369,-0.3109309077262878,-0.4790861308574676,-0.4711799323558807,9.77582836151123,0.5499844551086426,-0.4515137374401092,0.7426977753639221,-0.9543418884277344,0.6749393939971924,0.3587295413017273,-0.6017210483551025,-0.4018884599208832,-0.5896869897842407
941196,9.185684204101562,0.4344586133956909,3.479834079742432,0.8575195074081421,0.4775807559490204,0.5891753435134888,0.6722416281700134,-0.3108265995979309,-0.4790478646755218,-0.4711595773696899,9.832175254821776,0.5709332227706909,-0.4478944540023803,0.0939665883779525,-0.8674508333206177,0.1640173196792602,0.3586615324020386,-0.6017426252365112,-0.402005672454834,-0.5896263122558594
941363,9.231614112854004,0.4397089779376983,3.4409587383270264,0.3605307340621948,0.0463269688189029,0.1092189475893974,0.6722243428230286,-0.3107886910438537,-0.4790252447128296,-0.471232146024704,9.798213958740234,0.5674833059310913,-0.44539874792099,-0.3725751042366028,-0.4276424050331116,0.20452381670475,0.358527660369873,-0.6017881631851196,-0.4020050168037414,-0.589661717414856
941529,9.200093269348145,0.3595782220363617,3.4556422233581543,0.6151722073554993,0.9352028369903564,0.2858569324016571,0.6723025441169739,-0.3106666803359985,-0.4789322018623352,-0.4712955951690674,9.798785209655762,0.5352786183357239,-0.4351279139518738,-0.6598086953163147,-0.3087354302406311,0.5781490802764893,0.3584486842155456,-0.6018334031105042,-0.401980310678482,-0.5896803736686707
941696,9.160852432250977,0.3710043132305145,3.503742456436157,0.6396452188491821,0.2363859862089157,0.8506937623023987,0.6723867058753967,-0.3106149733066559,-0.4788929522037506,-0.471249520778656,9.785200119018556,0.5324742197990417,-0.4671787917613983,-0.7361090183258057,-0.1140533536672592,1.0381531715393066,0.3584139347076416,-0.6018924117088318,-0.4018992781639099,-0.5896965265274048
941863,9.15701389312744,0.380571037530899,3.5079753398895264,0.1876962482929229,-0.2913572490215301,0.9166337251663208,0.6724182963371277,-0.3106480538845062,-0.4788711667060852,-0.4712047278881073,9.778090476989746,0.5220475792884827,-0.4311450719833374,-0.7384909987449646,0.0675855129957199,1.2660166025161743,0.3584059476852417,-0.6019512414932251,-0.4017854034900665,-0.5897189378738403
942029,9.164421081542969,0.3761955499649048,3.4662461280822754,0.1283900737762451,-0.3045221865177154,0.6939056515693665,0.6724018454551697,-0.3107021152973175,-0.4788371920585632,-0.471227079629898,9.751160621643066,0.504490077495575,-0.4249923825263977,-0.7188844084739685,0.1706766188144683,1.2191709280014038,0.3584056198596954,-0.601995050907135,-0.4016754627227783,-0.5897493958473206
942196,9.166029930114746,0.3681526482105255,3.4677839279174805,0.1516847908496856,-0.4866412580013275,0.6086665391921997,0.6723812222480774,-0.3107469379901886,-0.4788351655006408,-0.4712291061878204,9.732909202575684,0.4374989867210388,-0.4778927862644195,-0.3894795477390289,-0.0671693086624145,1.169405460357666,0.3584055602550506,-0.6020458340644836,-0.4016004204750061,-0.589748740196228
942363,9.173832893371582,0.3359273672103882,3.440390348434448,0.0993196442723274,-0.3462324440479278,0.6093837022781372,0.6723519563674927,-0.3108034431934356,-0.4788053631782532,-0.4712638258934021,9.735953330993652,0.4157303869724273,-0.4621914029121399,0.2418031096458435,-0.2970432937145233,1.17267107963562,0.3584704101085663,-0.6020696759223938,-0.401611864566803,-0.589677095413208
942529,9.166601181030272,0.3283770084381103,3.4368975162506104,0.3727096021175384,-0.217733547091484,0.7545692920684814,0.6724343299865723,-0.3107533752918243,-0.4788273274898529,-0.4711569249629974,9.79080581665039,0.4294050931930542,-0.4481545388698578,0.9476763010025024,-0.4336998760700226,1.126081466674805,0.3585674166679382,-0.6020773649215698,-0.4016779363155365,-0.5895653963088989
942696,9.168397903442385,0.3475542068481445,3.4491207599639893,0.7341815829277039,-0.1323536187410354,0.8070369362831116,0.6724750995635986,-0.3107344508171081,-0.4788192510604858,-0.4711194634437561,9.810791015625,0.4549293220043182,-0.4491672217845917,1.3534200191497805,-0.1595671325922012,0.8363635540008545,0.3586792647838592,-0.6020313501358032,-0.4017780423164367,-0.5894759893417358
942863,9.184947967529297,0.3768959045410156,3.494575023651123,0.589469850063324,-0.1173957958817482,0.7579501271247864,0.6724977493286133,-0.3107346296310425,-0.4787960350513458,-0.4711106121540069,9.758556365966797,0.4938624501228332,-0.4519015550613403,1.425071358680725,-0.2303734272718429,0.7702826857566833,0.3587963283061981,-0.6019783020019531,-0.4019017815589905,-0.5893745422363281
943029,9.162419319152832,0.3454359769821167,3.447723388671875,0.4657734036445617,-0.7359041571617126,0.7412764430046082,0.6724704504013062,-0.3107883930206299,-0.4788252711296081,-0.4710844755172729,9.746245384216309,0.5210760235786438,-0.4486995339393616,1.378699779510498,-0.5438857078552246,0.8085610270500183,0.3588982224464416,-0.6019543409347534,-0.4020381569862366,-0.58924400806427
943196,9.269183158874512,0.3433532416820526,3.429207563400269,1.035617470741272,-0.0258688256144523,0.8529222011566162,0.6725656986236572,-0.3107055723667145,-0.4788447320461273,-0.4709832966327667,9.727384567260742,0.568031907081604,-0.4739129543304443,1.048974633216858,-0.8512893319129944,0.6395939588546753,0.358925461769104,-0.6019722819328308,-0.4021646082401275,-0.5891228318214417
943363,9.104726791381836,0.3918605148792267,3.4902751445770264,0.7539162635803223,-0.4592869579792022,0.8184219002723694,0.6726071834564209,-0.3106863796710968,-0.4788835048675537,-0.4708972871303558,9.748716354370115,0.5631636381149292,-0.4627095758914947,0.3595318794250488,-1.2470567226409912,0.502796471118927,0.3588854968547821,-0.6020339727401733,-0.4022917449474334,-0.5889973640441895
943529,9.254213333129885,0.3971947431564331,3.403513193130493,0.8271942138671875,-0.8056091070175171,0.4652227163314819,0.6725937128067017,-0.3106688559055328,-0.4789704978466034,-0.4708395600318908,9.763619422912598,0.5467197895050049,-0.4756792187690735,-0.2015847414731979,-1.5193325281143188,0.6379546523094177,0.358790785074234,-0.602156400680542,-0.4023724496364593,-0.5888746380805969
943696,9.208890914916992,0.3667543530464172,3.4237499237060547,0.6206789612770081,0.092698760330677,0.5278968811035156,0.6726295351982117,-0.3106226325035095,-0.4789478182792663,-0.4708418846130371,9.757772445678713,0.520888090133667,-0.4711118340492248,-0.4426258504390716,-1.7287418842315674,0.9766185879707336,0.3586629629135132,-0.6023478507995605,-0.4023863971233368,-0.5887472033500671
943863,9.19684600830078,0.348820686340332,3.439552068710327,0.6311289072036743,-0.3865340054035187,0.881262481212616,0.672645092010498,-0.3106449246406555,-0.4789491891860962,-0.4708036184310913,9.711273193359377,0.4960593283176422,-0.4840110838413238,-0.5290943384170532,-1.9572073221206665,1.3804796934127808,0.3585782647132873,-0.6025676727294922,-0.4023977518081665,-0.5885661244392395
944029,9.222860336303713,0.3557846546173095,3.42598032951355,0.2741519212722778,-0.5503400564193726,0.7995836138725281,0.6726494431495667,-0.310685396194458,-0.4789601862430572,-0.4707595109939575,9.706096649169922,0.5000406503677368,-0.4715000092983246,-0.5635946393013,-2.58748459815979,1.4989256858825684,0.3584526479244232,-0.6028571724891663,-0.4024181067943573,-0.5883322358131409
944196,9.201918601989746,0.3638864457607269,3.441939353942871,0.4627766907215118,-0.1444172114133834,0.7390352487564087,0.672669529914856,-0.3106925785541534,-0.4789364039897918,-0.4707503616809845,9.734512329101562,0.4800131320953369,-0.4930591583251953,-0.4997421503067016,-3.054583072662353,1.401443600654602,0.3582735657691955,-0.6031929850578308,-0.4024541974067688,-0.5880724787712097
944363,9.165063858032228,0.3634750545024872,3.428187608718872,0.6852486729621887,-0.3546206653118133,0.7912595272064209,0.6726799607276917,-0.310704618692398,-0.4789405465126037,-0.4707231819629669,9.660704612731934,0.4404411017894745,-0.539400041103363,-0.3214009702205658,-3.425788164138794,1.338474988937378,0.3581317663192749,-0.6035154461860657,-0.4025770127773285,-0.5877436399459839
944529,9.204360961914062,0.3634591400623321,3.4344642162323,0.8142597079277039,-0.5726871490478516,0.8670346736907959,0.6727135181427002,-0.3106970489025116,-0.4789889752864837,-0.470630794763565,9.638345718383787,0.4279483258724212,-0.5078698992729187,0.1741087287664413,-4.795734882354736,1.614631175994873,0.3579431474208832,-0.6039677858352661,-0.4027565419673919,-0.5872707366943359
944696,9.232447624206545,0.3438713550567627,3.405902147293091,1.2110133171081543,-0.2209479361772537,1.0353870391845703,0.672804594039917,-0.3106343448162079,-0.4790252447128296,-0.4705050885677337,9.774158477783203,0.438559353351593,-0.5174275636672974,0.5280122756958008,-5.541769504547119,1.9520143270492556,0.3577854931354522,-0.6044747829437256,-0.4029898345470428,-0.5866847634315491
944863,9.187005996704102,0.3398813605308532,3.453035354614258,2.6517152786254883,-0.523587703704834,1.443858623504639,0.6729421019554138,-0.3105055689811706,-0.4791550636291504,-0.4702612161636352,9.78735065460205,0.4766417443752289,-0.546738862991333,0.7019354104995728,-5.585938930511475,1.947314739227295,0.3576301336288452,-0.6049824357032776,-0.4032304584980011,-0.5860904455184937
945029,9.201295852661133,0.3789701461791992,3.411886215209961,1.4874125719070437,-0.8860328793525696,1.0821300745010376,0.6729990243911743,-0.310468316078186,-0.4792711138725281,-0.4700861275196075,9.818514823913574,0.4988760948181152,-0.5671677589416504,0.8064991235733032,-5.560620307922363,1.6486446857452393,0.3574744462966919,-0.6054549217224121,-0.4035190641880035,-0.5854986310005188
945196,9.271538734436035,0.3706926107406616,3.4318106174468994,0.7111557126045227,-0.2302837818861007,0.6555761694908142,0.6730213761329651,-0.3104485869407654,-0.4792789816856384,-0.470059186220169,9.839218139648438,0.5450387001037598,-0.5796619057655334,0.4879668056964874,-5.017707824707031,1.6671500205993652,0.3573264181613922,-0.6058967113494873,-0.4037531018257141,-0.5849705338478088
945363,9.206647872924805,0.3255758285522461,3.468820810317993,0.5895978212356567,0.2892377972602844,0.7202483415603638,0.6730911135673523,-0.3103978037834167,-0.4792325794696808,-0.4700402021408081,9.793911933898926,0.5513903498649597,-0.6390591263771057,-0.0700251162052154,-4.426412105560303,1.9315751791000368,0.3571929633617401,-0.6063275337219238,-0.4038926959037781,-0.5845091342926025
945529,9.172390937805176,0.3529667258262634,3.464365243911743,0.930605411529541,-0.0644799694418907,0.8835548162460327,0.6731544733047485,-0.3103576004505157,-0.4792313575744629,-0.4699771702289581,9.829357147216797,0.5722580552101135,-0.6465336680412292,-1.0245081186294556,-3.9194610118865967,2.373817205429077,0.3570402264595032,-0.606792151927948,-0.4038835763931274,-0.5841266512870789
945696,9.177450180053713,0.3830005228519439,3.519455909729004,0.6223564743995667,0.0101362252607941,0.798098087310791,0.6732143759727478,-0.3103253543376922,-0.4792127311229706,-0.4699316322803497,9.88950538635254,0.4945570230484009,-0.676969051361084,-1.5188077688217163,-2.835902690887451,2.380322933197021,0.3568869233131408,-0.6072039604187012,-0.4037558734416961,-0.583880603313446
945863,9.139509201049805,0.3573704063892364,3.479209899902344,0.1626726388931274,-0.2098192274570465,0.586895763874054,0.6732395887374878,-0.310322493314743,-0.4792035520076751,-0.4699067771434784,9.880186080932615,0.4860317409038543,-0.6777173280715942,-1.7868188619613647,-1.332244634628296,2.1531126499176025,0.3567871451377868,-0.6074830889701843,-0.4035557210445404,-0.5837895274162292
946029,9.219037055969238,0.3718254268169403,3.4548416137695312,-0.0490867383778095,-0.0106292702257633,0.6333060264587402,0.673263669013977,-0.3103383779525757,-0.4791528284549713,-0.4699134826660156,9.878450393676758,0.3928569555282593,-0.7226493954658508,-1.8184378147125244,-0.0905280783772468,1.7057480812072754,0.3567409217357635,-0.6076174974441528,-0.4033499956130981,-0.5838199257850647
946196,9.20928955078125,0.3830662071704864,3.533010005950928,-0.5266739130020142,1.0207364559173584,0.5206997394561768,0.6733138561248779,-0.3103390038013458,-0.478963166475296,-0.4700344502925873,9.80827808380127,0.3827518820762634,-0.7179218530654907,-1.2730025053024292,1.0885461568832395,1.301784634590149,0.3567651212215423,-0.6076088547706604,-0.4031523764133453,-0.5839506983757019
946363,9.132942199707031,0.3472535014152527,3.508594512939453,-0.2204100489616394,0.6708797812461853,0.4781314432621002,0.673379123210907,-0.3103022575378418,-0.4788483381271362,-0.4700823128223419,9.828521728515623,0.3702320456504822,-0.6887021660804749,-0.978610098361969,1.7178630828857422,1.1548062562942505,0.356851190328598,-0.6075153350830078,-0.402971476316452,-0.5841203331947327
946529,9.157264709472656,0.3682778179645538,3.5069468021392822,-0.1793016940355301,-0.0292112827301025,0.5284988284111023,0.6733680963516235,-0.3103461563587188,-0.4787810146808624,-0.4701376855373382,9.82668399810791,0.3472161293029785,-0.6682831048965454,-0.3624709546566009,2.579115629196167,0.6706365346908569,0.3569678068161011,-0.6073112487792969,-0.4028071165084839,-0.5843744277954102
946696,9.200912475585938,0.3422573506832123,3.445729255676269,-0.1420608311891555,-0.3993659913539886,0.4200418591499328,0.6733481287956238,-0.310381144285202,-0.4787719249725342,-0.4701524078845978,9.823114395141602,0.3640802502632141,-0.6590307950973511,0.2382685095071792,3.186469316482544,0.4428883790969848,0.3571795523166656,-0.6069938540458679,-0.4027081131935119,-0.5846430063247681
946863,9.205915451049805,0.3277736902236938,3.4049534797668457,-0.1404088139533996,0.0165906250476837,0.5430212020874023,0.6734016537666321,-0.3103602826595306,-0.4787396788597107,-0.4701225459575653,9.78271198272705,0.3816893994808197,-0.6599815487861633,0.5821318030357361,3.705306053161621,0.2958843111991882,0.3574327528476715,-0.6066107749938965,-0.4026172161102295,-0.5849485397338867
947029,9.224512100219728,0.3432837128639221,3.4004223346710205,0.0144007420167326,0.1804350763559341,0.4132673442363739,0.6734209060668945,-0.3103480935096741,-0.4786798357963562,-0.4701639115810394,9.786883354187012,0.3864504694938659,-0.6412542462348938,1.0369751453399658,3.8073861598968506,0.2088523954153061,0.3577195107936859,-0.6061940789222717,-0.4025617837905884,-0.5852434635162354
947196,9.24004364013672,0.3195698857307434,3.474138736724853,0.1705741882324218,0.3668058812618255,0.3644238710403442,0.6734495162963867,-0.3103116154670715,-0.4786104559898376,-0.4702175855636596,9.705648422241213,0.4006581604480743,-0.6408274173736572,1.3262959718704224,3.899744749069214,0.0357617288827896,0.3580142855644226,-0.6057497262954712,-0.4025327563285827,-0.5855428576469421
947363,9.186840057373049,0.3159188330173492,3.420606851577759,0.4259071350097656,0.3939424753189087,0.3187820315361023,0.6734899282455444,-0.3102443218231201,-0.4785584509372711,-0.4702570736408233,9.790545463562012,0.4298632144927978,-0.6252392530441284,1.315641164779663,3.549107313156128,0.0052698138169944,0.3582970201969147,-0.6053258776664734,-0.4025361537933349,-0.5858058333396912
947529,9.229565620422363,0.3337244987487793,3.347254991531372,0.5708238482475281,0.4298771023750305,0.1664121001958847,0.6735354661941528,-0.3101430237293243,-0.4785242080688476,-0.4702934920787811,9.8770170211792,0.4751004576683044,-0.6312806010246277,1.2311322689056396,4.3481855392456055,-0.1088668033480644,0.3586032390594482,-0.6048358678817749,-0.4024944603443146,-0.5861532688140869
947696,9.281401634216309,0.3414913415908813,3.3619961738586426,0.7124236226081848,2.147900342941284,0.0895740166306495,0.6736850142478943,-0.3099217116832733,-0.4783247113227844,-0.4704280495643616,9.819393157958984,0.5054377317428589,-0.6369425058364868,0.8333924412727356,4.845404148101807,-0.4041812121868133,0.358896940946579,-0.6042938232421875,-0.4024382531642914,-0.586571216583252
