sampleTimeFine,W4_acc_x,W4_acc_y,W4_acc_z,W4_gyro_x,W4_gyro_y,W4_gyro_z,W4_quat_w,W4_quat_x,W4_quat_y,W4_quat_z,W5_acc_x,W5_acc_y,W5_acc_z,W5_gyro_x,W5_gyro_y,W5_gyro_z,W5_quat_w,W5_quat_x,W5_quat_y,W5_quat_z
1906769,0.7936525940895081,-0.1822297573089599,-0.4358589947223663,-0.5777767300605774,0.2235483676195144,-0.5465596914291382,0.6758398413658142,-0.3391981124877929,-0.4472577273845672,-0.4776460528373718,0.5780912637710571,0.380696028470993,-0.7126715183258057,-0.2090445756912231,-0.1623109877109527,-0.6620690822601318,0.3675267994403839,-0.6847021579742432,-0.4474645555019378,-0.4425860345363617
1906936,9.098093032836914,-0.2435468733310699,3.6771278381347656,0.5495525002479553,0.4353069961071014,0.4554002583026886,0.6761983633041382,-0.3386259377002716,-0.4475884735584259,-0.4772346317768097,9.200878143310549,-1.0000966787338257,-3.286883592605591,1.1053863763809204,0.4547470510005951,0.7744446992874146,0.3675623834133148,-0.6844581961631775,-0.4475376307964325,-0.4428600668907165
1907103,9.103607177734377,-0.2688664197921753,3.7141380310058594,0.5001711845397949,0.0724263042211532,0.5704268217086792,0.6764153838157654,-0.3378363251686096,-0.4476639926433563,-0.4774158000946045,9.198915481567385,-1.004057765007019,-3.2534449100494385,1.042302489280701,0.9891306161880492,0.9186444282531738,0.3673860132694244,-0.6842829585075378,-0.4472651183605194,-0.4435521066188812
1907269,9.10573387145996,-0.2906936705112457,3.712170124053955,0.59848552942276,-0.1945796757936477,0.8237492442131042,0.676706850528717,-0.337200254201889,-0.4474369883537292,-0.4776653051376343,9.142903327941896,-1.0147935152053833,-3.2789182662963867,1.0159980058670044,1.3013875484466553,1.2088359594345093,0.3676575720310211,-0.683768093585968,-0.447290688753128,-0.4440947473049164
1907769,9.125075340270996,-0.2775695323944092,3.606830358505249,0.1056075617671012,-0.4229168891906738,0.7759175300598145,0.6771816611289978,-0.3366566300392151,-0.4472951292991638,-0.4775086343288421,9.079063415527344,-1.0204682350158691,-3.2694287300109863,0.9825096130371094,1.1149015426635742,1.318688988685608,0.3679842948913574,-0.6833957433700562,-0.4474490582942962,-0.4442377090454101
1907936,9.102062225341797,-0.2674204111099243,3.6285128593444815,0.3079606890678406,-0.4885238409042358,0.7836909294128418,0.6772636771202087,-0.3366160988807678,-0.4475405216217041,-0.4771909713745117,9.029862403869627,-1.0323785543441772,-3.278209686279297,0.9561029076576232,0.6017255783081055,1.305511474609375,0.3681062459945678,-0.6833601593971252,-0.4473728537559509,-0.4442683458328247
1908103,9.11021900177002,-0.2373311072587967,3.624165296554565,0.2525860369205475,-0.4299859702587127,1.0494483709335327,0.6773238182067871,-0.3366360068321228,-0.4477172791957855,-0.4769257009029388,9.0381498336792,-1.0194839239120483,-3.2620699405670166,0.8174740672111511,-0.1662392020225525,0.977297306060791,0.3682436943054199,-0.6833530068397522,-0.4475158751010895,-0.4440211951732635
1908269,9.145101547241213,-0.2823987901210785,3.587655782699585,0.2581055760383606,0.0564183704555034,1.1239172220230105,0.6773126721382141,-0.336698830127716,-0.4477789402008056,-0.4768390655517578,9.05980396270752,-1.0402214527130127,-3.267944574356079,0.6530148983001709,-0.6890072226524353,0.688386082649231,0.3682818114757538,-0.6834115386009216,-0.4476514458656311,-0.443762868642807
1908436,9.138232231140137,-0.2998037934303283,3.619481086730957,0.318141758441925,0.418031245470047,1.2183769941329956,0.6773689389228821,-0.3367332518100738,-0.4478394687175751,-0.4766781032085418,9.076485633850098,-1.072255253791809,-3.273811101913452,0.6531174778938293,-1.0161453485488892,0.746258020401001,0.3682624399662018,-0.6835625767707825,-0.4476831257343292,-0.443514347076416
1908603,9.15382957458496,-0.272112101316452,3.6569554805755615,0.023070640861988,0.7634057402610779,0.9570761919021606,0.6775045394897461,-0.3366990983486175,-0.447887122631073,-0.476464569568634,9.135902404785156,-1.0640112161636353,-3.2842743396759038,0.7387151122093201,-1.1372168064117432,0.7339767813682556,0.3682817220687866,-0.6837193965911865,-0.4477047920227051,-0.4432347118854522
1908769,9.106213569641112,-0.3126291930675506,3.650226354598999,0.2975363433361053,0.7417246103286743,0.9529269933700562,0.67762291431427,-0.3366637229919433,-0.4479066133499145,-0.4763030707836151,9.1884183883667,-1.05702543258667,-3.281210660934448,0.6274919509887695,-0.7969135642051697,0.86666339635849,0.3684431314468384,-0.6837489604949951,-0.4478431046009063,-0.4429149925708771
1908936,9.024256706237791,-0.3235774934291839,3.6649463176727295,0.4914501011371612,0.1743904799222946,1.1461747884750366,0.6776868104934692,-0.3367176949977875,-0.447916030883789,-0.4761649072170257,9.184639930725098,-1.0688117742538452,-3.3153960704803467,0.7100033164024353,-0.2989130020141601,1.070438027381897,0.3685530722141266,-0.6838513016700745,-0.4477570652961731,-0.4427523016929626
1909103,9.138672828674316,-0.2437503933906555,3.7326700687408447,0.2239382117986679,-0.5021241307258606,0.0549456402659416,0.6776788830757141,-0.3367322087287903,-0.4480192959308624,-0.4760688245296478,9.165515899658203,-1.1065720319747925,-3.321122169494629,0.9222812056541444,0.2519969642162323,1.1976817846298218,0.368737131357193,-0.6839027404785156,-0.4476594924926758,-0.4426183104515075
1909269,9.184260368347168,-0.2592597901821136,3.657766342163086,0.217586264014244,-0.771736204624176,-0.3336566090583801,0.6776471138000488,-0.3366990387439728,-0.4481641948223114,-0.4760010540485382,9.162254333496094,-1.041032075881958,-3.3218555450439453,0.9387246966362,0.5077525973320007,0.8055130839347839,0.3689815700054168,-0.6838569045066833,-0.4476746916770935,-0.4424701035022735
1909436,9.096842765808104,-0.3487513065338135,3.67037296295166,0.5343257188796997,-0.8432596921920776,0.7772365212440491,0.677630603313446,-0.3367726504802704,-0.4482433199882507,-0.4758979678153991,9.112896919250488,-1.0312343835830688,-3.3249900341033936,0.3887816071510315,0.7023322582244873,0.2971009314060211,0.3690895438194275,-0.6838359236717224,-0.4476355314254761,-0.4424522221088409
1909603,9.052417755126951,-0.3049272298812866,3.709719896316528,1.448443055152893,-1.4295985698699951,1.2806158065795898,0.6777001619338989,-0.3368076086044311,-0.4484252631664276,-0.4756026268005371,9.130457878112791,-1.0694706439971924,-3.248730421066284,0.2636507153511047,0.7183400988578796,0.4065439701080322,0.3692091405391693,-0.6837937831878662,-0.4476387798786163,-0.4424143135547638
1909769,9.125284194946287,-0.2485820651054382,3.647358894348145,0.428775817155838,-1.1703723669052124,0.3898573219776153,0.6777886152267456,-0.3367621600627899,-0.4486114084720611,-0.4753333926200866,9.143205642700195,-1.0666979551315308,-3.2588307857513428,0.4129855632781982,0.8278599977493286,0.6452543139457703,0.3693515360355377,-0.6837668418884277,-0.4475781619548797,-0.4423982501029968
1909936,9.0642728805542,-0.3025578558444977,3.618810653686523,0.274395227432251,-0.5251500010490417,0.3521426022052765,0.6778275966644287,-0.3367511332035064,-0.4486787617206573,-0.4752219319343567,9.141291618347168,-1.045246124267578,-3.2373547554016118,0.3753092885017395,0.8874095678329468,0.8277961015701294,0.3694829046726227,-0.6837713718414307,-0.4474480152130127,-0.442413181066513
1910103,9.0689115524292,-0.3522431552410126,3.652996778488159,0.1652339249849319,-0.7610685229301453,0.7427618503570557,0.6778458952903748,-0.3368217349052429,-0.4487243592739105,-0.4751027524471283,9.114124298095703,-1.0543965101242063,-3.214665412902832,0.2805935442447662,0.9764778017997742,0.8565335273742676,0.3696140348911285,-0.683768630027771,-0.4473030269145965,-0.4424545168876648
1910269,9.1110200881958,-0.3437252044677734,3.615412712097168,0.1128943860530853,-1.2215336561203003,0.6933549642562866,0.6778457760810852,-0.3369202315807342,-0.4488151967525482,-0.4749472737312317,9.033010482788086,-1.0967408418655396,-3.2238669395446777,0.3619650900363922,0.5593237280845642,1.047937273979187,0.369758665561676,-0.6837775707244873,-0.4471895396709442,-0.4424345195293426
1910436,9.117076873779297,-0.3018018305301666,3.604175806045532,0.7933213114738464,-0.5343193411827087,0.7085177302360535,0.6779240369796753,-0.3369129002094269,-0.4488846659660339,-0.474775105714798,9.05925750732422,-1.0856735706329346,-3.244422197341919,0.6237140893936157,-0.1887015700340271,1.1401045322418213,0.3698918223381042,-0.6838283538818359,-0.4471199810504913,-0.4423149526119232
1910603,9.113189697265623,-0.2976828217506408,3.64291262626648,0.7924889326095581,-0.0979685708880424,0.7466806173324585,0.6780177354812622,-0.3368913829326629,-0.448905199766159,-0.474636971950531,9.101412773132324,-1.070671319961548,-3.240433692932129,0.6246232986450195,-0.8105394840240479,0.9558594822883606,0.3699700832366943,-0.6839118599891663,-0.4470964968204498,-0.4421441555023193
1910769,9.135412216186523,-0.3183098137378692,3.654341220855713,0.6760792136192322,-0.1392690688371658,1.0052536725997925,0.6781309843063354,-0.3368897140026092,-0.4489170610904693,-0.4744652211666107,9.158459663391112,-1.0990337133407593,-3.2257821559906006,0.866138219833374,-0.8420431017875671,0.8248377442359924,0.370037168264389,-0.6839987635612488,-0.4470662176609039,-0.4419842064380646
1910936,9.13767147064209,-0.3044368922710418,3.678163528442383,1.0754451751708984,0.1638124138116836,1.0974209308624268,0.6782897710800171,-0.3368344008922577,-0.4489207863807678,-0.4742739796638489,9.195109367370604,-1.12808096408844,-3.266472339630127,1.2305301427841189,-0.770596444606781,0.4994412064552307,0.3701468706130981,-0.6840184926986694,-0.4471141099929809,-0.4418135583400726
1911103,9.109944343566896,-0.2877960503101349,3.674075126647949,0.8554322123527527,-0.2720452845096588,0.8836830258369446,0.6783709526062012,-0.3368376493453979,-0.4489440619945526,-0.4741334617137909,9.223084449768066,-1.0798993110656738,-3.2299680709838867,1.361193299293518,-0.4604907631874084,0.499390035867691,0.3702980875968933,-0.6840060353279114,-0.4471592307090759,-0.4416602253913879
1911269,9.08470630645752,-0.3319365382194519,3.6250717639923096,0.5836174488067627,-0.5247018337249756,1.1077814102172852,0.6784628033638,-0.3368728458881378,-0.4489795565605163,-0.4739434421062469,9.088446617126465,-1.081936955451965,-3.246504545211792,1.2838046550750732,-0.2623765170574188,0.6987720727920532,0.3704773485660553,-0.6839842200279236,-0.4471828043460846,-0.4415198564529419
1911436,9.06463623046875,-0.3198310732841491,3.6580731868743896,1.201523780822754,-0.9833484292030334,0.8541899919509888,0.6784732937812805,-0.3369248211383819,-0.4490694999694824,-0.4738062620162964,9.072813987731934,-1.0695680379867554,-3.266667366027832,1.1364802122116089,-0.5978004336357117,0.9461394548416138,0.3706460297107696,-0.6839962005615234,-0.4472101628780365,-0.4413320422172546
1911603,9.135933876037598,-0.276279866695404,3.609575986862183,0.4933582246303558,-1.1303268671035769,0.3824168145656585,0.6784604787826538,-0.33697509765625,-0.4491836726665497,-0.4736805856227875,9.035536766052246,-1.0288662910461426,-3.2405405044555664,0.7115143537521362,-1.028785228729248,0.9462034106254578,0.3707205355167389,-0.6840800046920776,-0.4472051560878753,-0.4411445260047912
1911769,9.124034881591797,-0.3071354031562805,3.592911720275879,0.216484934091568,0.1380844563245773,0.7707821726799011,0.6785162091255188,-0.3370134532451629,-0.4491212666034698,-0.4736326336860657,9.101795196533203,-1.0490148067474363,-3.2553200721740723,0.115711785852909,-1.5645134449005127,0.7931549549102783,0.3706987500190735,-0.6842063665390015,-0.4472297430038452,-0.4409419000148773
1911936,9.119780540466309,-0.3547475039958954,3.596311092376709,0.0353007018566131,-0.4802124500274658,0.8733097314834595,0.6784548759460449,-0.337189644575119,-0.449053406715393,-0.4736595451831817,9.123741149902344,-1.1136847734451294,-3.269506454467773,-0.059703204780817,-1.5724788904190063,0.8090987801551819,0.370635837316513,-0.6843644380569458,-0.4472109973430633,-0.4407685399055481
1912103,9.150681495666504,-0.3152855932712555,3.635829925537109,0.0461476817727088,-0.3895179629325866,0.4532615542411804,0.678460419178009,-0.3372489809989929,-0.4490624964237213,-0.4736006259918213,9.155233383178713,-1.1480730772018433,-3.28800106048584,0.1552193611860275,-1.4928104877471924,0.9461522698402404,0.3706091046333313,-0.6845152974128723,-0.447187602519989,-0.4405802488327026
1912269,9.116957664489746,-0.2957022786140442,3.625301361083984,0.0744240954518318,-0.5200145840644836,0.326324999332428,0.6784552931785583,-0.3373005986213684,-0.4490975737571716,-0.4735378921031952,9.14236831665039,-1.1409881114959717,-3.273834466934204,0.2909282147884369,-1.199301838874817,0.9873247742652892,0.3706129491329193,-0.6846507787704468,-0.4471413493156433,-0.4404132962226867
1912436,9.102237701416016,-0.3069923520088196,3.636384248733521,0.1609181761741638,-0.4920968413352966,0.2728841006755829,0.678450882434845,-0.337337851524353,-0.4491390287876129,-0.4734783470630646,9.103293418884276,-1.1183536052703855,-3.302070140838623,0.3619138300418854,-0.9252331256866456,0.7304549813270569,0.3706464767456054,-0.6847290992736816,-0.4471394121646881,-0.4402654469013214
1912603,9.11249828338623,-0.3072391152381897,3.631141424179077,0.4436438977718353,-0.3043172359466553,0.3621059358119964,0.6784750819206238,-0.3373430967330932,-0.449174016714096,-0.4734068214893341,9.076631546020508,-1.091385006904602,-3.3082916736602783,0.2049079835414886,-1.0481868982315063,0.4094894528388977,0.3706305623054504,-0.684808611869812,-0.4471596777439117,-0.4401345551013946
1912769,9.110939025878906,-0.3075037598609924,3.6352577209472656,0.732875406742096,-0.2721477448940277,0.2601930201053619,0.6784639358520508,-0.3373522162437439,-0.4491994678974151,-0.473392128944397,9.085122108459473,-1.0815553665161133,-3.323265790939331,-0.034769233316183,-1.0522592067718506,0.1357024759054184,0.3705789744853973,-0.6848761439323425,-0.4472064673900604,-0.4400252997875213
1912936,9.12733554840088,-0.2867295742034912,3.641465902328491,0.6797162294387817,-0.1829258948564529,0.1517232209444046,0.6784712076187134,-0.3373310267925262,-0.4492340385913849,-0.4733639061450958,9.126073837280272,-1.085896611213684,-3.339051961898804,-0.2379035502672195,-0.966648817062378,-0.0386751778423786,0.3705063164234161,-0.6849310994148254,-0.4472667872905731,-0.439939796924591
1913103,9.13009262084961,-0.2958848178386688,3.6328511238098153,0.7043043375015259,0.1521074026823043,0.076844498515129,0.6785045266151428,-0.3372701406478882,-0.4492474794387817,-0.4733467698097229,9.14462661743164,-1.0644259452819824,-3.3447587490081787,-0.4010948240756988,-0.6983302235603333,0.0014022950781509,0.3703999519348144,-0.6850166320800781,-0.4472450315952301,-0.4399182796478271
1913269,9.120877265930176,-0.2946759164333343,3.6558279991149902,0.3617985248565674,-0.1499879509210586,-0.1402807384729385,0.6784831285476685,-0.3372519016265869,-0.4492761790752411,-0.4733631908893585,9.15291976928711,-1.0582135915756226,-3.328479528427124,-0.5216794610023499,-0.2324864566326141,0.0320094674825668,0.3703339993953705,-0.6850578188896179,-0.4472250044345855,-0.439930111169815
1913436,9.126999855041504,-0.29251229763031,3.62256932258606,0.5757542848587036,-0.3580527007579803,-0.0508924312889575,0.6784513592720032,-0.3372443318367004,-0.4493259191513061,-0.4733668863773346,9.124807357788086,-1.041849136352539,-3.3218212127685547,-0.7216634154319763,0.2002848833799362,0.10962875187397,0.37027108669281,-0.6850948929786682,-0.4471498429775238,-0.4400014877319336
1913603,9.095513343811035,-0.3017398118972778,3.6265950202941895,0.6963772177696228,-0.574211061000824,0.1207574754953384,0.6784091591835022,-0.3372635543346405,-0.4493879973888397,-0.473354697227478,9.089702606201172,-1.0457961559295654,-3.322774887084961,-0.924695372581482,0.4306327700614929,-0.0808849111199379,0.3702066242694855,-0.685096800327301,-0.4470984041690826,-0.440104991197586
1913770,9.11210823059082,-0.310375452041626,3.641197681427002,0.3746433556079864,-0.5912306904792786,0.2214153558015823,0.6784324049949646,-0.3372502624988556,-0.4494784772396087,-0.4732449948787689,9.1144437789917,-1.052680492401123,-3.355339288711548,-1.094673991203308,0.2337735295295715,0.0929292887449264,0.3701270222663879,-0.6851263046264648,-0.4470391869544983,-0.4401861727237701
1913936,9.1253080368042,-0.3197486996650696,3.65883207321167,0.1226143985986709,-0.2952119708061218,0.2440185695886612,0.678381085395813,-0.337321937084198,-0.4494614005088806,-0.4732837080955505,9.15875244140625,-1.086864709854126,-3.299964427947998,-1.0328962802886963,0.366703450679779,0.2412140071392059,0.3700519502162933,-0.6851720809936523,-0.4469359219074249,-0.4402829110622406
1914103,9.12563705444336,-0.3188796639442444,3.6219112873077393,0.5724374651908875,-0.2862859666347503,0.0943379774689674,0.6783920526504517,-0.3372917473316192,-0.4495161771774292,-0.4732374548912048,9.14449405670166,-1.1012609004974363,-3.2928524017333984,-0.7247881293296814,0.7792214751243591,0.4887351095676422,0.3700783550739288,-0.6851624846458435,-0.4468482136726379,-0.44036465883255
1914270,9.14101791381836,-0.3100535869598388,3.6242215633392334,0.5978066921234131,-0.4022602140903473,0.1371367871761322,0.6783789992332458,-0.3372898995876312,-0.4495673477649688,-0.4732089936733246,9.150116920471191,-1.0735336542129517,-3.3001198768615723,-0.3363843858242035,0.8995115756988525,0.498109370470047,0.370104968547821,-0.6851731538772583,-0.4467029869556427,-0.4404732882976532
1914436,9.11949634552002,-0.3099534511566162,3.614640712738037,0.2009316086769104,-0.2940849661827087,0.1874977499246597,0.678330659866333,-0.3373484015464782,-0.4495595395565033,-0.4732440412044525,9.084959983825684,-1.0793174505233765,-3.3070099353790283,0.0522819198668003,1.0384348630905151,0.4569241404533386,0.3701986372470855,-0.6851282119750977,-0.446613997220993,-0.440554529428482
1914603,9.107995986938477,-0.2988636493682861,3.6436474323272714,0.4880179166793823,-0.4900734424591064,0.4284940361976623,0.6783561706542969,-0.3373545110225677,-0.4496194720268249,-0.4731462299823761,9.073956489562988,-1.0735729932785034,-3.3204126358032227,0.3569321632385254,0.7471544146537781,0.3768460154533386,0.3702917397022247,-0.6850876212120056,-0.4465577602386474,-0.4405964016914367
1914770,9.127681732177734,-0.2712041139602661,3.6032052040100098,0.847530722618103,-0.2825081050395965,0.3979893624782562,0.6783542037010193,-0.3373623490333557,-0.4496442973613739,-0.4731199145317077,9.080716133117676,-1.05230975151062,-3.294555902481079,0.3988601565361023,0.5718483328819275,0.1680000871419906,0.3703785538673401,-0.6850274801254272,-0.4465589523315429,-0.4406157433986664
1914936,9.09791088104248,-0.2691158950328827,3.624699592590332,0.9059019684791564,-0.2590212523937225,0.6187068223953247,0.678359866142273,-0.3373873233795166,-0.4496531784534454,-0.4730853736400604,9.088197708129885,-1.036545753479004,-3.3038790225982666,0.2827962338924408,0.4160079061985016,-0.024665031582117,0.370437353849411,-0.684964120388031,-0.4465912282466888,-0.44063201546669
1915103,9.14415454864502,-0.2755360305309295,3.646512031555176,0.4500471353530884,-0.251862496137619,0.4372535943984985,0.6783448457717896,-0.337430864572525,-0.4496491551399231,-0.4730796813964844,9.133122444152832,-1.0351368188858032,-3.3122546672821045,0.0578654892742633,0.3068337142467499,-0.0229233652353286,0.370450884103775,-0.6849349737167358,-0.4465925991535187,-0.4406648576259613
1915270,9.146923065185549,-0.3068132698535919,3.656996726989746,0.1964045614004135,-0.4452511668205261,0.5507050156593323,0.6783127188682556,-0.3375190794467926,-0.4496417045593261,-0.4730697870254516,9.17005729675293,-1.0412520170211792,-3.2923316955566406,-0.0750452056527137,0.5270004868507385,0.1196561232209205,0.3704595863819122,-0.6849217414855957,-0.4465383887290954,-0.4407327473163605
1915436,9.074654579162598,-0.3170740604400635,3.633997917175293,0.3811618387699127,-0.4865516722202301,0.6977860331535339,0.678332507610321,-0.3375682532787323,-0.4496682584285736,-0.4729813039302826,9.135241508483888,-1.0222340822219849,-3.2711598873138428,-0.1290367841720581,0.6562421917915344,0.4571675062179565,0.370504081249237,-0.6849126219749451,-0.4464588463306427,-0.4407901167869568
1915603,9.081735610961914,-0.3025507032871246,3.611676216125488,0.3088186979293823,-0.5784115791320801,0.3457009792327881,0.6783434748649597,-0.3375840187072754,-0.4497332572937011,-0.4728924036026001,9.125633239746094,-1.0495260953903198,-3.262492656707764,-0.217451810836792,0.663016676902771,0.8296785354614258,0.3705890774726867,-0.6849053502082825,-0.4463763535022735,-0.4408136308193207
1915770,9.185590744018556,-0.2623254656791687,3.590167999267578,0.6716098785400391,-0.4320350587368011,-0.4550096392631531,0.6783012747764587,-0.3375259041786194,-0.4498298168182373,-0.4729025959968567,9.08175563812256,-1.070775270462036,-3.289853811264038,-0.0208999644964933,0.384401798248291,0.9282490015029908,0.3706836700439453,-0.6849094033241272,-0.4463143050670624,-0.4407906830310821
1915936,9.189619064331056,-0.2909420728683471,3.6024131774902344,0.791310727596283,0.2324672788381576,-0.0142406607046723,0.6783297061920166,-0.3374464213848114,-0.4498433470726013,-0.4729057550430298,9.126805305480955,-1.0156573057174685,-3.26564621925354,-0.1935935914516449,0.2095566987991333,0.4544525146484375,0.370679497718811,-0.6849434971809387,-0.4462364614009857,-0.4408200979232788
1916103,9.04652500152588,-0.3195967078208923,3.702623844146729,1.1423712968826294,0.3671644628047943,1.2363570928573608,0.678372323513031,-0.3374979496002197,-0.4497374296188354,-0.4729085266590118,9.142008781433104,-1.0486762523651123,-3.2551746368408203,-0.4991275072097778,0.3064751923084259,0.0917510911822319,0.3706462979316711,-0.6849444508552551,-0.4461996257305145,-0.440883606672287
1916270,9.073383331298828,-0.2786585986614227,3.726109504699707,1.0039089918136597,-0.8722404837608337,0.8154122829437256,0.6783168911933899,-0.3376032710075378,-0.4497756063938141,-0.4728766977787018,9.150962829589844,-1.0917627811431885,-3.264273166656494,-0.1799932718276977,0.5061134099960327,0.4059292674064636,0.3706780672073364,-0.6849353313446045,-0.4461410641670227,-0.4409303963184356
1916436,9.094484329223633,-0.2580698430538177,3.6363914012908936,0.000723558710888,-0.4909825921058655,0.1093854308128357,0.6782822608947754,-0.3376452326774597,-0.4498065412044525,-0.4728666841983795,9.183751106262209,-1.0548115968704224,-3.2643775939941406,0.1333589255809784,0.7836653590202332,0.6581887602806091,0.3707486391067505,-0.6849351525306702,-0.4460198283195495,-0.4409940540790558
1916603,9.093091011047363,-0.3015454709529876,3.648679256439209,0.2257567197084427,-0.4117753505706787,0.1826633661985397,0.6781953573226929,-0.3377336263656616,-0.44978928565979,-0.4729449152946472,9.155632019042969,-1.0236613750457764,-3.246598482131958,0.1128559634089469,1.0418413877487185,0.6810096502304077,0.3708508908748626,-0.6849048733711243,-0.4459049105644226,-0.4410713911056518
1916770,9.094855308532717,-0.3307531476020813,3.639780998229981,0.3272214233875274,-0.7864763140678406,0.5154876112937927,0.6781488060951233,-0.3378241956233978,-0.4498254060745239,-0.4729125797748565,9.089860916137695,-1.0448631048202517,-3.2415096759796143,-0.0350637882947921,1.0564918518066406,0.7507787346839905,0.3709520697593689,-0.6848766803741455,-0.4457862377166748,-0.441149890422821
1916936,9.11349868774414,-0.3112912774085998,3.5996222496032715,0.7129614949226379,-1.0024042129516602,0.6737101078033447,0.6781330704689026,-0.3378878831863403,-0.4499116837978363,-0.472807377576828,9.067049980163574,-1.082158446311951,-3.237581729888916,0.2068033367395401,0.6066303849220276,0.9158397912979126,0.3710513412952423,-0.6848821640014648,-0.4456794857978821,-0.4411656558513641
1917103,9.128677368164062,-0.2609953582286834,3.619608640670776,0.600508987903595,-0.1828234493732452,0.3442026376724243,0.6780964136123657,-0.3379293978214264,-0.4498924911022186,-0.4728485643863678,9.089204788208008,-1.0873863697052002,-3.2368290424346924,0.6277351975440979,0.0504121929407119,1.0612685680389404,0.3711606860160827,-0.6849157214164734,-0.4456065595149994,-0.4410955011844635
1917270,9.112844467163086,-0.2873518764972687,3.633115291595459,0.5506025552749634,-0.0480878390371799,0.4730985462665558,0.6781171560287476,-0.3379336297512054,-0.4498814344406128,-0.4728263616561889,9.116271018981934,-1.0725868940353394,-3.241463422775269,0.8068705201148987,-0.1010677143931388,0.9384045004844666,0.3712664544582367,-0.684945285320282,-0.4455589354038238,-0.4410086870193481
1917436,9.137231826782228,-0.3028623163700104,3.594455480575561,0.6766810417175293,-0.0347436256706714,0.7581678032875061,0.6781610250473022,-0.3379465341567993,-0.4498610496520996,-0.4727736413478851,9.101447105407717,-1.0592820644378662,-3.2443790435791016,0.9011764526367188,-0.2860938906669616,0.7718194723129272,0.3713629841804504,-0.6849666237831116,-0.4455498158931732,-0.4409032464027405
1917603,9.130142211914062,-0.2888830006122589,3.6281051635742183,0.6112406253814697,-0.0264835301786661,0.7595381736755371,0.6781778335571289,-0.3379882574081421,-0.4498187303543091,-0.4727599322795868,9.122442245483398,-1.0546177625656128,-3.270352363586426,0.8928395509719849,-0.6232850551605225,0.6134433746337891,0.3714473247528076,-0.684978723526001,-0.4456064701080322,-0.4407562017440796
1917770,9.085612297058104,-0.2965097725391388,3.616263866424561,0.518842875957489,-0.5708174109458923,0.9723413586616516,0.6782064437866211,-0.3380548655986786,-0.4498400092124939,-0.472650945186615,9.086108207702637,-1.065972924232483,-3.259931325912476,0.7976371049880981,-0.6286509037017822,0.589264988899231,0.3714894354343414,-0.6850252151489258,-0.4456126689910888,-0.4406419992446899
1917936,9.113574028015137,-0.294291228055954,3.646461963653565,0.2841152548789978,-0.8517630696296692,0.682072639465332,0.6781405806541443,-0.3381871283054352,-0.449855238199234,-0.4726363718509674,9.100064277648926,-1.0824447870254517,-3.2821264266967773,1.006572723388672,-1.008769154548645,1.0175223350524902,0.3715772032737732,-0.685090184211731,-0.4456450045108795,-0.4404345750808716
1918103,9.138264656066896,-0.2326468974351883,3.5934948921203613,0.458537757396698,-0.4298066794872284,0.2664681077003479,0.6780909299850464,-0.3382377624511719,-0.4498668909072876,-0.4726602435111999,9.107402801513672,-1.0417858362197876,-3.2613778114318848,1.1074482202529907,-1.2053977251052856,1.115810751914978,0.3716633021831512,-0.6851736903190613,-0.4456769526004791,-0.4401995539665222
1918270,9.132715225219728,-0.2880744040012359,3.6172475814819336,0.1703820675611496,0.2511901259422302,0.678473949432373,0.6780933737754822,-0.3383017480373382,-0.4497682154178619,-0.4727047681808471,9.139269828796388,-1.01441490650177,-3.283600091934204,0.5698249936103821,-1.3596760034561155,0.8442138433456421,0.3716650605201721,-0.6852810978889465,-0.4457056224346161,-0.4400015771389007
1918436,9.113279342651367,-0.3044650256633758,3.658135652542114,0.2956025600433349,-0.1959115266799926,0.99052631855011,0.6781072616577148,-0.3383919298648834,-0.4497164189815521,-0.4726695120334625,9.156046867370604,-1.0508882999420166,-3.2887258529663086,0.1662456095218658,-1.0620049238204956,0.6009699106216431,0.3716287016868591,-0.6853758096694946,-0.445716381072998,-0.4398738741874695
1918603,9.132844924926758,-0.2905361354351043,3.642365694046021,0.3279898464679718,-0.5627622604370117,0.6952760219573975,0.678059995174408,-0.3385024070739746,-0.4497036635875702,-0.4726706743240356,9.133788108825684,-1.075664520263672,-3.311121702194214,0.0081832585856318,-0.8552849292755127,0.5136243104934692,0.3716279864311218,-0.6854151487350464,-0.4457840323448181,-0.4397447109222412
1918770,9.1403226852417,-0.289146363735199,3.628476619720459,0.314107745885849,-0.6006562113761902,0.6648352742195129,0.6779649257659912,-0.3386549353599548,-0.4496645033359527,-0.4727348685264587,9.12005615234375,-1.0823241472244265,-3.3068675994873047,-0.0170836690813303,-0.714248538017273,0.5938752293586731,0.3715836703777313,-0.6855078339576721,-0.4457487463951111,-0.4396734535694122
1918936,9.0901517868042,-0.3052160441875458,3.614699602127075,0.516614556312561,-0.4500791728496551,0.7130383253097534,0.677845299243927,-0.33882537484169,-0.4495880305767059,-0.4728571474552154,9.079530715942385,-1.08795428276062,-3.312596082687378,0.0397701188921928,-0.81772381067276,0.6211271286010742,0.3715620040893554,-0.6855833530426025,-0.4457548558712005,-0.4395677447319031
1919103,9.119929313659668,-0.3007985353469848,3.6041555404663086,0.2824504375457763,-0.2139685153961181,0.5541115999221802,0.6778081655502319,-0.3389069437980652,-0.4495441317558288,-0.4728936553001404,9.063881874084473,-1.0825417041778564,-3.297231912612915,-0.0623156987130641,-0.8699353933334351,0.675925612449646,0.3715429008007049,-0.6856584548950195,-0.4457723200321197,-0.4394490718841553
1919270,9.128662109375,-0.2830140590667724,3.612562656402588,0.514552652835846,0.0746546164155006,0.6141604781150818,0.6778460144996643,-0.3389108777046203,-0.4495141804218292,-0.472864955663681,9.087435722351074,-1.0791352987289429,-3.309234142303467,0.0718628317117691,-1.0033005475997925,0.6339079141616821,0.3715051710605621,-0.6857531666755676,-0.4457775354385376,-0.4393278956413269
1919436,9.107016563415527,-0.3071281611919403,3.6425180435180655,0.5356575846672058,0.0902143269777298,0.6136865615844727,0.6779060363769531,-0.3388918042182922,-0.4494992792606354,-0.4728066623210907,9.119545936584473,-1.0703542232513428,-3.337007999420166,-0.0688597410917282,-0.917638897895813,0.52098149061203,0.3714727461338043,-0.6858212351799011,-0.4458138048648834,-0.4392122626304626
1919603,9.103602409362791,-0.3154476881027221,3.666899919509888,0.5982037782669067,-0.5447949171066284,0.6201666593551636,0.6778820753097534,-0.3389545679092407,-0.4495173096656799,-0.4727788269519806,9.14529800415039,-1.0792384147644043,-3.3182120323181152,-0.062533400952816,-0.6616399884223938,0.5035648941993713,0.3714401721954345,-0.6858873963356018,-0.4458143413066864,-0.4391358196735382
1919770,9.117998123168944,-0.3131020069122314,3.657240152359009,0.7873407602310181,-0.7871934771537781,0.664745569229126,0.6778931021690369,-0.3389819264411926,-0.4495967030525207,-0.4726680517196655,9.168594360351562,-1.0947343111038208,-3.3221607208251958,0.1477404534816742,-0.3026268184185028,0.5843601226806641,0.3714759349822998,-0.6859049201011658,-0.4458313882350921,-0.4390609264373779
1919936,9.134608268737791,-0.2798328697681427,3.665860891342163,0.5593365430831909,-0.5136626958847046,0.5635114312171936,0.6778849959373474,-0.3390237689018249,-0.4496245980262756,-0.4726230502128601,9.160497665405272,-1.0783838033676147,-3.313642263412476,0.1845715194940567,0.0652291476726532,0.789313018321991,0.3715514242649078,-0.6859110593795776,-0.4458092749118805,-0.4390099942684173
1920103,9.122986793518066,-0.3120813071727752,3.611762046813965,0.2747154235839844,-0.4270277619361877,0.4810000658035278,0.6778614521026611,-0.3390832543373108,-0.4496271014213562,-0.472611665725708,9.13386344909668,-1.0815130472183228,-3.2981958389282227,0.2630744278430938,0.3150425553321838,0.8825687766075134,0.3716074228286743,-0.6859528422355652,-0.4456923305988312,-0.4390161335468292
1920270,9.110793113708496,-0.2985309660434723,3.643965482711792,0.2550192475318908,-0.0983527675271034,0.5091356635093689,0.6777880787849426,-0.3391930162906647,-0.4495423436164856,-0.4727190434932709,9.109848022460938,-1.0716309547424316,-3.293556928634644,0.3452656269073486,0.3105732202529907,1.0961531400680542,0.371723473072052,-0.6859647035598755,-0.445620447397232,-0.4389720857143402
1920436,9.094964027404783,-0.3268903791904449,3.6421847343444815,0.3874368965625763,-0.1932862401008606,0.6721092462539673,0.6777790188789368,-0.3392557501792907,-0.449506014585495,-0.4727215468883514,9.108312606811523,-1.079716682434082,-3.3034610748291016,0.2763290405273437,0.2799788117408752,1.0186234712600708,0.3718304634094238,-0.6859719157218933,-0.445561796426773,-0.4389297068119049
1920603,9.083433151245115,-0.3179790079593658,3.629301071166992,0.8414989113807678,-0.5840591788291931,0.7527124881744385,0.6777957677841187,-0.3392839133739471,-0.4495514929294586,-0.4726339876651764,9.093828201293944,-1.0907707214355469,-3.2771236896514893,0.4232562780380249,0.3001616299152374,1.0440313816070557,0.3719498813152313,-0.6859764456748962,-0.4455013573169708,-0.4388827681541443
1920770,9.13843822479248,-0.3238951861858368,3.611082077026367,0.3200114369392395,-0.4757814407348633,0.631589949131012,0.6777594089508057,-0.3393729627132416,-0.4495373368263244,-0.4726356863975525,9.077845573425291,-1.1008912324905396,-3.301595449447632,0.4329507052898407,0.0705437809228897,1.130307674407959,0.3720653355121612,-0.6859962940216064,-0.4454519152641296,-0.4388042688369751
1920936,9.14265251159668,-0.3040205240249634,3.613374710083008,0.2804910838603973,-0.1274231821298599,0.5351454019546509,0.6777875423431396,-0.3393877446651459,-0.4495272040367126,-0.4725944101810455,9.101571083068848,-1.1146173477172852,-3.2913615703582764,0.5164480805397034,-0.1069586277008056,0.8766522407531738,0.3721416592597961,-0.6860263347625732,-0.4454119801521301,-0.4387328922748565
1921103,9.121684074401855,-0.2960194647312164,3.620701551437378,0.5607196092605591,0.0965918973088264,0.6921256184577942,0.6778215169906616,-0.339401513338089,-0.4494824707508087,-0.472578227519989,9.0988130569458,-1.0968477725982666,-3.303647756576538,0.58970046043396,-0.0747250542044639,0.6781923174858093,0.3722060620784759,-0.6860463619232178,-0.4453813731670379,-0.4386782944202423
1921270,9.110228538513184,-0.302348256111145,3.6456551551818848,0.7857910990715027,0.512017011642456,0.6891160607337952,0.6778787970542908,-0.3393779695034027,-0.4494020342826843,-0.4725894033908844,9.131033897399902,-1.0825787782669067,-3.313667297363281,0.5138099789619446,-0.0887352004647255,0.3914324939250946,0.3722741603851318,-0.6860217452049255,-0.4454233050346374,-0.4386164247989654
1921436,9.1290283203125,-0.3259349763393402,3.623698711395264,0.4701018631458282,0.3029533922672272,0.7636233568191528,0.6779583692550659,-0.3393601179122925,-0.4493501782417297,-0.4725373685359955,9.136726379394531,-1.084545612335205,-3.289878368377685,0.4192222356796264,0.1141365841031074,0.3357504606246948,0.3723486363887787,-0.6859784126281738,-0.4454652369022369,-0.4385782480239868
1921603,9.131397247314451,-0.3342542052268982,3.631757497787476,0.6505049467086792,0.3936735689640045,0.8529989123344421,0.6780033111572266,-0.3393773734569549,-0.4492568373680115,-0.4725492894649505,9.087318420410156,-1.1104624271392822,-3.319288969039917,0.4114744067192077,0.153772234916687,0.5366052389144897,0.3723818957805633,-0.6860023736953735,-0.4453970491886139,-0.4385818839073181
1921770,9.1339693069458,-0.299979418516159,3.653599977493286,0.4280458688735962,0.0764603167772293,0.490041434764862,0.6779999136924744,-0.3394066095352173,-0.4492032825946808,-0.4725840985774994,9.14181423187256,-1.0773276090621948,-3.311802625656128,0.4920775592327118,0.108693890273571,0.943142831325531,0.3724880218505859,-0.6860086917877197,-0.4453619420528412,-0.4385175406932831
1921936,9.110760688781738,-0.3148395419120788,3.638258218765259,0.5372712016105652,0.0019145495025441,0.6873360872268677,0.6780170798301697,-0.3394366204738617,-0.4491593241691589,-0.472579687833786,9.14802074432373,-1.0746057033538818,-3.31434178352356,0.3855799436569214,0.3738621473312378,0.9749665856361388,0.3725727200508117,-0.6860354542732239,-0.4452567100524902,-0.43851038813591
1922103,9.04825496673584,-0.3377942442893982,3.608486175537109,0.3082039952278137,0.1699722707271576,0.700910747051239,0.67798912525177,-0.3395220339298248,-0.4490490555763244,-0.4726633131504059,9.122115135192873,-1.1024712324142456,-3.311281681060791,0.2536745965480804,0.5587218403816223,1.2113847732543943,0.3726876974105835,-0.6860557198524475,-0.4451363086700439,-0.4385033249855041
1922270,9.147262573242188,-0.2865400314331054,3.6593291759490967,0.6004704833030701,-0.0797451362013816,-0.0749939829111099,0.6779814958572388,-0.339473158121109,-0.4490762650966644,-0.4726835787296295,9.088306427001951,-1.1503803730010986,-3.3255321979522705,0.5569034218788147,0.9095390439033508,1.326859712600708,0.3728568255901336,-0.686050534248352,-0.4449955821037292,-0.4385105073451996
1922436,9.227334976196287,-0.3013504445552826,3.5975501537323,1.0797481536865234,0.2260897010564804,-0.2256222516298294,0.6779803037643433,-0.3393710851669311,-0.4490943551063537,-0.4727413654327392,9.12049388885498,-1.0794095993041992,-3.3536369800567627,0.5258222818374634,0.787135899066925,0.6595589518547058,0.3729947805404663,-0.6859892010688782,-0.4449616074562073,-0.4385237693786621
1922603,9.121886253356934,-0.3435788154602051,3.675599813461304,1.209386944770813,0.9251499772071838,0.8980005383491516,0.6780970096588135,-0.3392920196056366,-0.4489897489547729,-0.4727301299571991,9.154824256896973,-1.088655710220337,-3.3357937335968018,0.2053562253713607,0.9680639505386353,0.1781811416149139,0.3730658292770386,-0.6859174966812134,-0.4449226856231689,-0.4386147856712341
1922770,9.058035850524902,-0.3094264566898346,3.748985290527344,1.7280311584472656,-0.2262369692325592,1.08846914768219,0.6782033443450928,-0.3392287492752075,-0.4490428864955902,-0.4725724160671234,9.20654582977295,-1.12334406375885,-3.3030216693878174,0.1951239556074142,1.312644362449646,0.143014907836914,0.3731753826141357,-0.6858018636703491,-0.4448997378349304,-0.4387255609035492
1922936,9.081525802612305,-0.2443810254335403,3.717781782150269,0.9556673765182496,-0.7951078414916992,0.4322719573974609,0.6782029867172241,-0.339224249124527,-0.4491400718688965,-0.4724836945533752,9.221964836120604,-1.0832926034927368,-3.2737138271331787,0.4536073207855224,1.9706860780715945,0.6051449179649353,0.3733573257923126,-0.685685932636261,-0.4447710514068603,-0.4388825893402099
1923103,9.053023338317873,-0.2761493027210235,3.655109405517578,0.7329650521278381,-0.7663064002990723,0.6047094464302063,0.678150475025177,-0.3393025994300842,-0.449170172214508,-0.4724741578102112,9.16092586517334,-1.0284191370010376,-3.2440035343170166,0.4394691288471222,2.6468100547790527,0.7926938533782959,0.3735604882240295,-0.6855722665786743,-0.4445343911647796,-0.439126968383789
1923270,9.077835083007812,-0.3376668095588684,3.633129596710205,0.6123548746109009,-1.1388559341430664,0.9858521223068236,0.6781277656555176,-0.3394101560115814,-0.4492344260215759,-0.472368448972702,9.105125427246094,-1.0218013525009155,-3.2201709747314453,-0.0550160780549049,2.901681900024414,0.8119673728942871,0.3737804889678955,-0.6854201555252075,-0.4443282186985016,-0.4393860101699829
1923436,9.111884117126465,-0.322008341550827,3.560698270797729,0.4850468933582306,-0.7142228484153748,1.130614995956421,0.6781241297721863,-0.3395225405693054,-0.4492314159870147,-0.4722958505153656,9.029425621032717,-1.0821809768676758,-3.234788179397583,-0.1670972555875778,2.5155961513519287,0.9707019925117492,0.3739533424377441,-0.6853286027908325,-0.4440887570381164,-0.43962362408638
1923603,9.130682945251465,-0.3000316023826599,3.5671308040618896,0.3647568523883819,-0.0189790111035108,0.8978468179702759,0.6781612634658813,-0.3395670354366302,-0.4491764008998871,-0.4722627401351928,9.01089096069336,-1.1266164779663086,-3.2320597171783447,0.0765243396162986,1.8439286947250368,1.3012725114822388,0.3741213083267212,-0.6852943897247314,-0.4438582062721252,-0.4397665858268738
1923770,9.10999870300293,-0.3049789667129516,3.5700347423553467,0.2086602598428726,0.5274615287780762,0.5868701934814453,0.6781402826309204,-0.3396307229995727,-0.4490256607532501,-0.4723903834819793,9.035417556762695,-1.1024742126464844,-3.2406694889068604,0.5188940763473511,1.0815666913986206,1.4092938899993896,0.3743321001529693,-0.6852505207061768,-0.4437521398067474,-0.4397630393505096
1923936,9.145285606384276,-0.3194243907928467,3.591757774353028,0.3999359011650085,0.8115575909614563,0.8478252291679382,0.6782469153404236,-0.3395946621894836,-0.4489074647426605,-0.4723756313323974,9.107117652893066,-1.0943256616592407,-3.254312753677368,0.598690390586853,0.3541019260883331,1.1699175834655762,0.3744381666183471,-0.685283362865448,-0.4436362087726593,-0.4397384524345398
1924103,9.139874458312988,-0.3320348858833313,3.606423139572144,0.6449598073959351,1.1140693426132202,1.060986876487732,0.6783804893493652,-0.3395463526248932,-0.4487517178058624,-0.4723666608333587,9.144205093383787,-1.1011805534362793,-3.26033616065979,0.9317836761474608,0.2194304019212722,0.9379306435585022,0.3745894134044647,-0.6852556467056274,-0.4436284899711609,-0.4396604299545288
1924270,9.101154327392578,-0.3471636176109314,3.6408534049987793,0.5383853316307068,0.8651008605957031,1.3344407081604004,0.6784789562225342,-0.3395740985870361,-0.4485765695571899,-0.4723716080188751,9.13464641571045,-1.1382780075073242,-3.2569668292999268,1.2390592098236084,0.2596423625946045,0.787878692150116,0.3747503161430359,-0.6852120757102966,-0.4436326622962951,-0.4395869374275207
1924436,9.099372863769531,-0.311176598072052,3.6935110092163086,0.627632737159729,0.2859721779823303,1.0312761068344116,0.6785683631896973,-0.3395699262619018,-0.4485122263431549,-0.4723072350025177,9.162875175476074,-1.181299924850464,-3.2598752975463867,1.5914896726608276,0.104941613972187,1.093630075454712,0.3749630153179168,-0.6851716637611389,-0.4436487853527069,-0.4394522607326507
1924603,9.103927612304688,-0.254354327917099,3.6603035926818848,0.8608493208885193,-0.1432134211063385,0.3461620807647705,0.6785414814949036,-0.3395770788192749,-0.4485013484954834,-0.4723509550094604,9.170796394348145,-1.116454005241394,-3.282908201217652,2.2963130474090576,0.3191534280776977,1.132843255996704,0.3752601146697998,-0.6850842237472534,-0.443690150976181,-0.4392932057380676
1924770,9.117805480957031,-0.2856820225715637,3.664968490600586,0.3812514543533325,0.1577166020870208,0.3435367345809936,0.6785162687301636,-0.3396043181419372,-0.4484324753284454,-0.4724330604076385,9.148287773132324,-1.0603746175765991,-3.252570390701294,1.877506971359253,0.4703067541122436,0.8782914280891418,0.3755197525024414,-0.6849817633628845,-0.4437406659126282,-0.4391801357269287
1924936,9.107904434204102,-0.3327431678771972,3.653270483016968,0.4893626272678375,-0.3825769126415252,0.9433989524841307,0.6785283088684082,-0.339671641588211,-0.4484136402606964,-0.4723851978778839,9.16055393218994,-1.062107801437378,-3.2511086463928223,1.3710542917251587,0.5968464016914368,0.8119930624961853,0.3757145702838897,-0.684911847114563,-0.4437312483787536,-0.4391320347785949
1925103,9.146794319152832,-0.3321664035320282,3.635909557342529,0.3617089688777923,-0.5273399353027344,0.6372119784355164,0.6785165071487427,-0.3397294878959656,-0.4484244287014007,-0.4723503291606903,9.148137092590332,-1.0854825973510742,-3.2570736408233643,0.9996956586837769,0.5977683663368225,1.0663143396377563,0.3758962154388428,-0.684869647026062,-0.4436869323253631,-0.439087301492691
1925270,9.110530853271484,-0.2710121273994446,3.607609987258911,0.2333252727985382,-0.3886342346668243,0.4762617349624634,0.6784806847572327,-0.3397948145866394,-0.4484091997146606,-0.472369372844696,9.13353443145752,-1.0889109373092651,-3.2421107292175293,0.7577580809593201,0.5302533507347107,1.2376503944396973,0.376056969165802,-0.6848586201667786,-0.4436097145080566,-0.4390448927879333
1925436,9.085201263427734,-0.2879454791545868,3.628655910491944,0.0464934520423412,-0.6129887700080872,0.3517712354660034,0.678368091583252,-0.3399271667003631,-0.4483780264854431,-0.4724653363227844,9.082383155822754,-1.0735183954238892,-3.241963148117065,0.4491122663021087,0.5203155875205994,1.3202898502349854,0.3761836588382721,-0.684877336025238,-0.4434941112995147,-0.4390238225460052
1925603,9.088239669799805,-0.3172453939914703,3.5840392112731934,0.0696729496121406,-0.1267956644296646,0.4794633388519287,0.6783425211906433,-0.3399881720542907,-0.4483273327350616,-0.4725062549114227,9.066742897033691,-1.074008822441101,-3.2355847358703613,-0.0701659768819809,0.2982662618160248,1.068824291229248,0.3762272894382477,-0.6849227547645569,-0.4433823525905609,-0.4390285909175873
1925770,9.093083381652832,-0.2992972433567047,3.606645822525024,0.5224414467811584,0.4065695405006408,0.6151465773582458,0.6783820986747742,-0.3399777710437774,-0.4482479989528656,-0.4725321531295776,9.06940460205078,-1.1229612827301023,-3.2231669425964355,-0.3372552692890167,-0.0446429401636123,0.8387455344200134,0.376202791929245,-0.6849930286407471,-0.4432904720306396,-0.4390325546264648
1925936,9.10855770111084,-0.2850384414196014,3.648500204086304,0.3960043489933014,0.6161198616027832,0.3677279055118561,0.6784179210662842,-0.3399433493614197,-0.4481561481952667,-0.4725925624370575,9.115270614624023,-1.1509795188903809,-3.248486042022705,-0.5410042405128479,-0.1431877762079239,0.7120394110679626,0.3761478960514068,-0.685067892074585,-0.4432108402252197,-0.4390431940555572
1926103,9.109380722045898,-0.3346073627471924,3.703320026397705,0.7209014892578125,0.3991035223007202,0.2627798914909363,0.6784425973892212,-0.3398900032043457,-0.4481090605258941,-0.4726402163505554,9.178046226501465,-1.1579294204711914,-3.256941318511963,-0.323770135641098,-0.0458723381161689,0.6244438886642456,0.3761041164398193,-0.6851298213005066,-0.4431314170360565,-0.4390642046928406
1926270,9.093732833862305,-0.330326646566391,3.734920740127564,0.8499509692192078,-0.1804030537605285,0.2441210150718689,0.6785010099411011,-0.3397988975048065,-0.4481769800186157,-0.47255739569664,9.222870826721191,-1.157872200012207,-3.229211568832397,-0.1677503734827041,0.2310073226690292,0.5108132362365723,0.3761228621006012,-0.6851218342781067,-0.4431158900260925,-0.4390761852264404
1926436,9.128990173339844,-0.3292924761772156,3.693631649017334,0.5738717317581177,-0.5854166746139526,0.2191614806652069,0.6784778833389282,-0.3397989273071289,-0.448236882686615,-0.4725336730480194,9.234444618225098,-1.1344584226608276,-3.233471155166626,0.0029134447686374,0.9058507680892944,0.3748098313808441,0.3761624991893768,-0.6850833892822266,-0.443038672208786,-0.4391802251338959
1926603,9.104482650756836,-0.3197206854820251,3.69331955909729,0.5961547493934631,-0.4255934059619903,0.4564118683338165,0.678480863571167,-0.3398028612136841,-0.4482690393924713,-0.4724961221218109,9.210127830505373,-1.1154232025146484,-3.2175254821777344,0.2257439196109771,1.521490454673767,0.3669723272323608,0.376280128955841,-0.6849753260612488,-0.4429704546928406,-0.4393168091773987
1926770,9.100156784057615,-0.3128783702850342,3.681174755096436,0.4726887345314026,-0.5039811134338379,0.6406952738761902,0.6784440875053406,-0.3398751020431518,-0.4482609033584595,-0.4725048840045929,9.147768020629885,-1.1196272373199463,-3.222750663757324,0.2257439196109771,1.876610279083252,0.4782082736492157,0.3764351010322571,-0.6848437190055847,-0.442884087562561,-0.4394764602184295
1926936,9.09011173248291,-0.3374226987361908,3.672894239425659,0.5527284145355225,-0.684717059135437,0.7092092037200928,0.6784563660621643,-0.3399062752723694,-0.4483104348182678,-0.4724177420139313,9.07196044921875,-1.1238712072372437,-3.2385709285736084,0.2955513298511505,1.7626723051071167,0.7224637866020203,0.3765897452831268,-0.6847459673881531,-0.4427603781223297,-0.4396209716796875
1927103,9.068716049194336,-0.3472389578819275,3.667217969894409,0.6530022025108337,-0.5420287251472473,0.5517807602882385,0.6784027218818665,-0.3399733603000641,-0.4483094215393066,-0.4724474549293518,9.078396797180176,-1.1248509883880615,-3.1991961002349854,0.2861514985561371,1.4444602727890017,0.9536441564559937,0.3767611980438232,-0.6846604347229004,-0.4426684379577636,-0.4396996200084686
1927270,9.08896255493164,-0.3272804617881775,3.607213258743286,0.342102438211441,-0.4045525789260864,0.4840479791164398,0.6783545017242432,-0.3400416672229767,-0.4482881426811218,-0.4724877774715423,9.089193344116213,-1.1333658695220947,-3.1984682083129883,0.4053913652896881,0.9341270923614502,1.1692003011703491,0.3769237697124481,-0.6846160292625427,-0.4425887763500213,-0.4397096633911133
1927436,9.108864784240724,-0.3415957391262054,3.624257326126098,0.0339560396969318,-0.2970048487186432,0.545006275177002,0.6783334016799927,-0.3401070833206177,-0.4482549428939819,-0.472502589225769,9.128992080688477,-1.1495667695999146,-3.1963934898376465,0.6330497860908508,0.834327220916748,1.3041024208068848,0.3771156370639801,-0.6845690011978149,-0.4425239264965057,-0.4396836459636688
1927603,9.130970001220703,-0.3576280772686004,3.631689310073853,0.4873904585838318,-0.2257247120141983,0.5667258501052856,0.6783603429794312,-0.3401058316230774,-0.4482590556144714,-0.4724607467651367,9.132770538330078,-1.1881157159805298,-3.2000057697296143,1.0420719385147097,0.7387535572052002,1.266093373298645,0.3773210048675537,-0.6845213770866394,-0.4424653053283691,-0.4396407306194305
1927770,9.12462329864502,-0.3194306194782257,3.6280055046081534,0.7277272343635559,0.0719396695494651,0.6230353116989136,0.6784071326255798,-0.3400785028934479,-0.4482364654541015,-0.4724345505237579,9.120758056640623,-1.1679537296295166,-3.210771322250366,1.3183304071426392,0.5483999252319336,1.146469235420227,0.3775222599506378,-0.6844737529754639,-0.4424293935298919,-0.4395782649517059
1927936,9.074021339416504,-0.3180173635482788,3.6635875701904297,0.6264418959617615,0.2451455742120742,0.7314026951789856,0.6784341931343079,-0.3400880396366119,-0.4481598138809204,-0.4724617004394531,9.11596965789795,-1.163015842437744,-3.20622181892395,1.35334312915802,0.3269397020339966,0.8295506238937378,0.3777205049991607,-0.6843907833099365,-0.4424826800823211,-0.439483493566513
1928103,9.083264350891112,-0.3156928718090057,3.660257816314697,0.6380699276924133,-0.3989049792289734,0.747948408126831,0.6784635186195374,-0.3401006460189819,-0.4481779336929321,-0.4723933041095733,9.081326484680176,-1.1588618755340576,-3.198781490325928,1.3108386993408203,0.0577886514365673,0.6144166588783264,0.3778572976589203,-0.6843386888504028,-0.4425290524959564,-0.4394001066684723
1928270,9.156027793884276,-0.2904523909091949,3.6759512424468994,0.4680016934871673,0.1354079395532608,0.6192574501037598,0.678476870059967,-0.340116947889328,-0.4481128752231598,-0.4724242091178894,9.180357933044434,-1.1327836513519287,-3.2246265411376958,1.2967134714126587,-0.2367510050535202,0.5363619327545166,0.3779590725898742,-0.6843101978302002,-0.4425840973854065,-0.4393015503883362
1928436,9.155047416687012,-0.3621181547641754,3.646257162094116,0.444566011428833,0.0059229363687336,0.7957416772842407,0.6785182356834412,-0.3401307761669159,-0.4480692446231842,-0.472396045923233,9.19337272644043,-1.1358305215835571,-3.189108371734619,0.9974930286407472,0.2080583572387695,0.6366869211196899,0.3780692517757416,-0.6842725276947021,-0.4425914585590362,-0.4392580389976501
1928603,9.056561470031738,-0.3441003262996673,3.610641002655029,0.694763720035553,-0.4319069385528564,0.952581226825714,0.6785604357719421,-0.3401541113853454,-0.4480829834938049,-0.472305566072464,9.155613899230955,-1.1428205966949463,-3.205896377563477,0.8300884366035461,0.6099857091903687,0.7455024719238281,0.3781922459602356,-0.684227705001831,-0.4425514340400696,-0.4392623007297516
1928770,9.096417427062988,-0.2736923396587372,3.6732819080352783,0.6863626837730408,-0.7805341482162476,0.2759320139884949,0.6784958243370056,-0.3401937186717987,-0.448136419057846,-0.4723192155361175,9.10024070739746,-1.1477408409118652,-3.237870931625366,0.7231553196907043,0.5518320202827454,0.9179142713546752,0.3783267736434936,-0.684188723564148,-0.442514419555664,-0.4392444491386413
1928936,9.209344863891602,-0.2629724144935608,3.692193031311035,0.6396452784538269,-0.552939772605896,-0.4667530357837677,0.6784165501594543,-0.3401505649089813,-0.448218435049057,-0.472386360168457,9.134133338928224,-1.1224278211593628,-3.2420825958251958,0.4330275356769562,0.3625541627407074,0.6265186667442322,0.378405898809433,-0.6841543912887573,-0.4425062835216522,-0.4392380118370056
1929103,9.174960136413574,-0.3540087640285492,3.613692998886109,0.4946773052215576,0.1635435074567794,0.2777505218982696,0.6784047484397888,-0.3401419222354889,-0.4481665194034576,-0.4724588096141815,9.188241958618164,-1.1300886869430542,-3.2181718349456787,-0.1099937334656715,0.39860400557518,-0.0596903860569,0.3783909976482391,-0.6841012239456177,-0.4425337612628937,-0.43930584192276
1929270,9.038678169250488,-0.359717845916748,3.715190887451172,1.1249802112579346,0.6441274285316467,0.9938944578170776,0.6785224676132202,-0.3400682210922241,-0.4480881094932556,-0.4724173545837402,9.218107223510742,-1.1888350248336792,-3.186354160308838,-0.1473498493432998,0.7621890902519226,-0.0213737972080707,0.3783783316612243,-0.6840476393699646,-0.442505270242691,-0.4394290447235107
1929436,9.068839073181152,-0.2988799512386322,3.7281839847564697,0.8610541224479675,-0.6976898908615112,0.1277625411748886,0.6785123944282532,-0.3400253355503082,-0.4481895267963409,-0.4723662734031677,9.224714279174805,-1.1931082010269165,-3.199580669403076,0.3264274299144745,1.3777775764465332,0.4108341336250305,0.3784950673580169,-0.6839420199394226,-0.4424532055854797,-0.4395453333854675
1929603,9.076424598693848,-0.2532608211040497,3.66630220413208,0.020048338919878,-0.8293647766113281,-0.2498902976512909,0.6783964037895203,-0.3400779068470001,-0.4482420980930328,-0.4724452495574951,9.213994979858398,-1.1597800254821775,-3.166475296020508,0.4833821058273315,1.9781394004821775,0.6042869091033936,0.3786735236644745,-0.6838060021400452,-0.4423520565032959,-0.4397051930427551
1929770,9.05325984954834,-0.3003374934196472,3.684045791625977,0.1679744869470596,-0.9209302067756652,-0.074276827275753,0.6783016920089722,-0.3401250839233398,-0.4483112394809723,-0.4724817276000976,9.129770278930664,-1.089345932006836,-3.1697628498077397,0.4066848754882812,2.471362829208374,0.3847859799861908,0.3788514733314514,-0.6836376786231995,-0.4422246813774109,-0.4399414360523224
1929936,9.070796012878418,-0.3592933714389801,3.663221597671509,0.3809953331947326,-1.2054617404937744,0.2990859150886535,0.6782140731811523,-0.3402046859264374,-0.4483961760997772,-0.4724694788455963,9.100339889526367,-1.120746374130249,-3.129337787628174,-0.0146760772913694,2.165278196334839,0.2751380205154419,0.3789472877979278,-0.6835174560546875,-0.442078024148941,-0.4401930570602417
1930103,9.123420715332031,-0.3622414469718933,3.584419012069702,0.3833260536193847,-0.6299058794975281,0.6494163870811462,0.678183376789093,-0.3402719795703888,-0.4484031498432159,-0.4724583625793457,9.105852127075195,-1.1829067468643188,-3.1455323696136475,0.1724310964345932,1.7833417654037476,0.7067376375198364,0.3790885806083679,-0.6834154725074768,-0.4419595599174499,-0.4403486847877502
1930270,9.155369758605955,-0.2837501764297485,3.614973306655884,0.2128991782665252,-0.2622740566730499,0.2128735333681106,0.6781404614448547,-0.340300440788269,-0.4483855664730072,-0.4725162386894226,9.167739868164062,-1.168795466423035,-3.1342127323150635,0.399666965007782,1.4488784074783323,0.9710478782653807,0.3792471289634704,-0.6833397746086121,-0.4418469369411468,-0.4404427111148834
1930437,9.111617088317873,-0.2868978083133697,3.662740230560303,0.1280955076217651,-0.4989097416400909,-0.0238710343837738,0.6780635118484497,-0.3403355479240417,-0.4483991861343384,-0.472588300704956,9.18267059326172,-1.1390928030014038,-3.1627469062805176,0.428135484457016,1.443410038948059,0.8749489784240723,0.3794036209583282,-0.6832548379898071,-0.4417485296726227,-0.4405385255813598
1930603,9.125269889831545,-0.333394855260849,3.673006057739258,0.7333235740661621,-0.8638907074928284,0.3135442435741424,0.6780456900596619,-0.3403296768665313,-0.4484955966472626,-0.4725268483161926,9.151935577392578,-1.1169590950012207,-3.149423122406006,0.2592709362506866,1.1336629390716553,0.6835325360298157,0.3795012235641479,-0.6831960082054138,-0.4416598379611969,-0.440634548664093
1930770,9.115201950073242,-0.3537752628326416,3.583333969116211,0.6372247934341431,-0.919547200202942,0.8281931281089783,0.678013801574707,-0.3404091596603393,-0.4485348761081695,-0.4724778532981872,9.121379852294922,-1.157079815864563,-3.1078052520751958,-0.0441819056868553,1.053559184074402,0.2597832083702087,0.3795370161533355,-0.6831293702125549,-0.4416024684906006,-0.4407644867897033
1930937,9.148110389709473,-0.3046361207962036,3.647080898284912,0.4340904057025909,-0.1734619885683059,0.8801996111869812,0.6779996752738953,-0.3404841125011444,-0.4484663903713226,-0.4725090861320495,9.08180332183838,-1.212809920310974,-3.128004789352417,0.1143799126148223,0.2286637723445892,0.6159021854400635,0.3795782923698425,-0.6831103563308716,-0.4415968060493469,-0.4407640695571899
1931103,9.097606658935549,-0.2793411314487457,3.6408865451812735,0.0634362548589706,-0.069704957306385,0.0118266632780432,0.6779738664627075,-0.3404750823974609,-0.448449045419693,-0.4725692868232727,9.132715225219728,-1.1751313209533691,-3.145770072937012,0.5382317304611206,-0.1099041029810905,0.8251708149909973,0.3796492218971252,-0.6831076741218567,-0.4416086673736572,-0.4406950175762176
1931270,9.12586784362793,-0.3174101412296295,3.616074323654175,0.241111546754837,-0.4891640543937683,0.0222766436636447,0.6779062151908875,-0.3405001163482666,-0.4484672844409942,-0.4726311266422272,9.14790153503418,-1.11818528175354,-3.1297969818115234,0.4803853631019592,-0.4926986992359161,0.5843985080718994,0.3796558976173401,-0.6831349730491638,-0.4416324496269226,-0.4406231939792633
1931437,9.08367156982422,-0.3103672862052917,3.639965534210205,0.6307831406593323,-0.5291711688041687,0.7166881561279297,0.6779303550720215,-0.3405082523822784,-0.4485024213790893,-0.4725571870803833,9.185534477233888,-1.090253233909607,-3.127285957336426,0.1262770146131515,-0.6261793971061707,0.3339191973209381,0.3796038925647735,-0.683171808719635,-0.4416697025299072,-0.4405736625194549
1931603,9.14671516418457,-0.3370411098003387,3.677201747894287,0.6844161748886108,-0.5148024559020996,0.8541771769523621,0.6779358386993408,-0.3405490219593048,-0.4485094249248504,-0.4725132286548614,9.16304874420166,-1.1236659288406372,-3.121821641921997,0.0098288720473647,-0.6936686635017395,0.2947700917720794,0.3795273303985595,-0.6832214593887329,-0.4416993856430053,-0.4405329525470733
1931770,9.087761878967283,-0.3150117993354797,3.661065101623535,0.244108185172081,-0.1078294590115547,0.807715654373169,0.6779236197471619,-0.3406204879283905,-0.4484337568283081,-0.4725510776042938,9.174881935119627,-1.1748346090316772,-3.125874280929565,0.1752356886863708,-0.7990906238555908,0.6719939708709717,0.3794782161712646,-0.6832984089851379,-0.4416984021663666,-0.4404568970203399
1931937,9.077208518981934,-0.3199809491634369,3.665125608444214,-0.005442698020488,-0.3199154138565063,0.424472838640213,0.6779370903968811,-0.3406314253807068,-0.4484383463859558,-0.47251957654953,9.157426834106444,-1.188017964363098,-3.1236050128936768,0.4261376559734344,-0.8667466640472412,0.8369398713111877,0.379478394985199,-0.6833589673042297,-0.4417294263839721,-0.4403316974639892
1932103,9.073657989501951,-0.2943602800369262,3.658610820770264,0.0035409554839134,-0.8622642755508423,0.3703788220882416,0.6778569221496582,-0.340727299451828,-0.4484584629535675,-0.4725463986396789,9.132894515991213,-1.1315758228302002,-3.133431911468506,0.3288734853267669,-0.9343896508216858,0.8716065287590027,0.3794819414615631,-0.683417022228241,-0.4417780935764313,-0.4401895701885223
1932270,9.102277755737305,-0.3062698245048523,3.608741044998169,0.143245443701744,-0.7070898413658142,0.4592037200927734,0.6777572631835938,-0.3408446311950683,-0.4484369158744812,-0.4726250767707824,9.124642372131348,-1.1614643335342407,-3.143099069595337,0.3127759099006653,-1.0027755498886108,0.5436232089996338,0.3794439733028412,-0.6834723949432373,-0.4418399631977081,-0.4400741159915924
1932437,9.123970985412598,-0.2938176095485687,3.642488718032837,0.2702972292900085,-0.2534376382827759,0.4707293808460235,0.6777306199073792,-0.3408840000629425,-0.4484059512615204,-0.4726642370223999,9.142367362976074,-1.159065842628479,-3.1532649993896484,0.2991755604743957,-1.179810643196106,0.1887463927268982,0.3793805241584778,-0.6835080981254578,-0.4419613182544708,-0.4399515688419342
1932603,9.116427421569824,-0.313300758600235,3.638848304748535,0.168025717139244,-0.0018056952394545,0.4693334698677063,0.6777303814888,-0.3409012258052826,-0.4483545422554016,-0.4727009236812591,9.147661209106444,-1.1636801958084106,-3.1616241931915283,0.2376538515090942,-1.2155404090881348,0.0174870695918798,0.3792730569839477,-0.6835599541664124,-0.4420613646507263,-0.4398631155490875
1932770,9.108903884887695,-0.2993213832378387,3.6695749759674072,0.7102465033531189,-0.1016055718064308,0.3756038248538971,0.6777544021606445,-0.3408552706241607,-0.4483627080917358,-0.4726917743682861,9.172409057617188,-1.1664966344833374,-3.176281690597534,0.205791637301445,-1.33323073387146,-0.0033296507317572,0.3791807889938354,-0.6835939288139343,-0.4422104060649872,-0.4397402107715606
1932937,9.128873825073242,-0.2795131504535675,3.6681621074676514,0.5680192112922668,-0.4412427246570587,0.292106419801712,0.6777394413948059,-0.340844988822937,-0.448395311832428,-0.472689688205719,9.210044860839844,-1.094030737876892,-3.191201448440552,0.0694424360990524,-1.1488447189331057,-0.0007427682867273,0.3790598511695862,-0.6836488246917725,-0.4422986507415771,-0.4396702349185943
1933103,9.10890293121338,-0.2918428182601928,3.66744875907898,0.4336037933826446,-0.9040129780769348,0.2935407161712646,0.6776762008666992,-0.3408902883529663,-0.448455810546875,-0.4726904332637787,9.177051544189451,-1.083652377128601,-3.175830364227295,-0.4071906805038452,-0.9394353032112122,0.1474074721336364,0.3789205849170685,-0.6837198138237,-0.4423406720161438,-0.4396376013755798
1933270,9.114320755004885,-0.2847242355346679,3.6660335063934326,0.5806334614753723,-0.8774399161338806,0.4557587206363678,0.6776566505432129,-0.3409069180488586,-0.4485329389572143,-0.4726333022117615,9.164215087890623,-1.080910325050354,-3.1817433834075928,-0.8681296110153198,-0.9078420996665956,0.0499383620917797,0.3787350654602051,-0.683803141117096,-0.4423690438270569,-0.4396394193172455
1933437,9.12283420562744,-0.3048868477344513,3.6367766857147217,0.0839904472231864,-0.7975282073020935,0.558247983455658,0.677602231502533,-0.3409943580627441,-0.4485463798046112,-0.4726356267929077,9.14620590209961,-1.1126059293746948,-3.1828837394714355,-1.2076643705368042,-0.8929868340492249,0.2253597229719162,0.378510981798172,-0.683929979801178,-0.4423331618309021,-0.4396712779998779
1933603,9.123669624328612,-0.3194162845611572,3.5977649688720703,0.0313179269433021,-0.4962844848632812,0.4682322144508362,0.6775610446929932,-0.3410575985908508,-0.4485328495502472,-0.4726616740226745,9.142693519592283,-1.150019884109497,-3.1830687522888184,-1.1548638343811035,-0.9892905950546264,0.6992586851119995,0.3783508539199829,-0.6840580105781555,-0.4423134624958038,-0.4396298229694366
1933770,9.1314058303833,-0.3258282542228699,3.6143546104431152,-0.239030510187149,-0.234612300992012,0.2721028625965118,0.677532970905304,-0.3410950601100921,-0.4485018253326416,-0.4727044701576233,9.128865242004396,-1.1754783391952517,-3.186030626296997,-0.7824550867080688,-1.1640970706939695,0.9420670866966248,0.3782312870025635,-0.6841922998428345,-0.442302256822586,-0.4395348727703094
1933937,9.108110427856444,-0.3348760604858398,3.609687805175781,-0.3034080266952514,-0.4723877906799316,0.0763194486498832,0.6774405837059021,-0.3411726355552673,-0.4484758973121643,-0.4728052914142608,9.097900390625,-1.1679036617279053,-3.205572843551636,-0.3165857791900635,-1.3128429651260376,1.1609790325164795,0.3781594634056091,-0.6843277215957642,-0.4423018991947174,-0.4393860101699829
1934103,9.082672119140623,-0.3142055869102478,3.621439218521118,-0.0578462816774845,-0.6415084600448608,0.2621267735958099,0.6773843765258789,-0.3412286341190338,-0.4484907388687134,-0.4728313982486725,9.111835479736328,-1.176996827125549,-3.2097301483154297,0.233261227607727,-1.5820066928863523,1.1718257665634155,0.3781218826770782,-0.6844542622566223,-0.4423450827598572,-0.4391778409481048
1934270,9.12653923034668,-0.3300985693931579,3.5928521156311035,0.4866988956928253,-0.5506730079650879,0.7139347791671753,0.6773587465286255,-0.3412859737873077,-0.4484867751598358,-0.4728304743766784,9.128740310668944,-1.1570600271224976,-3.2185497283935547,0.4937167167663574,-1.7916849851608276,0.7419677972793579,0.3780567944049835,-0.684563398361206,-0.4424402713775635,-0.438967764377594
1934437,9.163076400756836,-0.3044240772724151,3.6171393394470215,0.6141732335090637,-0.1921464502811432,0.833341121673584,0.6774138808250427,-0.3412725627422333,-0.4484825730323791,-0.4727650880813598,9.158476829528809,-1.1570472717285156,-3.237428903579712,0.6797546148300171,-1.869816541671753,0.5344666242599487,0.3779999911785126,-0.6846463680267334,-0.4425852298736572,-0.4387412965297699
1934603,9.167037963867188,-0.3584570288658142,3.621837139129639,0.2399846017360687,-0.1202772483229637,0.9174661040306092,0.6774362921714783,-0.3413200974464416,-0.4484230875968933,-0.4727551639080047,9.164076805114746,-1.1694382429122925,-3.2395408153533936,1.0301748514175415,-1.7900460958480835,0.4543116986751556,0.3779686093330383,-0.6847077012062073,-0.4427428245544433,-0.4385133385658264
1934770,9.090826034545898,-0.3379430770874023,3.615577936172485,0.9486752152442932,-0.3613183796405792,1.0442875623703003,0.6774860620498657,-0.3413238525390625,-0.4484289288520813,-0.4726756811141968,9.13760757446289,-1.160434007644653,-3.279599666595459,1.3149878978729248,-1.449064016342163,0.5720148086547852,0.3780090510845184,-0.6847264766693115,-0.4429094195365906,-0.43828085064888
1934937,9.075777053833008,-0.2587324976921081,3.6431093215942383,0.2581952214241028,-1.193820834159851,0.6672555804252625,0.6774113178253174,-0.3414375185966491,-0.4484807252883911,-0.4726516008377075,9.079906463623049,-1.120009183883667,-3.262045860290528,1.302514672279358,-1.6191580295562744,0.7454768419265747,0.3780444264411926,-0.6847710013389587,-0.4430631101131439,-0.4380254447460174
1935103,9.210984230041504,-0.2788058221340179,3.680076122283936,0.2777568995952606,-0.8641468286514282,-0.0723430663347244,0.677302896976471,-0.3414826691150665,-0.4485341310501098,-0.4727236628532409,9.16526699066162,-1.118510603904724,-3.2658941745758057,1.038434982299805,-1.896684646606445,0.6281834840774536,0.3780247271060943,-0.6848421692848206,-0.4432237446308136,-0.4377686083316803
1935270,9.214654922485352,-0.3498594462871551,3.598649740219116,0.5057803988456726,-0.5410938858985901,0.5819268822669983,0.6772862672805786,-0.3415114283561706,-0.4485499560832977,-0.4727117419242859,9.252357482910156,-1.0959596633911133,-3.272412776947021,0.4813587069511413,-1.4808366298675537,0.1594582647085189,0.3779475688934326,-0.6848857998847961,-0.4433751404285431,-0.4376136660575866
1935437,9.067879676818848,-0.3634006083011627,3.678233623504639,1.0173555612564087,0.2387807816267013,1.5356541872024536,0.677419900894165,-0.3414902091026306,-0.4484833776950836,-0.4725986421108246,9.208733558654783,-1.1323022842407229,-3.2494349479675293,0.070326067507267,-0.6548654437065125,0.040897075086832,0.3778793215751648,-0.6848865747451782,-0.4434762597084045,-0.4375689923763275
1935603,9.044164657592772,-0.2934757471084595,3.684914588928223,1.1606842279434204,-1.0862858295440674,1.1179111003875732,0.6774378418922424,-0.3415263295173645,-0.4485713243484497,-0.4724634885787964,9.145846366882324,-1.1527081727981567,-3.238316535949707,0.0882549583911895,-0.0386751741170883,0.5197777152061462,0.3778817653656006,-0.6848788261413574,-0.4434947073459625,-0.4375603497028351
1935770,9.094009399414062,-0.2626707851886749,3.642224550247192,0.0744497254490852,-1.0215754508972168,0.4844066202640533,0.6773689389228821,-0.3416167795658111,-0.4486140608787536,-0.4724562466144562,9.07524871826172,-1.1178096532821655,-3.236987590789795,0.0783556476235389,0.1877859085798263,0.9284921884536744,0.3779261410236358,-0.6848810911178589,-0.4434644281864166,-0.4375491440296173
1935937,9.07186508178711,-0.318082183599472,3.6050100326538086,0.1690246164798736,-0.649486780166626,0.3562406003475189,0.6773368716239929,-0.3416471779346466,-0.4486457705497741,-0.4724501073360443,9.08316707611084,-1.098217248916626,-3.2282040119171143,-0.2016103565692901,-0.0113848438486456,1.0484877824783323,0.3779259622097015,-0.6849290728569031,-0.4433977901935577,-0.4375414848327636
1936103,9.112943649291992,-0.3397898077964782,3.601977586746216,0.1823816150426864,-0.1669051498174667,0.7122443318367004,0.6773380041122437,-0.3416889607906341,-0.4485953748226166,-0.4724661111831665,9.104390144348145,-1.1291513442993164,-3.2234368324279785,-0.5650418400764465,-0.067297376692295,0.8532551527023315,0.3778807520866394,-0.684980571269989,-0.4433434605598449,-0.4375549554824829
1936270,9.115605354309082,-0.3482613861560821,3.59577751159668,0.0491187572479248,0.4990186393260956,0.8061918020248413,0.6773970127105713,-0.3416900932788849,-0.4484764635562897,-0.4724935591220855,9.122149467468262,-1.1946427822113037,-3.2229669094085693,-0.3579375147819519,0.0218924582004547,1.092042326927185,0.3778749108314514,-0.6850319504737854,-0.443270742893219,-0.4375532269477844
1936437,9.132265090942385,-0.3409213423728943,3.62661075592041,0.2123485058546066,0.7586930394172668,0.3783828616142273,0.6774484515190125,-0.341632217168808,-0.4483623802661896,-0.4725698828697204,9.124417304992676,-1.2013932466506958,-3.2503738403320312,0.2188156992197036,0.0332388840615749,1.2083879709243774,0.3779313862323761,-0.6850614547729492,-0.4432173669338226,-0.4375123083591461
1936603,9.133426666259766,-0.3547630906105041,3.627272367477417,0.4009091556072235,0.1874145269393921,0.29192715883255,0.677466630935669,-0.3415889143943786,-0.4483221769332886,-0.4726133048534393,9.08309555053711,-1.1856416463851929,-3.246598958969116,0.567763090133667,-0.0897597000002861,1.3128492832183838,0.3780326843261719,-0.685075581073761,-0.4432007670402527,-0.4374195337295532
1936770,9.167893409729004,-0.3238255679607391,3.6197261810302734,0.4681809246540069,0.4222957789897918,0.3987064957618713,0.6774868369102478,-0.3415529727935791,-0.4482398331165313,-0.4726884961128235,9.111313819885254,-1.1805315017700195,-3.2577481269836426,0.8297170400619507,-0.5107172727584839,1.2221163511276243,0.378117024898529,-0.685106098651886,-0.4432168900966644,-0.437282532453537
1936937,9.127226829528809,-0.3413949608802795,3.593942165374756,0.7080566883087158,0.581786036491394,0.6964669227600098,0.6775718331336975,-0.3414802253246307,-0.4481604099273681,-0.4726942777633667,9.144484519958496,-1.197099685668945,-3.255401611328125,1.1342264413833618,-0.6931309700012207,0.6772446632385254,0.37819504737854,-0.6850872039794922,-0.4433320164680481,-0.4371280074119568
1937103,9.094032287597656,-0.3289671540260315,3.6418962478637695,0.836632490158081,0.4494452476501465,0.9720596075057985,0.6776747703552246,-0.3414210379123688,-0.4480901658535003,-0.4726560115814209,9.139474868774414,-1.2146433591842651,-3.233573198318481,1.1493890285491943,-0.7638475298881531,0.5105187892913818,0.3782609403133392,-0.6850588917732239,-0.4434726536273956,-0.4369726181030273
1937270,9.154203414916992,-0.2961886525154114,3.608757972717285,0.5349147915840149,-0.1638828516006469,0.3288478255271911,0.6776530742645264,-0.3414158821105957,-0.4480725228786468,-0.4727077484130859,9.18932819366455,-1.225210428237915,-3.261484384536743,1.4905503988265991,-0.5349853038787842,0.6372247934341431,0.3783677816390991,-0.685020923614502,-0.4435840249061584,-0.4368268251419067
1937437,9.17419147491455,-0.3151100277900696,3.57804274559021,0.365243524312973,-0.6085578203201294,0.0725800022482872,0.6776186227798462,-0.3413999676704407,-0.4481320381164551,-0.4727122783660888,9.132251739501951,-1.1080594062805176,-3.256966114044189,1.2666441202163696,-0.3793369233608246,0.3971441686153412,0.3784565925598144,-0.6849606037139893,-0.4437110424041748,-0.4367150962352752
1937603,9.094155311584473,-0.3011130690574646,3.6340560913085938,0.5231457352638245,-0.1147320792078971,0.6365075707435608,0.6776679754257202,-0.3413664400577545,-0.4481301605701446,-0.4726675152778625,9.095425605773926,-1.0806583166122437,-3.2351765632629395,0.4045333564281463,-0.5626341700553894,0.2900830209255218,0.3784439265727997,-0.6849488615989685,-0.4438106119632721,-0.4366433024406433
1937770,9.137413024902344,-0.3365890681743622,3.592664957046509,0.2586178183555603,-0.3979701399803161,0.5023098587989807,0.6776469945907593,-0.3413974940776825,-0.4481225609779358,-0.4726822078227997,9.06626796722412,-1.1071302890777588,-3.250221967697144,-0.3580654859542846,-0.7384781241416931,0.3396691977977752,0.3783408403396606,-0.6849984526634216,-0.4438583254814148,-0.436606615781784
1937937,9.135457038879396,-0.3302734792232513,3.60205602645874,0.0262209996581077,0.0348396711051464,0.345496118068695,0.6776406168937683,-0.3414034843444824,-0.4480707049369812,-0.4727361500263214,9.10683536529541,-1.150877833366394,-3.2521543502807617,-0.7757574915885925,-1.0405030250549316,0.7425057888031006,0.3782027959823608,-0.6851153373718262,-0.443857342004776,-0.4365436434745788
1938103,9.095561981201172,-0.331604391336441,3.614955425262451,0.3819173276424408,0.4640060365200043,0.2318141460418701,0.6776815056800842,-0.3413278758525848,-0.448014497756958,-0.4727855324745178,9.107625007629396,-1.176753282546997,-3.2600584030151367,-0.7512588500976562,-1.0867468118667605,0.9262768626213074,0.378074437379837,-0.685246467590332,-0.4438414871692657,-0.4364652633666992
1938270,9.088851928710938,-0.3330200016498565,3.6251332759857178,0.035608060657978,0.1418751627206802,0.20722596347332,0.6776860356330872,-0.3413039445877075,-0.4479696154594421,-0.4728388488292694,9.13060188293457,-1.1932616233825684,-3.2545037269592285,-0.6462724804878235,-0.8955993056297302,0.8832988142967224,0.377964049577713,-0.6853587627410889,-0.4438228607177734,-0.4364034831523895
1938437,9.104183197021484,-0.3288894891738891,3.6155991554260254,0.2528933882713318,-0.0248571243137121,0.3945572078227997,0.6777153015136719,-0.3412701785564422,-0.4479563534259796,-0.4728337824344635,9.095977783203123,-1.218358039855957,-3.271981000900269,-0.4408073425292969,-0.5623267889022827,0.6556018590927124,0.377879649400711,-0.6854249238967896,-0.4438196718692779,-0.4363759458065033
1938603,9.10936164855957,-0.3048645257949829,3.645321130752564,0.3935070931911468,0.3881924748420715,0.4904383718967438,0.6777558922767639,-0.3412287831306457,-0.447884738445282,-0.4728732705116272,9.115069389343262,-1.2082467079162598,-3.274035692214966,-0.0883125960826873,-0.4570074379444122,0.3563943207263946,0.3778224289417267,-0.6854419708251953,-0.4438695311546325,-0.4363478422164917
1938770,9.118752479553224,-0.3327052891254425,3.660798788070679,0.5713104605674744,0.3665753304958343,0.1810369491577148,0.6777617335319519,-0.3411707282066345,-0.4478273391723633,-0.4729612469673157,9.1470947265625,-1.2101563215255735,-3.286731243133545,0.1625702232122421,-0.1858713626861572,0.0965278595685958,0.3777947723865509,-0.6854079961776733,-0.4439520239830017,-0.4363411962985992
1938937,9.12448501586914,-0.3299873769283294,3.662318706512451,0.4864428341388702,0.4953176379203796,0.1331668347120285,0.6778017282485962,-0.3410771489143371,-0.4477786719799042,-0.473017543554306,9.158952713012695,-1.1881269216537476,-3.276210069656372,0.5314186811447144,0.0516544096171855,-0.0156237464398145,0.3777995407581329,-0.6853435635566711,-0.4440351724624634,-0.4363536238670349
1939103,9.117507934570312,-0.3074823021888733,3.680922269821167,0.4332708120346069,0.3060396909713745,-0.0554642975330352,0.6777960658073425,-0.3410064578056335,-0.4477407336235046,-0.4731126129627228,9.180682182312012,-1.1422263383865356,-3.2934329509735107,0.5795961618423462,0.4348331987857818,0.0591077022254467,0.3778217732906341,-0.6852729320526123,-0.4440654516220093,-0.4364145994186401
1939270,9.116878509521484,-0.3080297708511352,3.669750213623047,0.6057595610618591,0.1685892045497894,0.1281595379114151,0.6777969598770142,-0.3409448564052582,-0.4477149248123169,-0.4731799364089966,9.184163093566896,-1.1247798204421997,-3.278747081756592,0.4174678027629852,0.9277624487876892,0.1738398075103759,0.3778924643993377,-0.6851622462272644,-0.444090187549591,-0.4365020394325256
1939437,9.102217674255373,-0.3128839433193207,3.655512571334839,0.7692710161209106,0.1092701852321624,0.3782931864261627,0.6778271794319153,-0.3408801555633545,-0.4476994276046753,-0.4731979668140411,9.167062759399414,-1.1153810024261477,-3.25951886177063,0.0470057092607021,1.435521364212036,0.3337782919406891,0.3779546022415161,-0.6850636005401611,-0.4440240263938904,-0.4366703331470489
1939603,9.108646392822266,-0.3118670582771301,3.664782524108887,0.5643053650856018,0.2325697243213653,0.4754165410995483,0.6778818368911743,-0.3408141136169433,-0.4476678371429443,-0.4731970429420471,9.133910179138184,-1.1070832014083862,-3.2646212577819824,-0.2492115646600723,1.692007064819336,0.6049656271934509,0.3780357837677002,-0.6849674582481384,-0.4439241588115692,-0.4368523955345154
1939770,9.100231170654297,-0.3302555978298187,3.6690170764923096,0.2941810488700866,0.2048695683479309,0.3276568651199341,0.677908718585968,-0.3407689034938812,-0.4476259648799896,-0.47323077917099,9.10124683380127,-1.12745463848114,-3.2603132724761963,-0.4717603325843811,1.8659299612045288,0.87662672996521,0.3781216740608215,-0.6848909854888916,-0.4437713623046875,-0.4370531439781189
1939937,9.102398872375488,-0.3323619663715362,3.623495578765869,0.2333509027957916,-0.4610670208930969,0.2139620780944824,0.6778647303581238,-0.3407842516899109,-0.4476382136344909,-0.4732711911201477,9.07601547241211,-1.1620231866836548,-3.253647327423096,-0.4263105988502502,1.669352650642395,1.19517183303833,0.3782125115394592,-0.6848512887954712,-0.4435901343822479,-0.4372206926345825
1940103,9.1618070602417,-0.3265648484230041,3.606980562210083,0.0030287019908428,-0.0975331589579582,0.2780194580554962,0.6778375506401062,-0.3408012390136719,-0.4475958049297333,-0.4733379483222961,9.096295356750488,-1.1886942386627195,-3.2473747730255127,-0.2896027863025665,1.2613422870635986,1.26267409324646,0.3782925605773926,-0.6848366260528564,-0.443429559469223,-0.4373374283313751
1940270,9.129838943481444,-0.3177535533905029,3.644634485244751,0.5380011200904846,0.4198753833770752,0.340872973203659,0.6778876781463623,-0.3407215774059295,-0.4475462734699249,-0.4733702838420868,9.156551361083984,-1.1769955158233645,-3.2320826053619385,-0.1098528653383255,0.9946116209030152,1.057669997215271,0.3783613443374634,-0.684814453125,-0.4433180391788482,-0.4374255537986755
1940437,9.094181060791016,-0.3329019844532013,3.658799886703491,0.6868365406990051,0.0435351803898811,0.4734699428081512,0.6779268383979797,-0.3406645953655243,-0.4475353360176086,-0.4733656048774719,9.171930313110352,-1.184003233909607,-3.2320501804351807,0.0673806071281433,1.1465972661972046,0.6474441885948181,0.3784385323524475,-0.6847397089004517,-0.4432614147663116,-0.4375331401824951
1940603,9.113930702209473,-0.3340916931629181,3.625551462173462,0.6677806377410889,-0.4792264103889465,0.5783666968345642,0.6779370307922363,-0.3406534790992737,-0.4475683569908142,-0.4733276963233948,9.147025108337402,-1.1861268281936646,-3.2206127643585205,0.3753988742828369,1.3552510738372805,0.4225518405437469,0.3785519301891327,-0.6846144795417786,-0.4432446658611297,-0.4376479685306549
1940770,9.121637344360352,-0.3192914724349975,3.604679107666016,0.76603102684021,-0.5921784043312073,0.5915317535400391,0.6779338717460632,-0.3406526148319244,-0.4476099014282226,-0.4732935428619385,9.046375274658203,-1.161450982093811,-3.191345691680908,0.4805262386798858,0.9996060132980348,0.3705325126647949,0.3786450028419494,-0.6845067143440247,-0.4432524740695953,-0.4377280473709106
1940937,9.14198398590088,-0.2732186615467071,3.650177478790283,0.560604453086853,-0.1079447343945503,0.4993259906768799,0.6779451370239258,-0.3406330347061157,-0.4475939273834228,-0.4733065068721771,9.109354972839355,-1.1514850854873655,-3.2163658142089844,0.5162047147750854,0.3089723885059356,0.2158446162939071,0.3786801695823669,-0.68443763256073,-0.4433046579360962,-0.43775275349617
1941103,9.132942199707031,-0.3458806574344635,3.615370273590088,0.5341208577156067,-0.2065152078866958,0.6406056880950928,0.677961528301239,-0.3406286537647247,-0.4475816786289215,-0.4732979238033294,9.12514305114746,-1.1522003412246704,-3.2181396484375,0.4269700944423675,0.1277881562709808,0.350605845451355,0.3787129819393158,-0.6843832731246948,-0.4433655142784118,-0.4377476572990417
1941270,9.032896995544434,-0.3343278169631958,3.5730884075164795,0.5971664190292358,-0.5381484031677246,0.6824439167976379,0.6779772639274597,-0.3406295776367187,-0.4476155936717987,-0.4732427597045898,9.084946632385254,-1.1420224905014038,-3.1910605430603027,0.4785156548023224,-0.0533512532711029,0.4725734889507293,0.3787369430065155,-0.6843559145927429,-0.4434098899364471,-0.4377250969409942
1941437,9.169992446899414,-0.2672928869724273,3.6636061668396,0.2234515994787216,-0.1437897086143493,0.0105204163119196,0.6779654026031494,-0.3405857384204864,-0.4476267099380493,-0.4732807278633117,9.1083402633667,-1.138414740562439,-3.256071090698242,0.3043364584445953,-0.4640252292156219,0.7970991730690002,0.3787410855293274,-0.684381365776062,-0.4434394538402557,-0.4376516938209533
1941603,9.203959465026855,-0.2880170047283172,3.613929033279419,0.3032479286193847,0.4874545037746429,-0.2107412815093994,0.6779677867889404,-0.3404903411865234,-0.4475809931755066,-0.4733892381191253,9.158827781677246,-1.1219778060913086,-3.2524783611297607,-0.0527109391987323,-0.5207574367523193,0.4103090465068817,0.3786851763725281,-0.6844013929367065,-0.4434948861598968,-0.4376124143600464
1941770,9.102420806884766,-0.3734177947044372,3.720137596130371,0.8683665990829468,1.342624306678772,0.8448669910430908,0.6781109571456909,-0.3403633236885071,-0.4474268853664398,-0.4734213948249817,9.2086763381958,-1.1560161113739014,-3.220728635787964,-0.3407897651195526,-0.2328194379806518,0.1426691263914108,0.3786007463932037,-0.6844024062156677,-0.443541944026947,-0.4376362264156341
1941937,8.995458602905273,-0.3180978298187256,3.793996334075928,1.4522465467453003,0.0992940440773963,0.8869742751121521,0.6782283782958984,-0.3402450680732727,-0.4474499523639679,-0.4733161926269531,9.213680267333984,-1.1883625984191897,-3.216200828552246,-0.1152827516198158,0.5075732469558716,0.4415949583053589,0.3786059319972992,-0.6843623518943787,-0.4435339868068695,-0.4377025067806244
1942103,9.073062896728516,-0.2533605396747589,3.7441139221191406,0.5674430131912231,-1.0194367170333862,0.2210184037685394,0.6781501173973083,-0.3402792513370514,-0.4475293457508087,-0.4733286798000335,9.207391738891602,-1.1731632947921753,-3.1986634731292725,0.2477324306964874,1.3446731567382812,0.5806463360786438,0.3787025213241577,-0.6842650771141052,-0.4434762597084045,-0.4378292858600616
1942270,9.09118366241455,-0.30283322930336,3.678415298461914,0.1642222255468368,-0.6548527479171753,0.2400742471218109,0.6781185865402222,-0.340289294719696,-0.447574645280838,-0.4733237624168396,9.182316780090332,-1.133914351463318,-3.19520115852356,0.1155580878257751,1.7643115520477295,0.5247209668159485,0.37881800532341,-0.684136688709259,-0.4434062540531158,-0.4380009770393371
1942437,9.100555419921877,-0.3160290122032165,3.64298677444458,0.5072018504142761,-0.5421440005302429,0.4133313298225403,0.6781147122383118,-0.3402770161628723,-0.4476173520088196,-0.4732977747917175,9.130091667175291,-1.1248412132263184,-3.167791843414306,-0.0307992715388536,1.9901515245437624,0.4799499213695526,0.3789132237434387,-0.6840150356292725,-0.4432907700538635,-0.4382254481315613
1942603,9.11732578277588,-0.3059087693691253,3.6421382427215576,0.2113111615180969,-0.3849716484546661,0.4922183752059936,0.678090512752533,-0.3403083086013794,-0.4476045966148376,-0.4733220338821411,9.092824935913086,-1.135465383529663,-3.1567375659942627,-0.219142273068428,1.7068753242492676,0.4716898798942566,0.3789797127246856,-0.6839128136634827,-0.4431938827037811,-0.4384254813194275
1942770,9.129721641540527,-0.2817119359970093,3.634788990020752,0.2875217497348785,-0.1864604502916336,0.464390218257904,0.6780754327774048,-0.3403218686580658,-0.4475747942924499,-0.4733619391918182,9.078834533691406,-1.1512457132339478,-3.191190481185913,-0.2582913041114807,1.1491074562072754,0.6070530414581299,0.3790231049060821,-0.683849036693573,-0.4431254863739013,-0.4385566413402557
1942937,9.145288467407228,-0.3217799663543701,3.62164306640625,0.0922889560461044,0.0761657580733299,0.0777793601155281,0.6780485510826111,-0.3403042554855346,-0.4475305676460266,-0.4734548926353454,9.091691970825195,-1.1310572624206543,-3.1692264080047607,-0.3228480517864227,0.6914212107658386,0.5437384247779846,0.3790239095687866,-0.6838160753250122,-0.4430806040763855,-0.4386525750160217
1943103,9.120670318603516,-0.3411270678043365,3.621575593948364,0.5171780586242676,0.2120923548936844,0.4045077264308929,0.6780808568000793,-0.340250015258789,-0.4474916160106659,-0.4734845161437988,9.107970237731934,-1.1371517181396484,-3.187494993209839,-0.4508731067180633,0.2189437448978424,0.6527844667434692,0.3789819180965423,-0.6838332414627075,-0.4430323839187622,-0.4387107491493225
1943270,9.154264450073242,-0.3214852809906006,3.618295192718506,0.6116120219230652,0.3464181423187256,0.5216090083122253,0.6781533360481262,-0.3401673138141632,-0.4474540948867798,-0.4734756350517273,9.149751663208008,-1.157439351081848,-3.1762518882751465,-0.4387071132659912,-0.1117994412779808,0.5932221412658691,0.3789226710796356,-0.6838609576225281,-0.4430198669433594,-0.4387313425540924
1943437,9.102005004882812,-0.3244522511959076,3.603649139404297,0.379074364900589,0.3215226531028747,0.7386255264282227,0.6781984567642212,-0.3401511311531067,-0.4473708570003509,-0.4735014140605926,9.10464859008789,-1.169112205505371,-3.1729326248168945,-0.3660822808742523,-0.035115011036396,0.5552129149436951,0.3788740932941437,-0.6838758587837219,-0.4430132806301117,-0.4387567043304443
1943603,9.115495681762695,-0.3244659006595611,3.684197664260864,0.1306567639112472,0.5168322324752808,0.5624740719795227,0.6782351136207581,-0.3401312530040741,-0.4472627639770508,-0.4735653102397918,9.123967170715332,-1.2104065418243408,-3.192110776901245,0.0307160317897796,-0.5929468274116516,0.8363251090049744,0.3788371086120605,-0.6839326024055481,-0.4430174827575683,-0.4386959075927734
1943770,9.12742519378662,-0.2990674972534179,3.6594722270965576,0.694763720035553,-0.0361523292958736,0.211733803153038,0.6782457232475281,-0.3400645554065704,-0.4472700953483581,-0.4735909104347229,9.173828125,-1.1864893436431885,-3.2303569316864014,0.5694535970687866,-0.6328641772270203,0.8663048148155212,0.3788590133190155,-0.683958113193512,-0.4430659711360931,-0.4385883212089538
1943937,9.142677307128906,-0.3309065699577331,3.638157844543457,0.6802540421485901,-0.1249771639704704,0.4701530933380127,0.6782618761062622,-0.3400284349918365,-0.4472677409648895,-0.473595917224884,9.155863761901855,-1.1375072002410889,-3.205965518951416,0.6405543684959412,-0.4515902996063232,0.4581151604652405,0.3788747787475586,-0.6839411854743958,-0.4431506693363189,-0.4385154843330383
1944103,9.106694221496582,-0.3015844225883484,3.657578945159912,0.4435799121856689,-0.0889785066246986,0.9430660009384156,0.6783046126365662,-0.3400406837463379,-0.4472249448299408,-0.4735662639141083,9.153488159179688,-1.1576142311096191,-3.234865665435791,0.6642717123031616,-0.4193311035633087,0.6743119359016418,0.3789175152778625,-0.683925986289978,-0.4432288408279419,-0.4384234249591827
1944270,9.176803588867188,-0.3063786923885345,3.6574690341949454,0.1811650246381759,-0.5219740271568298,0.6479180455207825,0.6783170700073242,-0.3400598168373108,-0.4472444951534271,-0.4735162854194641,9.123382568359377,-1.1543219089508057,-3.2302608489990234,0.7614719271659851,-0.4986023604869842,0.8380666971206665,0.3789631128311157,-0.6839322447776794,-0.4432820081710815,-0.4383204877376556
1944437,9.09982967376709,-0.3110511600971222,3.619239091873169,0.7595381736755371,-0.2530919015407562,0.6208069920539856,0.6783498525619507,-0.340023785829544,-0.4472615122795105,-0.4734791219234466,9.140918731689451,-1.1317628622055054,-3.2321712970733643,0.7503433227539062,-0.6252572536468506,0.9738141298294068,0.379004567861557,-0.6839587688446045,-0.4433236122131347,-0.4382011592388153
1944603,9.094168663024902,-0.3254575431346893,3.647657871246338,0.4936911463737488,-0.1785205006599426,0.7145238518714905,0.6783950328826904,-0.3400015830993652,-0.4472590088844299,-0.4734326601028442,9.12755298614502,-1.1271462440490725,-3.214194774627685,0.5196496844291687,-0.4385150074958801,0.8905343413352966,0.3790279328823089,-0.6839832067489624,-0.4433442056179046,-0.438122034072876
1944770,9.095270156860352,-0.3208930194377899,3.6446499824523926,0.0352110564708709,0.1848020106554031,0.8893817067146301,0.6784312725067139,-0.3400315940380096,-0.4471642076969147,-0.4734486639499664,9.140616416931152,-1.1677440404891968,-3.228604316711426,0.2918502986431122,-0.3100161254405975,0.9152889847755432,0.3790552318096161,-0.6839966177940369,-0.4433697760105133,-0.4380513429641723
1944937,9.097047805786133,-0.3083975911140442,3.660566568374634,0.2977027893066406,0.2366677373647689,0.6841984391212463,0.6784737706184387,-0.3400149345397949,-0.4470955729484558,-0.4734645485877991,9.135035514831545,-1.192412257194519,-3.2438175678253174,0.4905152022838592,-0.0591525323688983,1.1011475324630735,0.3791040480136871,-0.6840206384658813,-0.4433317482471466,-0.4380102157592773
1945103,9.139816284179688,-0.2962852120399475,3.655341625213623,0.1811394095420837,-0.0643647089600563,0.418377012014389,0.6784722208976746,-0.3400136232376098,-0.4470614492893219,-0.47350013256073,9.118016242980955,-1.1815402507781982,-3.2368874549865723,0.4520705342292785,0.1327826231718063,0.8671883344650269,0.3791682720184326,-0.6839985847473145,-0.4433405101299286,-0.4379801750183105
1945270,9.145356178283691,-0.2894081473350525,3.608947515487671,0.4241271317005157,0.3850165009498596,0.428340345621109,0.6784995794296265,-0.3399698734283447,-0.4469899535179138,-0.4735597670078277,9.117247581481934,-1.141357421875,-3.24848747253418,0.4434134364128113,0.1542332619428634,0.6243031024932861,0.3792236149311065,-0.6839540004730225,-0.443382203578949,-0.437959611415863
1945437,9.112339973449709,-0.3125560879707336,3.714238166809082,1.1688162088394165,0.9597781896591188,0.683865487575531,0.6786358952522278,-0.3398134708404541,-0.4469135701656341,-0.4735487997531891,9.178357124328612,-1.130675196647644,-3.2571988105773926,0.0740014985203743,0.3355712294578552,0.042741198092699,0.3791970610618591,-0.6838995218276978,-0.4434164762496948,-0.4380330443382263
1945603,9.082082748413086,-0.3067085742950439,3.6990983486175537,1.229556918144226,0.7774543166160583,0.949084997177124,0.6787988543510437,-0.3396647274494171,-0.4468584060668945,-0.4734739363193512,9.211013793945312,-1.1659601926803589,-3.248606443405152,-0.1428164094686508,0.9259310960769652,-0.1000047922134399,0.3791869282722473,-0.6838012337684631,-0.4434340894222259,-0.4381774067878723
1945770,9.126754760742188,-0.3115316331386566,3.701241254806519,0.6992331147193909,0.8938767910003662,0.5595670938491821,0.6789055466651917,-0.3395448923110962,-0.4467665255069732,-0.4734937250614166,9.21637725830078,-1.175153732299805,-3.226407051086426,-0.0681938156485557,1.5292638540267944,0.186812624335289,0.3792408406734466,-0.6836791038513184,-0.4433942437171936,-0.4383617043495178
1945937,9.127835273742676,-0.292558491230011,3.697601079940796,0.2540971934795379,0.6588034629821777,0.2430324852466583,0.6789457201957703,-0.3394717574119568,-0.4466770589351654,-0.4735730588436126,9.2041654586792,-1.1526358127593994,-3.246598243713379,0.0865901410579681,2.201200246810913,0.6134433746337891,0.3793937861919403,-0.683520495891571,-0.443305104970932,-0.4385664463043213
1946103,9.096423149108888,-0.3100106716156006,3.6983776092529297,0.2834877669811249,0.0984360054135322,0.1425538957118988,0.6789377331733704,-0.3394331336021423,-0.446645587682724,-0.4736417233943939,9.156331062316896,-1.1177209615707395,-3.2334492206573486,-0.1246569976210594,2.6137566566467285,0.8166545033454895,0.3795611262321472,-0.6833638548851013,-0.4431554973125458,-0.438817024230957
1946270,9.085036277770996,-0.358353853225708,3.631356000900269,0.3470456302165985,-0.2619282603263855,0.3813923001289367,0.6789435744285583,-0.3394120037555694,-0.446655124425888,-0.4736394584178924,9.142306327819824,-1.118354320526123,-3.219961881637573,-0.4485295712947845,2.793724536895752,0.8170771598815918,0.3796987533569336,-0.6832223534584045,-0.4429591596126556,-0.4391166269779205
1946437,9.15624713897705,-0.3603498935699463,3.5882046222686768,0.6951221823692322,0.2241175025701522,0.6147879362106323,0.6789734363555908,-0.3393770456314087,-0.4465990960597992,-0.4736746251583099,9.107894897460938,-1.1790586709976196,-3.197280168533325,-0.5460883975028992,2.535433292388916,0.9213849306106568,0.379821628332138,-0.683103621006012,-0.4427706599235534,-0.4393851459026336
1946603,9.158180236816406,-0.3394231498241424,3.6090199947357178,0.9139314889907836,1.000963568687439,0.57399982213974,0.6790955066680908,-0.3392325639724731,-0.4465088546276092,-0.4736883342266083,9.099565505981444,-1.2253342866897583,-3.2238223552703857,-0.0999407470226287,2.318429470062256,1.040458083152771,0.379980057477951,-0.6829846501350403,-0.442605197429657,-0.4395993947982788
1946770,9.108722686767578,-0.300138920545578,3.6438310146331783,0.531879723072052,1.214099645614624,0.2044982016086578,0.679180383682251,-0.3390933871269226,-0.4463850259780884,-0.4737827181816101,9.12190055847168,-1.2306150197982788,-3.225654125213623,0.3587763011455536,2.2205889225006104,1.0424561500549316,0.3801546692848205,-0.6828685998916626,-0.4424373805522918,-0.4397977590560913
1946937,9.112537384033203,-0.2715394794940948,3.712973356246948,1.0493202209472656,1.681787371635437,0.1433222591876983,0.6793214678764343,-0.3388627767562866,-0.4462572336196899,-0.4738659858703613,9.18513011932373,-1.1751705408096311,-3.269895076751709,0.4420175850391388,2.383767604827881,0.7416989207267761,0.380345731973648,-0.6827020049095154,-0.4423237442970276,-0.4400054514408111
1947104,9.090375900268556,-0.2541500031948089,3.742074728012085,2.047946691513061,1.8293293714523315,0.5103521943092346,0.6795737743377686,-0.3385215103626251,-0.4461852014064789,-0.4738158881664276,9.21152114868164,-1.1742541790008545,-3.3083016872406006,-0.1852438449859619,3.364746570587158,0.2309432923793792,0.3805093765258789,-0.6824707984924316,-0.4421731829643249,-0.440373957157135
1947270,9.103858947753906,-0.2955129146575928,3.7976019382476807,4.625340461730957,0.6669996380805969,1.110726833343506,0.6798770427703857,-0.3380829393863678,-0.446345716714859,-0.4735426902770996,9.25802993774414,-1.191536784172058,-3.318683385848999,-0.4390401542186737,4.607027053833008,-0.2189373970031738,0.3806906342506408,-0.6821522116661072,-0.4419699907302856,-0.4409144222736358
1947437,9.102350234985352,-0.3683471381664276,3.678378582000733,6.165483474731445,-0.6375898718833923,1.1687140464782717,0.6801623702049255,-0.3375970125198364,-0.4467288553714752,-0.4731182754039764,9.241323471069336,-1.1920263767242432,-3.313833951950073,-0.8106034994125366,6.081729412078857,-0.3418911397457123,0.3809223175048828,-0.6817506551742554,-0.441675454378128,-0.4416302144527435
1947604,9.117493629455566,-0.3022969663143158,3.591804265975952,4.6350860595703125,-0.2535657584667206,0.5071251392364502,0.6803610920906067,-0.3371841609477997,-0.4470078349113464,-0.4728632867336273,9.250545501708984,-1.173541784286499,-3.281550884246826,-0.9012470841407776,7.404639720916748,-0.1086234971880912,0.3812470138072967,-0.6812819242477417,-0.4412817060947418,-0.4424662292003631
1947770,9.166607856750488,-0.2484961599111557,3.725836992263794,3.0343048572540283,0.4573468565940857,-0.6692854762077332,0.6804467439651489,-0.3368042111396789,-0.4471648037433624,-0.4728626310825348,9.26158332824707,-1.1548175811767578,-3.246060848236084,-0.8647488951683044,8.414227485656738,0.0919816270470619,0.381646990776062,-0.6807623505592346,-0.4408080875873565,-0.4433922469615936
1947937,9.097143173217772,-0.3415910303592682,3.7697927951812735,4.440378189086914,-1.136294722557068,-0.4926347136497497,0.6805075407028198,-0.3364075124263763,-0.4475662112236023,-0.4726774394512176,9.260489463806152,-1.0874086618423462,-3.192064046859741,-1.1695146560668943,9.583935737609863,0.086282804608345,0.3821059465408325,-0.6801695823669434,-0.440273255109787,-0.4444368481636047
1948104,9.057804107666016,-0.4590072631835937,3.723488092422485,8.689359664916992,-4.366108417510986,1.798440933227539,0.6807312369346619,-0.3359536826610565,-0.4484725296497345,-0.471818596124649,9.16343879699707,-1.1449429988861084,-3.131509780883789,-1.4213902950286863,10.232335090637209,-0.0433879308402538,0.382559984922409,-0.679549515247345,-0.4396803081035614,-0.4455800056457519
1948270,9.095867156982422,-0.3538784980773926,3.639495372772217,8.112358093261719,-3.61675763130188,2.014778852462769,0.6810032725334167,-0.3355066776275635,-0.4492626488208771,-0.4709914326667785,9.127060890197754,-1.2368581295013428,-3.0410287380218506,-0.8089645504951477,9.976502418518066,0.4881205856800079,0.3830875754356384,-0.6789476871490479,-0.4390830397605896,-0.4466321468353271
1948437,9.170842170715332,-0.2193706333637237,3.6040101051330566,8.037388801574707,-4.633479595184326,1.3230563402175903,0.6811497807502747,-0.3350981473922729,-0.4501763582229614,-0.470197468996048,9.072064399719238,-1.2096226215362549,-2.99379563331604,0.2070083022117614,9.288338661193848,0.9764779806137084,0.3837067186832428,-0.6783612370491028,-0.4385457038879394,-0.4475186169147491
1948604,9.13072395324707,-0.2486157119274139,3.5472946166992188,5.35037088394165,-1.9659538269042969,0.3878082931041717,0.6812703609466553,-0.3347159028053283,-0.4506845474243164,-0.4698079824447632,9.19357204437256,-1.1504130363464355,-2.975919008255005,0.6858506202697754,8.451277732849121,1.0438907146453855,0.3843223452568054,-0.6778069138526917,-0.4380770325660705,-0.4482887983322143
1948770,9.14710807800293,-0.2968651950359344,3.663650989532471,3.695931911468506,0.014311097562313,0.5608092546463013,0.6814358830451965,-0.3343885540962219,-0.4508643746376037,-0.4696284830570221,9.35684871673584,-1.0968663692474363,-2.921074390411377,0.3843122124671936,8.815079689025879,0.4468072056770324,0.3848916590213775,-0.677206814289093,-0.4376257956027984,-0.449146956205368
1948937,9.1231050491333,-0.3140444755554199,3.700148582458496,2.899351119995117,0.8339558243751526,1.307240009307861,0.6816639304161072,-0.3341356813907623,-0.4508703351020813,-0.4694717824459076,9.525622367858888,-1.1004297733306885,-2.953356981277466,-0.3028446435928345,10.609187126159668,-0.6685941219329834,0.3854314386844635,-0.6764571070671082,-0.4371348321437835,-0.4502904415130615
1949104,9.14239501953125,-0.2987755537033081,3.760186195373535,2.9839115142822266,1.6373111009597778,1.1968110799789429,0.6819679141044617,-0.3337877094745636,-0.4508259892463684,-0.4693205058574676,9.585620880126951,-1.1782488822937012,-2.9808177947998047,-1.1590394973754885,13.389323234558104,-2.1278021335601807,0.3859803378582001,-0.6754677295684814,-0.4365928769111633,-0.4518288373947143
1949270,9.041378021240234,-0.1802075505256652,3.900668382644653,6.277999877929688,0.9351902604103088,1.22517728805542,0.6823739409446716,-0.3331752419471741,-0.4510646164417267,-0.4689358472824096,9.459938049316406,-1.2765730619430542,-2.969335556030273,-1.2000200748443604,16.172956466674805,-3.267709493637085,0.3866142928600311,-0.6742300987243652,-0.4359871447086334,-0.4537163376808166
1949437,9.017391204833984,-0.1203045845031738,3.852049589157105,9.99001407623291,-3.2907214164733887,2.18003249168396,0.6827287077903748,-0.3325610160827636,-0.4519154727458954,-0.4680354595184326,9.239253044128418,-1.2292901277542114,-2.908679723739624,-0.6909288167953491,17.349424362182617,-3.829972743988037,0.3873391151428222,-0.6728420853614807,-0.4354085326194763,-0.4557099044322967
1949604,9.194218635559082,-0.2977710664272308,3.5763728618621826,7.252384662628174,-0.1604636013507843,1.4082952737808228,0.6831122040748596,-0.3319453299045563,-0.4523113667964935,-0.4675303697586059,9.230814933776855,-1.141060709953308,-2.833644151687622,-0.6373471021652222,16.80078887939453,-3.923037528991699,0.3880163431167602,-0.6714850664138794,-0.4348578453063965,-0.4576569497585296
1949770,9.217011451721191,-0.3313864171504974,3.578089952468872,5.891273498535156,3.3312714099884038,1.0727176666259766,0.6836199164390564,-0.331220805644989,-0.4522728323936462,-0.4673391878604889,9.394660949707031,-1.0704503059387207,-2.792430639266968,-1.058407425880432,17.08452606201172,-4.022490978240967,0.3886468112468719,-0.6701328754425049,-0.4342525601387024,-0.4596741497516632
1949937,9.07080364227295,-0.2861485481262207,3.658605337142944,4.489605903625488,4.378165245056152,0.8524996638298035,0.6841366291046143,-0.3305279910564422,-0.452062040567398,-0.467277467250824,9.491010665893556,-1.1024435758590698,-2.754899740219116,-1.228847622871399,18.49030876159668,-3.935126781463623,0.3893691301345825,-0.668684720993042,-0.4335659742355346,-0.4618147909641266
1950104,9.01443099975586,-0.2309306859970092,3.707231283187866,2.538749933242798,3.655387163162232,-0.5133938193321228,0.6844075918197632,-0.3299997448921203,-0.4518478810787201,-0.4674614071846008,9.606744766235352,-1.1400506496429443,-2.73066520690918,-0.5568978190422058,20.7237606048584,-3.0414485931396484,0.3903531730175018,-0.6670997738838196,-0.4327066540718078,-0.4640768468379974
1950270,9.124300956726074,-0.2389679998159408,3.6440041065216064,0.7415582537651062,3.6472809314727774,-1.2237108945846558,0.6845481991767883,-0.3295982480049133,-0.451550155878067,-0.4678259789943695,9.619698524475098,-1.0799126625061035,-2.705100774765014,0.0493493676185607,23.41530990600586,-2.2261064052581787,0.3916105628013611,-0.6653487086296082,-0.4316432476043701,-0.4665152430534363
1950437,9.166576385498049,-0.2328481674194336,3.707561492919922,-1.1593204736709597,7.008845329284668,-0.8322591185569763,0.6848437786102295,-0.3291842043399811,-0.4507688879966736,-0.4684381783008575,9.745701789855955,-1.0269945859909058,-2.6962876319885254,0.1831376701593399,26.38254737854004,-1.7710713148117063,0.3931013345718384,-0.6634011268615723,-0.4303819835186004,-0.4691927134990692
1950604,9.14369773864746,-0.2463482767343521,3.704460859298706,-4.5236663818359375,11.086597442626951,-1.3741347789764404,0.6851852536201477,-0.3288116455078125,-0.4493625462055206,-0.4695505797863006,9.870285987854004,-1.0793709754943848,-2.6565330028533936,0.2157684862613678,30.4083194732666,-1.7453701496124268,0.3948418200016022,-0.6611670255661011,-0.4288835823535919,-0.472246766090393
1950770,9.012584686279297,-0.2175267338752746,3.9836833477020255,-3.242274761199951,10.746049880981444,-1.396379470825195,0.6855770945549011,-0.3283171951770782,-0.4480883181095123,-0.4705410003662109,9.74789333343506,-1.166676640510559,-2.6564183235168457,1.1642625331878662,35.301265716552734,-1.4454079866409302,0.3969901204109192,-0.6585460305213928,-0.4271312952041626,-0.475683718919754
1950937,8.852404594421387,-0.301577627658844,3.987499237060547,3.1125004291534424,2.9355804920196533,-0.1847828328609466,0.685852587223053,-0.3277951776981354,-0.4479731023311615,-0.470613420009613,9.486231803894045,-1.1411664485931396,-2.530035972595215,2.790843963623047,37.65979766845703,-0.3749333322048187,0.3995034694671631,-0.6557164192199707,-0.4252412915229797,-0.4791690111160278
1951104,9.02600383758545,-0.2690902650356293,3.6432945728302,0.8787396550178528,2.835601091384888,-1.0840319395065308,0.6859617233276367,-0.327436625957489,-0.4477611780166626,-0.4709051549434662,9.599116325378418,-1.004731297492981,-2.37984037399292,3.379504680633545,38.85074615478516,0.2988825738430023,0.402180939912796,-0.6527917981147766,-0.4232462346553802,-0.4826761484146118
1951270,9.351187705993652,-0.1839093416929245,3.5206873416900635,-3.750993490219116,8.918644905090332,-1.8552050590515137,0.6861814260482788,-0.3270841538906097,-0.4466544091701507,-0.4718802869319916,9.790112495422363,-1.0041459798812866,-2.290980815887451,3.0748934745788574,41.21078872680664,0.1376754939556121,0.4049491584300995,-0.6496875882148743,-0.4210934638977051,-0.4864183366298675
1951437,9.304091453552246,-0.1732782423496246,3.66804313659668,-5.092385768890381,15.333551406860352,-2.339888572692871,0.686734676361084,-0.3263764381408691,-0.444850355386734,-0.4732676446437835,9.943231582641602,-1.0633141994476318,-2.220775842666626,2.849965333938598,45.22208023071289,-0.4390689134597778,0.4078843295574188,-0.6462520360946655,-0.4187272489070892,-0.4905673563480377
1951604,8.790420532226562,-0.2351554334163665,4.233997344970703,2.986870527267456,8.901305198669434,-1.0634011030197144,0.6873241066932678,-0.3254002034664154,-0.4441736042499542,-0.473719447851181,9.660602569580078,-1.122877836227417,-2.0475642681121826,3.330288887023926,50.06139755249024,-0.7798880338668823,0.4111151099205017,-0.6423912048339844,-0.4161211252212524,-0.4951378107070923
1951770,8.774273872375488,-0.2814449965953827,3.928215742111206,7.76257848739624,-6.237692832946777,0.6976197361946106,0.6872839331626892,-0.3251012563705444,-0.4452541172504425,-0.472968190908432,9.319963455200195,-1.1232521533966064,-1.8041112422943115,3.999925374984741,49.98374176025391,-0.2366762459278106,0.4144208431243896,-0.6384952664375305,-0.4134956300258636,-0.4996003806591034
1951937,9.266975402832031,-0.2350456416606903,3.353118658065796,0.9543996453285216,0.2420464605093002,-2.106311798095703,0.6871451139450073,-0.3248569667339325,-0.4453487992286682,-0.4732485115528106,9.39517593383789,-1.0571343898773191,-1.6143323183059692,4.612250328063965,47.837501525878906,-0.0286480356007814,0.4176486730575561,-0.634699285030365,-0.4110042154788971,-0.5037878155708313
1952104,9.5652494430542,-0.1038194224238395,3.452219247817993,-1.9226948022842407,10.147416114807127,-2.125265598297119,0.6875341534614563,-0.3241961598396301,-0.4442735612392425,-0.4741463661193847,9.564361572265623,-1.009810447692871,-1.4849355220794678,4.328867435455322,46.38844299316406,-1.1086668968200684,0.4206648170948028,-0.6309323906898499,-0.408660739660263,-0.5078994631767273
1952270,9.11822509765625,-0.147259384393692,3.7220711708068848,-1.9272040128707888,17.713232040405273,-1.6965487003326416,0.6884136199951172,-0.3230613768100738,-0.4424077272415161,-0.4753878116607666,9.688677787780762,-1.0874813795089722,-1.3905714750289917,4.145055770874023,46.27436828613281,-2.0875661373138428,0.4235658347606659,-0.6270984411239624,-0.4063825607299804,-0.5120478868484497
1952437,8.859053611755371,-0.1898756176233291,4.042656421661377,-4.05991268157959,18.61785125732422,-2.007026433944702,0.6892203092575073,-0.3220581114292145,-0.4403144717216491,-0.4768408834934234,9.771724700927734,-1.1362477540969849,-1.3140439987182615,4.688704013824463,47.14556884765625,-2.492276191711426,0.426518052816391,-0.623113214969635,-0.4041096270084381,-0.5162439346313477
1952604,8.824865341186523,-0.2302569895982742,4.145821571350098,-3.119783401489258,16.910781860351562,-1.7606443166732788,0.6899983882904053,-0.3210710883140564,-0.4384568035602569,-0.4780911803245544,9.775178909301758,-1.145877480506897,-1.2088059186935425,5.701762676239014,49.04097366333008,-2.6687636375427246,0.4296393692493438,-0.6188823580741882,-0.4017916321754455,-0.5205367803573608
1952770,8.879171371459961,-0.1655013561248779,4.087822914123535,-1.6513290405273438,15.44679355621338,-1.032781720161438,0.6907913088798523,-0.3200896084308624,-0.4368059039115906,-0.4791145920753479,9.85102367401123,-1.0591623783111572,-1.0929114818572998,6.695636749267578,50.4419059753418,-2.7469358444213867,0.4329033195972442,-0.6144464612007141,-0.3994473814964294,-0.5248735547065735
1952937,8.98148250579834,-0.1878807991743087,4.1404337882995605,-3.360491752624512,17.44980239868164,-1.8170818090438845,0.6915736198425293,-0.3190870285034179,-0.4348692297935486,-0.4804147481918335,10.007344245910645,-1.025622010231018,-1.0235697031021118,6.865688800811768,53.0986557006836,-3.414668560028076,0.4362606406211853,-0.6097234487533569,-0.3969862461090088,-0.5294486880302429
1953104,8.915960311889648,-0.2006977200508117,4.208243370056152,-2.727295160293579,19.098472595214844,-1.9386405944824217,0.6924852132797241,-0.3178878426551819,-0.4328182339668274,-0.4817466139793396,10.077432632446287,-1.0507959127426147,-0.8661438822746277,7.184515476226807,56.96273040771485,-4.04042387008667,0.4397922456264496,-0.6046075224876404,-0.3943351507186889,-0.5343521237373352
1953270,8.759541511535645,-0.1367633789777755,4.3095479011535645,-0.9566608667373656,16.218599319458008,-1.5189498662948608,0.6933192014694214,-0.3167379796504974,-0.4311577379703522,-0.4827924966812134,10.122122764587402,-1.0846219062805176,-0.7238821387290955,7.953780174255371,61.632354736328125,-3.978231430053711,0.4436305463314056,-0.5990382432937622,-0.3914108574390411,-0.5395764708518982
1953437,8.775981903076172,-0.138211116194725,4.3891472816467285,-2.187069892883301,12.53941535949707,-2.05256462097168,0.6938556432723999,-0.3159128427505493,-0.429818719625473,-0.483755499124527,9.949832916259766,-1.0514024496078491,-0.6430742740631104,9.124174118041992,66.08702087402344,-3.489221572875977,0.4478235840797424,-0.5930200219154358,-0.3882149457931518,-0.5450420379638672
1953604,8.876126289367676,-0.1928708404302597,4.374565124511719,-1.5393366813659668,10.86075496673584,-2.19160270690918,0.6942684650421143,-0.3151587843894958,-0.4286796450614929,-0.4846648871898651,9.788446426391602,-0.915721356868744,-0.5357534885406494,9.827508926391602,68.5077133178711,-3.0413031578063965,0.4522051811218261,-0.5867327451705933,-0.3848417103290558,-0.5505925416946411
1953770,8.861116409301758,-0.1931870877742767,4.376996040344238,-0.803445041179657,11.116394996643066,-1.6879286766052246,0.6947722434997559,-0.3143362998962402,-0.4275463223457336,-0.4854772984981537,9.71377944946289,-0.7926833629608154,-0.3044105768203735,9.62002658843994,70.54463195800781,-3.374187707901001,0.4566085636615753,-0.5802179574966431,-0.3813080489635467,-0.5562915205955505
1953937,8.780625343322754,-0.2382713556289672,4.208924293518066,1.2154316902160645,9.37401294708252,-0.7164513468742371,0.695335865020752,-0.3134872317314148,-0.4266894161701202,-0.4859735071659088,9.69754695892334,-0.8311939835548401,0.0030598044395446,8.718118667602539,72.54067993164062,-3.661224842071533,0.4609720110893249,-0.5735228657722473,-0.3775531947612762,-0.5621656179428101
1954104,8.845046997070312,-0.2151570916175842,4.063181400299072,2.1683268547058105,7.776356697082519,-0.9719764590263368,0.6958127617835999,-0.3126462996006012,-0.426067441701889,-0.4863779544830322,9.630205154418944,-0.9536345601081848,0.231348305940628,8.78287410736084,73.76815795898438,-2.862940788269043,0.4654200971126556,-0.566702127456665,-0.3736131191253662,-0.568019688129425
1954270,9.069392204284668,-0.1673791259527206,4.26844596862793,2.3316211700439453,9.983430862426758,-2.691204309463501,0.6963144540786743,-0.311524361371994,-0.4253133535385132,-0.4870396554470062,9.563971519470217,-0.9456716775894164,0.4493795931339264,9.886839866638184,73.41990661621094,-1.4851809740066528,0.4699999988079071,-0.5598456263542175,-0.3696321249008178,-0.5736245512962341
1954437,9.073982238769531,-0.0987529382109642,4.288345813751221,1.6236286163330078,14.762465476989746,-3.113289833068848,0.6970446705818176,-0.310110330581665,-0.4240423440933227,-0.4880048632621765,9.580501556396484,-0.8164449334144592,0.6354602575302124,9.909900665283203,72.54199981689453,-1.2141929864883425,0.4745034873485565,-0.5530126094818115,-0.3656497597694397,-0.5790714621543884
1954604,8.836828231811523,-0.1637947559356689,4.417929649353027,3.425964117050171,17.57345962524414,-1.4526256322860718,0.6981536149978638,-0.308408260345459,-0.4225416779518127,-0.4887990355491638,9.677239418029783,-0.7400959730148315,0.9311487078666688,9.019739151000977,72.81007385253906,-1.5382765531539917,0.4788683652877807,-0.5461395382881165,-0.3615601360797882,-0.5845434069633484
1954770,8.545633316040039,-0.1874215006828308,4.374385833740234,4.553243637084961,14.365604400634766,-1.0262888669967651,0.6991593837738037,-0.306833416223526,-0.4214324355125427,-0.4893099665641784,9.66529655456543,-0.7257522344589233,1.3236100673675537,7.881072998046875,74.13985443115234,-2.1988675594329834,0.4831010401248932,-0.5391355752944946,-0.3572935461997986,-0.590158998966217
1954937,8.831441879272461,-0.1064091697335243,4.3511810302734375,4.053627014160156,8.04084587097168,-1.2386176586151123,0.6997087597846985,-0.3057640492916107,-0.4209271967411041,-0.4896291196346283,9.506821632385254,-0.8570829033851624,1.5495367050170898,7.195014476776123,74.82880401611328,-1.9437994956970213,0.4872806072235107,-0.5320701599121094,-0.3528586328029632,-0.5957768559455872
1955104,9.107132911682127,-0.1486641764640808,4.250352382659912,4.002172946929932,14.034072875976562,-3.8066518306732178,0.7004214525222778,-0.3041249513626098,-0.4199158847332001,-0.4904980957508087,9.25953769683838,-0.8418819308280945,1.7260663509368896,7.461612224578857,72.59998321533203,-1.2177658081054688,0.4913735389709472,-0.525154709815979,-0.3485084176063537,-0.6010879278182983
1955270,8.964003562927246,0.035387173295021,4.516484260559082,8.070005416870117,21.039926528930664,-1.6582586765289309,0.7019038796424866,-0.3016927540302276,-0.4183897674083709,-0.4911846220493316,9.205500602722168,-0.8385378122329712,1.901015400886536,7.135826587677002,69.15314483642578,-0.9085618853569032,0.4952419996261596,-0.5185234546661377,-0.3443155884742737,-0.6060657501220703
1955437,8.558442115783691,-0.0475748255848884,4.7316508293151855,9.040077209472656,21.68922615051269,-1.7069742679595947,0.7034578919410706,-0.2991070449352264,-0.4168664216995239,-0.4918377101421356,9.331377983093262,-0.845058798789978,2.068670749664306,6.766952037811279,67.16185760498047,-0.5562655329704285,0.498965710401535,-0.5120609402656555,-0.3401736617088318,-0.6108266115188599
1955604,8.411770820617676,-0.1229513809084892,4.766343593597412,10.383817672729492,16.219728469848633,-1.751936435699463,0.7047201991081238,-0.2967744469642639,-0.4159928262233734,-0.4921832084655761,9.377306938171388,-0.8015174865722656,2.39925217628479,6.889599800109863,66.9996337890625,0.0472241714596748,0.5026967525482178,-0.5055849552154541,-0.3359773159027099,-0.6154665946960449
1955770,8.601826667785645,-0.0653672069311142,4.6111555099487305,10.569669723510742,8.824151039123535,-1.298206090927124,0.7055689096450806,-0.2949796617031097,-0.4158664643764496,-0.492153137922287,9.396119117736816,-0.7925256490707397,2.591521978378296,6.969960689544678,67.01061248779297,0.380847692489624,0.5064168572425842,-0.4990701973438263,-0.3317312598228454,-0.6200205683708191
1955937,9.136621475219728,0.0419036634266376,4.572647571563721,8.876416206359863,13.65106201171875,-1.658974528312683,0.70660799741745,-0.2929891943931579,-0.4151382446289062,-0.4924662113189697,9.147109031677246,-0.8069151639938354,2.748598098754883,6.737384796142578,66.29053497314453,-0.1848881691694259,0.5099868774414062,-0.4925627708435058,-0.3275274336338043,-0.6245166063308716
1956104,8.859322547912598,0.1173727512359619,4.745005130767822,11.301742553710938,25.68875312805176,-0.1188304424285888,0.7085834741592407,-0.2899757623672485,-0.413278728723526,-0.492975115776062,9.08243179321289,-0.8094862699508667,2.9146535396575928,6.373985290527344,63.78749084472656,-1.2911933660507202,0.5132661461830139,-0.4862126410007477,-0.3235263526439667,-0.6288768649101257
1956270,8.332491874694824,0.2640361189842224,5.123974800109863,8.50617504119873,27.328554153442383,-0.4004813134670257,0.7105115652084351,-0.2871081531047821,-0.4110571444034576,-0.4937352240085602,9.172714233398438,-0.8227932453155518,3.047614574432373,5.970117092132568,63.14824676513672,-2.1847176551818848,0.5163618326187134,-0.4798671901226043,-0.319571703672409,-0.6332237124443054
1956437,8.19275951385498,0.0731745660305023,4.92921257019043,1.6478906869888306,17.765888214111328,0.1167235821485519,0.7116184830665588,-0.2856591045856476,-0.4093047380447387,-0.4944370090961456,9.34422492980957,-0.9379563331604004,3.4220495223999023,5.845013618469238,64.4463119506836,-1.640440821647644,0.5195150375366211,-0.4733955562114715,-0.3154426515102386,-0.6375711560249329
1956604,8.58686351776123,-0.2320208549499511,4.4874587059021,1.2761598825454712,12.41190242767334,-2.0898563861846924,0.7122270464897156,-0.2845020294189453,-0.40816730260849,-0.4951674342155456,9.1337251663208,-0.8879247307777405,3.793736934661865,7.178526401519775,66.22061157226562,-0.3011076152324676,0.5229195356369019,-0.4666770398616791,-0.3111820816993713,-0.6418203711509705
1956770,8.950956344604492,0.0140001801773905,4.802797794342041,4.841198921203613,21.86957550048828,-2.7363760471343994,0.7134848237037659,-0.2822584509849548,-0.4063313901424408,-0.4961497783660888,8.595220565795898,-0.730168879032135,4.083385944366455,7.391499996185303,62.99235534667969,-0.1527178883552551,0.5261611938476562,-0.4602081775665283,-0.3071485161781311,-0.6457731127738953
1956937,8.29148006439209,0.3043107688426971,5.292878150939941,2.025720357894897,28.081588745117188,-1.5260087251663208,0.7150623798370361,-0.2799305319786072,-0.4035926461219787,-0.4974313676357269,8.511063575744629,-0.6267797350883484,4.325157642364502,6.646602153778076,55.73738098144531,-0.6321926116943359,0.5289456248283386,-0.4544193744659424,-0.3036078810691833,-0.649262547492981
1957104,7.992215156555176,0.2480595260858535,5.440398693084717,-4.7575273513793945,20.395788192749023,-2.141173839569092,0.7158673405647278,-0.2788195312023163,-0.4011827409267425,-0.4988449513912201,8.630226135253906,-0.5768893361091614,4.464672565460205,5.165173053741455,49.925079345703125,-1.3682681322097778,0.5312759280204773,-0.4492312967777252,-0.3004039824008941,-0.6524527668952942
1957270,8.265941619873047,0.0080245845019817,5.27009916305542,-6.439654350280762,16.86244010925293,-2.220303535461426,0.7163876295089722,-0.2781322300434112,-0.3990159630775451,-0.5002176761627197,8.685449600219727,-0.5870137214660645,4.5240478515625,3.996757030487061,45.70822143554688,-1.1521190404891968,0.5333414077758789,-0.4445188045501709,-0.297385573387146,-0.6553716063499451
1957437,8.311874389648438,-0.1312914192676544,5.3084259033203125,-6.3489484786987305,18.62790298461914,-2.4956536293029785,0.7169878482818604,-0.2772873342037201,-0.3966806530952453,-0.501681923866272,8.69838809967041,-0.5492683053016663,4.54749870300293,2.79429292678833,42.76702117919922,-0.2528117597103119,0.5352662801742554,-0.4401983916759491,-0.2944096326828003,-0.6580565571784973
1957604,8.176774024963379,-0.0682008638978004,5.417932033538818,-3.3649628162384038,19.705625534057617,-2.272118330001831,0.7177866101264954,-0.27606201171875,-0.3944376409053802,-0.5029823184013367,8.701417922973633,-0.5462603569030762,4.583041191101074,1.7695084810256958,40.85673904418945,0.4789026081562042,0.5370946526527405,-0.4361539483070373,-0.2914263904094696,-0.6605829000473022
1957770,8.162581443786621,0.1486129164695739,5.567193984985352,-3.014989852905273,19.307729721069336,-1.6961007118225098,0.7185973525047302,-0.2748645842075348,-0.39223313331604,-0.5042029619216919,8.754034996032715,-0.5610392689704895,4.566707611083984,0.8881829380989075,39.99625778198242,0.5236481428146362,0.5388168096542358,-0.4322465360164642,-0.2884127795696258,-0.6630667448043823
