sampleTimeFine,W4_acc_x,W4_acc_y,W4_acc_z,W4_gyro_x,W4_gyro_y,W4_gyro_z,W4_quat_w,W4_quat_x,W4_quat_y,W4_quat_z,W5_acc_x,W5_acc_y,W5_acc_z,W5_gyro_x,W5_gyro_y,W5_gyro_z,W5_quat_w,W5_quat_x,W5_quat_y,W5_quat_z
274320,0.0,0.0,0.0,0.0,0.0,0.0,0.6250767111778259,-0.3882332444190979,-0.4296310842037201,-0.5234225988388062,0.0,0.0,0.0,0.0,0.0,0.0,0.3418826460838318,-0.660877525806427,-0.4213994443416595,-0.5184392929077148
274486,9.27310276031494,-0.3285070955753326,3.219960927963257,-0.4942226707935333,0.0494004935026168,1.2550030946731567,0.6256517767906189,-0.3878597319126129,-0.4299859404563904,-0.5227205753326416,9.442545890808104,-0.1344974935054779,-2.258873701095581,1.1720564365386963,0.1424770355224609,0.7057899236679077,0.3418883085250854,-0.6608843803405762,-0.4215129315853119,-0.5183348655700684
274653,9.26517391204834,-0.333486795425415,3.212607383728028,-0.0971489623188972,0.1804478764533996,1.1655890941619873,0.6257091164588928,-0.3877802491188049,-0.4302009344100952,-0.5225340723991394,9.482474327087402,-0.122059941291809,-2.250316619873047,1.0519455671310425,-0.3375113606452942,0.500798761844635,0.3415977358818054,-0.6611819267272949,-0.4215537309646606,-0.518113911151886
274820,9.237504959106444,-0.3319157063961029,3.172327995300293,-0.0109366234391927,-0.2112663686275482,1.2849315404891968,0.6256297826766968,-0.3878607749938965,-0.430368036031723,-0.5224316120147705,9.548884391784668,-0.0730797946453094,-2.247567653656006,0.6816883683204651,-0.3061998188495636,0.1449230462312698,0.3414669930934906,-0.6611973643302917,-0.4218670427799225,-0.5179252028465271
274986,9.269850730895996,-0.3334331512451172,3.1555910110473637,0.2500759959220886,-0.2926506698131561,1.0134751796722412,0.6257367730140686,-0.3877993822097778,-0.430787593126297,-0.5220032334327698,9.53916072845459,-0.0855321511626243,-2.24072265625,0.2698618173599243,0.0791880637407302,-0.0384446680545806,0.3411155343055725,-0.6611231565475464,-0.4220340847969055,-0.5181154012680054
275153,9.327308654785156,-0.3157714307308197,3.2233662605285645,0.7375624179840088,-0.1354655623435974,0.7475898265838623,0.625583827495575,-0.3879347145557403,-0.4310715794563293,-0.5218514204025269,9.534082412719728,-0.0882071554660797,-2.241359233856201,0.0285389516502618,0.2970240712165832,-0.0903744101524353,0.3409236669540405,-0.6609315872192383,-0.4222458302974701,-0.5183136463165283
275320,9.315766334533691,-0.2963069677352905,3.2890665531158447,0.609588623046875,0.1418495327234268,0.6358416676521301,0.6253918409347534,-0.3880406320095062,-0.4311805367469787,-0.5219128131866455,9.506921768188477,-0.0787981525063514,-2.227644443511963,-0.0861995369195938,0.6169010400772095,0.2550320327281952,0.3408180475234985,-0.6607669591903687,-0.4223372638225555,-0.5185185074806213
275486,9.272231101989746,-0.3206422328948974,3.24953031539917,0.913496196269989,0.4304277896881103,1.0255517959594729,0.6254693865776062,-0.3878890573978424,-0.4312510192394256,-0.5218742489814758,9.48100757598877,-0.0920695587992668,-2.2126171588897705,-0.0473066568374633,0.673172116279602,0.2994572818279266,0.3408068716526031,-0.6605702638626099,-0.4224532544612884,-0.5186818838119507
275653,9.24361801147461,-0.3532028496265411,3.276479482650757,1.1776912212371826,0.6150314211845398,0.9972496628761292,0.6257420182228088,-0.3875825405120849,-0.4313695430755615,-0.5216772556304932,9.469529151916504,-0.1219164803624153,-2.215092182159424,0.0321631431579589,0.662658154964447,0.4658757746219635,0.3408218920230865,-0.6604269742965698,-0.4224759042263031,-0.5188359618186951
275820,9.246021270751951,-0.3480820059776306,3.308610200881958,1.1515661478042605,0.446025937795639,0.9414267539978028,0.6259528398513794,-0.3873735070228576,-0.431362122297287,-0.5215858221054077,9.487351417541504,-0.1212831139564514,-2.2042429447174072,0.1367397904396057,0.6219211220741272,0.5530486106872559,0.3408994376659393,-0.6603143811225891,-0.4224671125411987,-0.5189354419708252
275986,9.242535591125488,-0.3247889876365661,3.286768913269043,1.0013220310211182,0.3278233408927917,0.7244744300842285,0.626141369342804,-0.3871851861476898,-0.4313011467456817,-0.521549642086029,9.48764419555664,-0.1135587245225906,-2.220576286315918,0.3785492777824402,0.5328658819198608,0.5316491723060608,0.3410631418228149,-0.6601742506027222,-0.4225141406059265,-0.5189679265022278
276153,9.2317476272583,-0.3273607790470123,3.289567470550537,1.110432267189026,0.3386063277721405,0.6123676896095276,0.6263362169265747,-0.386973112821579,-0.4312540292739868,-0.5215119123458862,9.483134269714355,-0.1206147000193595,-2.218390464782715,0.5282682776451111,0.4572058916091919,0.4995692670345306,0.3412471413612366,-0.6600391268730164,-0.422583669424057,-0.5189623236656189
276320,9.204812049865724,-0.3457804024219513,3.248019218444824,0.9246760606765748,0.3146712183952331,0.600918710231781,0.6264491677284241,-0.3868401348590851,-0.4311416447162628,-0.5215678811073303,9.47070026397705,-0.1167135238647461,-2.218913078308105,0.800672173500061,0.1769261211156845,0.6504025459289551,0.3413958251476288,-0.6599822640419006,-0.4225902855396271,-0.51893150806427
276486,9.23863697052002,-0.3347845673561096,3.2600960731506348,0.7974321246147156,0.3355967998504638,0.6645918488502502,0.6265859007835388,-0.3867170214653015,-0.4310424625873565,-0.5215768814086914,9.48728370666504,-0.1155103296041488,-2.2327256202697754,0.889138400554657,-0.2296946793794632,0.5707597732543945,0.3415178954601288,-0.6599589586257935,-0.4226241409778595,-0.5188531279563904
276653,9.226966857910156,-0.3440564274787903,3.2560174465179443,0.5126189589500427,0.3611070215702057,0.8307286500930786,0.6267650723457336,-0.3865983188152313,-0.4309573471546173,-0.5215201377868652,9.508919715881348,-0.0988534241914749,-2.241157531738281,0.8379515409469604,-0.4193951487541199,0.4519297182559967,0.341583639383316,-0.659976065158844,-0.4226405322551727,-0.5187748670578003
276820,9.234131813049316,-0.3454258739948272,3.2528645992279053,0.1565896570682525,0.1960716247558593,0.6748626232147217,0.6267988085746765,-0.386608213186264,-0.4308021366596222,-0.5216003060340881,9.523907661437988,-0.0863121151924133,-2.2517688274383545,0.7070322036743164,-0.414311021566391,0.3688933551311493,0.341697484254837,-0.6599379181861877,-0.4227529764175415,-0.5186567902565002
276986,9.258782386779783,-0.3383522927761078,3.231217384338379,0.2832060158252716,0.1423233598470688,0.6108948588371277,0.6269307732582092,-0.3865315020084381,-0.4307487607002258,-0.5215426683425903,9.472060203552246,-0.0997189655900001,-2.265348434448242,0.5893673896789551,-0.3262673318386078,0.3932766020298004,0.3417612314224243,-0.6599332094192505,-0.4228080809116363,-0.5185757279396057
277153,9.304415702819824,-0.3306210041046142,3.274065971374512,0.5004016757011414,0.27922323346138,0.6852613687515259,0.6270485520362854,-0.3864668905735016,-0.4306837022304535,-0.521502673625946,9.491963386535645,-0.1165158823132515,-2.297449111938477,0.6304501891136169,-0.7600184679031372,0.8047831058502197,0.3417629301548004,-0.6600439548492432,-0.422770619392395,-0.518464207649231
277320,9.291770935058594,-0.3223336637020111,3.26273250579834,0.778465986251831,0.454721450805664,0.7071858048439026,0.6271427869796753,-0.3864071667194366,-0.4305948615074157,-0.5215070247650146,9.543670654296877,-0.1033054962754249,-2.286484241485596,0.6376473903656006,-0.4926347136497497,0.8779457211494446,0.34181609749794,-0.6601212024688721,-0.4227582514286041,-0.5183408856391907
277486,9.253904342651367,-0.3523580729961395,3.213726282119751,0.5213912725448608,0.3332276046276092,0.926097571849823,0.6273062229156494,-0.3863306939601898,-0.4305520951747894,-0.5214024186134338,9.520434379577637,-0.0853799507021904,-2.3143489360809326,0.4280458390712738,-0.2554226517677307,0.6753107905387878,0.3419492244720459,-0.6600965857505798,-0.4228716194629669,-0.5181919932365417
277653,9.27855396270752,-0.3945353031158447,3.2029740810394287,1.053085446357727,0.3172068893909454,0.9224606156349182,0.6274421811103821,-0.3862590789794922,-0.4305204749107361,-0.5213180184364319,9.486845016479492,-0.1072826460003852,-2.2963972091674805,0.2319037616252899,-0.0671564936637878,0.4988008737564087,0.341948926448822,-0.6601465940475464,-0.4228485524654388,-0.5181472301483154
277820,9.295747756958008,-0.3251160681247711,3.314181327819824,0.6718659996986389,0.3707502484321594,0.7826153039932251,0.6275109648704529,-0.3862533569335937,-0.4304399788379669,-0.521306037902832,9.465991020202637,-0.1271198391914367,-2.3010315895080566,0.1531575322151184,-0.3184554874897003,0.693739116191864,0.3419257700443268,-0.6602451801300049,-0.4227975904941559,-0.5180785655975342
277986,9.274983406066896,-0.3094922304153442,3.2319447994232178,0.8942224979400635,0.1721109300851822,0.5880483388900757,0.627579927444458,-0.3862131536006927,-0.4304152429103851,-0.5212730765342712,9.47652816772461,-0.1318731904029846,-2.2814207077026367,0.2992395758628845,-0.2981062233448028,0.783857524394989,0.3418673574924469,-0.6603917479515076,-0.4226732552051544,-0.5180315971374512
278153,9.277864456176758,-0.3496771454811096,3.2126779556274414,0.642629086971283,0.0845667347311973,0.9030974507331848,0.627669095993042,-0.3862054944038391,-0.4303849339485168,-0.5211963653564453,9.469656944274902,-0.1171279549598693,-2.3125035762786865,0.4190301299095154,-0.2383389770984649,0.9124587774276732,0.3419115245342254,-0.6604756116867065,-0.4226362705230713,-0.5179257988929749
278320,9.285508155822754,-0.3915248513221741,3.2188894748687744,0.8734250068664551,0.1584337502717971,1.053802490234375,0.6278151869773865,-0.3861601650714874,-0.4303847253322601,-0.5210542678833008,9.461076736450195,-0.1308433413505554,-2.3201866149902344,0.6204612255096436,-0.3130896389484405,0.9148663878440856,0.3419718742370605,-0.6605553030967712,-0.4226218461990356,-0.517795979976654
278486,9.292353630065918,-0.3908588886260986,3.2005114555358887,1.130858302116394,0.1484192162752151,1.3010419607162476,0.6279380917549133,-0.3861604332923889,-0.430350661277771,-0.520933985710144,9.49025058746338,-0.1509424448013305,-2.302734613418579,0.7505738139152527,-0.2690486311912536,0.8729384541511536,0.3420430421829223,-0.6606261730194092,-0.422617644071579,-0.5176620483398438
278653,9.27756404876709,-0.3461399972438812,3.2443478107452397,0.8548173904418945,0.1503657698631286,1.136147379875183,0.6280255317687988,-0.3861871063709259,-0.4303025901317596,-0.5208483934402466,9.482787132263184,-0.1361398845911026,-2.3287415504455566,0.8897915482521057,-0.2188093066215515,0.8566998839378357,0.3421181142330169,-0.6606977581977844,-0.4226028621196747,-0.5175331234931946
278820,9.284236907958984,-0.3592851758003235,3.220844268798828,0.4631993174552917,-0.0406089350581169,1.165730118751526,0.6281300187110901,-0.3862246870994568,-0.4302788376808166,-0.5207144021987915,9.50240993499756,-0.1306105107069015,-2.331592082977295,1.0124636888504028,-0.0571035183966159,0.9258543252944946,0.3422359526157379,-0.6607438325881958,-0.4226029217243194,-0.5173963904380798
278986,9.295208930969238,-0.3660408556461334,3.1880667209625244,0.3739005923271179,0.1614944785833358,1.121970772743225,0.6282104253768921,-0.3862762153148651,-0.4302143156528473,-0.5206323266029358,9.525540351867676,-0.1448297351598739,-2.336345195770264,0.9149177074432372,0.1228961423039436,1.017317295074463,0.3423875570297241,-0.6607667207717896,-0.4226105809211731,-0.517260730266571
279153,9.28768825531006,-0.382475882768631,3.219130754470825,0.1818437576293945,0.2275240123271942,1.0781729221343994,0.6282826662063599,-0.3863374590873718,-0.4301381111145019,-0.5205627679824829,9.509085655212402,-0.1338984668254852,-2.3052823543548584,0.9035584926605223,0.4849700629711151,1.0051511526107788,0.3425458073616028,-0.660774290561676,-0.4225817918777466,-0.5171695351600647
279320,9.290417671203612,-0.3659408390522003,3.226867198944092,0.4265475273132324,0.3371463716030121,1.0928490161895752,0.6283477544784546,-0.3863944411277771,-0.4300489425659179,-0.5205156207084656,9.49443817138672,-0.1473310738801956,-2.316309690475464,0.9145207405090332,0.6323711276054382,0.8994348645210266,0.3426945507526397,-0.6607729196548462,-0.4225399792194366,-0.5171070098876953
279486,9.273611068725586,-0.3772269785404205,3.2314484119415283,0.2987144887447357,0.4025867879390716,1.0276391506195068,0.628420889377594,-0.3864408135414123,-0.4299609661102295,-0.5204656720161438,9.511950492858888,-0.1532479524612426,-2.303085327148437,0.7165473103523254,0.706353485584259,0.89508056640625,0.3428421020507812,-0.6607650518417358,-0.4224956035614013,-0.5170555114746094
279653,9.294730186462402,-0.3838396668434143,3.2223570346832275,0.2302005589008331,0.3504009544849396,0.9323728084564208,0.628466010093689,-0.3865029513835907,-0.4298675954341888,-0.5204418301582336,9.494758605957031,-0.146849900484085,-2.3116464614868164,0.5402166843414307,0.8451743125915527,0.8912003040313721,0.3429743647575378,-0.6607610583305359,-0.4224198460578918,-0.5170347094535828
279820,9.289597511291504,-0.3943187892436981,3.261759996414185,0.2303669899702072,0.5362209677696228,0.8614894151687622,0.6285484433174133,-0.3865218162536621,-0.4297850728034973,-0.5203965306282043,9.481136322021484,-0.1420582979917526,-2.295242547988892,0.4374329447746277,0.8529092669487,0.8251450657844543,0.3430677354335785,-0.6607776880264282,-0.4223099648952484,-0.5170414447784424
279986,9.273402214050291,-0.3782967925071716,3.2366559505462646,0.5088026523590088,0.68506920337677,0.9005104899406433,0.6286677122116089,-0.3864997625350952,-0.429712176322937,-0.5203290581703186,9.483949661254885,-0.1478006839752197,-2.27799654006958,0.3761672973632812,0.9770283699035645,0.8477355241775513,0.3432004749774933,-0.6607593894004822,-0.422231912612915,-0.5170402526855469
280153,9.282902717590332,-0.3735280632972717,3.2484054565429688,0.5675197839736938,0.5170243382453918,0.8352108597755432,0.6287723779678345,-0.3864828944206238,-0.4296608865261078,-0.5202574729919434,9.491827011108398,-0.1425205171108245,-2.239802837371826,0.223566859960556,0.9445642828941344,0.8326752781867981,0.3433004021644592,-0.6607622504234314,-0.4221240282058716,-0.5170586109161377
280320,9.273524284362791,-0.3963111042976379,3.265547752380371,0.2991499006748199,0.7242310643196106,0.7339894771575928,0.6288301944732666,-0.3864985406398773,-0.4295485317707062,-0.5202688574790955,9.511417388916016,-0.1220672875642776,-2.2242376804351807,-0.0127167049795389,0.9939199686050416,0.6934830546379089,0.3433357179164886,-0.6607913374900818,-0.421962022781372,-0.5171301364898682
280486,9.261600494384766,-0.3843445777893066,3.2630863189697266,0.2329283207654953,0.7535576224327087,0.6657317280769348,0.6289337873458862,-0.3864703774452209,-0.4294696152210235,-0.5202296376228333,9.51192569732666,-0.1448331475257873,-2.235827684402466,-0.2462404817342758,1.3120040893554688,0.6734667420387268,0.3434140980243683,-0.6607659459114075,-0.4218271970748901,-0.5172206163406372
280653,9.236615180969238,-0.3610051572322845,3.26165771484375,-0.0343978554010391,0.7867003679275513,0.5495267510414124,0.628998339176178,-0.3864710032939911,-0.4293600618839264,-0.5202416777610779,9.48038101196289,-0.1365030854940414,-2.223194122314453,-0.3498695194721222,1.081553936004639,0.5388335585594177,0.3434641659259796,-0.6607490181922913,-0.4217137694358825,-0.5173013210296631
280820,9.262420654296877,-0.368688553571701,3.2791128158569336,0.1268532872200012,0.8082535266876221,0.4014982283115387,0.6290777921676636,-0.3864316046237945,-0.4292803406715393,-0.5202404856681824,9.512911796569824,-0.1428451538085937,-2.2077577114105225,-0.4421135783195495,0.954809308052063,0.5666745901107788,0.343495100736618,-0.660750687122345,-0.4215891659259796,-0.5173803567886353
280986,9.238405227661133,-0.370671808719635,3.28562068939209,0.4795657694339752,0.8938639760017395,0.5484511256217957,0.6291223764419556,-0.3864201605319977,-0.4291579723358154,-0.5202959775924683,9.512701034545898,-0.158121645450592,-2.211757183074951,-0.5071314573287964,0.9489569067955016,0.5895979404449463,0.343519002199173,-0.6607581973075867,-0.4214518964290619,-0.5174666047096252
281153,9.20036506652832,-0.3734597563743591,3.2868993282318115,0.2234131693840026,0.3544093072414398,0.4846755266189575,0.6291295886039734,-0.3864554762840271,-0.4290792644023895,-0.5203258991241455,9.491938591003418,-0.1425888389348983,-2.2074553966522217,-0.4219948053359985,0.9300931096076964,0.5496164560317993,0.3435473442077636,-0.6607598066329956,-0.4213232398033142,-0.517550528049469
281320,9.268930435180664,-0.3711707592010498,3.303675413131714,0.1443467587232589,0.125175654888153,0.3827753961086273,0.6291800141334534,-0.3864509463310241,-0.4290711581707001,-0.5202749967575073,9.44993782043457,-0.1690752953290939,-2.2134313583374023,-0.4558931887149811,0.39948770403862,0.5916726589202881,0.3435323238372803,-0.660813570022583,-0.4211989045143127,-0.5175930857658386
281486,9.275620460510254,-0.3660758733749389,3.299499988555908,0.3326769471168518,0.6679216027259827,0.4433366060256958,0.6292740106582642,-0.3863954842090606,-0.4290193021297455,-0.520245373249054,9.469171524047852,-0.170597568154335,-2.227078437805176,-0.1480798125267028,-0.2225615382194519,0.8000831007957458,0.3435663282871246,-0.6608779430389404,-0.4211597740650177,-0.5175201892852783
281653,9.23306655883789,-0.3962187469005584,3.2913622856140137,-0.1060878038406372,0.4835869371891022,0.4177751243114471,0.6292432546615601,-0.3864631056785583,-0.4288876056671142,-0.5203409790992737,9.5165376663208,-0.1705027818679809,-2.2040274143218994,0.0137988412752747,-0.4451230764389038,0.5968207120895386,0.3435932099819183,-0.6609335541725159,-0.4211697280406952,-0.5174230933189392
281820,9.209444999694824,-0.4298100471496582,3.24841570854187,0.1462036967277526,0.0219436809420585,0.5241190791130066,0.6292238235473633,-0.3865345120429992,-0.4288231134414673,-0.5203646421432495,9.570391654968262,-0.1533084362745285,-2.207338809967041,0.0799820497632026,-0.2725191116333008,0.1557060033082962,0.3435583114624023,-0.660983145236969,-0.4211571812629699,-0.5173930525779724
281986,9.276142120361328,-0.4171198606491089,3.2530922889709477,0.7994427680969238,-0.5291839838027954,0.321714699268341,0.6292429566383362,-0.3865340650081634,-0.4289071559906006,-0.5202724933624268,9.552063941955566,-0.1625028550624847,-2.2136330604553223,0.0968608260154724,0.0899325981736183,-0.0946133136749267,0.3435347974300384,-0.6609833240509033,-0.4211583733558655,-0.5174074172973633
282153,9.295124053955078,-0.3494524657726288,3.3410181999206543,0.4439384937286377,-0.1061262115836143,0.011544925160706,0.6292163133621216,-0.3865396976470947,-0.4289212822914123,-0.5202890038490295,9.530878067016602,-0.1508944928646087,-2.2041773796081543,0.2603466808795929,0.307832658290863,-0.0441819056868553,0.3435453474521637,-0.6609610319137573,-0.4211557507514953,-0.5174312591552734
282320,9.21717357635498,-0.3413275182247162,3.294924259185791,0.3838511109352112,0.1070930883288383,0.0396548621356487,0.6291740536689758,-0.3865571916103363,-0.4288887679576874,-0.5203537940979004,9.505659103393556,-0.1325453817844391,-2.2044677734375,0.3953256011009216,0.4240886569023132,0.0893563032150268,0.3436258137226105,-0.6608984470367432,-0.4211939871311188,-0.5174264311790466
282486,9.218571662902832,-0.4078020751476288,3.32129168510437,0.6866444945335388,-0.1566984951496124,0.3984119594097137,0.6292187571525574,-0.3865392506122589,-0.4289270937442779,-0.5202814936637878,9.50860595703125,-0.0946765094995498,-2.1868650913238525,0.1682177782058715,0.4206949770450592,0.0939922034740448,0.3437002301216125,-0.6608342528343201,-0.4212345480918884,-0.5174260139465332
282653,9.24081039428711,-0.4057697057723999,3.32198429107666,0.974505603313446,-0.2216778993606567,0.4744687974452972,0.6292592883110046,-0.38652303814888,-0.4289703071117401,-0.5202089548110962,9.518531799316406,-0.0714600905776023,-2.194846868515014,-0.176586776971817,0.5778033137321472,0.1231010481715202,0.3437133431434631,-0.6608079075813293,-0.4211882650852203,-0.5174887180328369
282820,9.243556022644045,-0.3666457533836365,3.3205113410949707,1.1824934482574463,-0.2919847667217254,0.3391569256782532,0.6293502449989319,-0.3864409327507019,-0.4290810227394104,-0.5200685262680054,9.504559516906738,-0.0789182186126709,-2.1826939582824707,-0.5933053493499756,0.593683123588562,0.2906465232372284,0.3437197208404541,-0.6607930064201355,-0.4211210012435913,-0.5175582766532898
282986,9.225027084350586,-0.3276341259479522,3.3095414638519287,1.0959737300872805,0.1624293327331543,0.1876578330993652,0.6294237971305847,-0.3863464593887329,-0.4291296005249023,-0.5200096368789673,9.490650177001951,-0.0911250337958335,-2.206664562225342,-0.8928586840629578,0.6407848000526428,0.2780322432518005,0.3436962366104126,-0.6607894897460938,-0.421027272939682,-0.5176547169685364
283153,9.214766502380373,-0.34900563955307,3.3662338256835938,0.416263997554779,0.0278089828789234,0.0003137555322609,0.6293874979019165,-0.3863513469696045,-0.4291135370731354,-0.5200631022453308,9.475799560546877,-0.1172917187213897,-2.20191502571106,-0.9430851936340332,0.3512333035469055,0.4941905438899994,0.3436674475669861,-0.6608209609985352,-0.4209263920783996,-0.5177154541015625
283320,9.20989990234375,-0.3698084354400635,3.334802627563477,0.5332244038581848,-0.161885067820549,0.1485216319561004,0.629396378993988,-0.3863357305526733,-0.4291427433490753,-0.520039975643158,9.473238945007324,-0.1294517815113067,-2.1898462772369385,-0.8439127802848816,-0.0546831116080284,0.5951557755470276,0.3435841202735901,-0.6609219312667847,-0.4207838475704193,-0.5177578330039978
283486,9.232730865478516,-0.3586287498474121,3.302600145339966,0.7761608958244324,-0.2256222814321518,0.3555619120597839,0.6293742656707764,-0.3863614201545715,-0.4291414320468902,-0.5200486183166504,9.472412109375,-0.1314430683851242,-2.1924245357513428,-0.6592580080032349,-0.3455536961555481,0.5928507447242737,0.3435138463973999,-0.6610243320465088,-0.4206864535808563,-0.5177528262138367
283653,9.230509757995604,-0.3635103106498718,3.285684585571289,0.8071008920669556,-0.2668202519416809,0.3769356608390808,0.6293537020683289,-0.3863877058029175,-0.4291456341743469,-0.5200505256652832,9.499564170837402,-0.1391807943582534,-2.209721326828003,-0.3472825586795807,-0.7164512276649475,0.3706349730491638,0.3434547185897827,-0.6611084938049316,-0.4206782281398773,-0.5176911354064941
283820,9.246795654296877,-0.371700257062912,3.2717039585113525,0.636533260345459,-0.2162736505270004,0.2795306146144867,0.6293382048606873,-0.3864037990570068,-0.4291519522666931,-0.520051896572113,9.533714294433594,-0.146786630153656,-2.2128942012786865,-0.1775088161230087,-0.920149028301239,0.1943555623292923,0.3433907032012939,-0.6611849665641785,-0.4207155704498291,-0.5176058411598206
283986,9.248461723327637,-0.3637143969535827,3.296826839447021,0.4810768961906433,-0.1376298367977142,0.18413607776165,0.6293566823005676,-0.386384904384613,-0.4291787445545196,-0.5200216174125671,9.485921859741213,-0.1525117456912994,-2.2311391830444336,0.2042932659387588,-0.9791862964630128,0.2657637596130371,0.3433671295642853,-0.6612496376037598,-0.420779287815094,-0.5174868702888489
284153,9.25026035308838,-0.3609859347343445,3.2889091968536377,0.3861818611621856,-0.2350605428218841,0.2605003416538238,0.6293323040008545,-0.3864174485206604,-0.4291751384735107,-0.5200299620628357,9.522808074951172,-0.1357875019311905,-2.252074718475342,0.4752756655216217,-1.2012485265731812,0.5463765859603882,0.3433520495891571,-0.6613554358482361,-0.4208151698112488,-0.5173327326774597
284320,9.256791114807127,-0.355264276266098,3.3342556953430176,0.3814755380153656,-0.4500536024570465,0.3360258340835571,0.6293171048164368,-0.3864567577838897,-0.4291997849941253,-0.5199986696243286,9.523761749267578,-0.1384372860193252,-2.234163999557495,0.6572411060333252,-1.1101311445236206,0.5577101111412048,0.3433908522129059,-0.6614213585853577,-0.4208979606628418,-0.5171552896499634
284486,9.23789882659912,-0.4015589356422424,3.2320220470428467,-0.0595239102840423,-0.7348154783248901,0.538833498954773,0.6292810440063477,-0.3865648806095123,-0.4292100667953491,-0.5199536681175232,9.509926795959473,-0.0984076783061027,-2.2748453617095947,0.5325840711593628,-0.9324046969413756,0.3876546323299408,0.3434175550937652,-0.6614682078361511,-0.4209809899330139,-0.5170100331306458
284653,9.266581535339355,-0.4106039106845855,3.278681755065918,0.8530502319335938,-0.7946212887763977,0.4183642566204071,0.6291985511779785,-0.3866572082042694,-0.4292388260364532,-0.5199612379074097,9.509339332580566,-0.0977996066212654,-2.2749674320220947,0.3470456600189209,-0.8179799318313599,0.278775006532669,0.3433768451213836,-0.6615476608276367,-0.4209946990013122,-0.5169241428375244
284986,9.236546516418455,-0.3433716893196106,3.270474910736084,0.5165632963180542,-0.877042829990387,0.225206047296524,0.629112184047699,-0.3867784738540649,-0.4293589293956756,-0.5198763012886047,9.485596656799316,-0.0965432897210121,-2.2982747554779053,0.1188749372959137,-0.7938271760940552,0.2012453824281692,0.3433285653591156,-0.6616159677505493,-0.4210233688354492,-0.5168454051017761
285153,9.263251304626465,-0.3434176743030548,3.262934684753418,0.4950999319553375,-0.629291296005249,0.3664601445198059,0.6290323138237,-0.3868735134601593,-0.4293606579303741,-0.5199005603790283,9.461796760559082,-0.1031143888831138,-2.299818754196167,-0.0037394540850073,-0.7853876948356628,0.4148808717727661,0.343314915895462,-0.6616780757904053,-0.4210622310638428,-0.5167433619499207
285320,9.280058860778809,-0.3845958709716797,3.2363827228546143,0.7241799235343933,-0.8636987209320068,0.5705420970916748,0.6290746331214905,-0.3868882358074188,-0.429471343755722,-0.5197470784187317,9.449907302856444,-0.1014928519725799,-2.3016366958618164,-0.2283628135919571,-0.8795016407966614,0.5744864344596863,0.3432491421699524,-0.6617976427078247,-0.4210283160209656,-0.5166615843772888
285486,9.303017616271973,-0.357559472322464,3.2195708751678467,0.950813889503479,-0.8412107229232788,0.6208198666572571,0.6290243864059448,-0.3869750499725342,-0.4295125603675842,-0.5197092294692993,9.484082221984863,-0.0854314267635345,-2.2996826171875,-0.4393218159675598,-0.8361777067184448,0.6458690166473389,0.3431812226772308,-0.6619201302528381,-0.4209844172000885,-0.5165854692459106
285653,9.271111488342283,-0.3252338469028473,3.229379892349243,0.619475245475769,-0.1850517690181732,0.5746529698371887,0.6289993524551392,-0.3870342671871185,-0.4294774234294891,-0.5197243690490723,9.510916709899902,-0.1019048318266868,-2.3002097606658936,-0.5381612777709961,-0.6214410066604614,0.6860426068305969,0.3431362807750702,-0.6620198488235474,-0.4209415018558502,-0.5165225267410278
285820,9.250336647033691,-0.3390889167785644,3.245154857635498,0.5480669140815735,-0.1217883825302124,0.5464277267456055,0.629004180431366,-0.3870662748813629,-0.4294580817222595,-0.5197107791900635,9.52468490600586,-0.1064324826002121,-2.3098535537719727,-0.5812289714813232,-0.2872080206871032,0.6902302503585815,0.3431207835674286,-0.6620859503746033,-0.4208961427211761,-0.5164850950241089
285986,9.270523071289062,-0.3773933351039886,3.2370145320892334,0.3967470824718475,-0.3532247245311737,0.4197601079940796,0.6289874315261841,-0.3871119022369385,-0.4294647872447967,-0.5196914076805115,9.524113655090332,-0.1251841187477111,-2.316450595855713,-0.482556015253067,0.1714706122875213,0.7485759258270264,0.3430728912353515,-0.6621761322021484,-0.4207358360290527,-0.5165318846702576
286153,9.309590339660645,-0.3469636440277099,3.262892246246338,0.5377321839332581,-0.0595239102840423,0.5439688563346863,0.628983199596405,-0.3871495425701141,-0.4294313192367553,-0.5196961164474487,9.529007911682127,-0.1373840868473053,-2.2971837520599365,-0.3885318636894226,0.6266723275184631,0.6350861191749573,0.3430662155151367,-0.6622101068496704,-0.4205877780914306,-0.5166133642196655
286320,9.262717247009276,-0.3516271114349365,3.285652875900269,0.6521953344345093,0.3192174434661865,0.618911623954773,0.6290309429168701,-0.3871389925479889,-0.4293805062770843,-0.5196882486343384,9.522269248962402,-0.1375831216573715,-2.305603265762329,-0.1191118583083152,0.9988374710083008,0.5649456977844238,0.3431627750396728,-0.6621495485305786,-0.420525848865509,-0.5166773200035095
286486,9.252077102661133,-0.3597628772258758,3.301175594329834,0.5675197839736938,-0.0163024831563234,0.4844834208488464,0.6291437149047852,-0.3870694041252136,-0.4294368922710418,-0.5195570588111877,9.50954246520996,-0.1359038054943084,-2.2881553173065186,0.0890745669603347,1.1485183238983154,0.6705596446990967,0.3432868123054504,-0.6620817184448242,-0.4204499423503876,-0.5167436003684998
286653,9.274113655090332,-0.386566549539566,3.259448289871216,0.4629815518856048,-0.0290447995066642,0.5457490086555481,0.6291232705116272,-0.3871220648288727,-0.4293849766254425,-0.5195854902267456,9.49979019165039,-0.1178709864616394,-2.292070150375366,0.3064879775047302,1.2461154460906982,0.6254045367240906,0.3434335887432098,-0.6619935631752014,-0.4203890860080719,-0.5168085098266602
286820,9.271580696105955,-0.3733079135417938,3.2761828899383545,0.8046805262565613,0.3689829111099243,0.6164911985397339,0.6291756629943848,-0.3870985805988312,-0.4293359220027923,-0.5195800065994263,9.474393844604492,-0.1169305220246315,-2.2556135654449463,0.389556348323822,1.254446029663086,0.5659893751144409,0.3435673415660858,-0.6619104743003845,-0.4203190207481384,-0.5168829560279846
286986,9.275043487548828,-0.3775194883346557,3.2802894115448,0.7015126347541809,0.3672028481960296,0.6487888693809509,0.6291999816894531,-0.3871069550514221,-0.4292590916156769,-0.5196077227592468,9.486419677734377,-0.1260076016187667,-2.2631824016571045,0.5223390460014343,1.2230768203735352,0.623650074005127,0.3437196016311645,-0.6618233323097229,-0.4202600717544555,-0.516941249370575
287153,9.273441314697266,-0.3709559142589569,3.260850429534912,0.7028059959411621,0.3877314329147339,0.5554305911064148,0.6292709708213806,-0.3870646059513092,-0.4292246699333191,-0.5195819139480591,9.50346565246582,-0.1346641480922699,-2.249228000640869,0.6046966910362244,1.1806493997573853,0.7690662145614624,0.343869149684906,-0.6617593169212341,-0.4201715886592865,-0.5169956088066101
287320,9.261207580566406,-0.3623150885105133,3.252116680145264,0.7957032322883606,0.4266243278980255,0.7626244425773621,0.6293493509292603,-0.3870368003845215,-0.429170548915863,-0.5195525288581848,9.487205505371094,-0.1152616813778877,-2.234663248062134,0.7314922213554382,1.1841838359832764,0.8119673728942871,0.3440393805503845,-0.6616872549057007,-0.4200949370861053,-0.5170370936393738
287486,9.261080741882324,-0.3679851591587066,3.2649757862091064,0.6236500144004822,0.5064847469329834,0.7809248566627502,0.6294019818305969,-0.387037843465805,-0.4290789365768432,-0.5195635557174683,9.503928184509276,-0.1020562946796417,-2.2000744342803955,0.6129438877105713,1.1511949300765991,0.7849076390266418,0.3441691100597381,-0.661641538143158,-0.4199819564819336,-0.5171008706092834
287653,9.248482704162598,-0.3511993885040283,3.283067226409912,0.4063774943351745,0.4709471464157104,0.5903663635253906,0.6294612288475037,-0.3870202600955963,-0.4290115535259247,-0.5195605158805847,9.507110595703123,-0.0991894528269767,-2.192359209060669,0.3808416426181793,1.1571369171142578,0.7974066138267517,0.3442897498607635,-0.6615975499153137,-0.4198656976222992,-0.517171323299408
287820,9.236087799072266,-0.3571451008319855,3.282800912857056,0.4830362796783447,0.2805806994438171,0.5758439302444458,0.6295154094696045,-0.3870055675506592,-0.4289711415767669,-0.5195389986038208,9.49303150177002,-0.0859225764870643,-2.189347982406616,0.2499351352453231,0.9329233765602112,0.8142469525337219,0.3444072306156158,-0.6615593433380127,-0.4197777807712555,-0.5172134637832642
287986,9.253000259399414,-0.3506897985935211,3.2946510314941406,0.4382396638393402,0.193599984049797,0.8065246343612671,0.629572331905365,-0.3870211243629455,-0.4289173781871795,-0.5195028781890869,9.489563941955566,-0.0941866114735603,-2.1824207305908203,0.0970273166894912,0.6150057315826416,0.839078426361084,0.3444877862930298,-0.6615567207336426,-0.4196868538856506,-0.5172366499900818
288153,9.232133865356444,-0.3691172301769256,3.293878555297852,0.5953607559204102,0.3503112494945526,0.9201810359954834,0.6296601295471191,-0.387014091014862,-0.4288575649261474,-0.5194510817527771,9.537731170654297,-0.1234679594635963,-2.17959213256836,-0.0122428694739937,0.5064079165458679,1.0071873664855957,0.3445487916469574,-0.6615894436836243,-0.4195584952831268,-0.5172584652900696
288320,9.237542152404783,-0.3515559434890747,3.3053855895996094,0.6215881705284119,0.2104147225618362,0.9032766222953796,0.6297286152839661,-0.3870228230953216,-0.4288053214550018,-0.5194046497344971,9.552916526794434,-0.1321991533041,-2.1743171215057373,0.0725415721535682,0.5470936894416809,1.0875216722488403,0.3446364998817444,-0.6616109013557434,-0.419439435005188,-0.5172690153121948
288486,9.234136581420898,-0.3595045506954193,3.3167994022369385,0.6038385629653931,0.1858777403831482,0.9130222201347352,0.6298261880874634,-0.3870094120502472,-0.4287766516208648,-0.519320011138916,9.441105842590332,-0.1514115780591964,-2.1785128116607666,0.2153580039739608,0.3038370609283447,1.0517919063568115,0.3447240591049194,-0.6616377830505371,-0.4193515479564667,-0.5172476172447205
288653,9.239961624145508,-0.3516520261764526,3.3231334686279297,0.1138036251068115,0.004629495088011,0.8204323053359985,0.6298390626907349,-0.3870806396007538,-0.4287034869194031,-0.5193118453025818,9.46655559539795,-0.1750890165567398,-2.2017767429351807,0.3644751012325287,-0.4798539280891418,1.172389268875122,0.3448297381401062,-0.6616893410682678,-0.419356107711792,-0.5171074867248535
288820,9.243019104003906,-0.3986441195011139,3.221411943435669,-0.2042612731456756,-0.2633625864982605,0.898448646068573,0.6298493146896362,-0.3871839046478271,-0.4286457002162933,-0.5192700028419495,9.480834007263184,-0.1845791637897491,-2.19962477684021,0.6259936094284058,-0.7574188709259033,1.0641628503799438,0.3448856472969055,-0.6617820858955383,-0.4193409085273742,-0.5169637799263
288987,9.226887702941896,-0.44124436378479,3.2154932022094727,0.5652402639389038,-0.582240641117096,0.9286587834358216,0.6298689246177673,-0.3872562944889068,-0.4286618828773498,-0.5191788673400879,9.543526649475098,-0.1643160581588745,-2.2118847370147705,0.7325296401977539,-0.877465546131134,0.6030701994895935,0.3449074625968933,-0.6618529558181763,-0.419379860162735,-0.5168270468711853
289153,9.301209449768066,-0.3513484895229339,3.3257761001586914,0.5327249765396118,-0.8408521413803101,0.6271206140518188,0.629835307598114,-0.3873433470726013,-0.4287071228027344,-0.5191173553466797,9.54891300201416,-0.1674895882606506,-2.2068233489990234,0.7043300271034241,-0.4552657306194305,0.31882044672966,0.3449548184871673,-0.6618561744689941,-0.4194540381431579,-0.5167310833930969
289320,9.246355056762695,-0.3275090754032135,3.3045620918273926,0.4498806595802307,-0.1559045016765594,0.4241014719009399,0.6297951936721802,-0.3873972296714782,-0.4286728799343109,-0.5191540718078613,9.537270545959473,-0.1749688535928726,-2.2181055545806885,0.8844898343086243,-0.1759720593690872,0.6386847496032715,0.3450718522071838,-0.6618397831916809,-0.4195110499858856,-0.5166277289390564
289487,9.21217918395996,-0.3785988390445709,3.3125102519989014,0.6951606273651123,-0.2508379518985748,0.7037665247917175,0.6298047304153442,-0.3874352276325226,-0.4286659359931946,-0.519119918346405,9.516834259033203,-0.1373652219772339,-2.205878257751465,0.7980597019195557,0.00420688604936,0.7241670489311218,0.3452204465866089,-0.6618008613586426,-0.4195733368396759,-0.5165277123451233
289653,9.25441074371338,-0.4273248016834259,3.3430910110473637,0.4390208423137665,-0.3578222095966339,0.8546509146690369,0.629802405834198,-0.3875155448913574,-0.4286390542984009,-0.5190848112106323,9.5230712890625,-0.1148213073611259,-2.232061624526977,0.5449806451797485,0.2631897032260895,0.7485504150390625,0.3453124761581421,-0.6617965698242188,-0.4195373356342315,-0.5165007710456848
289820,9.259090423583984,-0.3958740830421448,3.305434465408325,0.4888248443603515,-0.3403800129890442,0.6955705285072327,0.6298055052757263,-0.3875692784786224,-0.4286322295665741,-0.5190467238426208,9.507416725158691,-0.1029237136244773,-2.2030162811279297,0.1429893225431442,0.4021514356136322,0.8315867781639099,0.3454198539257049,-0.6617745757102966,-0.4195080101490021,-0.5164809226989746
289987,9.222570419311523,-0.3265147805213928,3.3408710956573486,0.2525860071182251,-0.0943315625190734,0.5250155329704285,0.6297566890716553,-0.3876490294933319,-0.4285636246204376,-0.5191031694412231,9.497981071472168,-0.0992614403367042,-2.2125818729400635,-0.4366964995861053,0.5098143219947815,0.6848771572113037,0.3453931510448456,-0.6618235111236572,-0.4193497002124786,-0.5165646076202393
290153,9.211641311645508,-0.3495241403579712,3.3331360816955566,-0.2388640195131302,-0.4649857878684997,0.4024971425533294,0.6296417713165283,-0.3877981603145599,-0.4284940958023071,-0.519188642501831,9.536690711975098,-0.1452438235282898,-2.185859203338623,-0.7686243057250977,0.6458178162574768,0.658944308757782,0.3453626930713653,-0.6618586182594299,-0.4191917181015014,-0.5166682004928589
290320,9.229743957519531,-0.4033783078193664,3.3014652729034424,0.0098544852808117,-0.3722421526908874,0.4212200343608856,0.629599392414093,-0.3878756761550903,-0.4284720122814178,-0.5192003846168518,9.49671459197998,-0.1762735247611999,-2.195040702819824,-0.7651666402816772,0.6771549582481384,0.8824535012245178,0.3453626036643982,-0.6618949770927429,-0.419026106595993,-0.5167561769485474
290487,9.229036331176758,-0.3790743052959442,3.317352056503296,0.5422784686088562,-0.0801933631300926,0.7014998197555542,0.6296167373657227,-0.3879077136516571,-0.4284398555755615,-0.5191817283630371,9.492705345153809,-0.1811172366142273,-2.1997640132904053,-0.5523378252983093,0.520494818687439,0.8098926544189453,0.3453402519226074,-0.6619501709938049,-0.4188554286956787,-0.516838788986206
290653,9.239696502685549,-0.3875249624252319,3.3255152702331543,0.1549504250288009,-0.1452880352735519,0.5364131331443787,0.6295560002326965,-0.3880022466182709,-0.4283636808395386,-0.5192476511001587,9.480030059814451,-0.1967443823814392,-2.1966307163238525,-0.3744064271450043,0.3574060201644897,0.8306774497032166,0.3453221619129181,-0.6620135307312012,-0.418698251247406,-0.5168971419334412
290820,9.241087913513184,-0.4024377465248108,3.3119149208068848,-0.0486513264477252,-0.0957274660468101,0.5038977861404419,0.6295247673988342,-0.3880761563777923,-0.4282991290092468,-0.5192834138870239,9.487176895141602,-0.1785993725061416,-2.199124336242676,-0.0942035019397735,0.0745521634817123,0.5266675353050232,0.345365971326828,-0.6620050668716431,-0.4187021255493164,-0.5168755650520325
290987,9.23431396484375,-0.4059460163116455,3.287307024002075,-0.0783748477697372,-0.0364852920174598,0.3338423073291778,0.6294704079627991,-0.3881478011608124,-0.4282269775867462,-0.5193554162979126,9.54804801940918,-0.1712609976530075,-2.1766014099121094,0.0556884109973907,-0.0841505229473114,0.3640140891075134,0.3453670144081116,-0.6620196104049683,-0.4186950325965881,-0.5168618559837341
291153,9.247807502746582,-0.3951101005077362,3.275619983673096,-0.1904560327529907,-0.1908146142959594,0.3398100733757019,0.6294060945510864,-0.388236790895462,-0.4281643331050873,-0.5194184184074402,9.486730575561523,-0.1568739116191864,-2.181121587753296,0.0913669094443321,-0.0167379006743431,0.247373878955841,0.3453734815120697,-0.6620143055915833,-0.4187072515487671,-0.5168542861938477
291320,9.254949569702148,-0.3930108845233917,3.286337852478028,0.140735387802124,-0.0706270188093185,0.3608253002166748,0.6293846964836121,-0.3882754147052765,-0.4281257688999176,-0.5194472670555115,9.470044136047363,-0.1839064657688141,-2.1932663917541504,0.2124252915382385,-0.5209237933158875,0.6067071557044983,0.3453714549541473,-0.662075936794281,-0.4186978638172149,-0.5167844891548157
291487,9.231145858764648,-0.3895634114742279,3.290321588516236,0.1388400346040725,-0.140933871269226,0.6166064739227295,0.6293545961380005,-0.3883544206619262,-0.4280614852905273,-0.5194777250289917,9.53424835205078,-0.1510616987943649,-2.172886371612549,0.3402839004993438,-0.6115159392356873,0.769155740737915,0.3454020619392395,-0.662136435508728,-0.4187051057815552,-0.5166807770729065
291653,9.245131492614746,-0.4634761810302734,3.234891891479492,0.4922696650028229,-0.6717571020126343,0.4286989271640777,0.6293058395385742,-0.3884219825267792,-0.4280897080898285,-0.5194628834724426,9.493661880493164,-0.1374337971210479,-2.194699048995972,0.2856007814407348,-0.7559971809387207,0.5588370561599731,0.3453998565673828,-0.6621993780136108,-0.4187321066856384,-0.5165795087814331
291820,9.268109321594238,-0.3932648003101349,3.369713544845581,-0.0156365521252155,-0.5539898872375488,0.1788086593151092,0.6291828155517578,-0.3885404169559479,-0.4280569553375244,-0.5195504426956177,9.516674995422363,-0.1417121589183807,-2.233709812164306,0.0167058836668729,-0.9140404462814332,0.3337399065494537,0.3452974855899811,-0.6623120307922363,-0.4187074601650238,-0.5165234804153442
291987,9.24667739868164,-0.3893272876739502,3.2602388858795166,-0.0374201536178588,-0.9502310752868652,-0.0320414863526821,0.629063606262207,-0.3886397182941437,-0.4281042814254761,-0.5195815563201904,9.488443374633787,-0.153347298502922,-2.2215254306793213,-0.0660295262932777,-0.9473369121551514,0.3154395818710327,0.3452210426330566,-0.6623995304107666,-0.4187294244766235,-0.516444742679596
292153,9.243749618530272,-0.3802342116832733,3.261061191558838,0.2978692650794983,-0.938359558582306,0.1393907070159912,0.6289250254631042,-0.3887606263160705,-0.4281273484230041,-0.5196399688720703,9.500213623046877,-0.1609282940626144,-2.2314553260803223,-0.1339544206857681,-1.0858376026153564,0.3996221125125885,0.3451487720012665,-0.6624951958656311,-0.4187623262405395,-0.5163437128067017
292320,9.266972541809082,-0.4140631854534149,3.28737735748291,0.5183690190315247,-0.8716257214546204,0.2137699872255325,0.6288409233093262,-0.3888342380523681,-0.4281812608242035,-0.519642174243927,9.469807624816896,-0.1351232677698135,-2.2235138416290283,-0.1099937483668327,-1.1225405931472778,0.4682706296443939,0.3450786471366882,-0.6625988483428955,-0.4187883734703064,-0.5162363052368164
292487,9.26266098022461,-0.3980081379413605,3.2654058933258057,0.7949861884117126,-1.1887494325637815,0.3400405943393707,0.6287451386451721,-0.3889282345771789,-0.4282649755477905,-0.519618809223175,9.503621101379396,-0.1336901783943176,-2.2495687007904053,-0.2129823863506317,-1.2452638149261477,0.4306967258453369,0.3449875116348266,-0.6627146601676941,-0.4188165068626404,-0.5161257386207581
292653,9.257943153381348,-0.376828521490097,3.265496015548706,0.8953879475593567,-1.07894766330719,0.1765163093805313,0.6286206841468811,-0.3890179991722107,-0.4283340573310852,-0.5196452140808105,9.477718353271484,-0.1298477500677108,-2.270909070968628,-0.4489266276359558,-1.1584625244140625,0.5038466453552246,0.3448860943317413,-0.6628381013870239,-0.4188191890716553,-0.516032874584198
292820,9.260400772094728,-0.3655214607715606,3.275468111038208,0.575933575630188,-1.099130630493164,0.0417294912040233,0.6284995675086975,-0.3891030848026275,-0.4284131228923797,-0.5196629762649536,9.502995491027832,-0.131887599825859,-2.277202844619751,-0.5309895873069763,-1.0516188144683838,0.4632888436317444,0.3447615802288055,-0.6629697680473328,-0.4187911748886108,-0.5159696936607361
292987,9.262192726135254,-0.3770319521427154,3.2707440853118896,0.2369367033243179,-0.9674557447433472,0.0029774764552712,0.6283316612243652,-0.389233261346817,-0.4284321367740631,-0.5197523832321167,9.525074005126951,-0.1343472599983215,-2.2818150520324707,-0.5562822818756104,-0.8386110067367554,0.4128574728965759,0.3446515500545501,-0.6630764007568359,-0.4187671840190887,-0.515925407409668
293153,9.275957107543944,-0.394303023815155,3.246825933456421,0.5613470673561096,-1.102575421333313,0.1423105597496032,0.6282644867897034,-0.3892862796783447,-0.4285410046577453,-0.519704282283783,9.514732360839844,-0.1381274312734604,-2.303048849105835,-0.4483758807182312,-0.4532294869422912,0.4313754737377167,0.3446120619773865,-0.6631211638450623,-0.4187768399715423,-0.5158864259719849
293320,9.281805038452148,-0.3756400942802429,3.244351863861084,0.7259342670440674,-0.8146247267723083,0.311059832572937,0.628216028213501,-0.3893304765224457,-0.4286104440689087,-0.5196725130081177,9.52647590637207,-0.1585118174552917,-2.298224687576294,-0.4211623966693878,-0.1358625590801239,0.4699097573757171,0.3445734679698944,-0.6631619930267334,-0.4187394678592682,-0.5158901214599609
293487,9.276089668273926,-0.3766183853149414,3.2549774646759038,0.6414123773574829,-0.8394562005996704,0.2477324306964874,0.6281723976135254,-0.3893669247627258,-0.4286918640136719,-0.5196308493614197,9.513569831848145,-0.1480979025363922,-2.290489196777344,-0.2752852737903595,0.1862747520208358,0.5283067226409912,0.3445636928081512,-0.6631819605827332,-0.4186803102493286,-0.515919029712677
293653,9.2597017288208,-0.3934113979339599,3.26509165763855,0.3126478195190429,-0.5734811425209045,0.0528966225683689,0.6281545162200928,-0.3893656432628631,-0.4287675619125366,-0.5195909142494202,9.517342567443848,-0.140076458454132,-2.294297933578491,-0.3090940713882446,0.5195728540420532,0.4287373423576355,0.3445631563663482,-0.6631724834442139,-0.4186120927333832,-0.5159870386123657
293820,9.259122848510742,-0.3893491625785827,3.243308782577514,0.3882692754268646,-0.5319756865501404,0.0821463242173194,0.6280878782272339,-0.3894040584564209,-0.4287994801998138,-0.5196162462234497,9.501240730285645,-0.1406181752681732,-2.277919292449951,-0.3037410080432892,0.7151257395744324,0.3299875855445862,0.3445779383182525,-0.6631332039833069,-0.4185586273670196,-0.5160708427429199
293987,9.285990715026855,-0.3659036457538605,3.252932548522949,0.5632680058479309,-0.4974242150783539,0.1839952170848846,0.6280712485313416,-0.3894046247005462,-0.4288591742515564,-0.5195868611335754,9.501958847045898,-0.1175457313656807,-2.2614495754241943,-0.2874897420406341,0.7858680486679077,0.3372872471809387,0.3445980250835418,-0.6630886793136597,-0.4185018837451935,-0.5161606669425964
294153,9.276745796203612,-0.3584218025207519,3.2335636615753174,0.3527700901031494,-0.378337949514389,0.1395059674978256,0.6280096173286438,-0.389442890882492,-0.4288668036460876,-0.5196264386177063,9.483662605285645,-0.1428292691707611,-2.2726004123687744,-0.4062174558639526,0.7200690507888794,0.3643727004528045,0.3446034789085388,-0.6630571484565735,-0.4184364676475525,-0.5162506103515625
294320,9.280186653137209,-0.355485737323761,3.233484983444214,0.3245064616203308,-0.3392017781734466,0.0879732146859169,0.6279578804969788,-0.3894663453102112,-0.4288819432258606,-0.5196586847305298,9.505658149719238,-0.1406552195549011,-2.26667594909668,-0.3574636280536651,0.7498437166213989,0.4115000069141388,0.344612568616867,-0.6630281209945679,-0.418362021446228,-0.5163421630859375
294487,9.251161575317385,-0.36731618642807,3.23634934425354,0.4407753348350525,-0.3101441562175751,0.1965966671705246,0.6279113292694092,-0.3894932270050049,-0.428888589143753,-0.5196893215179443,9.535039901733398,-0.1396456807851791,-2.259709596633911,-0.2142630219459533,0.8928778767585754,0.55601966381073,0.3446573913097381,-0.6629875898361206,-0.4182812571525574,-0.5164297223091125
294653,9.2680025100708,-0.3799148201942444,3.2428295612335205,0.5361825823783875,-0.1945796757936477,0.0882549583911895,0.627856969833374,-0.3895056545734405,-0.4288892745971679,-0.5197452306747437,9.53399658203125,-0.1277695596218109,-2.267592191696167,-0.209806427359581,1.1136209964752195,0.6201667189598083,0.3447223305702209,-0.6629326343536377,-0.4181860685348511,-0.5165339708328247
294820,9.26682949066162,-0.3651987016201019,3.2450432777404785,0.5015926361083984,0.1792824864387512,0.2399973720312118,0.627869725227356,-0.3894737064838409,-0.4288708567619324,-0.519769012928009,9.542730331420898,-0.1287808418273925,-2.1981136798858643,-0.2193087637424469,1.2869164943695068,0.503231942653656,0.3447583317756653,-0.6628815531730652,-0.4180549085140228,-0.5166816711425781
294987,9.257917404174805,-0.3657494485378265,3.2896387577056885,0.2966014444828033,-0.0256639253348112,0.1071827411651611,0.6278017163276672,-0.389505535364151,-0.4288281202316284,-0.5198624730110168,9.46407699584961,-0.1314743459224701,-2.222130298614502,-0.2115609049797058,1.2893497943878174,0.5135666728019714,0.3448317050933838,-0.6628003716468811,-0.4179713129997253,-0.5168042778968811
295153,9.269572257995604,-0.3594481647014618,3.265885591506958,0.230034053325653,-0.2514526844024658,0.1013686507940292,0.6277210116386414,-0.3895550072193146,-0.4288056790828705,-0.5199412703514099,9.447399139404297,-0.1077933683991432,-2.2173492908477783,-0.317008376121521,0.6805486083030701,0.4223213791847229,0.344853401184082,-0.662762463092804,-0.4179230332374573,-0.5168775320053101
295320,9.26093578338623,-0.3620409071445465,3.256075859069824,0.1171588748693466,-0.3306342959403991,0.2167794555425644,0.6276515126228333,-0.3896162211894989,-0.428785890340805,-0.5199955701828003,9.473576545715332,-0.0994185656309127,-2.20845103263855,-0.5219740271568298,0.2698105871677398,0.3877314329147339,0.3448564112186432,-0.6627399325370789,-0.4179213941097259,-0.5169056057929993
295487,9.271245956420898,-0.3625415861606598,3.2545952796936035,0.1446669250726699,-0.431407481431961,0.2028717547655105,0.6275691986083984,-0.3896871209144592,-0.4287730157375335,-0.520052433013916,9.525635719299316,-0.1184332594275474,-2.198680877685547,-0.662306010723114,0.1764010637998581,0.3250059783458709,0.344785988330841,-0.6627669334411621,-0.4178560972213745,-0.5169708728790283
295653,9.258296966552734,-0.3637077212333679,3.242969036102295,0.298996239900589,-0.1500904113054275,0.0703132599592208,0.6275469660758972,-0.3896776437759399,-0.4287873208522796,-0.5200745463371277,9.477679252624512,-0.1136268377304077,-2.175700187683105,-0.6593989729881287,0.013683583587408,0.2958971261978149,0.344711422920227,-0.6627970933914185,-0.4178133904933929,-0.5170164704322815
295820,9.250482559204102,-0.3437557816505432,3.2763102054595947,0.1488289982080459,-0.2581888437271118,0.1541308313608169,0.6275106072425842,-0.3896993398666382,-0.4287915825843811,-0.5200987458229065,9.482990264892578,-0.1415659636259079,-2.217217445373535,-0.6352589130401611,-0.3937055766582489,0.5258479118347168,0.3446469902992248,-0.6628576517105103,-0.4177913069725036,-0.5169996023178101
295987,9.243855476379396,-0.3429940342903137,3.2202672958374023,0.0446237251162529,-0.5901805758476257,0.327016532421112,0.627460777759552,-0.3897660076618194,-0.4288083016872406,-0.52009516954422,9.500629425048828,-0.1634101867675781,-2.207148313522339,-0.3872639834880829,-0.5967887043952942,0.7655443549156189,0.3445995151996612,-0.6629452109336853,-0.4177592396736145,-0.516944944858551
296153,9.243009567260742,-0.4332107603549957,3.197511672973633,0.7368197441101074,-0.6430964469909668,0.3481214046478271,0.6274433732032776,-0.3897784054279327,-0.4288779199123382,-0.5200493931770325,9.561971664428713,-0.1345684379339218,-2.23742938041687,-0.5341271758079529,-0.5463957786560059,0.6749265789985657,0.3445343971252441,-0.6630303263664246,-0.4177232384681701,-0.5169084668159485
296320,9.30562686920166,-0.3669434189796448,3.280573606491089,0.5727832913398743,-0.7821990847587585,0.0479405745863914,0.6273564100265503,-0.3898218870162964,-0.4289428293704986,-0.5200682878494263,9.5853910446167,-0.1409168839454651,-2.217424154281616,-0.6296882033348083,0.0117626320570707,0.2749971449375152,0.344465047121048,-0.6630529165267944,-0.4176919758319855,-0.5169509649276733
296487,9.287348747253418,-0.3123318254947662,3.3078372478485107,0.1533368229866027,-0.4243896603584289,-0.2041332274675369,0.6272344589233398,-0.3898721933364868,-0.428946703672409,-0.5201742649078369,9.546013832092283,-0.127988576889038,-2.218259334564209,-0.5734298825263977,0.5160894989967346,0.4404551684856415,0.3444525003433227,-0.6630370020866394,-0.4176361262798309,-0.5170247554779053
296653,9.239103317260742,-0.3603386580944061,3.2595090866088867,0.0831324160099029,-0.4184602797031402,-0.0457314737141132,0.6271647810935974,-0.3899012207984924,-0.4289693236351013,-0.520217776298523,9.514555931091309,-0.1515541672706604,-2.2105209827423096,-0.4511549174785614,0.7175717949867249,0.479745090007782,0.3444470763206482,-0.663017988204956,-0.4175494909286499,-0.5171226859092712
296820,9.257375717163086,-0.4012615382671356,3.312776565551758,0.2997518181800842,-0.3461044132709503,0.292426586151123,0.6271096467971802,-0.3899487853050232,-0.4289614558219909,-0.5202553868293762,9.502050399780272,-0.1475010812282562,-2.210151433944702,-0.3637771904468536,0.9315019845962524,0.4645183384418487,0.3444748222827911,-0.662966787815094,-0.417477548122406,-0.5172279477119446
296987,9.254512786865234,-0.3904610276222229,3.3015260696411133,0.4544525146484375,-0.3777232468128204,0.296934425830841,0.6270363330841064,-0.3900057673454284,-0.428947776556015,-0.5203120708465576,9.493901252746582,-0.125365674495697,-2.188294649124145,-0.4326112270355224,0.9951236844062804,0.4646847248077392,0.3444914519786834,-0.6629204154014587,-0.4173868298530578,-0.517349362373352
297153,9.249992370605469,-0.3462022840976715,3.273094892501831,0.5513838529586792,-0.2608653604984283,0.2073924243450164,0.6269999742507935,-0.3900139033794403,-0.4289587140083313,-0.5203407406806946,9.48823070526123,-0.1269701868295669,-2.1758103370666504,-0.4340583980083465,0.823582649230957,0.3600441217422485,0.3444948494434356,-0.6628761291503906,-0.4173218607902527,-0.5174562335014343
297320,9.235748291015623,-0.3352229297161102,3.2877039909362797,0.2590276300907135,-0.1942082643508911,0.0254654232412576,0.6269298791885376,-0.3900378942489624,-0.4289461970329284,-0.5204175710678101,9.478282928466797,-0.1217853426933288,-2.140268087387085,-0.5654003024101257,0.6799210906028748,0.3598392009735107,0.3444699943065643,-0.6628537178039551,-0.4172465205192566,-0.5175622701644897
297487,9.229606628417969,-0.3754228353500366,3.2867772579193115,-0.1447117328643798,-0.3639308512210846,-0.0057244375348091,0.6268152594566345,-0.3901161849498749,-0.4289135932922363,-0.5205239057540894,9.509400367736816,-0.1360839754343032,-2.170740365982056,-0.5257390141487122,0.4914500415325165,0.5235427618026733,0.3444423675537109,-0.6628590226173401,-0.417157918214798,-0.5176453590393066
297653,9.226800918579102,-0.3623627722263336,3.254234313964844,0.4478060007095337,-0.3440297544002533,0.2039731293916702,0.6267955303192139,-0.3901152610778808,-0.4289452731609344,-0.5205221772193909,9.501275062561035,-0.1296339333057403,-2.137577772140503,-0.526725172996521,0.3248266577720642,0.5509355664253235,0.3444259762763977,-0.6628619432449341,-0.4171014428138733,-0.5176979899406433
297820,9.236849784851074,-0.3466525077819824,3.25586485862732,0.6045557856559753,-0.19682078063488,0.2856008112430572,0.6267281174659729,-0.3901534080505371,-0.428915798664093,-0.5205991268157959,9.508258819580078,-0.1188874319195747,-2.166387796401977,-0.4928268194198608,0.2196353077888488,0.4445531964302063,0.3443820774555206,-0.6628769636154175,-0.4170421361923218,-0.5177556872367859
297987,9.250436782836914,-0.3700977563858032,3.2644195556640625,0.1538874804973602,-0.343107670545578,0.1254830062389373,0.6266982555389404,-0.3901633620262146,-0.4289388358592987,-0.5206086039543152,9.51012897491455,-0.1211869642138481,-2.163548469543457,-0.4738989770412445,0.0323680453002452,0.3159902691841125,0.3443500399589538,-0.6628727912902832,-0.417045921087265,-0.5177794098854065
298153,9.252574920654297,-0.3400579690933227,3.2624881267547607,0.3425250053405761,-0.5397748351097107,0.1264691054821014,0.6266241669654846,-0.3902060389518738,-0.4289616346359253,-0.5206469893455505,9.532222747802734,-0.1391287744045257,-2.173976421356201,-0.3356287777423858,-0.0711520686745643,0.1674365997314453,0.3443112373352051,-0.6628617644309998,-0.4170770645141601,-0.5177942514419556
298320,9.271484375,-0.3611437976360321,3.268807172775269,0.3274263143539428,-0.4979749023914337,0.1910643279552459,0.6265605092048645,-0.3902477025985718,-0.4289784729480743,-0.5206785202026367,9.504644393920898,-0.1500792801380157,-2.172992467880249,-0.1290751993656158,-0.072893738746643,0.2669163346290588,0.344274640083313,-0.6628657579421997,-0.4170822203159332,-0.5178093910217285
298487,9.278884887695312,-0.3511907160282135,3.2793140411376958,0.5519088506698608,-0.4393730163574219,0.3901133835315704,0.6265146732330322,-0.3902879655361175,-0.4289852678775787,-0.520698070526123,9.433677673339844,-0.1610269695520401,-2.192290782928467,0.0961564779281616,-0.7735676169395447,0.4775039851665497,0.3442336618900299,-0.6629234552383423,-0.4171195328235626,-0.5177327394485474
298653,9.24184513092041,-0.3607180714607239,3.2505507469177246,0.4661319255828857,-0.447172075510025,0.4576541185379028,0.6264753341674805,-0.3903344571590423,-0.4289877414703369,-0.5207086205482483,9.540115356445312,-0.1310528814792633,-2.192159414291382,0.4155340194702148,-0.9597205519676208,0.5503848791122437,0.3441991806030273,-0.6629982590675354,-0.4171589314937591,-0.5176279544830322
298820,9.253082275390623,-0.4152534008026123,3.1706368923187256,0.8340839147567749,-0.720241904258728,0.4591268301010132,0.6264938712120056,-0.3903229832649231,-0.429083913564682,-0.5206153392791748,9.519904136657717,-0.1125557646155357,-2.1935389041900635,0.4332708120346069,-0.6934766173362732,0.3413724601268768,0.3441942036151886,-0.6630165576934814,-0.4172436892986297,-0.517539381980896
298987,9.28705596923828,-0.3340817987918854,3.312523365020752,0.4874545931816101,-0.4188957512378692,0.322623997926712,0.6264487504959106,-0.3903558850288391,-0.4290944933891296,-0.5206364393234253,9.517074584960938,-0.0949590355157852,-2.249173402786255,0.1984920054674148,-0.5528756976127625,0.2454144358634948,0.344176322221756,-0.663023054599762,-0.4173246920108795,-0.5174776315689087
299153,9.26872444152832,-0.3218622207641601,3.24674916267395,0.3903567492961883,-0.4512957334518432,-0.0034705207217484,0.6263629198074341,-0.3903860449790954,-0.4291124045848846,-0.5207022428512573,9.502730369567873,-0.0955168977379798,-2.216100215911865,0.0686356276273727,-0.4180760681629181,0.2603979110717773,0.3441456258296966,-0.6630337834358215,-0.4173766076564789,-0.517442524433136
299320,9.24148654937744,-0.3389122188091278,3.213583946228028,0.6352781653404236,-0.7044644355773926,0.3577773869037628,0.626320481300354,-0.3904203772544861,-0.4291653335094452,-0.5206838846206665,9.50114917755127,-0.1038566380739212,-2.2422354221343994,-0.0719716846942901,-0.4698649942874908,0.5198801159858704,0.3441090285778045,-0.6630774736404419,-0.4173851609230041,-0.5174040794372559
299487,9.272887229919434,-0.3716553151607513,3.2488484382629395,0.7059435844421387,-0.6005281209945679,0.5530486702919006,0.6263059973716736,-0.3904500007629394,-0.4292055666446686,-0.5206460952758789,9.479921340942385,-0.1015179976820945,-2.226571798324585,-0.1423169374465942,-0.5219612121582031,0.6202818751335144,0.3440692722797394,-0.6631348133087158,-0.4173812568187713,-0.5173601508140564
299653,9.295093536376951,-0.3648414015769958,3.2210230827331543,0.5818629264831543,-0.8938063979148865,0.4985319972038269,0.6262474060058594,-0.3905216455459595,-0.4292547702789306,-0.5206221342086792,9.495079040527344,-0.0994756445288658,-2.2699649333953857,-0.3201459348201751,-0.7535256147384644,0.6230994462966919,0.3440054059028625,-0.6632123589515686,-0.4173856675624847,-0.5172994136810303
299820,9.296272277832031,-0.3128287196159363,3.2002477645874023,0.3219323754310608,-0.4858472645282745,0.3977587819099426,0.6261981129646301,-0.3905743360519409,-0.4292581081390381,-0.5206392407417297,9.49436092376709,-0.089313730597496,-2.2536206245422363,-0.5275831818580627,-0.6068800687789917,0.4581279456615448,0.3439115285873413,-0.6632843613624573,-0.4173754453659057,-0.5172780156135559
299987,9.258700370788574,-0.3246373832225799,3.213433265686035,0.0962013080716133,-0.2539627254009247,0.4249787628650665,0.6261619329452515,-0.3906234204769134,-0.4292297661304474,-0.5206694006919861,9.506474494934082,-0.1050621420145034,-2.2707018852233887,-0.5816259384155273,-0.3608573079109192,0.3616960942745209,0.3438346087932586,-0.6633221507072449,-0.4173790216445923,-0.5172778367996216
300153,9.277887344360352,-0.3515876531600952,3.2194983959198,0.0225199647247791,-0.0516992323100566,0.3940833508968353,0.6260977983474731,-0.3906897902488708,-0.4291535019874573,-0.5207595825195312,9.525439262390137,-0.1312038898468017,-2.2680020332336426,-0.713441789150238,-0.1308680921792984,0.2069570124149322,0.3437445163726806,-0.663341760635376,-0.4173731207847595,-0.5173173546791077
300320,9.285158157348633,-0.3426042795181274,3.2105042934417725,-0.0177752114832401,0.0461861006915569,0.4413260221481323,0.6260531544685364,-0.3907449245452881,-0.4290721118450165,-0.5208386778831482,9.54372787475586,-0.1409165859222412,-2.260857105255127,-0.5735579133033752,0.3545630276203155,0.1852630376815796,0.3436888456344604,-0.6633209586143494,-0.4173486828804016,-0.5174005627632141
300487,9.293980598449709,-0.3424966335296631,3.239121198654175,0.4171347916126251,0.479155957698822,0.3301668763160705,0.626069188117981,-0.3907058835029602,-0.429004430770874,-0.5209044218063354,9.529726028442385,-0.1476587653160095,-2.254607915878296,-0.2878355383872986,0.7805918455123901,0.1122540682554245,0.3436573147773742,-0.6632680892944336,-0.4173010587692261,-0.51752769947052
300653,9.240068435668944,-0.3583002090454101,3.2651238441467285,0.1467799842357635,0.575088381767273,0.4877746701240539,0.6260989904403687,-0.3906843364238739,-0.4289074242115021,-0.5209646821022034,9.51131820678711,-0.1122369021177291,-2.252673387527466,-0.0877234861254692,0.9542202353477478,0.1241895705461502,0.3436628580093384,-0.6631880402565002,-0.417266696691513,-0.517654299736023
300820,9.265155792236328,-0.3585290908813476,3.262305736541748,-0.3992891907691955,0.201155737042427,0.3257871270179748,0.6260619163513184,-0.3907307684421539,-0.4288117587566376,-0.5210531949996948,9.502747535705566,-0.1131680235266685,-2.1902194023132324,-0.0650818571448326,0.9998877048492432,0.0588387735188007,0.3436953723430633,-0.6630771160125732,-0.4172751307487488,-0.5177679657936096
300987,9.296929359436035,-0.3559290766716003,3.2364063262939453,0.0051545556634664,0.5444298982620239,0.2728072702884674,0.6260676383972168,-0.3907086849212646,-0.4287203550338745,-0.5211381912231445,9.455634117126465,-0.0895052254199981,-2.2194747924804688,-0.0231922958046197,0.953451931476593,0.0729385614395141,0.3436929583549499,-0.6629976034164429,-0.4172395169734955,-0.5179001092910767
301153,9.255967140197754,-0.3575155138969421,3.24541449546814,0.1283260285854339,0.984174370765686,0.2539435029029846,0.6261143684387207,-0.3906334042549133,-0.4286060631275177,-0.5212324261665344,9.461085319519045,-0.1003018841147422,-2.219555139541626,-0.0763642564415931,0.8270020484924316,-0.0121148061007261,0.3436889946460724,-0.6629108190536499,-0.4172378480434418,-0.5180151462554932
301320,9.247714042663574,-0.3456242680549621,3.220494270324707,0.3812770247459411,0.6953142881393433,0.3348155915737152,0.6261710524559021,-0.3905559778213501,-0.4285380244255066,-0.5212783813476562,9.493103981018066,-0.1029267162084579,-2.2078397274017334,-0.030491916462779,0.6368405222892761,0.1369446963071823,0.3437022566795349,-0.6628341674804688,-0.4172528684139251,-0.5180923342704773
301487,9.257591247558594,-0.3483513295650482,3.225059747695923,0.4787846207618713,0.8534472584724426,0.345765084028244,0.6261788010597229,-0.3905122280120849,-0.428413063287735,-0.5214046239852905,9.518318176269531,-0.1045374572277069,-2.211817979812622,0.1460756212472915,0.7834732532501221,0.3394643068313598,0.3437305986881256,-0.6627702116966248,-0.417221188545227,-0.5181810259819031
301653,9.252433776855469,-0.3587284088134765,3.2251205444335938,0.6608269214630127,1.29745614528656,0.5576204657554626,0.6262759566307068,-0.3904017508029938,-0.4282765388488769,-0.5214826464653015,9.568638801574709,-0.1044011488556861,-2.1826367378234863,0.2855752110481262,1.1035808324813845,0.4312986135482788,0.3438388109207153,-0.66264808177948,-0.4172282218933105,-0.518259584903717
301820,9.24877643585205,-0.3683470487594604,3.2736074924468994,0.6441145539283752,1.4179894924163818,0.6781921982765198,0.6264028549194336,-0.3902792632579803,-0.4281320869922638,-0.521540641784668,9.573220252990724,-0.1009484976530075,-2.184292316436768,0.5125293135643005,1.5360255241394043,0.5851413011550903,0.3439666330814361,-0.6625226140022278,-0.4171644747257232,-0.5183864831924438
301987,9.237046241760254,-0.3547850847244262,3.3161354064941406,0.3713136613368988,1.2163790464401243,0.655576229095459,0.6264786124229431,-0.3902130722999573,-0.4279700517654419,-0.5216321349143982,9.51161003112793,-0.08411905169487,-2.161771297454834,0.4841120839118957,1.5569514036178589,0.7065455913543701,0.3441155850887298,-0.6623932719230652,-0.4171037077903747,-0.518501877784729
302153,9.256338119506836,-0.3716294467449188,3.2974979877471924,-0.0491251610219478,1.0879569053649902,0.5648432970046997,0.6265219449996948,-0.3901835083961487,-0.4277975261211395,-0.5217435956001282,9.48140811920166,-0.094002641737461,-2.139779090881348,0.4664648473262787,1.2223724126815796,0.6846722364425659,0.3442213237285614,-0.6623033881187439,-0.4170358180999756,-0.5186010599136353
302320,9.229477882385254,-0.3724769353866577,3.285396814346313,0.0284236967563629,0.8270276784896851,0.5455185174942017,0.6265742778778076,-0.3901466727256775,-0.4276726543903351,-0.5218107104301453,9.477866172790527,-0.1110743880271911,-2.118034601211548,0.4982630014419555,0.7834732532501221,0.617118775844574,0.3443182706832886,-0.6622246503829956,-0.4170249104499817,-0.5186460614204407
302487,9.240360260009766,-0.3623908162117004,3.265047073364258,0.4951895177364349,0.5387054681777954,0.8235442638397217,0.6266297698020935,-0.3901285231113434,-0.4275730848312378,-0.5218392014503479,9.520103454589844,-0.126627042889595,-2.1303420066833496,0.5318796634674072,0.2258207648992538,0.7228991985321045,0.3443818390369415,-0.6622006297111511,-0.417020708322525,-0.518638014793396
302653,9.247356414794922,-0.3664112091064453,3.277549982070923,0.6113943457603455,0.5548543334007263,0.7430948615074158,0.6267300844192505,-0.3900570571422577,-0.4275188148021698,-0.5218167304992676,9.506665229797363,-0.1128923147916793,-2.1450629234313965,0.6324992179870605,0.0469416752457618,0.7043043971061707,0.3444536924362182,-0.6621745228767395,-0.4170494377613067,-0.5186004638671875
302820,9.237003326416016,-0.352843701839447,3.2864203453063965,0.6306807398796082,0.5166658163070679,0.7229376435279846,0.6268063187599182,-0.3900036215782165,-0.4274538159370422,-0.5218183398246765,9.448443412780762,-0.1063999608159065,-2.145185947418213,0.6509019136428833,-0.6290608048439026,0.8207654356956482,0.3444909155368805,-0.6622089147567749,-0.4170963764190674,-0.5184941291809082
302987,9.214892387390137,-0.3532987833023071,3.2552056312561035,0.3627590537071228,0.1680385172367096,0.8605930805206299,0.6268155574798584,-0.3900429010391235,-0.4273614585399627,-0.521853506565094,9.440616607666016,-0.1380997449159622,-2.1635115146636963,0.6746063828468323,-1.4956790208816528,1.0176756381988523,0.344486653804779,-0.6623241901397705,-0.4171612858772278,-0.5182974934577942
303153,9.239928245544434,-0.3911532759666443,3.2356698513031006,0.6913827657699585,-0.1463765650987625,0.8902269601821899,0.6268836259841919,-0.390029639005661,-0.4273654222488403,-0.5217783451080322,9.520200729370115,-0.1369901001453399,-2.1637539863586426,0.8235571980476379,-1.8366739749908447,1.0055354833602903,0.3444714844226837,-0.662458598613739,-0.4172528982162475,-0.5180621147155762
303320,9.298460006713867,-0.3756282031536102,3.2231898307800293,0.8559444546699524,-0.2228945344686508,0.8612335324287415,0.6269655227661133,-0.3899959325790405,-0.4273993670940399,-0.5216773152351379,9.568662643432615,-0.1282072067260742,-2.1889493465423584,0.7366275191307068,-1.6393789052963257,0.7210165858268738,0.3444302082061767,-0.662571132183075,-0.4173451662063598,-0.517871081829071
303487,9.272150993347168,-0.345679759979248,3.30454421043396,0.5789045691490173,-0.0888504534959793,0.5869213342666626,0.626995861530304,-0.3899798095226288,-0.4273981750011444,-0.5216540098190308,9.57344913482666,-0.1382607519626617,-2.217129230499268,0.6659878492355347,-1.17961847782135,0.6923049092292786,0.3444301187992096,-0.6626330614089966,-0.4174407422542572,-0.5177147388458252
303653,9.250371932983398,-0.3498424887657165,3.2839953899383545,0.4375737607479095,-0.1429316699504852,0.6663335561752319,0.6270137429237366,-0.3899907767772674,-0.4273816347122192,-0.5216379165649414,9.524374961853027,-0.1294838190078735,-2.213487148284912,0.7745599746704102,-0.6503832936286926,0.773612380027771,0.3444760739803314,-0.6626572012901306,-0.4175059199333191,-0.5176008343696594
303820,9.235355377197266,-0.3736096024513244,3.312655210494995,0.4861226081848144,-0.1463509649038314,0.798098087310791,0.6270390748977661,-0.3900096118450165,-0.4273578822612762,-0.521612823009491,9.495205879211426,-0.1200812682509422,-2.228222370147705,0.6986568570137024,-0.3413660824298858,0.848529577255249,0.3445361256599426,-0.6626684069633484,-0.4175395369529724,-0.5175194144248962
303987,9.24350929260254,-0.4008098542690277,3.316551685333252,0.5567752718925476,-0.0134978909045457,0.9608795642852784,0.6270763278007507,-0.3900323808193207,-0.4273081123828888,-0.5215915441513062,9.55392837524414,-0.1114122569561004,-2.20595383644104,0.6081030964851379,-0.0939345806837081,0.840948224067688,0.344598650932312,-0.6626676917076111,-0.4175503551959991,-0.5174699425697327
304153,9.245561599731444,-0.3719293177127838,3.311958312988281,0.598434329032898,-0.1710159927606582,0.6987977027893066,0.6270983815193176,-0.3900370001792907,-0.4272996187210083,-0.5215687155723572,9.529245376586914,-0.1145413368940353,-2.2218074798583984,0.4004993736743927,0.4205156862735748,0.6950325965881348,0.3446671068668365,-0.6626244783401489,-0.4175424575805664,-0.5174859762191772
304320,9.2276611328125,-0.3319362699985504,3.3264307975769043,0.4054169952869415,0.0865901261568069,0.6646559238433838,0.6271286606788635,-0.3900328576564789,-0.4272587299346924,-0.5215688347816467,9.532100677490234,-0.115260049700737,-2.219123363494873,0.1353823393583297,0.6166961789131165,0.6416558027267456,0.3447189629077911,-0.662575364112854,-0.4175118803977966,-0.5175390243530273
304487,9.218478202819824,-0.346516877412796,3.309739589691162,0.514757513999939,-0.1342233270406723,0.7005393505096436,0.6271475553512573,-0.3900424838066101,-0.4272392988204956,-0.5215548872947693,9.516945838928224,-0.1367670744657516,-2.2093935012817383,0.0475179590284824,1.0032174587249756,0.6992715001106262,0.3447956442832947,-0.6625000238418579,-0.417458027601242,-0.5176278352737427
304653,9.256243705749512,-0.3898137509822845,3.273052215576172,0.3774095475673675,0.0418575517833232,0.7236036062240601,0.6271834969520569,-0.3900418579578399,-0.4272015392780304,-0.521543025970459,9.515000343322754,-0.1432611048221588,-2.1976065635681152,-0.007466101553291,0.9077332019805908,0.7854325771331787,0.3448892533779144,-0.6624230742454529,-0.4174239039421081,-0.5176914930343628
304820,9.230761528015137,-0.3773042559623718,3.2849929332733154,0.4274311065673828,0.1587667018175125,0.7627397775650024,0.6272030472755432,-0.3900549709796905,-0.4271320104598999,-0.5215665102005005,9.47966766357422,-0.1302462816238403,-2.2040581703186035,-0.0041492572054266,0.7805790305137634,0.8115959763526917,0.3449412286281585,-0.6623855233192444,-0.4173473417758941,-0.517766535282135
304987,9.22586727142334,-0.3733953833580017,3.291240692138672,0.3022490739822387,0.1892458349466323,0.6719171404838562,0.6272177696228027,-0.3900655210018158,-0.4270607829093933,-0.5215994715690613,9.513876914978027,-0.135168507695198,-2.195384979248047,-0.1663544923067093,0.5579919219017029,0.6930220723152161,0.3449533581733703,-0.6623665690422058,-0.417279988527298,-0.5178370475769043
305153,9.258296012878418,-0.3812845051288605,3.291966676712036,0.2811570167541504,0.1537210196256637,0.5652018189430237,0.6272372007369995,-0.3900605738162994,-0.4270093142986297,-0.5216220021247864,9.525163650512695,-0.1402338147163391,-2.185166358947754,-0.1343001872301101,0.2899677753448486,0.5745248198509216,0.3449768424034118,-0.6623327732086182,-0.4172824919223785,-0.5178626179695129
305320,9.277880668640137,-0.3860549032688141,3.264641523361206,0.4719075262546539,0.3132753372192383,0.4816404581069946,0.6272580027580261,-0.3900313377380371,-0.4269525706768036,-0.5216651558876038,9.497262001037598,-0.1403768658638,-2.17335057258606,-0.1243240237236023,0.2400486022233963,0.4007682800292969,0.3449532091617584,-0.6623163223266602,-0.4172645509243011,-0.517913818359375
305487,9.26740837097168,-0.3708813488483429,3.306415319442749,0.674708902835846,0.31097012758255,0.4985191226005554,0.6273224949836731,-0.3899592757225036,-0.4269342124462127,-0.5216563940048218,9.461206436157228,-0.1596311628818512,-2.199070692062378,0.1234852224588394,-0.2832892537117004,0.5736411809921265,0.344931423664093,-0.6623390913009644,-0.4172719419002533,-0.5178931951522827
305654,9.261828422546388,-0.3819957077503204,3.285968780517578,0.7735739946365356,0.3125581741333008,0.7942306995391846,0.6274319291114807,-0.3898822069168091,-0.4269194304943084,-0.5215945243835449,9.545816421508787,-0.1640585064888,-2.184426069259644,0.3641677498817444,-0.3613055348396301,0.6179255843162537,0.3449262976646423,-0.6623626351356506,-0.4172901511192322,-0.5178519487380981
305820,9.247697830200195,-0.4266518950462341,3.215428113937378,0.7198642492294312,0.076703630387783,0.6466758847236633,0.6274908185005188,-0.3898366093635559,-0.4269139468669891,-0.5215622782707214,9.530009269714355,-0.1349267214536667,-2.170353651046753,0.5015414357185364,-0.2175542563199997,0.4331939816474914,0.3449360132217407,-0.6623519062995911,-0.4173380434513092,-0.5178207159042358
305987,9.27298069000244,-0.374800831079483,3.3393478393554688,0.6530534625053406,0.1878755539655685,0.4285836815834045,0.6275095343589783,-0.3897977471351623,-0.4268853366374969,-0.5215921401977539,9.557238578796388,-0.1052441820502281,-2.191499948501587,0.3042724430561065,-0.0385343022644519,0.1957258433103561,0.3449233770370483,-0.6623201370239258,-0.4173893630504608,-0.5178282856941223
306154,9.242757797241213,-0.3599273562431335,3.2562618255615234,0.7204659581184387,-0.0460004024207592,0.2513437867164612,0.6275121569633484,-0.3897523581981659,-0.4268994331359863,-0.5216115117073059,9.52216339111328,-0.116076536476612,-2.2298331260681152,0.2652771472930908,0.2059709131717682,0.1391217708587646,0.3449203372001648,-0.6622657179832458,-0.4174354672431946,-0.5178627967834473
306320,9.25536823272705,-0.3636780083179474,3.2934582233428955,0.8379257917404175,-0.3113991916179657,0.2118618339300155,0.6274746060371399,-0.3897364437580108,-0.4269281923770904,-0.5216450095176697,9.490671157836914,-0.0866908431053161,-2.215757131576538,0.1408506333827972,0.0211496837437152,0.2139364629983902,0.3448953032493591,-0.6622396111488342,-0.4174684882164001,-0.5178861021995544
306487,9.260079383850098,-0.3859120905399322,3.294132709503174,0.8723493218421936,0.1180297136306762,0.3722101151943207,0.6275365948677063,-0.3896459639072418,-0.4269562065601349,-0.5216150879859924,9.48205280303955,-0.0830788686871528,-2.215167284011841,-0.0425426885485649,-0.0357425212860107,0.2923497259616852,0.3448718786239624,-0.6622176170349121,-0.4175066947937011,-0.5178990960121155
306654,9.256158828735352,-0.3813441097736358,3.274348020553589,1.1656917333602903,-0.3788246512413025,0.625481367111206,0.6275746822357178,-0.3896056711673736,-0.4270157516002655,-0.5215506553649902,9.494268417358398,-0.0901776403188705,-2.222662925720215,-0.2951992154121399,-0.1291520446538925,0.3620931804180145,0.3448196351528168,-0.6622223854064941,-0.4175193011760711,-0.5179176926612854
306820,9.254727363586426,-0.3436461687088012,3.283224582672119,1.0321725606918335,-0.2259040027856826,0.4080807268619537,0.6276183724403381,-0.3895360231399536,-0.4270787835121155,-0.5214985013008118,9.482885360717772,-0.0874740332365036,-2.22511625289917,-0.5208982229232788,-0.4410762786865234,0.4491123259067535,0.3447248339653015,-0.6622733473777771,-0.4175122678279876,-0.5179212093353271
306987,9.248111724853516,-0.3276735544204712,3.2578282356262207,0.7483454942703247,-0.146299734711647,0.3351485729217529,0.6276002526283264,-0.3895187973976135,-0.4270829856395721,-0.5215297341346741,9.495867729187012,-0.1092726811766624,-2.2246181964874268,-0.7188076376914978,-0.528658926486969,0.5057035684585571,0.3445965945720672,-0.6623542308807373,-0.4174731969833374,-0.5179345011711121
307154,9.25695514678955,-0.3719720840454101,3.25091552734375,0.4699738621711731,-0.0484080016613006,0.3661912083625793,0.6275938749313354,-0.3895048499107361,-0.4270707964897156,-0.5215578675270081,9.502655029296877,-0.1251326352357864,-2.23821759223938,-0.7668442130088806,-0.4580959975719452,0.586037814617157,0.3444899916648865,-0.6624253392219543,-0.4174387753009796,-0.5179423093795776
307320,9.255160331726074,-0.3503753244876861,3.258264541625977,0.4370999634265899,-0.1429572850465774,0.4021385908126831,0.6275954246520996,-0.3894928991794586,-0.427072674036026,-0.5215632319450378,9.538803100585938,-0.1322264373302459,-2.241461753845215,-0.5861338376998901,-0.2763353884220123,0.7157660722732544,0.3444124758243561,-0.6624875664710999,-0.4173868894577026,-0.5179560780525208
307487,9.30383586883545,-0.349914014339447,3.283247947692871,0.472739964723587,0.1055435240268707,0.4158285558223724,0.627630889415741,-0.3894470632076263,-0.4270654916763305,-0.5215607285499573,9.535305976867676,-0.1578108817338943,-2.2354729175567627,-0.3286749124526977,0.1432582288980484,0.7530709505081177,0.3443944454193115,-0.6625024676322937,-0.4173383712768554,-0.5179881453514099
307654,9.264826774597168,-0.3793497681617737,3.308091878890991,0.2392546385526657,0.4422609210014343,0.4137283563613891,0.6276636719703674,-0.3894047439098358,-0.4270029664039612,-0.5216041803359985,9.495549201965332,-0.1471287459135055,-2.250897169113159,-0.0751604661345481,0.3305894732475281,0.7009875178337097,0.3443999588489532,-0.6624943614006042,-0.4172933101654053,-0.5180312395095825
307820,9.238533973693848,-0.3828577995300293,3.284363985061645,0.2873680591583252,0.4213480949401855,0.4237428307533264,0.6276968717575073,-0.3893614113330841,-0.4269441366195678,-0.5216447114944458,9.48533535003662,-0.1439602226018905,-2.21995210647583,0.064435139298439,0.1999519318342209,0.4974178075790405,0.344410240650177,-0.6624656319618225,-0.4173038005828857,-0.5180527567863464
307987,9.233817100524902,-0.3715178668498993,3.341432809829712,-0.618393063545227,-0.0879411995410919,0.1866333335638046,0.6276001334190369,-0.3894487619400024,-0.4268543422222137,-0.5217694044113159,9.52206039428711,-0.110726498067379,-2.21681547164917,0.0668939799070358,0.2584897875785827,0.3786517679691314,0.3444078266620636,-0.6624311208724976,-0.4173131287097931,-0.5180908441543579
308154,9.25704288482666,-0.3631563782691955,3.281797170639038,-0.95111483335495,-0.2647584974765777,0.0630520656704902,0.6274417638778687,-0.3895900249481201,-0.4267452359199524,-0.5219434499740601,9.536096572875977,-0.1171279400587081,-2.201885223388672,0.0546767078340053,0.4436312019824981,0.3275544345378876,0.3444163501262665,-0.6623757481575012,-0.4173244833946228,-0.5181467533111572
308320,9.295567512512209,-0.3621981739997864,3.2832553386688232,0.019139090552926,0.4135106205940246,0.2139108479022979,0.6274212002754211,-0.3895767629146576,-0.4266615808010101,-0.5220463871955872,9.546309471130373,-0.1061418354511261,-2.1884779930114746,0.1708815097808838,0.6906656622886658,0.4006274044513702,0.3444505333900451,-0.6623048186302185,-0.417318046092987,-0.5182199478149414
308487,9.249369621276855,-0.4025749564170837,3.30206561088562,0.4996973276138305,1.0172659158706665,0.4385470151901245,0.6274754405021667,-0.389493316411972,-0.4265415370464325,-0.5221415162086487,9.53456974029541,-0.115674003958702,-2.211008071899414,0.2169715613126754,1.074958562850952,0.4459491372108459,0.3445471525192261,-0.6621803045272827,-0.417332112789154,-0.5183035135269165
308654,9.213079452514648,-0.3764421045780182,3.3026857376098637,0.7635337114334106,0.8469542860984802,0.6043251752853394,0.6275747418403625,-0.3893859088420868,-0.4264689087867737,-0.5221616625785828,9.542887687683104,-0.1168007180094719,-2.179328441619873,0.1644783467054367,1.361308455467224,0.6199233531951904,0.3446292281150818,-0.6620780825614929,-0.4172609150409698,-0.5184367895126343
308820,9.242785453796388,-0.3578352630138397,3.326374292373657,0.8752179741859436,0.6266083121299744,0.5733338594436646,0.6276630759239197,-0.3892842531204223,-0.4264253377914428,-0.5221669673919678,9.520719528198242,-0.1166335940361023,-2.1794021129608154,0.2189821600914001,1.5952037572860718,0.7792087197303772,0.3447594344615936,-0.661952793598175,-0.4171868860721588,-0.5185697674751282
308987,9.250571250915527,-0.3771933317184448,3.337498664855957,0.817730188369751,1.066429615020752,0.6744399666786194,0.6277927756309509,-0.3891524970531463,-0.4263389110565185,-0.5221798419952393,9.531493186950684,-0.1239781007170677,-2.151215076446533,0.185288667678833,1.5261006355285645,0.7188908457756042,0.3448747098445892,-0.6618326306343079,-0.4171163439750671,-0.5187033414840698
309154,9.198590278625488,-0.3926703035831451,3.3479340076446533,0.5523058772087097,0.9185802936553956,0.5468759536743164,0.627856969833374,-0.3890736699104309,-0.4262292087078094,-0.5222508311271667,9.529738426208496,-0.1207514181733131,-2.149743795394897,0.2066880613565445,1.4235090017318726,0.6251099109649658,0.3449657261371612,-0.6617231369018555,-0.4170450866222381,-0.5188397169113159
309320,9.2208251953125,-0.3627990782260895,3.345763683319092,0.0166930761188268,0.3830058872699737,0.3456113040447235,0.6278398036956787,-0.3890744149684906,-0.4261364340782165,-0.5223468542098999,9.515854835510254,-0.1084386110305786,-2.1163487434387207,0.1369318813085556,1.217685341835022,0.586332380771637,0.345037430524826,-0.6616281270980835,-0.4169861078262329,-0.5189607739448547
309487,9.243826866149902,-0.353837102651596,3.331526756286621,-0.03220796585083,0.3505417704582214,0.3395411372184753,0.6278474926948547,-0.3890568315982818,-0.4260656833648681,-0.5224081873893738,9.467204093933104,-0.1067140251398086,-2.122368097305298,0.0028622192330658,0.6921128034591675,0.4694231748580932,0.3450480699539184,-0.661577582359314,-0.4169454276561737,-0.519050657749176
309654,9.239320755004885,-0.3550243973731994,3.315737724304199,0.3870911002159118,0.3090108036994934,0.542841911315918,0.6278836727142334,-0.3890231847763061,-0.4260130524635315,-0.5224326848983765,9.483089447021484,-0.1142097562551498,-2.1164567470550537,-0.1347227841615677,0.0312923155725002,0.5328530073165894,0.34502774477005,-0.6615738272666931,-0.4169436991214752,-0.5190703272819519
309820,9.211058616638184,-0.3669224381446838,3.289470672607422,0.5133616924285889,0.0052698128856718,0.4679887592792511,0.627876877784729,-0.3890170753002167,-0.4259828627109527,-0.5224700570106506,9.52121925354004,-0.1193737983703613,-2.1004281044006348,-0.1699786931276321,-0.3615232706069946,0.5438152551651001,0.3449709415435791,-0.6616095304489136,-0.4169456958770752,-0.5190609693527222
309987,9.24204921722412,-0.3641948103904724,3.318422079086304,0.6648352146148682,-0.1091869324445724,0.5818372368812561,0.6279042363166809,-0.3889932930469513,-0.4259863197803497,-0.5224521160125732,9.551198959350586,-0.1313971728086471,-2.127238750457764,-0.2053754329681396,-0.305431455373764,0.6456385254859924,0.3449177145957947,-0.6616520881652832,-0.4169266819953918,-0.5190573334693909
310154,9.256450653076172,-0.357103943824768,3.3241162300109863,0.9319500923156738,0.2951671481132507,0.5320205688476562,0.627974271774292,-0.3889061510562897,-0.4259807467460632,-0.5224375128746033,9.480834007263184,-0.1350662857294082,-2.1454381942749023,-0.0427219793200492,-0.2726855874061584,0.7798874974250793,0.3448972702026367,-0.6616876721382141,-0.4169121980667114,-0.5190371870994568
310320,9.21205711364746,-0.3559680879116058,3.373366594314575,0.5779826641082764,0.4494068622589111,0.5009012222290039,0.6280086636543274,-0.3888557553291321,-0.4259190559387207,-0.5224838852882385,9.502059936523438,-0.1539211273193359,-2.1534957885742188,0.1281083226203918,-0.7607483863830566,0.9213465452194214,0.3448646664619446,-0.6617671251296997,-0.416909784078598,-0.5189594030380249
310487,9.16983413696289,-0.4039761424064636,3.2886130809783936,0.5059084296226501,-0.2959547340869903,0.6558323502540588,0.6280343532562256,-0.3888540267944336,-0.4259331524372101,-0.5224428772926331,9.540960311889648,-0.1406943202018737,-2.1604506969451904,0.3370054960250854,-0.8283531069755554,0.8403206467628479,0.3448580801486969,-0.6618250012397766,-0.4169526696205139,-0.5188555717468262
310654,9.23032283782959,-0.4183552265167236,3.270557641983032,1.1003921031951904,-0.6027052402496338,0.5853718519210815,0.6280167698860168,-0.3888593018054962,-0.4259850978851318,-0.5224176645278931,9.581582069396973,-0.1100077107548713,-2.1614060401916504,0.1936768144369125,-0.539621114730835,0.3395923376083374,0.34482541680336,-0.6618316173553467,-0.4170284569263458,-0.5188079476356506
310820,9.30051612854004,-0.3281775414943695,3.3761675357818604,0.9442824125289916,-0.5730329155921936,0.2257183045148849,0.6279831528663635,-0.3888399302959442,-0.426056444644928,-0.5224142670631409,9.56478786468506,-0.1413174122571945,-2.1662912368774414,0.1195024475455284,-0.0768252909183502,0.1214490085840225,0.3447825610637665,-0.66180419921875,-0.417079210281372,-0.5188305974006653
310987,9.20035457611084,-0.3220946788787842,3.3532485961914062,0.7546334862709045,-0.1175751015543937,0.1043525487184524,0.6279866099357605,-0.388772040605545,-0.426100343465805,-0.5224248766899109,9.535120010375977,-0.1281855702400207,-2.169609785079956,0.1521714478731155,0.1015479490160942,0.2616273164749145,0.3447735607624054,-0.6617636680603027,-0.4171204566955566,-0.518855094909668
311154,9.199342727661133,-0.3724278211593628,3.3328983783721924,1.2813585996627808,-0.5461011528968811,0.5132336616516113,0.6280375719070435,-0.3887029588222503,-0.4262099862098694,-0.5223255753517151,9.524949073791504,-0.1211690530180931,-2.1957662105560303,0.228189930319786,0.2422385066747665,0.3905872404575348,0.3447815477848053,-0.6617227792739868,-0.4171378314495086,-0.5188881158828735
311320,9.266172409057615,-0.4225969910621643,3.337998390197754,1.426403284072876,-0.5100640654563904,0.6915364265441895,0.6280863881111145,-0.3886497616767883,-0.4262977540493011,-0.5222348570823669,9.521220207214355,-0.0898665413260459,-2.1674246788024902,0.1229345649480819,0.4293520748615265,0.403700977563858,0.3448043167591095,-0.6616641879081726,-0.4171523749828338,-0.518936038017273
311487,9.257023811340332,-0.3701168596744537,3.354755163192749,1.432370901107788,-0.3128334879875183,0.625045895576477,0.6281647086143494,-0.388559341430664,-0.4263876974582672,-0.5221344232559204,9.52077579498291,-0.0688419938087463,-2.1635804176330566,-0.114949807524681,0.5761256814002991,0.4912579953670501,0.3448199927806854,-0.6616111993789673,-0.4171338081359863,-0.5190080404281616
311654,9.22268009185791,-0.3166745007038116,3.3603360652923584,1.2776062488555908,0.1432582288980484,0.4286861419677734,0.6282545924186707,-0.3884306848049164,-0.4264403283596039,-0.5220790505409241,9.513019561767578,-0.0831459388136863,-2.1496901512146,-0.50631183385849,0.7217594385147095,0.4551953077316284,0.3448096513748169,-0.66156005859375,-0.4170890152454376,-0.5191159248352051
311820,9.209457397460938,-0.3343554437160492,3.3444862365722656,0.7477691769599915,-0.312641441822052,0.2904032468795776,0.628227174282074,-0.3884151577949524,-0.4264660775661468,-0.5221025943756104,9.512853622436523,-0.0980862006545066,-2.1309919357299805,-0.6575676202774048,0.6901533603668213,0.5137843489646912,0.3447742462158203,-0.6615318655967712,-0.4170135855674743,-0.5192359685897827
311987,9.237970352172852,-0.38514444231987,3.339787483215332,0.7629190683364868,-0.3137683570384979,0.3966574370861053,0.628256618976593,-0.3883659541606903,-0.4265226423740387,-0.5220575928688049,9.494088172912598,-0.1412957906723022,-2.170790672302246,-0.5281594395637512,0.5993947386741638,0.7210679054260254,0.3447701632976532,-0.6615095734596252,-0.4169435203075409,-0.5193233489990234
312154,9.216647148132324,-0.3689019978046417,3.313304901123047,0.9222043752670288,-0.0566424801945686,0.5174084901809692,0.6283199191093445,-0.3882905542850494,-0.4265605807304382,-0.5220065116882324,9.503168106079102,-0.1427178531885147,-2.154001474380493,-0.1838863790035247,0.2991371154785156,0.765531599521637,0.3447719812393188,-0.661504864692688,-0.4168949425220489,-0.5193671584129333
312320,9.207733154296877,-0.3508350253105163,3.287737846374512,1.029765009880066,-0.1868190318346023,0.6221004128456116,0.6283652782440186,-0.3882408142089844,-0.4265949130058288,-0.5219607353210449,9.510929107666016,-0.1368578970432281,-2.157890558242798,-0.0553746558725833,0.1277113258838653,0.7462324500083923,0.344782143831253,-0.6614997982978821,-0.4168757498264313,-0.5193822979927063
312487,9.241864204406738,-0.3695473670959472,3.291322946548462,0.6388511657714844,-0.2141990214586258,0.4785156846046448,0.6283688545227051,-0.3882259130477905,-0.4266048967838287,-0.5219594240188599,9.559154510498049,-0.1220487877726554,-2.170281887054444,0.1463829576969146,0.1203988939523696,0.6172468066215515,0.3447993695735931,-0.6614793539047241,-0.4168812930583954,-0.5193926095962524
312654,9.248661994934082,-0.3741714060306549,3.306511163711548,0.4665288627147674,0.1623268574476242,0.4552209079265594,0.6283869743347168,-0.3881941437721252,-0.4265712201595306,-0.5219887495040894,9.557332038879396,-0.125217318534851,-2.1531200408935547,0.3249163031578064,0.1813315004110336,0.3774223327636719,0.3448145091533661,-0.6614336967468262,-0.4169155955314636,-0.5194130539894104
312820,9.237893104553224,-0.3582156002521515,3.3317513465881348,0.6944434642791748,0.0949782878160476,0.4684498608112335,0.6284257173538208,-0.3881385624408722,-0.4265684783458709,-0.5219855904579163,9.499307632446287,-0.1348408907651901,-2.145066261291504,0.4300564229488373,0.235425516963005,0.4285580515861511,0.3448651134967804,-0.6613684296607971,-0.4169718027114868,-0.5194175243377686
312987,9.262056350708008,-0.348069816827774,3.341713190078736,0.7791063189506531,-0.0285837724804878,0.4589475691318512,0.6284597516059875,-0.3880848586559295,-0.4265832006931305,-0.5219724178314209,9.466182708740234,-0.1478657722473144,-2.1651721000671387,0.6237781047821045,-0.368003249168396,0.6192189455032349,0.3448904156684875,-0.6613667011260986,-0.4170280694961548,-0.5193576812744141
313154,9.214107513427734,-0.360202819108963,3.3154408931732178,0.0713761746883392,-0.2746577560901642,0.6515933871269226,0.628433346748352,-0.3881425559520721,-0.4265409708023071,-0.5219958424568176,9.52414321899414,-0.125105619430542,-2.1584153175354004,0.7998014688491821,-0.6481293439865112,0.8525251746177673,0.3449369370937347,-0.6613889932632446,-0.4170933365821838,-0.5192459225654602
313320,9.229385375976562,-0.4244837462902069,3.2564961910247803,0.325735867023468,-0.759698212146759,0.5235555768013,0.6283783316612244,-0.3882083296775818,-0.4265671968460083,-0.5219917297363281,9.500951766967772,-0.0953952372074127,-2.1573917865753174,0.6708926558494568,-0.8341672420501709,0.7420191168785095,0.344940036535263,-0.6614332795143127,-0.4171556830406189,-0.5191373825073242
313487,9.28697395324707,-0.3458335399627685,3.3383822441101074,0.1011893674731254,-0.5122667551040649,0.410180926322937,0.6283172369003296,-0.3882693946361542,-0.42656010389328,-0.5220257639884949,9.534984588623049,-0.0806712210178375,-2.208825826644897,0.2446461170911789,-0.9609628915786744,0.555008053779602,0.3448925912380218,-0.6614880561828613,-0.4172249436378479,-0.5190436244010925
313654,9.265674591064451,-0.3430941700935364,3.2908473014831543,0.1580239534378051,-0.3809376657009125,0.1884646564722061,0.6282597780227661,-0.3882939219474792,-0.4265648126602173,-0.5220727920532227,9.51529598236084,-0.1059686094522476,-2.193284273147583,0.0241975970566272,-0.8026123642921448,0.3561125695705414,0.344820111989975,-0.6615281701087952,-0.4172915816307068,-0.5189868211746216
313820,9.24189567565918,-0.3227276802062988,3.2884836196899414,0.3374408781528473,-0.3787989914417267,0.3749378621578216,0.6282321214675903,-0.3883090317249298,-0.4265766441822052,-0.5220851302146912,9.517930030822754,-0.1147002726793289,-2.220032215118408,-0.210497960448265,-0.7630663514137268,0.4156492948532104,0.3447242975234985,-0.6615862846374512,-0.4173239171504974,-0.518950343132019
313987,9.27645492553711,-0.3659046590328216,3.275491237640381,0.4550672173500061,-0.5626726150512695,0.5466325879096985,0.6281735897064209,-0.38836869597435,-0.4265764653682709,-0.5221112966537476,9.50409698486328,-0.1242402866482734,-2.2089672088623047,-0.2300916761159896,-0.715887725353241,0.5511916875839233,0.344632476568222,-0.6616554260253906,-0.4173310697078705,-0.518917441368103
314154,9.27101993560791,-0.3747939467430115,3.313430070877075,0.5209559202194214,-0.3890953361988067,0.5679423809051514,0.6282027363777161,-0.3883537054061889,-0.4266169369220733,-0.5220544338226318,9.50975513458252,-0.1276122629642486,-2.2304847240448,-0.1917750835418701,-0.7429219484329224,0.6394274234771729,0.3445612490177154,-0.6617211699485779,-0.4173486530780792,-0.518866777420044
314320,9.22506332397461,-0.3364499509334564,3.2790462970733643,0.4869294166564941,-0.4429588317871094,0.5644206404685974,0.6281865239143372,-0.3883777856826782,-0.4266304969787597,-0.5220450162887573,9.52017307281494,-0.1033827736973762,-2.223588705062866,-0.2742351591587066,-0.588528573513031,0.8111221790313721,0.3445118069648742,-0.6617841124534607,-0.4173452258110046,-0.5188220739364624
314487,9.258421897888184,-0.3341357707977295,3.296626567840576,0.0454433336853981,-0.4998317956924438,0.4540299475193023,0.6281441450119019,-0.3884305655956268,-0.4266301989555359,-0.5220567584037781,9.53744888305664,-0.1139847785234451,-2.2107293605804443,-0.3836013972759247,-0.4063710868358612,0.6738637089729309,0.3444580137729645,-0.6618265509605408,-0.4173444211483001,-0.5188044905662537
314654,9.237238883972168,-0.3500676155090332,3.3201000690460205,-0.2634778022766113,-0.4104050397872925,0.3177190721035003,0.6280847191810608,-0.3884921669960022,-0.4266100525856018,-0.5220988392829895,9.555171966552734,-0.127824380993843,-2.22739052772522,-0.4643453955650329,-0.0028814284596592,0.5691845417022705,0.3444051444530487,-0.6618424654006958,-0.4173173010349273,-0.5188411474227905
314820,9.244656562805176,-0.3675375580787658,3.2728805541992188,-0.1150778532028198,-0.358308881521225,0.3545885980129242,0.6280312538146973,-0.3885453343391418,-0.4265882074832916,-0.5221415162086487,9.5557222366333,-0.1472108066082,-2.205085515975952,-0.3651090562343597,0.3036705553531647,0.4977763891220093,0.3443844318389892,-0.6618181467056274,-0.4173019528388977,-0.5188981890678406
314987,9.250024795532228,-0.3700230121612549,3.3080453872680664,0.0863852277398109,-0.0273927804082632,0.4313242435455322,0.6280143857002258,-0.3885608315467834,-0.4265462756156921,-0.5221845507621765,9.521873474121094,-0.1326737105846405,-2.185338020324707,-0.150461807847023,0.5974225997924805,0.5299075841903687,0.3443842530250549,-0.6617782711982727,-0.4172601997852325,-0.5189825892448425
315154,9.251434326171877,-0.3794998526573181,3.3503732681274414,0.0447261780500412,-0.2731082141399383,0.482728898525238,0.6280316710472107,-0.3885638117790222,-0.426555722951889,-0.5221538543701172,9.512097358703612,-0.1418782919645309,-2.18472957611084,0.0736301094293594,0.6654370427131653,0.5069072842597961,0.3444182574748993,-0.661713182926178,-0.417246550321579,-0.5190542340278625
315320,9.264585494995115,-0.3726802170276642,3.325883150100708,-0.0582560859620571,-0.3399445414543152,0.2960251569747925,0.628003716468811,-0.388586163520813,-0.4265586137771606,-0.5221685767173767,9.508065223693848,-0.1407884359359741,-2.1936306953430176,0.1744929105043411,0.721733808517456,0.5754469037055969,0.3444590270519256,-0.6616518497467041,-0.4172163009643554,-0.5191295146942139
315487,9.24997901916504,-0.3814311325550079,3.305602550506592,0.1824328750371933,-0.0286350008100271,0.4472938179969787,0.6279918551445007,-0.3885949552059173,-0.4265219569206238,-0.5222062468528748,9.514440536499023,-0.1226371675729751,-2.184433698654175,0.2760984599590301,0.6780129075050354,0.5147832036018372,0.3445092141628265,-0.6615797877311707,-0.4172103703022003,-0.5191928148269653
315654,9.247674942016602,-0.3634571135044098,3.301801443099976,0.2904032170772552,0.079482614994049,0.4417998790740967,0.6280075907707214,-0.3885732293128967,-0.4264951348304748,-0.5222253799438477,9.531466484069824,-0.1333749145269394,-2.1624834537506104,0.3689317107200622,0.745169460773468,0.5754725337028503,0.34458789229393,-0.6614937782287598,-0.4172151684761047,-0.5192463397979736
315820,9.250171661376951,-0.3529072999954223,3.305595636367798,0.1070802956819534,0.1196049004793167,0.4723173379898071,0.6279997229576111,-0.3885815143585205,-0.4264357686042785,-0.5222770571708679,9.527504920959473,-0.1133019551634788,-2.146806240081787,0.2723462581634521,0.9872863292694092,0.4805903136730194,0.3446498215198517,-0.6613996624946594,-0.4171916544437408,-0.5193439722061157
315987,9.230286598205566,-0.3622765839099884,3.3139536380767822,0.2710784077644348,0.293041318655014,0.4624949395656585,0.6280046105384827,-0.3885660469532013,-0.4263690412044525,-0.5223371386528015,9.512126922607422,-0.1195278316736221,-2.146328449249268,0.2114776521921157,0.919592022895813,0.6309880614280701,0.3447228074073791,-0.6613159775733948,-0.4171633422374725,-0.5194249749183655
316154,9.223349571228027,-0.3757878541946411,3.353001832962036,0.4303125441074371,0.1609309911727905,0.3751811981201172,0.6280255317687988,-0.3885236084461212,-0.4263470768928528,-0.5223615169525146,9.5069580078125,-0.1193111836910247,-2.128854990005493,0.1060173735022544,0.8168851137161255,0.7205300331115723,0.3447734713554382,-0.6612592935562134,-0.4171096086502075,-0.5195064544677734
316320,9.236520767211914,-0.3756376504898071,3.3227579593658447,0.4557459652423858,-0.0587811507284641,0.5061005353927612,0.6280766129493713,-0.388477623462677,-0.4263632595539093,-0.5223211646080017,9.510003089904783,-0.1271366477012634,-2.129341125488281,0.0624117404222488,0.5404471755027771,0.6489681601524353,0.3448207080364227,-0.6612050533294678,-0.4170994460582733,-0.5195524096488953
316487,9.23880672454834,-0.3700625002384186,3.306793451309204,0.2133473753929138,0.1278393864631652,0.445705771446228,0.6280813217163086,-0.3884672522544861,-0.426318496465683,-0.5223597884178162,9.521535873413086,-0.1173068061470985,-2.1394588947296143,-0.0206054132431745,0.2929131984710693,0.6755540370941162,0.3448589742183685,-0.6611659526824951,-0.4171074032783508,-0.5195703506469727
316654,9.24412727355957,-0.3700766563415527,3.3097798824310303,0.0876914784312248,-0.0420304425060749,0.4102194011211395,0.6280975341796875,-0.3884536921977997,-0.4263050258159637,-0.5223613381385803,9.548343658447266,-0.1042680442333221,-2.1184096336364746,-0.1735260337591171,0.3380428254604339,0.578354001045227,0.344848096370697,-0.6611472964286804,-0.4170755743980407,-0.519627034664154
316820,9.233162879943848,-0.3645335435867309,3.3204762935638428,0.0699546933174133,-0.04927883669734,0.2547118663787842,0.6280720233917236,-0.3884554803371429,-0.4262787997722626,-0.5224120616912842,9.554839134216309,-0.1316366195678711,-2.125018119812012,-0.2371479868888855,0.4255614280700683,0.497904509305954,0.3448377251625061,-0.6611145734786987,-0.417050689458847,-0.5196952223777771
316987,9.221393585205078,-0.3471388518810272,3.333289861679077,0.1607388854026794,-0.1253741383552551,0.442952424287796,0.6280543208122253,-0.3884720802307129,-0.4262506067752838,-0.522443950176239,9.491451263427734,-0.0973407849669456,-2.1329214572906494,-0.2358545511960983,0.2995853722095489,0.5539066791534424,0.3448190093040466,-0.6610982418060303,-0.4170213043689728,-0.5197521448135376
317154,9.22481918334961,-0.3529680967330932,3.376100540161133,0.3306023478507995,-0.2205509394407272,0.473508358001709,0.6280501484870911,-0.3884760737419128,-0.426247775554657,-0.5224481821060181,9.515368461608888,-0.115751102566719,-2.1157093048095703,-0.2531046867370605,-0.1611935198307037,0.6323070526123047,0.3447827398777008,-0.6611180305480957,-0.4170126616954803,-0.5197579264640808
317320,9.228863716125488,-0.3898590803146362,3.302146673202514,0.5171908140182495,-0.4693142473697662,0.5307142734527588,0.6280384659767151,-0.3884903788566589,-0.4262736141681671,-0.5224305391311646,9.526723861694336,-0.1002033576369285,-2.1293628215789795,-0.3308135867118835,-0.4298066794872284,0.76092129945755,0.34473916888237,-0.6611645221710205,-0.417007565498352,-0.5197318196296692
317487,9.265820503234863,-0.3745504915714264,3.318598747253418,0.4591652452945709,-0.5915637016296387,0.3229184746742248,0.6279988288879395,-0.3885078430175781,-0.4263167381286621,-0.5224299430847168,9.533329010009766,-0.1286631971597671,-2.1517906188964844,-0.2680497169494629,-0.5049159526824951,0.7279577851295471,0.3446955680847168,-0.6612113118171692,-0.4170141518115997,-0.5196959376335144
317654,9.248279571533203,-0.3528894186019897,3.3334221839904785,0.2383453994989395,-0.2447165548801422,0.2580543756484985,0.627968966960907,-0.3885105848312378,-0.4263193607330322,-0.5224619507789612,9.476799011230469,-0.1383784115314483,-2.1391820907592773,-0.2498390674591064,-0.6033967733383179,0.7901325225830078,0.3446530103683471,-0.6612673997879028,-0.4170227348804474,-0.5196459293365479
317820,9.201824188232422,-0.3626667559146881,3.3472156524658203,0.1176327317953109,-0.5754149556159973,0.198171854019165,0.6279051303863525,-0.3885473310947418,-0.4263447225093841,-0.5224905014038086,9.499673843383787,-0.1674900650978088,-2.1669483184814453,0.0835422277450561,-1.1655060052871704,0.9932284951210022,0.3446081876754761,-0.6613730192184448,-0.4170467257499695,-0.5195218920707703
317987,9.21638011932373,-0.4063564240932464,3.239215135574341,0.2210055738687515,-0.9014772772789,0.6045941114425659,0.6278650760650635,-0.3886190354824066,-0.4263896942138672,-0.522448718547821,9.497169494628906,-0.1639328300952911,-2.193938732147217,0.3475451469421386,-1.261271834373474,0.8433942198753357,0.344588965177536,-0.6614509224891663,-0.417130172252655,-0.519368588924408
318154,9.24560832977295,-0.440676748752594,3.2511587142944336,0.910217821598053,-0.9349275231361388,0.5151546597480774,0.6278509497642517,-0.3886280655860901,-0.4264924228191376,-0.5223749279975891,9.554891586303713,-0.1495139300823211,-2.192248106002808,0.4278025031089782,-1.2569047212600708,0.5566856265068054,0.3445434868335724,-0.6615171432495117,-0.4172310829162597,-0.5192334651947021
318320,9.298016548156738,-0.3489061594009399,3.371750593185425,0.4592164754867553,-1.280775785446167,0.163645938038826,0.6277565956115723,-0.3886883556842804,-0.4266076982021332,-0.5223494172096252,9.57558250427246,-0.1353521049022674,-2.1903021335601807,0.2925290167331695,-0.8543499708175659,0.3147224485874176,0.3444956839084625,-0.6615411043167114,-0.4173311293125152,-0.5191541314125061
318487,9.252778053283691,-0.3190763592720032,3.3211164474487305,0.4163151979446411,-0.7208821177482605,0.0249403622001409,0.6276962757110596,-0.3886918127536773,-0.4266849160194397,-0.5223563313484192,9.564452171325684,-0.125127911567688,-2.187419414520264,0.3134418129920959,-0.3736380636692047,0.4009604156017303,0.344476580619812,-0.6615398526191711,-0.4173894822597503,-0.5191214680671692
318654,9.213826179504396,-0.3843331933021545,3.286458730697632,0.6973377466201782,-0.8649023771286011,0.4178391098976135,0.627669095993042,-0.388707160949707,-0.4267722070217132,-0.5223063230514526,9.561902046203612,-0.1048150584101677,-2.1843795776367188,0.1871071606874466,-0.0359986498951911,0.5729113221168518,0.3444893658161163,-0.6615215539932251,-0.4174180030822754,-0.5191132426261902
318820,9.268444061279297,-0.409720629453659,3.358686685562134,0.8605546355247498,-0.8329505920410156,0.4318877160549164,0.6276704668998718,-0.3886939585208893,-0.4268794357776642,-0.5222266912460327,9.540579795837402,-0.0932390093803405,-2.1598219871521,-0.0515583641827106,0.5417405962944031,0.5315723419189453,0.3445130884647369,-0.6614683866500854,-0.4174048900604248,-0.5191759467124939
318987,9.253822326660156,-0.3586976826190948,3.316323757171631,0.8756917119026184,-0.8417229056358337,0.4136130809783935,0.6276451945304871,-0.3886993527412414,-0.4269707202911377,-0.5221784114837646,9.503755569458008,-0.0822511091828346,-2.176675319671631,-0.4006978571414947,0.6995916366577148,0.5447628498077393,0.3445071578025818,-0.6614260077476501,-0.4173488914966583,-0.5192787647247314
319154,9.249370574951172,-0.3186114728450775,3.3433961868286133,0.0960796400904655,-0.5702155232429504,0.0375930406153202,0.6275674700737,-0.3887292742729187,-0.4270017147064209,-0.5222242474555969,9.489168167114258,-0.0857112407684326,-2.1670076847076416,-0.7804829478263855,0.7406359910964966,0.3000463545322418,0.3444668650627136,-0.6613715291023254,-0.4173068404197693,-0.5194087624549866
319320,9.188446998596191,-0.3466489315032959,3.3059606552124023,-0.0129344128072261,-0.6896474957466125,0.0166162382811307,0.6274822354316711,-0.388770192861557,-0.4270423054695129,-0.5222629904747009,9.47460651397705,-0.1161108985543251,-2.1427063941955566,-1.0138658285140991,0.4599848687648773,0.3094974458217621,0.3443662524223327,-0.6613657474517822,-0.4172359704971313,-0.5195398330688477
319487,9.230997085571287,-0.3578788936138153,3.301375150680542,0.6098191738128662,-0.6962171792984009,0.1782451868057251,0.6274489164352417,-0.3887612223625183,-0.4271248579025268,-0.5222421884536743,9.497601509094238,-0.1507364064455032,-2.130512952804565,-0.8552336096763611,0.1914357244968414,0.4948821663856506,0.3442826867103576,-0.6613803505897522,-0.4171775281429291,-0.5196233987808228
319654,9.252690315246582,-0.3556834161281585,3.2995312213897705,0.9332051277160645,-0.4826841354370117,0.2413036525249481,0.6274598240852356,-0.3887036442756653,-0.4272149503231048,-0.5221982002258301,9.535215377807615,-0.1425836533308029,-2.1640496253967285,-0.7297441959381104,0.1425538808107376,0.5424449443817139,0.344215989112854,-0.6613927483558655,-0.417130172252655,-0.5196897387504578
319820,9.231610298156738,-0.3629024922847748,3.277522325515747,0.5085722208023071,-0.353506475687027,0.2955769598484039,0.6274800300598145,-0.3886615037918091,-0.4272733926773071,-0.5221574306488037,9.525253295898438,-0.1272343099117279,-2.1441221237182617,-0.4957850277423858,0.1371880173683166,0.4008707404136657,0.3441405892372131,-0.6613999605178833,-0.4170911610126495,-0.5197619199752808
319987,9.243573188781738,-0.3477682769298553,3.2980642318725586,0.5041155219078064,-0.24667589366436,0.1967887729406356,0.6274450421333313,-0.3886483907699585,-0.4272883236408233,-0.5221971869468689,9.567354202270508,-0.1376555860042572,-2.150838613510132,-0.2778721749782562,0.2413036525249481,0.4123580455780029,0.3441030383110046,-0.6613824963569641,-0.4170726835727691,-0.5198238492012024
320154,9.270448684692385,-0.3529112040996551,3.2983286380767822,0.3980021178722381,-0.2815475761890411,0.0746418088674545,0.6274135112762451,-0.3886241912841797,-0.4273197054862976,-0.5222274661064148,9.558808326721191,-0.1138020679354667,-2.185917377471924,-0.2244312614202499,0.3700586557388305,0.3390416800975799,0.3440744876861572,-0.6613466739654541,-0.4170608520507812,-0.5198977589607239
320320,9.274060249328612,-0.3566155135631561,3.30139708518982,0.6572666764259338,-0.3411739468574524,0.2121819853782653,0.6273812055587769,-0.3886066079139709,-0.4273527860641479,-0.5222522616386414,9.485732078552246,-0.1263402551412582,-2.15266227722168,-0.1068689823150634,0.493127703666687,0.2795818150043487,0.3440618813037872,-0.6612910032272339,-0.4170591831207275,-0.5199783444404602
320487,9.26164722442627,-0.3474783599376678,3.3387467861175537,0.5179207921028137,-0.3178920149803161,0.2654948234558105,0.6273696422576904,-0.3885844349861145,-0.4273873269557953,-0.5222542881965637,9.453207015991213,-0.1239763796329498,-2.195648193359375,0.1190414205193519,-0.1834637522697448,0.5728088021278381,0.3440627157688141,-0.6612850427627563,-0.4170929491519928,-0.5199582576751709
320654,9.24843692779541,-0.3617905974388122,3.255589485168457,0.3590836226940155,-0.3901582360267639,0.4301972687244415,0.6273412108421326,-0.3886048495769501,-0.4273955821990967,-0.5222664475440979,9.536055564880373,-0.1251744478940963,-2.177019596099853,0.3147480487823486,-0.2894746959209442,0.7155483365058899,0.3440878093242645,-0.6612853407859802,-0.4171343147754669,-0.5199080109596252
320820,9.252942085266112,-0.4088427722454071,3.216552495956421,0.838002622127533,-0.4392577707767486,0.4277256727218628,0.6273406744003296,-0.3885826468467712,-0.4274474680423736,-0.5222412943840027,9.545427322387695,-0.102840170264244,-2.1761186122894287,0.4299155473709106,-0.2880275845527649,0.7121418714523315,0.3440996408462524,-0.6612972617149353,-0.4171566367149353,-0.5198670625686646
320987,9.271102905273438,-0.3427758812904358,3.3321526050567627,0.6794600486755371,-0.2416301965713501,0.4090667963027954,0.6273545026779175,-0.3885487914085388,-0.4274797439575195,-0.5222234725952148,9.557146072387695,-0.1233541741967201,-2.17315411567688,0.2867917716503143,0.0344042591750621,0.3982839286327362,0.3441261947154999,-0.6612482666969299,-0.4172211587429046,-0.5198598504066467
321154,9.242679595947266,-0.3433127403259277,3.280651569366455,0.5459154844284058,-0.4620658755302429,0.2187644690275192,0.6273108124732971,-0.3885495364665985,-0.4275167286396026,-0.5222450494766235,9.531868934631348,-0.1106335893273353,-2.1915178298950195,0.3354046940803528,0.054471805691719,0.5798650979995728,0.3441539704799652,-0.6612204909324646,-0.417248785495758,-0.5198548436164856
321320,9.259283065795898,-0.3339247703552246,3.2726194858551025,0.4728680253028869,-0.3190445601940155,0.4480237066745758,0.627284586429596,-0.3885639905929565,-0.4275190234184265,-0.5222640037536621,9.527399063110352,-0.1002160534262657,-2.163816452026367,0.2561205625534057,0.2223374247550964,0.7497285008430481,0.3441885709762573,-0.6612005233764648,-0.4172360002994537,-0.5198675990104675
321487,9.248833656311035,-0.3670368790626526,3.2980284690856934,0.2834237217903137,-0.2404135912656784,0.5874848365783691,0.6272851228713989,-0.3885810077190399,-0.4275077879428863,-0.5222599506378174,9.472818374633787,-0.0926130414009094,-2.1648786067962646,0.1080535724759101,0.0498487129807472,0.765300989151001,0.3442151248455047,-0.661190927028656,-0.4172364473342895,-0.5198618769645691
321654,9.256131172180176,-0.361548900604248,3.27860164642334,0.3831851780414581,-0.6522273421287537,0.683583676815033,0.6272850036621094,-0.3886161744594574,-0.4275452196598053,-0.5222033262252808,9.496540069580078,-0.0948910862207412,-2.174359083175659,-0.0409418977797031,-0.2106388360261917,0.5970256328582764,0.3441917896270752,-0.661203145980835,-0.4172472655773163,-0.5198531746864319
321820,9.24687957763672,-0.3174903690814972,3.2880096435546875,0.6565366983413696,-0.5100896954536438,0.6514654159545898,0.6272796392440796,-0.3886354565620422,-0.42757248878479,-0.5221729278564453,9.505215644836426,-0.0973479375243187,-2.168418884277344,-0.116102360188961,-0.318993330001831,0.7547742128372192,0.3441771268844604,-0.6612289547920227,-0.4172551929950714,-0.5198236107826233
321987,9.253107070922852,-0.3207679092884063,3.2726945877075195,0.1296578794717788,-0.4658693969249725,0.4610605537891388,0.6272528767585754,-0.388671338558197,-0.4275813400745392,-0.522171139717102,9.525764465332031,-0.1222347617149353,-2.174648761749268,-0.1197009608149528,-0.3123852610588074,0.6201410889625549,0.3441596627235412,-0.6612410545349121,-0.4172837436199188,-0.5197967290878296
322154,9.264379501342772,-0.3550923466682434,3.288222551345825,0.2148841321468353,-0.1717459559440612,0.3913940489292145,0.6272417902946472,-0.3886743187904358,-0.4275724291801452,-0.5221894979476929,9.530227661132812,-0.1307318359613418,-2.1874337196350098,0.0245817899703979,-0.2908962666988373,0.6102033853530884,0.3441466391086578,-0.6612510085105896,-0.4173116981983185,-0.5197702646255493
322321,9.24502182006836,-0.3617977499961853,3.269533157348633,0.3333429098129272,-0.1469272375106811,0.465453177690506,0.6272578239440918,-0.3886591494083404,-0.4275753498077392,-0.5221790671348572,9.535945892333984,-0.1251815557479858,-2.169034004211426,0.1077718287706375,-0.2035441100597381,0.6184506416320801,0.344141274690628,-0.6612557172775269,-0.4173328578472137,-0.5197508931159973
322487,9.236943244934082,-0.3516699075698852,3.297660112380981,0.1621603965759277,-0.3382797539234161,0.5466325879096985,0.6272410750389099,-0.3886930048465729,-0.427565723657608,-0.5221818685531616,9.548391342163086,-0.1155293732881546,-2.1472299098968506,0.0587747395038604,0.1645679771900177,0.629912257194519,0.3441565930843353,-0.6612338423728943,-0.4173339903354645,-0.5197677612304688
322654,9.260870933532717,-0.3359310328960418,3.296891212463379,-0.2855047583580017,-0.2489298433065414,0.3208054602146148,0.6271906495094299,-0.3887441158294678,-0.4275290966033935,-0.5222344398498535,9.531457901000977,-0.1032164916396141,-2.1595499515533447,0.0123133044689893,0.2185339480638504,0.5437639951705933,0.3441632091999054,-0.6612058877944946,-0.4173353612422943,-0.5197977423667908
322821,9.244417190551758,-0.3364639580249786,3.3083748817443848,-0.2786789536476135,-0.0020618222188204,0.2727175951004028,0.6271564364433289,-0.3887693881988525,-0.4274763166904449,-0.5222999453544617,9.519359588623049,-0.0986711382865905,-2.160876750946045,-0.3524563312530517,0.2213513404130935,0.4270341098308563,0.3441395759582519,-0.6611788272857666,-0.4173360168933868,-0.5198472738265991
322987,9.2490873336792,-0.3449359238147735,3.324571132659912,0.1471129357814788,-0.2039155066013336,0.3245192766189575,0.6271217465400696,-0.3887871205806732,-0.4274596273899078,-0.5223419070243835,9.531442642211914,-0.1072221547365188,-2.171802520751953,-0.4112246632575989,0.231686070561409,0.4213353097438812,0.3441029191017151,-0.6611592173576355,-0.4173233807086944,-0.519906759262085
323154,9.266745567321776,-0.3476075530052185,3.304666042327881,0.4035088419914245,-0.281803697347641,0.623714029788971,0.6271383762359619,-0.3887911438941955,-0.427465945482254,-0.5223137736320496,9.539847373962402,-0.1237153187394142,-2.176998376846313,-0.3084921240806579,0.3293857276439667,0.4341799914836883,0.3440908193588257,-0.6611216068267822,-0.4173220694065094,-0.5199634432792664
323321,9.269438743591309,-0.3452689349651336,3.2728888988494877,0.6784356236457825,-0.0557332299649715,0.6340999603271484,0.6271446943283081,-0.3887859582901001,-0.4274426996707916,-0.5223292708396912,9.494022369384766,-0.1258252710103988,-2.181150197982788,-0.0963293612003326,0.3005458116531372,0.5419710874557495,0.3440926969051361,-0.6610918641090393,-0.4173129498958587,-0.5200074911117554
323487,9.260756492614746,-0.3564620316028595,3.2991156578063965,0.5707597732543945,0.1267508417367935,0.4330915212631225,0.6271863579750061,-0.3887278735637665,-0.4274389147758484,-0.5223256349563599,9.515826225280762,-0.1372512578964233,-2.1708829402923584,0.0672141313552856,0.1056331843137741,0.6037874221801758,0.3441018462181091,-0.6610734462738037,-0.4173184633255005,-0.5200204253196716
323654,9.251169204711914,-0.3580603003501892,3.332685947418213,0.4128318727016449,0.3422176539897918,0.4919366836547851,0.6272055506706238,-0.3886966109275818,-0.4273772835731506,-0.5223760604858398,9.515121459960938,-0.1328775584697723,-2.143986225128174,0.1959051340818405,0.10824566334486,0.5897643566131592,0.3441240191459656,-0.6610463261604309,-0.4173367917537689,-0.5200254321098328
323821,9.239206314086914,-0.3694722652435303,3.27408218383789,0.3772174119949341,0.2739597856998443,0.533582866191864,0.6272133588790894,-0.3886828422546386,-0.4273109138011932,-0.5224311351776123,9.53701877593994,-0.1409919708967209,-2.121624231338501,0.4205925166606903,0.1895915865898132,0.533173143863678,0.3441722691059112,-0.6609960198402405,-0.4173770248889923,-0.5200252532958984
323987,9.248175621032717,-0.3857225775718689,3.305949687957764,0.1742239892482757,0.2952183485031128,0.5161022543907166,0.6272246837615967,-0.3886727392673492,-0.4272392988204956,-0.5224838256835938,9.550837516784668,-0.1182259917259216,-2.1230692863464355,0.4333221018314361,0.3418463170528412,0.3967086970806122,0.3442198634147644,-0.6609256267547607,-0.4174229800701141,-0.5200461745262146
324154,9.261354446411133,-0.3565907776355743,3.313420534133911,0.0474923513829708,0.3640012741088867,0.5046534538269043,0.6272398829460144,-0.388662189245224,-0.4271577298641205,-0.5225400924682617,9.557328224182127,-0.1101328805088996,-2.119525194168091,0.4264450371265411,0.432528018951416,0.4696408808231354,0.3442703187465668,-0.6608588099479675,-0.4174477756023407,-0.5200777649879456
324321,9.24097728729248,-0.3604209125041961,3.32212495803833,0.1091164946556091,0.2785701155662536,0.474827378988266,0.6272315382957458,-0.3886663317680359,-0.4270760715007782,-0.5226138234138489,9.504196166992188,-0.105347916483879,-2.121309518814087,0.2492563873529434,0.3058091998100281,0.5456337332725525,0.3443076014518738,-0.6608102321624756,-0.4174655079841614,-0.5201005339622498
324487,9.237626075744627,-0.3584647178649902,3.327389001846313,0.2305206954479217,0.1083097010850906,0.4768636524677276,0.6272282600402832,-0.3886659145355224,-0.4270249307155609,-0.5226597189903259,9.509116172790527,-0.116670161485672,-2.1190171241760254,0.1015351489186286,-0.0947029516100883,0.5696712136268616,0.3443066477775574,-0.6608021855354309,-0.4174876511096954,-0.5200937390327454
324654,9.242439270019531,-0.3646122217178345,3.281023502349853,0.4810320734977722,-0.0588835962116718,0.5614815950393677,0.6272637248039246,-0.3886369466781616,-0.4270244538784027,-0.5226390957832336,9.531067848205566,-0.1299915611743927,-2.103657484054565,0.0901630967855453,-0.2503128945827484,0.5587730407714844,0.3442935049533844,-0.6608068346977234,-0.4175156056880951,-0.5200740098953247
324821,9.257386207580566,-0.3806846439838409,3.290130138397217,0.5953863859176636,-0.0020618222188204,0.6808431148529053,0.6273165941238403,-0.3886027932167053,-0.427018940448761,-0.5226055383682251,9.567599296569824,-0.1171172112226486,-2.122064113616944,0.1916278302669525,-0.2152875661849975,0.7632264494895935,0.3443150520324707,-0.6608107686042786,-0.4175381958484649,-0.5200368165969849
324987,9.25380802154541,-0.3512422740459442,3.318865776062012,0.7205556631088257,0.2141285687685012,0.6791399717330933,0.627396285533905,-0.3885352611541748,-0.4270082712173462,-0.5225688219070435,9.500535011291504,-0.1197188347578048,-2.1428709030151367,0.2528165578842163,-0.2346251159906387,0.814298152923584,0.3443427383899688,-0.660818338394165,-0.4175577163696289,-0.5199931859970093
325154,9.211332321166992,-0.3502928912639618,3.325887441635132,0.1345243006944656,0.1599961221218109,0.6139299869537354,0.6274159550666809,-0.3885367512702942,-0.4269478023052215,-0.5225936770439148,9.473114013671877,-0.143948033452034,-2.145749568939209,0.3469688594341278,-0.7257358431816101,0.88600093126297,0.3443549275398254,-0.6608623266220093,-0.4176025092601776,-0.5198931097984314
325321,9.228667259216309,-0.3895952105522156,3.256171941757202,0.1313355267047882,-0.3966895341873169,0.8396036028862,0.6274462938308716,-0.3885718584060669,-0.4269455969333648,-0.5225329995155334,9.50488567352295,-0.1467887610197067,-2.168334007263184,0.4114871919155121,-1.1239749193191528,0.7888263463973999,0.3443306982517242,-0.6609352231025696,-0.4176692962646484,-0.5197627544403076
