sampleTimeFine,W4_acc_x,W4_acc_y,W4_acc_z,W4_gyro_x,W4_gyro_y,W4_gyro_z,W4_quat_w,W4_quat_x,W4_quat_y,W4_quat_z,W5_acc_x,W5_acc_y,W5_acc_z,W5_gyro_x,W5_gyro_y,W5_gyro_z,W5_quat_w,W5_quat_x,W5_quat_y,W5_quat_z
1667794,0.3903672397136688,0.247331827878952,0.0657303035259246,-0.4587769210338592,0.1855166256427765,-0.4253635704517364,0.6274048089981079,-0.3838358521461487,-0.4720674753189087,-0.4859893321990967,-0.0051327496767044,-0.0470844358205795,0.1907335370779037,-0.0184736456722021,0.0360337160527706,-0.5346100926399231,0.3390062749385834,-0.6809123754501343,-0.4547040462493896,-0.4633328020572662
1667961,9.46747875213623,-0.2516501843929291,2.637577533721924,0.9816259145736694,-0.4208807051181793,0.6225230693817139,0.6277971267700195,-0.3835014998912811,-0.4719784557819366,-0.485833078622818,9.166680335998535,-0.4021719396114349,-3.350288152694702,0.2271910309791565,-1.1596404314041138,0.3830827176570892,0.3389182984828949,-0.6812170743942261,-0.4545865356922149,-0.463064581155777
1668127,9.466819763183594,-0.2718369960784912,2.659362316131592,0.6231633424758911,-0.6380635499954224,0.2775712013244629,0.6282709836959839,-0.3832882046699524,-0.4713382422924042,-0.486010193824768,9.166837692260742,-0.3891275227069855,-3.3544087409973145,0.5109028816223145,-0.8122170567512512,0.382032573223114,0.3390675485134125,-0.6812371611595154,-0.4549004137516022,-0.46261727809906
1668294,9.470365524291992,-0.2427983283996582,2.61035418510437,0.5770477652549744,-0.6399205327033997,0.2681457698345184,0.6288444995880127,-0.3831103146076202,-0.4705723226070404,-0.4861509799957275,9.133695602416992,-0.3633539378643036,-3.365171194076538,0.5240423083305359,-0.6428787708282471,0.4899389743804931,0.3391083776950836,-0.6812479496002197,-0.4551785290241241,-0.4622978866100311
1668461,9.468249320983888,-0.2456958144903183,2.6613099575042725,0.3467767536640167,-0.6886230111122131,0.1504297852516174,0.6292697787284851,-0.3828848004341125,-0.470307320356369,-0.4860348701477051,9.128945350646973,-0.3375224471092224,-3.3596787452697754,0.3766539096832275,-0.4676622450351715,0.4448221325874328,0.3390252292156219,-0.6812154650688171,-0.4555376172065735,-0.4620527625083923
1668627,9.480814933776855,-0.2363050431013107,2.625375986099243,0.1623653024435043,-0.3850228786468506,0.0078310817480087,0.6293068528175354,-0.3829329311847687,-0.4698477983474731,-0.4863932132720947,9.143421173095703,-0.3335063755512237,-3.364835500717163,0.1388272196054458,-0.2884502112865448,0.3139668703079223,0.3386954963207245,-0.6812999248504639,-0.4556498825550079,-0.46205934882164
1668794,9.470137596130373,-0.2353929579257965,2.636491060256958,0.0783044174313545,-0.3493187725543976,0.027411988005042,0.6293346881866455,-0.382931649684906,-0.46961110830307,-0.4865869581699371,9.164663314819336,-0.3376762866973877,-3.373847723007202,-0.0899646133184433,0.0519361570477485,0.30429807305336,0.3383997976779938,-0.6813315153121948,-0.4557431638240814,-0.4621375799179077
1668961,9.490324020385742,-0.2149407118558883,2.6329503059387207,0.499979019165039,-0.0727144479751586,0.1346395462751388,0.6293485164642334,-0.3829113245010376,-0.4694256484508514,-0.4867638349533081,9.176429748535156,-0.3570342361927032,-3.3716518878936768,-0.3634825944900512,0.5741022825241089,0.1590228378772735,0.3382658064365387,-0.6812053918838501,-0.4559604525566101,-0.4622074663639068
1669127,9.466038703918455,-0.2301608771085739,2.6655077934265137,0.6336773633956909,0.2411627769470214,0.1256366968154907,0.6294164657592773,-0.3827897310256958,-0.469340056180954,-0.4868540465831756,9.169888496398926,-0.3401258885860443,-3.3660013675689697,-0.5320141911506653,0.930054783821106,0.2111447155475616,0.3381444215774536,-0.6811285614967346,-0.4560169279575348,-0.4623536765575409
1669294,9.453965187072754,-0.2316631376743316,2.6611452102661133,0.7704876661300659,-0.0865709260106086,0.2080071568489074,0.6294474601745605,-0.3827107548713684,-0.469265729188919,-0.486947625875473,9.129107475280762,-0.341794341802597,-3.332512140274048,-0.5523890852928162,1.2979556322097778,0.2748306691646576,0.3380784392356872,-0.6810304522514343,-0.4560286104679107,-0.4625351130962372
1669461,9.48512840270996,-0.2194699347019195,2.6586391925811768,0.9799739122390748,-0.0317981652915477,0.2948725819587707,0.629440426826477,-0.3826764523983001,-0.4691550731658935,-0.4870903491973877,9.138731956481934,-0.3607566356658935,-3.3197803497314453,-0.5205013751983643,1.3912371397018433,0.3748226463794708,0.3380567729473114,-0.6809295415878296,-0.456001341342926,-0.4627261757850647
1669627,9.446209907531738,-0.2265187203884124,2.655160903930664,1.0747665166854858,0.3651154339313507,0.3267731964588165,0.6295537352561951,-0.382520318031311,-0.4691038131713867,-0.4871159493923187,9.179779052734377,-0.3640367984771728,-3.331350088119507,-0.5151994824409485,1.5146775245666504,0.1675006598234176,0.3379871249198913,-0.6808830499649048,-0.4558490812778473,-0.4629954993724823
1669794,9.458221435546877,-0.2269376814365387,2.672398090362549,0.9704331755638124,0.3274135887622833,0.27968430519104,0.6295221447944641,-0.3825052678585052,-0.4689557254314422,-0.4873110949993133,9.17729377746582,-0.3752795755863189,-3.294724941253662,-0.3118730187416076,1.9269009828567505,0.2169587612152099,0.3380396366119385,-0.6807569265365601,-0.4557381570339203,-0.4632515907287597
1669961,9.466835021972656,-0.2288665920495987,2.685081243515014,1.114863038063049,0.6815987229347229,0.3846835196018219,0.629642128944397,-0.3823550343513489,-0.4688690602779388,-0.4873574078083038,9.079789161682127,-0.3951617181301117,-3.3073534965515137,0.1089116111397743,1.7233953475952148,0.2299060076475143,0.3381862640380859,-0.6805846095085144,-0.4557004272937774,-0.4634348750114441
1670127,9.42965316772461,-0.239891842007637,2.6168713569641118,1.1457394361495972,0.1650290340185165,0.3753989636898041,0.6297266483306885,-0.3822432458400726,-0.4688300490379333,-0.4873735010623932,9.121519088745115,-0.3995436728000641,-3.314697504043579,0.5204947590827942,1.0432114601135254,0.4588194489479065,0.3382909893989563,-0.6805320382118225,-0.4555921256542206,-0.4635421931743622
1670294,9.449593544006348,-0.2917032837867737,2.5593440532684326,1.4624274969100952,-0.4388608038425445,0.48349729180336,0.6298052668571472,-0.3821519017219543,-0.4688898026943207,-0.4872860610485077,9.126924514770508,-0.3526157736778259,-3.294341325759888,0.8637818694114685,0.731850802898407,0.3418078422546386,0.3384524583816528,-0.6804441809654236,-0.4555859863758087,-0.4635591208934784
1670461,9.54751968383789,-0.215931087732315,2.658364772796631,1.2040849924087524,-0.224098265171051,0.2217227220535278,0.6298501491546631,-0.3820900022983551,-0.4689345955848694,-0.487233430147171,9.17269515991211,-0.3373817503452301,-3.29243278503418,0.6752851009368896,0.6029036641120911,-0.0413516983389854,0.3385680317878723,-0.6803392767906189,-0.4556238353252411,-0.463591605424881
1670627,9.517677307128906,-0.1609944999217987,2.6459081172943115,0.890303909778595,0.7042532563209534,-0.0238326173275709,0.6298786401748657,-0.3820110559463501,-0.4688630700111389,-0.4873273968696594,9.173619270324709,-0.3221447467803955,-3.2902464866638184,0.5979732275009155,0.4902590811252594,-0.044220320880413,0.3386173248291015,-0.6802887916564941,-0.4555922746658325,-0.4636606276035309
1670794,9.411229133605955,-0.1984651982784271,2.6378426551818848,0.7634056806564331,0.0671757087111473,-0.1222493946552276,0.6298794150352478,-0.3819357752799988,-0.4688909649848938,-0.4873585999011993,9.143829345703123,-0.3141483664512634,-3.28802227973938,0.34933802485466,0.5498470067977905,0.2324544787406921,0.3387215435504913,-0.6802008748054504,-0.4556055665016174,-0.4637004733085632
1670961,9.450264930725098,-0.2464265376329422,2.6537914276123047,0.8051031827926636,-0.2665001451969147,0.3156573176383972,0.629907488822937,-0.3818906545639038,-0.4689445495605469,-0.487306147813797,9.13344383239746,-0.2882637679576874,-3.281230926513672,0.0754357948899269,0.3329458832740783,0.2558900713920593,0.338774710893631,-0.6801465153694153,-0.4556028842926025,-0.4637439548969269
1671127,9.48889446258545,-0.2272529304027557,2.6521565914154053,0.7758791446685791,-0.6375384330749512,0.360940545797348,0.6299164891242981,-0.381880521774292,-0.4690247476100921,-0.4872253537178039,9.13764190673828,-0.2720385193824768,-3.262516736984253,-0.4487216770648956,0.0267460606992244,0.2940786182880401,0.3387318551540375,-0.6801574230194092,-0.4555523991584778,-0.463808923959732
1671294,9.501442909240724,-0.1573566943407058,2.649418830871582,0.5482333302497864,-0.3581295609474182,-0.0030863299034535,0.6298633813858032,-0.3818898200988769,-0.4690501689910888,-0.4872620403766632,9.137099266052246,-0.2912554740905761,-3.2714216709136963,-0.8385341763496399,0.0162704680114984,0.4520321786403656,0.3386577665805816,-0.6801913976669312,-0.4554685056209564,-0.4638955295085907
1671461,9.426596641540527,-0.1502400487661361,2.651310682296753,0.3158366084098816,0.1030462905764579,0.0357873439788818,0.6298768520355225,-0.381837397813797,-0.4690605103969574,-0.4872758090496063,9.149266242980955,-0.3092907965183258,-3.249314546585083,-1.0987335443496704,-0.0296595059335231,0.4828570187091827,0.3385386168956756,-0.6802577972412109,-0.4553444981575012,-0.4640069603919983
1671627,9.425631523132324,-0.2139968872070312,2.660672903060913,0.2235540300607681,-0.6063421964645386,0.1372136324644088,0.6298201084136963,-0.3818657100200653,-0.4691099524497986,-0.4872793853282928,9.12841510772705,-0.3347679078578949,-3.268838167190552,-1.109055519104004,-0.103654608130455,0.6430900692939758,0.3384027183055877,-0.6803617477416992,-0.455171674489975,-0.4641233086585998
1671794,9.475438117980955,-0.2442544251680374,2.6248044967651367,0.4537353515625,-0.7424224615097046,0.3220604658126831,0.6297680735588074,-0.38190957903862,-0.4691638946533203,-0.4872602224349975,9.10752010345459,-0.3705287873744964,-3.280464172363281,-0.8378810286521912,-0.4604523479938507,0.8265026211738586,0.3383136987686157,-0.6804620623588562,-0.4550570249557495,-0.4641534984111786
1671961,9.463016510009766,-0.2247539013624191,2.602820873260498,0.3960811793804168,-0.5331283211708069,0.3576621413230896,0.6297470331192017,-0.3819359838962555,-0.4692054092884063,-0.4872267842292785,9.123974800109863,-0.356207400560379,-3.3128700256347656,-0.5091292858123779,-0.7445099949836731,0.7799772024154663,0.3382706940174103,-0.6805357336997986,-0.4550260603427887,-0.4641070663928985
1672127,9.452083587646484,-0.2073592245578766,2.6197292804718018,0.0331108160316944,-0.1157822087407112,0.0394499599933624,0.6296955347061157,-0.3819631338119507,-0.4691909253597259,-0.4872861206531524,9.190336227416992,-0.3547400534152984,-3.3036184310913086,-0.3418014645576477,-0.750042200088501,0.5989465713500977,0.3382279574871063,-0.6805983781814575,-0.4550171494483948,-0.4640550911426544
1672294,9.46445369720459,-0.207205593585968,2.6717700958251958,-0.0965726822614669,0.0175895206630229,-0.0408010296523571,0.6296646595001221,-0.3819644451141357,-0.4691802561283111,-0.4873353242874145,9.20834732055664,-0.3409949541091919,-3.298943996429444,-0.2126494348049163,-0.3387791812419891,0.2705661654472351,0.3381699919700622,-0.680641233921051,-0.4549762010574341,-0.4640744626522064
1672461,9.469157218933104,-0.2014119923114776,2.6889002323150635,-0.213545873761177,0.066343292593956,-0.0241143573075532,0.629566490650177,-0.3820374608039856,-0.4691012799739837,-0.4874807298183441,9.214259147644045,-0.341223806142807,-3.306403875350952,-0.065786212682724,0.0295122303068637,0.0234548281878232,0.3381620347499847,-0.6806104779243469,-0.4549892842769623,-0.4641127288341522
1672627,9.4528169631958,-0.2079135328531265,2.674023151397705,-0.1168195158243179,-0.2999887466430664,0.026387482881546,0.6294685006141663,-0.3821156024932861,-0.4690687656402588,-0.4875774681568146,9.147143363952637,-0.3477717638015747,-3.304708480834961,0.0836318805813789,0.4214634299278259,0.1231138557195663,0.3382079601287842,-0.680547833442688,-0.4549906849861145,-0.464169830083847
1672794,9.487985610961914,-0.2169076949357986,2.693681478500366,0.7107588052749634,-0.1912500262260437,0.2664681077003479,0.6295139193534851,-0.3820569217205047,-0.4691261351108551,-0.4875094890594482,9.128373146057127,-0.3610610365867615,-3.302427053451538,0.4039826989173889,0.0903808027505874,0.4326561093330383,0.3382742702960968,-0.680524468421936,-0.4549833834171295,-0.4641628265380859
1672961,9.467190742492676,-0.268461138010025,2.6021664142608643,0.9377513527870178,-0.4448541402816772,0.6368533372879028,0.6294565796852112,-0.3821417391300201,-0.4691012501716614,-0.4875409603118896,9.158596992492676,-0.3481616973876953,-3.303375005722046,0.7240517735481262,0.1519281268119812,0.8509883284568787,0.3384013772010803,-0.6805154085159302,-0.4549461007118225,-0.4641200304031372
1673127,9.467965126037598,-0.2354300767183303,2.6781985759735107,0.6882580518722534,-0.5134705901145935,0.3327793776988983,0.6294634342193604,-0.3821384608745575,-0.4691634774208069,-0.4874747693538666,9.133705139160156,-0.3060518205165863,-3.302030324935913,0.6033263206481934,0.1575629264116287,0.5545469522476196,0.338499516248703,-0.6804913282394409,-0.4549328684806824,-0.4640969038009643
1673294,9.49459457397461,-0.2025173604488372,2.683896780014038,0.1772719174623489,0.1171973198652267,0.1428740471601486,0.6293955445289612,-0.3821993470191955,-0.4690794646739959,-0.4875957071781158,9.15489387512207,-0.3109261989593506,-3.26843523979187,0.4242039620876312,0.1322831958532333,0.3987065255641937,0.3385707437992096,-0.6804628968238831,-0.45493283867836,-0.4640865921974182
1673461,9.398043632507324,-0.1766038388013839,2.6382181644439697,0.5041283369064331,-0.2693687677383423,0.1835470050573349,0.6293913722038269,-0.3821934461593628,-0.4691048562526703,-0.4875810742378235,9.128483772277832,-0.3142306208610534,-3.276607036590576,0.2478604912757873,-0.0354223623871803,0.3424738347530365,0.3385998606681824,-0.6804594397544861,-0.4549209177494049,-0.4640820920467376
1673627,9.454598426818848,-0.1982009559869766,2.637481451034546,0.4656324684619903,-0.5504809021949768,0.2570170164108276,0.6293442845344543,-0.3822401165962219,-0.4691298305988312,-0.4875812232494354,9.108024597167969,-0.3313677906990051,-3.290217876434326,0.0906753540039062,-0.2949430346488952,0.4350892901420593,0.338606983423233,-0.6804823279380798,-0.4549100995063782,-0.4640539884567261
1673794,9.50938606262207,-0.2383168190717697,2.600933790206909,0.7327473163604736,-0.7251212000846863,0.2532391548156738,0.6293087005615234,-0.3822658360004425,-0.4691979587078094,-0.4875414967536926,9.096916198730469,-0.3158327341079712,-3.304175853729248,-0.0200291294604539,-0.6789414286613464,0.4799627363681793,0.3386329710483551,-0.6804887652397156,-0.4549837410449981,-0.4639532566070556
1673961,9.483386039733888,-0.1996882557868957,2.595571994781494,0.4493940770626068,-0.4541772305965423,0.2435703873634338,0.6293135285377502,-0.3822624981403351,-0.4692539572715759,-0.4874839186668396,9.111952781677246,-0.2834101915359497,-3.3045220375061035,-0.3692582547664642,-1.027978539466858,0.4422352612018585,0.338563472032547,-0.6805680990219116,-0.4550053775310516,-0.4638663828372955
1674127,9.432793617248535,-0.1546209007501602,2.6101162433624268,0.062706284224987,-0.3060589432716369,0.0379388108849525,0.6292800307273865,-0.3822819888591766,-0.4692736864089966,-0.4874928891658783,9.118611335754396,-0.2938247621059418,-3.3022332191467285,-0.7039906978607178,-1.0948147773742676,0.3060141503810882,0.3384529054164886,-0.680651843547821,-0.4550342559814453,-0.4637959599494934
1674294,9.46425724029541,-0.1877687573432922,2.612161874771118,-0.2010212540626526,-0.6032431125640869,-0.0463077612221241,0.6292120814323425,-0.3823323845863342,-0.469314843416214,-0.4875016510486603,9.121676445007324,-0.3285739421844482,-3.3329432010650635,-0.8570137023925781,-1.310191988945007,0.2643294334411621,0.3382880687713623,-0.6807754039764404,-0.4550378620624542,-0.4637313783168793
1674461,9.49648094177246,-0.2307871580123901,2.610702514648437,0.1246890127658844,-0.4874480962753296,0.0895483940839767,0.6291185617446899,-0.3824126422405243,-0.4693144261837005,-0.4875599443912506,9.161093711853027,-0.3321571946144104,-3.333807945251465,-0.9547390341758728,-1.2447131872177124,0.4347948133945465,0.3381382822990417,-0.6809026002883911,-0.455028772354126,-0.4636626839637756
1674627,9.472271919250488,-0.2050990611314773,2.6400957107543945,0.4739309847354889,-0.0230002030730247,0.1695496588945388,0.6291508674621582,-0.3823683261871338,-0.469346284866333,-0.4875220656394958,9.176437377929688,-0.332844465970993,-3.3350636959075928,-0.8916293382644653,-0.9699529409408568,0.5752933025360107,0.3379941880702972,-0.6810458898544312,-0.4549551010131836,-0.4636296033859253
1674794,9.454426765441896,-0.2024848610162735,2.6493079662323,0.2297395020723343,-0.2003040909767151,0.0767932683229446,0.6291636824607849,-0.3823406994342804,-0.4693918228149414,-0.4874833524227142,9.190688133239746,-0.3224235475063324,-3.326137065887451,-0.9499366283416748,-0.5334741473197937,0.5468631386756897,0.3379079401493072,-0.6811254620552063,-0.4549123346805572,-0.4636175632476806
1674961,9.496452331542969,-0.1890669763088226,2.6462714672088623,0.0249403677880764,-0.2603659033775329,-0.0430037267506122,0.6290701627731323,-0.3824072182178497,-0.4693696498870849,-0.4875732064247131,9.182534217834473,-0.3236916363239288,-3.3363711833953857,-0.9513965845108032,-0.0797579512000083,0.4257407188415527,0.3378581702709198,-0.6811522245407104,-0.4548805952072143,-0.463645726442337
1675127,9.477460861206056,-0.1919667720794677,2.665769100189209,-0.1681217402219772,0.2206341922283172,-0.1132209375500679,0.6290030479431152,-0.3824433982372284,-0.4693009257316589,-0.4876975119113922,9.196800231933594,-0.3198520839214325,-3.3619704246521,-1.0186554193496704,0.3956201374530792,0.2945396304130554,0.3377802670001983,-0.6811850666999817,-0.4547690153121948,-0.4637634754180908
1675294,9.44337272644043,-0.2129416912794113,2.6516683101654053,0.0522819235920906,0.0151563147082924,-0.0787590444087982,0.6289910078048706,-0.3824236690998077,-0.469306617975235,-0.4877231121063232,9.169475555419922,-0.3384986519813537,-3.3287899494171143,-0.9020408987998962,0.6367893815040588,0.261230319738388,0.3377496004104614,-0.6811725497245789,-0.4546898007392883,-0.4638819694519043
1675461,9.485206604003906,-0.2155806124210357,2.6881749629974365,0.1440522074699401,-0.2149801850318908,-0.0221805963665246,0.6289700269699097,-0.3824185132980346,-0.4693337380886078,-0.4877280294895172,9.144142150878906,-0.3357622623443603,-3.3272745609283447,-0.6352718472480774,0.86894291639328,0.268286645412445,0.3377743363380432,-0.6811196804046631,-0.454634815454483,-0.4639955163002014
1675627,9.492767333984377,-0.2204946428537368,2.655069351196289,0.2830907702445984,-0.0626998916268348,0.0644351541996002,0.6289408802986145,-0.3824276626110077,-0.46932452917099,-0.4877672791481018,9.13344955444336,-0.3349121809005737,-3.327847957611084,-0.3302885591983795,0.7201970815658569,0.4244600236415863,0.3378296196460724,-0.6810731291770935,-0.4545912742614746,-0.4640661478042602
1675794,9.487227439880373,-0.206547349691391,2.6337978839874268,0.4631096124649048,-0.0664265304803848,0.2569017708301544,0.6289659142494202,-0.3824049234390259,-0.4693410098552704,-0.4877369701862335,9.127901077270508,-0.3186973035335541,-3.3046443462371826,-0.1492964327335357,0.684019148349762,0.4452959895133972,0.337896853685379,-0.6810272336006165,-0.45455202460289,-0.4641230702400207
1675961,9.476716995239258,-0.2022309452295303,2.6492578983306885,0.4830106496810913,0.2876497805118561,0.2381020188331604,0.6289641261100769,-0.382403016090393,-0.4692880511283874,-0.4877917766571045,9.128131866455078,-0.3252006769180298,-3.2956502437591557,0.1064527779817581,0.6975809931755066,0.5679807662963867,0.3379994034767151,-0.6809751987457275,-0.4545181691646576,-0.4641576111316681
1676127,9.439913749694824,-0.1991732865571975,2.6490254402160645,0.3674845993518829,0.1213849782943725,0.3100865483283996,0.6289592981338501,-0.3824194669723511,-0.4692452847957611,-0.4878262877464294,9.1373291015625,-0.3256292045116424,-3.2976207733154297,0.303849846124649,0.6373656392097473,0.6925097107887268,0.3380837738513946,-0.6809676289558411,-0.4544257521629333,-0.4641979336738586
1676294,9.462072372436523,-0.2128882408142089,2.620816707611084,0.302889347076416,-0.3397268652915954,0.4772605895996094,0.6289387345314026,-0.3824787437915802,-0.4692362844944,-0.4878150224685669,9.135387420654297,-0.3123509585857391,-3.29087233543396,0.3872447907924652,0.4105651676654815,0.6582655906677246,0.3381799459457397,-0.6809487342834473,-0.4543837010860443,-0.4641968011856079
1676461,9.465906143188477,-0.1944348216056823,2.6279008388519287,0.4691285490989685,-0.0945492759346962,0.4136130809783935,0.6289477944374084,-0.382493793964386,-0.4692268073558807,-0.4878006875514984,9.160552024841309,-0.3229110538959503,-3.2661590576171875,0.4986472427845001,0.2194560170173645,0.8014278411865234,0.3382891714572906,-0.680941641330719,-0.4543518126010895,-0.4641587734222412
1676627,9.471732139587402,-0.1871285885572433,2.644155263900757,0.3431781232357025,0.0210088174790143,0.4128446877002716,0.6288705468177795,-0.3825957179069519,-0.4691300392150879,-0.4879133701324463,9.17805290222168,-0.3126258850097656,-3.281583070755005,0.6274023056030273,0.7205941081047058,0.7607548236846924,0.338457703590393,-0.680875837802887,-0.4543307423591614,-0.4641530811786651
1676794,9.465444564819336,-0.1779946833848953,2.685481548309326,0.4222061336040497,0.2059068828821182,0.3663064241409302,0.6289045214653015,-0.382580041885376,-0.4691012799739837,-0.4879095256328583,9.065152168273926,-0.3279712796211242,-3.284554481506348,0.6286060810089111,0.5220188498497009,0.8779969811439514,0.3385829329490661,-0.6808683276176453,-0.4542514383792877,-0.4641503393650055
1676961,9.41278839111328,-0.21513032913208,2.625408172607422,0.2197505682706833,-0.1655092686414718,0.6019432544708252,0.6289090514183044,-0.3826338648796081,-0.4690708518028259,-0.4878906309604645,9.088250160217283,-0.3329538702964782,-3.2918028831481934,0.6352781057357788,-0.183297261595726,0.9278263449668884,0.3386758863925934,-0.6809016466140747,-0.4542176127433777,-0.4640668332576751
1677127,9.413284301757812,-0.2488805055618286,2.5770063400268555,0.6620178818702698,-0.9060108661651612,0.7025628089904785,0.6289029121398926,-0.3826994001865387,-0.4691399931907654,-0.4877806901931762,9.12283420562744,-0.312193900346756,-3.294180154800415,0.4796042144298553,-0.5646063089370728,0.7298530340194702,0.3387407064437866,-0.6809300780296326,-0.454249769449234,-0.4639462232589721
1677294,9.520047187805176,-0.187449499964714,2.6235556602478027,0.7774158716201782,-0.9728344082832336,0.4813074767589569,0.6288770437240601,-0.3827509582042694,-0.469231367111206,-0.4876857101917267,9.19735336303711,-0.2843871116638183,-3.303356647491455,0.1060685738921165,-0.6873679757118225,0.336313933134079,0.3386785984039306,-0.6810131072998047,-0.4542211592197418,-0.463897705078125
1677461,9.525403022766112,-0.1357242166996002,2.656889677047729,0.1744288653135299,0.1102690696716308,0.1299780309200287,0.6288860440254211,-0.3827377557754516,-0.4692167341709137,-0.4876985251903534,9.23608112335205,-0.2982449531555176,-3.3035500049591064,-0.1203924939036369,-0.1600537449121475,0.2020521759986877,0.3386377096176147,-0.6810442805290222,-0.4541922509670257,-0.4639102220535278
1677627,9.446222305297852,-0.1558582633733749,2.643983125686645,0.3149657845497131,-0.0963933914899826,0.1872096508741378,0.6288498044013977,-0.3827701807022095,-0.4691950976848602,-0.487740695476532,9.211373329162598,-0.3105578422546386,-3.309733390808105,-0.2838143408298492,0.3164769113063812,0.3161567747592926,0.3386280536651611,-0.6810501217842102,-0.4541300535202026,-0.4639695882797241
1677794,9.456161499023438,-0.2179329991340637,2.692814826965332,0.916915476322174,-0.4205861687660217,0.7241671085357666,0.6288994550704956,-0.3827713131904602,-0.46924489736557,-0.4876279830932617,9.17979907989502,-0.3013200163841247,-3.306073904037476,-0.390516847372055,0.6465349793434143,0.5407034158706665,0.3386872410774231,-0.681011974811554,-0.4540847837924957,-0.4640268385410309
1677961,9.483205795288086,-0.2154817283153534,2.698049306869507,1.1292064189910889,-0.9565958380699158,0.7240774631500244,0.6288499236106873,-0.3828626573085785,-0.4692990183830261,-0.4875679016113281,9.14122200012207,-0.2921929657459259,-3.278831958770752,-0.4414733350276947,0.8312666416168213,0.6171829104423523,0.3387434482574463,-0.6809829473495483,-0.4539981186389923,-0.4641129970550537
1678127,9.493587493896484,-0.1533051431179046,2.672520875930786,0.764583945274353,-0.7662807106971741,0.3826473355293274,0.6287912130355835,-0.3829295039176941,-0.4693449437618255,-0.4875468909740448,9.15845012664795,-0.2910655438899994,-3.2810778617858887,-0.7151449918746948,0.8775871992111206,0.7930524349212646,0.3387251794338226,-0.6810365319252014,-0.4537822008132934,-0.4642589390277862
1678294,9.447656631469728,-0.1415963470935821,2.684401273727417,0.4233715534210205,-0.2770782113075256,0.2512670159339905,0.6288003921508789,-0.3829224407672882,-0.4693788588047027,-0.4875079691410064,9.129318237304688,-0.3099322319030761,-3.2771806716918945,-0.6777120232582092,0.9827401041984558,0.786636471748352,0.3387750089168548,-0.6810234189033508,-0.4536498785018921,-0.4643710851669311
1678461,9.426764488220217,-0.183824211359024,2.6630656719207764,-0.231948584318161,-0.7101376056671143,0.3035168945789337,0.6286983489990234,-0.383055180311203,-0.469364732503891,-0.4875487685203552,9.10836696624756,-0.3201517164707184,-3.255073547363281,-0.6763674020767212,0.635944128036499,0.7581551671028137,0.3387917876243591,-0.6810396313667297,-0.4535256922245025,-0.4644563198089599
1678628,9.462686538696287,-0.1933457553386688,2.6489791870117188,-0.1441226452589035,-1.0480972528457642,0.4439769089221954,0.6285814642906189,-0.3832197189331054,-0.4693741798400879,-0.4875611364841461,9.095247268676758,-0.3361006677150726,-3.280958890914917,-0.5052745342254639,0.3294369280338287,0.9869020581245422,0.338824987411499,-0.6810790300369263,-0.4534115195274353,-0.464485764503479
1678794,9.46096897125244,-0.2006214559078216,2.5832109451293945,0.2189181298017501,-0.9582863450050354,0.4958042502403259,0.6285365223884583,-0.3833078444004059,-0.4694308638572693,-0.4874952733516693,9.118368148803713,-0.3316124379634857,-3.268136501312256,-0.3344121873378753,-0.0684243217110633,1.1065006256103516,0.3388293087482452,-0.6811720728874207,-0.4532760083675384,-0.4644785523414612
1678961,9.459107398986816,-0.1769757717847824,2.595622062683105,0.0595559291541576,-0.4610029757022857,0.5006193518638611,0.6285060048103333,-0.3833862543106079,-0.4694227278232574,-0.4874807894229889,9.146251678466797,-0.335670530796051,-3.2815704345703125,-0.1958859115839004,-0.4165520966053009,1.092746615409851,0.3388566374778747,-0.6812485456466675,-0.4532169699668884,-0.4644041359424591
1679128,9.44057559967041,-0.1895783245563507,2.6288163661956787,-0.1170756444334983,-0.3684514760971069,0.432169497013092,0.6284794807434082,-0.3834572732448578,-0.4694080650806427,-0.4874732196331024,9.182661056518556,-0.3420334458351135,-3.267866849899292,0.0244921427220106,-0.2900125980377197,0.9601880311965942,0.3388960659503937,-0.681306004524231,-0.4531657099723816,-0.46434086561203
1679294,9.47109031677246,-0.2068711072206497,2.638344049453736,-0.2234707921743393,-0.7845041155815125,0.5099039077758789,0.6284395456314087,-0.3835577964782715,-0.4694316983222961,-0.4874228537082672,9.210439682006836,-0.3151400089263916,-3.294008016586304,0.1549504250288009,-0.1080343648791313,0.8484782576560974,0.3389531075954437,-0.6813370585441589,-0.4531255066394806,-0.4642928838729858
1679461,9.510354042053224,-0.204414427280426,2.639996290206909,-0.0561174228787422,-0.7866940498352051,0.5564166903495789,0.6284166574478149,-0.3836419880390167,-0.4694681763648987,-0.4873509705066681,9.141010284423828,-0.3426772952079773,-3.276064872741699,0.2171636670827865,0.251715213060379,0.8552272319793701,0.3390395045280456,-0.681341826915741,-0.4530698657035827,-0.4642770886421203
1679628,9.461846351623535,-0.1919735670089721,2.63948917388916,0.0923914164304733,-0.6773535013198853,0.7018712162971497,0.6283696889877319,-0.3837630450725555,-0.4694575369358063,-0.4873264729976654,9.114180564880373,-0.3580377697944641,-3.31593656539917,0.4643518626689911,-0.3015895783901214,1.1362371444702148,0.3391497135162353,-0.6813739538192749,-0.4530550241470337,-0.4641640186309814
1679794,9.445184707641602,-0.2475010156631469,2.5539236068725586,0.1262129843235016,-1.405676245689392,0.7393425703048706,0.628294050693512,-0.3839190602302551,-0.4695266187191009,-0.4872346222400665,9.16312313079834,-0.331057608127594,-3.308204174041748,0.5266931653022766,-0.3893643021583557,1.1475449800491333,0.3392439186573028,-0.6814267039299011,-0.4530224800109863,-0.464049369096756
1679961,9.506497383117676,-0.2080563157796859,2.639366626739502,0.0025676731020212,-1.2891126871109009,0.5276280641555786,0.6282280683517456,-0.384041428565979,-0.469607263803482,-0.4871456325054168,9.113042831420898,-0.3240474760532379,-3.282044649124145,0.393596738576889,-0.5377642512321472,0.6500055193901062,0.3392976522445678,-0.6814472675323486,-0.4530621170997619,-0.4639413058757782
1680128,9.50121021270752,-0.1775586903095245,2.5892205238342285,-0.0759928748011589,-0.705040693283081,0.2755221724510193,0.628080427646637,-0.3842081129550934,-0.4695643484592438,-0.4872458279132843,9.143757820129396,-0.3346625864505768,-3.307297706604004,0.2487825751304626,-0.7734267711639404,0.636533260345459,0.3392995297908783,-0.6815100908279419,-0.4530747234821319,-0.4638353586196899
1680294,9.442497253417969,-0.1546399742364883,2.57856559753418,0.1042629033327102,-1.2426129579544067,0.3778577744960785,0.6279944777488708,-0.3843249380588531,-0.4696424305438995,-0.487189382314682,9.145952224731444,-0.3319346904754638,-3.329359531402588,0.1540411710739135,-0.9616671800613404,0.611368715763092,0.3392790257930755,-0.6815874576568604,-0.4530947506427765,-0.4637171328067779
1680461,9.47557258605957,-0.2307017296552658,2.6103415489196777,0.2379996180534362,-1.080407738685608,0.7016662359237671,0.6278937458992004,-0.3844935595989227,-0.4696535170078277,-0.4871753454208374,9.14932632446289,-0.330919086933136,-3.310328483581543,0.1430277079343795,-0.8930379748344421,0.8139010667800903,0.3392617702484131,-0.68168705701828,-0.4530715346336365,-0.4636059999465942
1680628,9.513101577758787,-0.2648906111717224,2.576017141342163,0.6911394596099854,-1.2598501443862915,0.7861114144325256,0.6278918385505676,-0.3845625519752502,-0.4697712361812591,-0.4870098829269409,9.131874084472656,-0.3300567269325256,-3.320406675338745,0.1907313764095306,-0.92545086145401,0.8248249292373657,0.339239627122879,-0.6817948818206787,-0.4530406296253204,-0.4634937644004822
1680794,9.495953559875488,-0.2021380364894867,2.586872100830078,0.8219179511070251,-1.0234066247940063,0.6997326016426086,0.6278200149536133,-0.3846819996833801,-0.4698123633861542,-0.4869684875011444,9.162242889404297,-0.314331978559494,-3.307694911956787,-0.0331812500953674,-0.7472504377365112,0.8197663426399231,0.3392459154129028,-0.6818628311157227,-0.4530450999736786,-0.4633850157260895
1680961,9.46206760406494,-0.1617665141820907,2.596007823944092,0.136573314666748,-0.8973408937454224,0.6478796005249023,0.6278096437454224,-0.384759783744812,-0.4698716998100281,-0.4868631660938263,9.145078659057615,-0.3031702935695648,-3.310523748397827,-0.2724038660526275,-0.4822359085083008,0.6596102118492126,0.3391954302787781,-0.6819522380828857,-0.4529785215854645,-0.4633553028106689
1681128,9.457913398742676,-0.1953950226306915,2.605938673019409,-0.4910466372966766,-0.9232096672058104,0.3933022022247314,0.627681314945221,-0.3849391639232635,-0.4698539078235626,-0.4869037866592407,9.13776397705078,-0.3189368844032287,-3.3215420246124268,-0.4136322736740112,-0.4070882499217987,0.6001887917518616,0.3391571342945099,-0.6820143461227417,-0.4529430568218231,-0.4633266925811767
1681294,9.467913627624512,-0.2050057649612426,2.596926212310791,-0.1882149279117584,-1.151879906654358,0.5152570605278015,0.6275753378868103,-0.3851030766963959,-0.4698815941810608,-0.48688405752182,9.161274909973145,-0.3474986255168915,-3.337512731552124,-0.4612078368663788,-0.2698297798633575,0.6658596992492676,0.3391331136226654,-0.6820676922798157,-0.4529004991054535,-0.4633071720600128
1681461,9.495279312133787,-0.2285012304782867,2.5761961936950684,0.4540298879146576,-0.9901742339134216,0.7561957836151123,0.6275011897087097,-0.3852446377277374,-0.4699006676673889,-0.486849308013916,9.16327667236328,-0.3789635300636291,-3.335356950759888,-0.2299123853445053,-0.123069018125534,0.6687795519828796,0.3391146063804626,-0.6821269989013672,-0.4528256058692932,-0.463306725025177
1681628,9.496450424194336,-0.222028374671936,2.587044715881348,0.6362258195877075,-0.8897210955619812,0.8167697191238403,0.627455472946167,-0.3853599429130554,-0.4699257314205169,-0.4867928028106689,9.15756893157959,-0.3600489795207977,-3.3514676094055176,0.0471465736627578,0.0812626853585243,0.6902686357498169,0.3391498029232025,-0.6821491718292236,-0.4527742862701416,-0.4632985591888428
1681794,9.504422187805176,-0.2176661938428878,2.593968152999878,0.198235884308815,-0.7247625589370728,0.4900286197662353,0.627406656742096,-0.3854487240314483,-0.4699496924877167,-0.4867622554302215,9.1536283493042,-0.3328268826007843,-3.330732822418213,0.0980390086770057,0.2093518078327179,0.6350476741790771,0.3392323553562164,-0.6821198463439941,-0.4527813494205475,-0.4632742404937744
1681961,9.478267669677734,-0.2147118300199508,2.582500457763672,-0.188099667429924,-0.7079222202301025,0.3810081481933594,0.6273104548454285,-0.3855828046798706,-0.4699354469776153,-0.4867937862873077,9.151375770568848,-0.3327803313732147,-3.345970630645752,0.1311050057411193,0.3233795166015625,0.5628454089164734,0.3392954170703888,-0.6821008920669556,-0.4527555704116821,-0.4632811248302459
1682128,9.510946273803713,-0.2414365410804748,2.588642835617065,-0.1675582826137542,-0.7927514314651489,0.4652866721153259,0.6272060871124268,-0.385735809803009,-0.4699181914329529,-0.4868237376213074,9.145627975463867,-0.3385631144046783,-3.336050748825073,0.1059405207633972,0.4393281936645508,0.6305910348892212,0.3393380045890808,-0.682108998298645,-0.4526718854904175,-0.4633196890354156
1682294,9.522706985473633,-0.2372205555438995,2.581885814666748,0.2063935399055481,-0.3086202442646026,0.6229584813117981,0.6271551847457886,-0.3858426809310913,-0.4698649048805237,-0.4868561625480652,9.151285171508787,-0.3579354286193847,-3.3075053691864014,0.066215232014656,0.3839151561260223,0.7203123569488525,0.339420884847641,-0.682087242603302,-0.4526427686214447,-0.4633197784423828
1682461,9.47299861907959,-0.2412718832492828,2.573629140853882,0.4715618789196014,-0.2716355323791504,0.7839856147766113,0.6271957159042358,-0.3858729898929596,-0.4698679447174072,-0.4867768585681915,9.19200325012207,-0.3372965157032013,-3.3115234375,0.1211160644888877,0.6742223501205444,0.7764682173728943,0.3395383059978485,-0.682041347026825,-0.4526055753231048,-0.4633376598358154
1682628,9.493118286132812,-0.2214493453502655,2.6296815872192383,0.1982999294996261,-0.1565576493740081,0.5500263571739197,0.627189576625824,-0.3859263956546783,-0.4698360562324524,-0.4867734014987945,9.207107543945312,-0.3309055268764496,-3.305819511413574,0.1333461254835128,1.0013606548309326,0.8809808492660522,0.3396752774715423,-0.6819887161254883,-0.4525288045406341,-0.4633895754814148
1682794,9.489262580871582,-0.1931294947862625,2.629331350326538,-0.0716643333435058,0.2938224971294403,0.4474730491638183,0.6271696090698242,-0.3859868049621582,-0.4697314202785492,-0.4868521690368652,9.174028396606444,-0.3359965980052948,-3.289416551589966,0.0234036017209291,1.3311623334884644,0.8007490038871765,0.33980393409729,-0.6819272041320801,-0.4524161219596863,-0.4634958803653717
1683294,9.477532386779783,-0.2322550565004348,2.5507705211639404,0.4718306958675384,-0.4048599004745483,0.7683233618736267,0.6270623803138733,-0.3862972259521484,-0.4695717096328735,-0.4868978857994079,9.122076034545898,-0.3400949239730835,-3.2863986492156982,0.0123901413753628,1.4271843433380127,0.6364947557449341,0.339904248714447,-0.6818698644638062,-0.4522821307182312,-0.4636373221874237
1683461,9.485066413879396,-0.2205099463462829,2.571789264678955,0.759346067905426,-0.2026732712984085,0.6786532402038574,0.6270695924758911,-0.386334091424942,-0.4695560038089752,-0.4868747293949127,9.105243682861328,-0.3656797707080841,-3.258655071258545,0.1310281604528427,1.121407151222229,0.4624948501586914,0.3400090932846069,-0.6817912459373474,-0.4522258043289184,-0.4637310206890106
1683628,9.457009315490724,-0.2241853326559066,2.5906612873077397,0.4020489156246185,0.0325985662639141,0.6782563328742981,0.6270878911018372,-0.3863716125488281,-0.4695060551166534,-0.4868696331977844,9.12007999420166,-0.3742071688175201,-3.265899896621704,0.248500794172287,0.7118217349052429,0.3636170923709869,0.3401069939136505,-0.6817136406898499,-0.4522288143634796,-0.4637703001499176
1683794,9.42546558380127,-0.2423662543296814,2.511635065078736,0.590660810470581,-0.3633545339107513,0.7669530510902405,0.6270941495895386,-0.3864277601242065,-0.4694989025592804,-0.4868238866329193,9.103397369384766,-0.3614402413368225,-3.2509732246398926,0.4682193994522095,0.5896363854408264,0.4119354784488678,0.3402039706707001,-0.6816539168357849,-0.4522214829921722,-0.4637941420078277
1683961,9.4735689163208,-0.2522432208061218,2.5355019569396973,0.7586928606033325,-0.4887287020683288,0.6993098855018616,0.6270704865455627,-0.3864980041980743,-0.4694985747337341,-0.4867987632751465,9.090668678283691,-0.3536439836025238,-3.272311925888061,0.5434950590133667,-0.0131521206349134,0.4974818527698517,0.3402624428272247,-0.6816480159759521,-0.4522232413291931,-0.4637582004070282
1684128,9.51873779296875,-0.1994952857494354,2.611954927444458,0.4796938598155975,-0.1973074227571487,0.4937936067581177,0.6270284056663513,-0.3865671753883362,-0.4694572389125824,-0.4868379831314087,9.151761054992676,-0.3366498351097107,-3.306006908416748,0.5402806401252747,-0.2840960621833801,0.5485536456108093,0.340257316827774,-0.6817116141319275,-0.4521606862545013,-0.4637295603752136
1684294,9.497758865356444,-0.2238993942737579,2.6219675540924072,0.3836205899715423,0.2134754508733749,0.5570186376571655,0.6270495057106018,-0.3865847587585449,-0.4693971276283264,-0.4868548512458801,9.209473609924316,-0.3160687685012817,-3.2880687713623047,0.4858408570289612,-0.2680625021457672,0.3218171596527099,0.3403038084506988,-0.6816921830177307,-0.4522221982479095,-0.4636638462543487
1684461,9.456379890441896,-0.2669176757335663,2.6384541988372803,0.6867213249206543,-0.4528837502002716,0.9887077808380128,0.6270592212677002,-0.3866643011569977,-0.4693836271762848,-0.4867921471595764,9.23705768585205,-0.3467204570770263,-3.2829582691192627,0.417352557182312,0.2541868388652801,0.2705405652523041,0.3403557538986206,-0.6816547513008118,-0.4522319436073303,-0.4636711478233337
1684628,9.455560684204102,-0.2705344259738922,2.6137466430664062,0.8608747124671936,-0.2308344393968582,1.1453166007995603,0.6271030902862549,-0.3867246210575104,-0.4693512320518493,-0.4867189526557922,9.19204807281494,-0.3742161989212036,-3.282488822937012,0.4875953495502472,0.6211655735969543,0.5252331495285034,0.3404589593410492,-0.6816027164459229,-0.4522075653076172,-0.4636958241462707
1684794,9.461585998535156,-0.2286306023597717,2.61260724067688,0.7079285979270935,-0.3774287402629852,0.6092044115066528,0.627094566822052,-0.3867688775062561,-0.4693540632724762,-0.4866920113563537,9.133899688720703,-0.3618838787078857,-3.2786381244659424,0.554867148399353,0.7516239881515503,0.7702187895774841,0.3405830860137939,-0.6815645694732666,-0.4521416127681732,-0.4637251198291778
1684961,9.488189697265623,-0.1868174970149994,2.563443183898926,0.1517616361379623,0.1741727292537689,0.2938096225261688,0.6270818710327148,-0.3867916762828827,-0.4692940413951874,-0.4867481589317322,9.080968856811523,-0.3570690453052521,-3.265480756759644,0.5079702734947205,0.4552721977233886,0.5672765374183655,0.3406316041946411,-0.6815719604492188,-0.4520514607429504,-0.4637664258480072
1685128,9.435272216796877,-0.2042407691478729,2.588655471801758,0.0132737811654806,0.6391072869300842,0.376077651977539,0.6271148920059204,-0.3867833614349365,-0.4691909849643707,-0.4868116378784179,9.1217679977417,-0.3452077209949493,-3.252843141555786,0.5561478137969971,0.1410043090581894,0.4741743206977844,0.3406809866428375,-0.6815694570541382,-0.4520237445831299,-0.4637607634067535
1685294,9.455402374267578,-0.2435111105442047,2.5993876457214355,0.3068337142467499,0.56116783618927,0.460343450307846,0.6270793080329895,-0.3868423104286194,-0.4690418541431427,-0.4869540333747864,9.133411407470703,-0.3185649812221527,-3.26250958442688,0.2469512224197387,0.2207494527101516,0.2521890103816986,0.3407047092914581,-0.6815474629402161,-0.4520158171653747,-0.4637834429740906
1685461,9.44357204437256,-0.241896241903305,2.6304385662078857,0.8793929219245911,0.7118858695030212,0.6487120985984802,0.6271684169769287,-0.3867844343185425,-0.4689640700817108,-0.4869601726531982,9.149786949157717,-0.3366534113883972,-3.2629923820495605,0.0971681773662567,0.2234771996736526,0.2119002640247345,0.3407412469387054,-0.6814997792243958,-0.4520476460456848,-0.4637956321239471
1685628,9.441763877868652,-0.2287605106830597,2.6089627742767334,0.7597559094429016,0.7728696465492249,0.5566343665122986,0.6272152066230774,-0.3867591321468353,-0.4688500463962555,-0.487030029296875,9.16854476928711,-0.3500391840934753,-3.277429580688477,0.0374905876815319,0.4970720410346985,0.4460131227970123,0.3408020734786987,-0.6814547181129456,-0.4520344138145447,-0.4638300240039825
1685794,9.454437255859377,-0.2437620759010315,2.6260979175567627,0.0819030031561851,0.8406535387039185,0.3418206572532654,0.627250611782074,-0.3867393732070923,-0.4687240123748779,-0.4871214032173157,9.108771324157717,-0.3480508029460907,-3.2638792991638184,0.0512830205261707,0.4162767827510834,0.6735306978225708,0.3408588171005249,-0.6814444065093994,-0.4519803822040558,-0.4638560116291046
1685961,9.477295875549316,-0.2316992431879043,2.614419221878052,-0.0583329163491725,0.9334227442741394,0.3161439597606659,0.6272517442703247,-0.3867540061473846,-0.4685555696487427,-0.4872704148292541,9.112658500671388,-0.340333342552185,-3.259805917739868,-0.0607917383313179,0.0855912268161773,0.8220843076705933,0.3408531546592712,-0.6815095543861389,-0.4518631100654602,-0.4638789892196655
1686128,9.468774795532228,-0.2214655429124832,2.607980966567993,0.0466215163469314,1.0235154628753662,0.3404887914657593,0.627273440361023,-0.3867473006248474,-0.468390554189682,-0.4874064028263092,9.156122207641602,-0.340407133102417,-3.2794289588928223,-0.0715362727642059,-0.0379836373031139,0.9368165731430054,0.3408762514591217,-0.6815614104270935,-0.4517849087715149,-0.4638620316982269
1686294,9.49167823791504,-0.2340152114629745,2.6191656589508057,0.1011125221848487,1.1737723350524902,0.3298338949680328,0.6272968649864197,-0.3867343068122864,-0.4682075679302215,-0.4875622689723968,9.200116157531738,-0.3466883599758148,-3.282611131668091,-0.3090300261974334,-0.0606892853975296,0.6744399666786194,0.3408403992652893,-0.6816240549087524,-0.4516952931880951,-0.4638836085796356
1686461,9.458043098449709,-0.3093031048774719,2.5696403980255127,0.5076372623443604,0.7619200944900513,0.655128002166748,0.6273670792579651,-0.3867072761058807,-0.4680960476398468,-0.4876005351543426,9.154879570007324,-0.3832692801952362,-3.2665934562683105,-0.318173736333847,0.2667498290538788,0.5738844275474548,0.3408372104167938,-0.6816402673721313,-0.4516263902187347,-0.463929146528244
1686628,9.460427284240724,-0.2835822701454162,2.6277916431427,0.8883381485939026,0.6750099062919617,0.5345754623413086,0.6274350881576538,-0.3866529464721679,-0.4680184125900268,-0.4876307547092438,9.139094352722168,-0.4161954224109649,-3.272079467773437,0.0015943904872983,-0.0193888135254383,0.6093965172767639,0.340833306312561,-0.6816773414611816,-0.4515666365623474,-0.4639357626438141
1686794,9.494168281555176,-0.2560647130012512,2.66716742515564,0.3247242569923401,0.9616736769676208,0.2973698377609253,0.6274934411048889,-0.3865947723388672,-0.4679032862186432,-0.4877120554447174,9.202879905700684,-0.418306440114975,-3.2430362701416016,0.5079702734947205,0.0645888224244117,0.8113654255867004,0.3409105539321899,-0.681685745716095,-0.4515340626239776,-0.4638984203338623
1686961,9.447835922241213,-0.1979356855154037,2.610924482345581,0.3665369153022766,0.2781603038311004,-0.0695128664374351,0.6274641156196594,-0.3865733742713928,-0.4678592979907989,-0.4878089725971222,9.18716049194336,-0.3861482739448547,-3.264848470687866,0.8171796202659607,0.1377002894878387,0.5256430506706238,0.3410210013389587,-0.6816386580467224,-0.4515716135501861,-0.4638497829437256
1687128,9.468499183654783,-0.2271857261657714,2.621299266815185,0.0601834394037723,0.0073956665582954,0.1604187339544296,0.6274576187133789,-0.3865731358528137,-0.4678400158882141,-0.4878359735012054,9.175387382507324,-0.3654621243476867,-3.2722387313842773,0.865203320980072,0.120117150247097,0.2314299494028091,0.3411068618297577,-0.6815791726112366,-0.4516298174858093,-0.4638175070285797
1687294,9.480777740478516,-0.2634419798851013,2.582895517349243,0.888843834400177,-0.1208535134792327,0.3192046284675598,0.6274886131286621,-0.3865281045436859,-0.4678730070590973,-0.4878002405166626,9.122236251831056,-0.3368109166622162,-3.26496958732605,0.701704740524292,-0.1853463053703308,0.0713377743959426,0.3411648869514465,-0.6815184354782104,-0.4517375230789184,-0.4637589752674103
1687461,9.5051908493042,-0.2472692131996154,2.598426818847656,1.3803516626358032,-0.1646768450736999,0.3845298588275909,0.6275355815887451,-0.3864585757255554,-0.4679307341575622,-0.4877395331859588,9.117683410644531,-0.3302408456802368,-3.26552152633667,0.6107796430587769,-0.5546302199363708,-0.1332116425037384,0.3411393463611603,-0.6815084218978882,-0.4518245756626129,-0.4637076556682586
1687628,9.480051040649414,-0.2074773758649826,2.5882816314697266,1.416785717010498,0.0212905555963516,0.3671900629997253,0.6275832653045654,-0.386383980512619,-0.4679646790027618,-0.48770472407341,9.117834091186523,-0.3307346403598785,-3.266387701034546,0.3434982895851135,-1.072531819343567,-0.0260096974670887,0.341068834066391,-0.6815447807312012,-0.4519223570823669,-0.4636108577251434
1687794,9.45115089416504,-0.1987472772598266,2.567835092544556,1.028305172920227,-0.0592293739318847,0.2707582414150238,0.6275819540023804,-0.3863576352596283,-0.4679725766181946,-0.4877196848392486,9.11757755279541,-0.3119648396968841,-3.280568122863769,0.1192463263869285,-1.3739802837371826,0.1351261883974075,0.3409723043441772,-0.6816172003746033,-0.452013224363327,-0.4634868800640106
1687961,9.478523254394531,-0.218702957034111,2.5934512615203857,0.4135618507862091,-0.3823335468769073,-0.0057244380004704,0.6275242567062378,-0.3863716721534729,-0.4679986834526062,-0.4877577126026153,9.129416465759276,-0.3022142648696899,-3.290121793746948,-0.155469074845314,-1.5802778005599976,0.2716675102710724,0.3408296406269073,-0.6817395091056824,-0.4520617723464966,-0.4633646607398987
1688128,9.505558967590332,-0.2091723680496215,2.59084415435791,0.4143046140670776,-0.0041364510543644,0.0487857870757579,0.6274970173835754,-0.3863615989685058,-0.4679881930351257,-0.4878107905387878,9.145445823669434,-0.3199374079704284,-3.2931172847747803,-0.5309127569198608,-1.4934635162353516,0.2643166482448578,0.3406521081924438,-0.6818757653236389,-0.4520786702632904,-0.4632781147956848
1688294,9.469940185546877,-0.2113428860902786,2.607187032699585,0.6670634746551514,0.2407529652118683,0.0718372166156768,0.6275311708450317,-0.3862839341163635,-0.467996209859848,-0.4878206551074981,9.143073081970217,-0.3156531155109405,-3.320001602172852,-0.8580639362335205,-1.506935954093933,0.2638940513134002,0.3404584527015686,-0.6820117235183716,-0.4521008729934692,-0.4631984531879425
1688461,9.476466178894045,-0.2152552455663681,2.669949531555176,0.5382828712463379,0.1544253677129745,0.0348012559115886,0.6275177001953125,-0.3862521052360534,-0.4679794311523437,-0.48787921667099,9.20590591430664,-0.330732524394989,-3.341879606246948,-0.9981269240379332,-1.226797103881836,0.2061886638402938,0.3402720689773559,-0.6821250319480896,-0.4521165788173675,-0.4631534218788147
1688628,9.464017868041992,-0.2184029072523117,2.643904209136963,0.423012912273407,0.1488673985004425,0.0753973871469497,0.6275287866592407,-0.3862058520317077,-0.4679756760597229,-0.4879051148891449,9.215849876403809,-0.3352305591106415,-3.352284669876098,-1.0352269411087036,-0.6051512360572815,0.2600521147251129,0.3401086926460266,-0.6822181940078735,-0.4520687162876129,-0.4631830155849457
1688794,9.472393035888672,-0.2373063713312149,2.6550259590148926,0.5034880042076111,-0.0062623042613267,0.0668811574578285,0.6274927854537964,-0.3862017095088959,-0.4679590761661529,-0.4879706501960754,9.180858612060549,-0.3420120179653168,-3.3271501064300537,-0.8045461773872375,-0.1632681638002395,0.3449326455593109,0.3399954736232757,-0.6822822093963623,-0.4519961476325989,-0.4632424414157867
1688961,9.486122131347656,-0.2435180693864822,2.6476519107818604,0.449099451303482,0.0676495432853698,0.034455481916666,0.6274722218513489,-0.3861795365810394,-0.4679461717605591,-0.4880270063877105,9.155609130859377,-0.3385094702243805,-3.350713014602661,-0.7364290952682495,0.0549840591847896,0.3535128533840179,0.3399413824081421,-0.6822922825813293,-0.4519729316234588,-0.4632900357246399
1689128,9.489297866821287,-0.2345634400844574,2.610541820526123,0.468078464269638,0.3615296185016632,0.0299348421394824,0.6274500489234924,-0.386155754327774,-0.4678899049758911,-0.4881282448768616,9.13283634185791,-0.3513695299625397,-3.3165853023529053,-0.5575116276741028,0.1610462665557861,0.3570218384265899,0.3399072289466858,-0.6822911500930786,-0.4519495964050293,-0.4633395671844482
1689294,9.47354507446289,-0.2065939158201217,2.6163461208343506,0.2107861042022705,0.4724710285663605,-0.0464358180761337,0.6274545788764954,-0.3861046433448791,-0.4678411483764648,-0.4882096350193023,9.131369590759276,-0.3345004618167877,-3.33124041557312,-0.3377930521965027,0.1446669250726699,0.3925978243350982,0.339852511882782,-0.6823239326477051,-0.4518747925758362,-0.4634044468402862
1689461,9.462908744812012,-0.1996024399995803,2.612844944000244,0.3217275142669678,0.5891753435134888,0.0115449242293834,0.6274440884590149,-0.3860707581043243,-0.4677596986293793,-0.4883279800415039,9.140085220336914,-0.3397253751754761,-3.3185737133026123,-0.1698378026485443,0.1398133039474487,0.2760344445705414,0.3398240804672241,-0.6823234558105469,-0.4518504738807678,-0.463449478149414
1689628,9.47260570526123,-0.2233652919530868,2.6455230712890625,0.6801900267601013,0.7812193036079407,0.0700315088033676,0.6275055408477783,-0.3859607577323913,-0.4677111208438873,-0.4883825778961181,9.149887084960938,-0.3312891125679016,-3.311575174331665,-0.136810228228569,0.2468231618404388,0.1289663463830948,0.3398115932941437,-0.6822892427444458,-0.4518616497516632,-0.4634982943534851
1689794,9.441167831420898,-0.2091392129659652,2.637831687927246,0.7111814022064209,0.8614510893821716,0.1049800515174865,0.6275596022605896,-0.3858607113361358,-0.4676416218280792,-0.4884586036205292,9.236438751220703,-0.3173812329769134,-3.295399904251098,-0.1223134398460388,0.621127188205719,0.0438041165471077,0.3397995829582214,-0.6822415590286255,-0.4518356323242187,-0.4636025726795196
1689961,9.46608829498291,-0.2233723253011703,2.7261626720428467,0.580146849155426,0.7446187734603882,0.2544557452201843,0.6276029944419861,-0.3857964277267456,-0.4675603210926056,-0.4885315597057342,9.190650939941406,-0.3071486353874206,-3.29634952545166,-0.180095687508583,1.4852612018585205,0.1196305081248283,0.3398573398590088,-0.6821296215057373,-0.4517766833305359,-0.4637824296951294
1690128,9.447381973266602,-0.2046113610267639,2.6918694972991943,0.7732409834861755,0.3477244079113006,0.2385758757591247,0.6276311874389648,-0.3857394754886627,-0.4675306975841522,-0.4885686635971069,9.114716529846191,-0.3014762699604034,-3.3091440200805664,-0.1670075953006744,1.4291439056396484,0.2136291414499282,0.3399296700954437,-0.6820157766342163,-0.4517292082309723,-0.4639431238174438
1690294,9.46238899230957,-0.1982031762599945,2.660597085952759,0.76408451795578,0.346264511346817,0.1282876282930374,0.6276459693908691,-0.385680079460144,-0.4675023555755615,-0.4886234998703003,9.18891143798828,-0.3013082444667816,-3.2812540531158447,-0.3537625670433044,1.2417099475860596,0.3454192578792572,0.339951753616333,-0.6819590926170349,-0.4516242444515228,-0.4641124904155731
1690461,9.44869327545166,-0.2363908737897873,2.6252150535583496,0.5150136947631836,0.5070481300354004,0.3461364209651947,0.6276662945747375,-0.3856531381607055,-0.4674239456653595,-0.4886936843395233,9.165313720703123,-0.3132485151290893,-3.269581794738769,-0.2549872398376465,1.48944890499115,0.4851877689361572,0.3400204181671142,-0.6818788647651672,-0.4515165090560913,-0.4642846286296844
1690628,9.439497947692873,-0.26560840010643,2.5652692317962646,0.7770188450813293,-0.1061134040355682,0.422385424375534,0.6276552081108093,-0.3856604695320129,-0.4674079418182373,-0.4887173771858215,9.07838535308838,-0.3177773058414459,-3.257183313369751,-0.243922546505928,1.086727738380432,0.577073335647583,0.3400739431381225,-0.6818265318870544,-0.4514277875423431,-0.4644086360931396
1690794,9.526471138000488,-0.1988625079393386,2.6366004943847656,0.8253756165504456,-0.2141605913639068,0.2101970016956329,0.6276164054870605,-0.3856646120548248,-0.4674110412597656,-0.4887610375881195,9.100317001342772,-0.3522135019302368,-3.2814598083496094,-0.0316060706973075,0.4252924621105194,0.6974274516105652,0.3401122391223907,-0.6818165183067322,-0.4513737261295318,-0.4644478857517242
1690961,9.497515678405762,-0.1637429893016815,2.659883499145508,0.8548814058303833,0.5004017353057861,0.0421008728444576,0.6276496052742004,-0.3855709135532379,-0.4673879146575928,-0.4888143837451935,9.154400825500488,-0.3303593099117279,-3.268256425857544,0.0272711217403411,-0.0607149004936218,0.3801628947257995,0.3401332497596741,-0.6817865371704102,-0.4514241814613342,-0.4644274115562439
1691128,9.426719665527344,-0.2048873007297516,2.6409554481506348,0.957690954208374,0.1631593257188797,0.2346827685832977,0.6276958584785461,-0.3854885399341583,-0.4674056470394134,-0.4888032674789428,9.189253807067873,-0.3246513307094574,-3.267005681991577,0.1170948594808578,-0.1503849625587463,-0.0083497399464249,0.3401210904121399,-0.68174147605896,-0.4515098929405212,-0.4644191861152649
1691294,9.454286575317385,-0.241258442401886,2.6957271099090576,1.429310321807861,-0.0019209525780752,0.5391409397125244,0.627751350402832,-0.3854215443134308,-0.4674327969551086,-0.4887588918209076,9.189847946166992,-0.3364783823490143,-3.269721984863281,0.0864108428359031,0.1697545796632766,-0.1483103483915329,0.3401024639606476,-0.6816810965538025,-0.4515697956085205,-0.4644632637500763
1691461,9.476470947265623,-0.2173274308443069,2.659199476242065,1.4955061674118042,-0.2690358161926269,0.4599592387676239,0.6278019547462463,-0.3853470981121063,-0.4675051867961883,-0.488683134317398,9.155230522155762,-0.3305240869522095,-3.2694482803344727,0.2723974585533142,0.1823560148477554,-0.0069794603623449,0.3401163220405578,-0.6816155910491943,-0.4516340792179107,-0.4644866287708282
1691628,9.482894897460938,-0.1499257683753967,2.632942676544189,1.0497300624847412,-0.0926667377352714,0.0055771647021174,0.6278184652328491,-0.3852593898773193,-0.4675639569759369,-0.4886748790740967,9.15542697906494,-0.3006877601146698,-3.2600250244140625,0.2383965998888015,0.2383581846952438,0.1486753225326538,0.340123564004898,-0.6815748810768127,-0.4516521990299225,-0.4645235240459442
1691794,9.44147491455078,-0.1125982329249382,2.687002182006836,0.7214265465736389,0.5092381238937378,0.0083561446517705,0.6278625726699829,-0.3851533532142639,-0.4675490260124206,-0.4887160658836365,9.179763793945312,-0.2634950280189514,-3.2634754180908203,0.1221789866685867,0.3198962211608886,0.1997854560613632,0.3401379287242889,-0.6815274357795715,-0.4516690969467163,-0.4645659923553467
1691961,9.422186851501465,-0.1803803145885467,2.707482099533081,0.4618673622608185,0.2619474828243255,0.115404412150383,0.6278746128082275,-0.385102778673172,-0.467525839805603,-0.4887626469135284,9.16139030456543,-0.252516508102417,-3.258779287338257,-0.3460147976875305,0.474263995885849,0.1779122203588485,0.3400925397872925,-0.6815117001533508,-0.4516173899173736,-0.4646728336811065
1692128,9.436180114746094,-0.2122000455856323,2.6786763668060303,0.8312793374061584,-0.25868821144104,0.2915045022964477,0.6278663277626038,-0.3850841820240021,-0.4675518572330475,-0.4887630343437195,9.206645965576172,-0.2508438527584076,-3.249041080474853,-0.7954151034355164,0.8080102801322937,0.3321134746074676,0.3400386571884155,-0.6815009713172913,-0.4515102505683899,-0.4648319184780121
1692294,9.452122688293455,-0.1943834722042083,2.637197971343994,0.8326495885848999,-0.1956298053264618,0.4925257861614227,0.6279110312461853,-0.3850415050983429,-0.4675880670547485,-0.4887045621871948,9.160524368286133,-0.2797216773033142,-3.260751962661743,-0.9198288321495056,1.020249843597412,0.5877537727355957,0.339995414018631,-0.6815053224563599,-0.4513485431671142,-0.4650141894817352
1692461,9.471250534057615,-0.1959080100059509,2.658766508102417,0.7828713655471802,-0.010795752517879,0.3769100606441498,0.6279162764549255,-0.3850215375423431,-0.46757772564888,-0.4887235760688782,9.117711067199709,-0.3188327252864837,-3.2469630241394043,-0.7414364814758301,0.8225582242012024,0.9064911007881165,0.3399952054023742,-0.6815183758735657,-0.4512028694152832,-0.465136706829071
1692628,9.465180397033691,-0.1825336366891861,2.6582019329071045,0.2836285829544067,0.409655898809433,0.4091820418834686,0.6279809474945068,-0.3849649727344513,-0.4675368666648865,-0.4887241721153259,9.139609336853027,-0.3347858488559723,-3.2467877864837646,-0.5058507919311523,0.4592804908752441,1.0600391626358032,0.3400164842605591,-0.6815429925918579,-0.4510932862758636,-0.4651912152767181
1692794,9.437074661254885,-0.2134387791156768,2.663727283477783,0.1405945122241974,0.2213257551193237,0.5587986707687378,0.6279919743537903,-0.3849860429763794,-0.4674601554870605,-0.4887668192386627,9.12824535369873,-0.3443690240383148,-3.244832754135132,-0.1958987116813659,0.2043444961309433,1.0262303352355957,0.340049535036087,-0.6815668344497681,-0.451021134853363,-0.4652020931243896
1692961,9.467180252075195,-0.2240081131458282,2.671674489974976,0.5800443887710571,-0.1927995830774307,0.6504536867141724,0.6279990077018738,-0.3850091695785522,-0.4674416482448578,-0.4887572526931762,9.160679817199709,-0.3446641266345978,-3.2256031036376958,0.0901631042361259,0.1124333590269088,0.8257853984832764,0.3400871157646179,-0.681573212146759,-0.450987309217453,-0.4651980996131897
1693128,9.46799087524414,-0.2148704677820205,2.678410768508911,0.4782466888427734,0.072861723601818,0.7432228922843933,0.6280418038368225,-0.3850128054618835,-0.4673996269702911,-0.4887394607067108,9.205039978027344,-0.3460731506347656,-3.248823404312134,0.4390208423137665,0.1944580078125,0.6601224541664124,0.3401663303375244,-0.6815334558486938,-0.4510082900524139,-0.4651781022548675
1693294,9.428857803344728,-0.2591416537761688,2.633922815322876,0.3842737674713135,-0.4400005936622619,0.8330338597297668,0.6280433535575867,-0.3850745260715484,-0.4673866331577301,-0.4887012839317322,9.108819007873535,-0.358450323343277,-3.2505898475646973,0.6936623454093933,0.3386831283569336,0.6946484446525574,0.3402799069881439,-0.6814761757850647,-0.4510318040847778,-0.4651562869548797
1693461,9.478590965270996,-0.1836990416049957,2.694897413253784,0.3219836354255676,-0.2929068207740783,0.605375349521637,0.6280682682991028,-0.3850847780704498,-0.4673945307731628,-0.4886536300182342,9.134437561035156,-0.3448836803436279,-3.2685790061950684,1.049077033996582,-0.3779537975788116,0.888728678226471,0.3403816223144531,-0.6814747452735901,-0.4510765671730041,-0.4650403559207916
1693628,9.46240234375,-0.1800690293312072,2.650381326675415,0.2930541038513183,0.1265971660614013,0.4102193713188171,0.6280189752578735,-0.3851374089717865,-0.4673034250736236,-0.488762617111206,9.17192268371582,-0.314633697271347,-3.2630112171173096,1.2671689987182615,-0.3559012711048126,0.6961467862129211,0.3404833078384399,-0.6814578175544739,-0.4511396586894989,-0.4649295210838318
1693794,9.443998336791992,-0.1735211610794067,2.615927696228028,0.2596551179885864,-0.4809040129184723,0.457423597574234,0.6279709339141846,-0.3851999044418335,-0.4672957062721252,-0.4887825846672058,9.170326232910156,-0.2953307330608368,-3.260345458984375,0.9036480188369752,-0.4709791243076324,0.5873183012008667,0.3405490815639496,-0.6814451813697815,-0.4512166976928711,-0.4648251831531524
1693961,9.464849472045898,-0.2136783301830291,2.654487133026123,0.746258020401001,-0.3204532861709595,0.7308136224746704,0.6279776692390442,-0.3852270841598511,-0.4672910273075104,-0.4887568056583404,9.193456649780272,-0.2973363697528839,-3.2642624378204346,0.5638571977615356,-0.4361714422702789,0.3983223140239715,0.3405546247959137,-0.6814486384391785,-0.4512662589550018,-0.4647680222988128
1694128,9.471623420715332,-0.2313322573900222,2.657994508743286,0.8439064621925354,-0.6895450949668884,0.7181608080863953,0.6279711127281189,-0.3852637112140655,-0.46733358502388,-0.488695740699768,9.167670249938965,-0.298627644777298,-3.2803401947021484,0.2569530010223388,-0.2842625379562378,0.4268292188644409,0.3405398428440094,-0.6814596652984619,-0.451283186674118,-0.4647460877895355
1694294,9.456765174865724,-0.1710367798805236,2.613583564758301,0.6230480670928955,-0.8232945203781128,0.6157357096672058,0.6279141306877136,-0.3853436708450317,-0.4673609435558319,-0.4886797070503235,9.143404006958008,-0.3237719237804413,-3.268721342086792,0.0618226453661918,-0.3936543464660644,0.6205636858940125,0.340516984462738,-0.6814945340156555,-0.4512825906276703,-0.4647122323513031
1694461,9.453001022338867,-0.1672763228416443,2.620724678039551,0.1151226833462715,-0.8095021843910217,0.4699353873729706,0.6278599500656128,-0.3854198157787323,-0.4673921167850494,-0.4886594116687774,9.13152027130127,-0.3180374503135681,-3.302031755447388,0.0052698133513331,-0.5516335368156433,0.6783971190452576,0.3405172824859619,-0.6815131902694702,-0.4513318538665771,-0.4646367728710174
1694628,9.479272842407228,-0.1861379444599151,2.6061031818389893,-0.1084697917103767,-0.3414429128170013,0.2462725341320037,0.6277923583984375,-0.3854833543300628,-0.4673643410205841,-0.4887227118015289,9.1207914352417,-0.3165700137615204,-3.295422315597534,-0.2329218834638595,-0.8400965332984924,0.622471809387207,0.3404377996921539,-0.681590735912323,-0.4513371586799621,-0.4645762741565704
1694794,9.465354919433594,-0.2007897347211837,2.6152303218841557,0.2767644226551056,-0.3738429248332977,0.3171300292015075,0.6277382969856262,-0.3855288326740265,-0.4673548936843872,-0.4887653589248657,9.14622688293457,-0.3134737610816955,-3.287570714950561,-0.4293713271617889,-1.000765085220337,0.4760825037956238,0.3403384089469909,-0.6816595792770386,-0.4513822197914123,-0.4645043909549713
1694961,9.444538116455078,-0.2055304497480392,2.632139205932617,0.765083372592926,-0.4207910299301147,0.5900845527648926,0.6277173161506653,-0.3855611681938171,-0.4673613905906677,-0.4887605309486389,9.180997848510742,-0.3207401633262634,-3.295763731002808,-0.5271861553192139,-0.7695463299751282,0.1776560842990875,0.3401938378810882,-0.681726336479187,-0.4513951539993286,-0.4644994437694549
1695128,9.492326736450195,-0.2148516178131103,2.658839702606201,0.7346170544624329,-0.6292527914047241,0.4587810337543487,0.6277056336402893,-0.3855691254138946,-0.4674195945262909,-0.4887136220932007,9.171728134155272,-0.3217732012271881,-3.309797763824463,-0.4305110573768616,-0.605228066444397,0.249896690249443,0.3400969803333282,-0.681760847568512,-0.4514321982860565,-0.4644837975502014
1695295,9.480793952941896,-0.2024526745080948,2.649404525756836,0.4741231501102447,-0.2877331078052521,0.4044181406497955,0.6276655793190002,-0.3856039941310882,-0.4674050807952881,-0.4887513220310211,9.196334838867188,-0.3203921914100647,-3.3164424896240234,-0.2486609071493148,-0.5078102350234985,0.3874112665653229,0.3400123715400696,-0.6818082928657532,-0.4514330923557281,-0.4644751250743866
1695461,9.46693992614746,-0.2167968451976776,2.666706323623657,0.1829963326454162,-0.388583093881607,0.2960123717784881,0.6276141405105591,-0.3856464624404907,-0.4674007296562195,-0.4887882769107818,9.17032527923584,-0.3466775417327881,-3.325701236724853,-0.0735596716403961,-0.0057756635360419,0.4415309131145477,0.3400028049945831,-0.6817959547042847,-0.4514481425285339,-0.4644858241081238
1695628,9.475371360778809,-0.2105169743299484,2.652429819107056,-0.1163072660565376,-0.1239014342427253,0.3151706457138061,0.6275615096092224,-0.3857023119926452,-0.4673464596271515,-0.4888636469841003,9.140024185180664,-0.3233928382396698,-3.3155088424682617,-0.065517283976078,0.1919095516204834,0.7119753956794739,0.3400186896324157,-0.6817933917045593,-0.451418399810791,-0.4645068347454071
1695795,9.486946105957031,-0.2051593661308288,2.602703332901001,-0.8807822465896606,0.6109716892242432,0.205087274312973,0.627530574798584,-0.3857467472553253,-0.4671946465969085,-0.489013522863388,9.151212692260742,-0.3302245438098907,-3.316992998123169,-0.0545550510287284,0.2359378188848495,0.8141061067581177,0.3400472998619079,-0.6817922592163086,-0.4513801634311676,-0.4645246863365173
1695961,9.46291160583496,-0.2058814913034439,2.6512770652771,-0.4505145251750946,1.185900092124939,0.3489410281181335,0.6275728940963745,-0.3857207000255584,-0.4670131504535675,-0.4891528785228729,9.13094425201416,-0.3185578286647796,-3.288801908493042,-0.083945631980896,0.1363043934106826,0.7472953200340271,0.3400513827800751,-0.6818049550056458,-0.4513363540172577,-0.4645456373691559
1696128,9.43911075592041,-0.2353785634040832,2.658470869064331,0.7331187129020691,0.8638588190078735,0.6238549947738647,0.6276687979698181,-0.3856377899646759,-0.466921716928482,-0.4891825020313263,9.13553237915039,-0.3379623293876648,-3.2836663722991943,0.0762938261032104,0.006230289582163,0.7265234589576721,0.3400697708129883,-0.6818088293075562,-0.4513248801231384,-0.4645376801490783
1696295,9.440163612365724,-0.2299488484859466,2.664743423461914,0.5124268531799316,0.4331939816474914,0.5697864890098572,0.6277426481246948,-0.3855797052383423,-0.4668752253055572,-0.4891779124736786,9.194368362426758,-0.3464200794696808,-3.281388521194458,0.1921272426843643,0.2741519212722778,0.5413179397583008,0.340097427368164,-0.6817830204963684,-0.4513166546821594,-0.4645633101463318
1696461,9.45477294921875,-0.2016873657703399,2.675825595855713,0.4961755871772766,0.0852838829159736,0.5572618842124939,0.6277700066566467,-0.385567158460617,-0.4668429791927337,-0.4891834855079651,9.21388053894043,-0.3630765974521637,-3.306899309158325,0.4661703407764435,0.870569109916687,0.4852901697158813,0.34018474817276,-0.6817024350166321,-0.4512985050678253,-0.4646351337432861
1696628,9.457688331604004,-0.1999547481536865,2.669544219970703,0.9579981565475464,-0.1288062632083892,0.4826136529445648,0.6278449296951294,-0.3854826688766479,-0.4669002890586853,-0.4890992641448974,9.19868278503418,-0.3527200818061828,-3.2842133045196533,0.4891321063041687,1.42680025100708,0.2478348910808563,0.3402799367904663,-0.6815818548202515,-0.4512560367584228,-0.4647835195064544
1696795,9.439863204956056,-0.2190814316272735,2.693215847015381,1.2011651992797852,-0.1906737685203552,0.5533176064491272,0.6278610825538635,-0.3854543566703796,-0.4669185876846313,-0.4890833795070648,9.18201732635498,-0.3215846717357635,-3.2847909927368164,0.4312601387500763,1.898560166358948,0.029051199555397,0.3403998017311096,-0.6814040541648865,-0.4512291848659515,-0.4649825692176819
1696961,9.459012031555176,-0.2189375609159469,2.672506332397461,1.397127985954285,-0.0595495328307151,0.7008338570594788,0.6279474496841431,-0.3853708207607269,-0.4669618308544159,-0.48899707198143,9.141002655029297,-0.2997647225856781,-3.285292387008667,0.3997181951999664,2.059267520904541,0.1459347754716873,0.3405452072620392,-0.6812140941619873,-0.4511968493461609,-0.4651857614517212
1697128,9.47166633605957,-0.2114247232675552,2.693225860595703,1.3704009056091309,0.4073891639709472,0.7963308095932007,0.6280267834663391,-0.3853045105934143,-0.4669202268123626,-0.4889872074127197,9.145676612854004,-0.2949344515800476,-3.258931398391724,0.3056683242321014,1.9449832439422607,0.2925033867359161,0.3406934142112732,-0.6810365319252014,-0.451164186000824,-0.4653688371181488
1697295,9.483304023742676,-0.1907689422369003,2.7268271446228027,1.3320332765579224,0.8724902272224426,0.5196496844291687,0.6281502842903137,-0.3851573169231415,-0.466875672340393,-0.4889869391918182,9.207512855529783,-0.2734291851520538,-3.2685275077819824,0.0821591317653656,1.9841707944869995,0.4854566752910614,0.3408251106739044,-0.6808891892433167,-0.4510812759399414,-0.4655684232711792
1697461,9.440569877624512,-0.2068400830030441,2.7075891494750977,0.0896124318242073,0.7121163010597229,0.4742127358913421,0.6281847357749939,-0.3851361572742462,-0.4667558670043945,-0.4890738129615783,9.28009033203125,-0.2925274074077606,-3.2615835666656494,-0.2447549551725387,2.4902138710021973,0.6927146315574646,0.3409643769264221,-0.6807429790496826,-0.4509216845035553,-0.4658348262310028
1697628,9.405925750732422,-0.2743488252162933,2.589165687561035,0.3691878616809845,-0.5886823534965515,0.6821366548538208,0.6281496286392212,-0.3852077722549438,-0.4667529761791229,-0.4890652298927307,9.149551391601562,-0.3237858116626739,-3.207485675811768,-0.2743888795375824,2.825420379638672,0.936931848526001,0.3411543369293213,-0.6805768609046936,-0.450741708278656,-0.4661127626895904
1697795,9.499987602233888,-0.2663714289665222,2.600914716720581,0.8958234190940857,-0.9679807424545288,0.6976706981658936,0.6281238794326782,-0.3852550983428955,-0.4668252766132355,-0.4889921247959137,9.080850601196287,-0.3697361648082733,-3.227779626846313,-0.2026733160018921,1.9609404802322388,1.1318700313568115,0.3412921130657196,-0.6804929375648499,-0.4505673348903656,-0.4663028717041015
1697961,9.544146537780762,-0.2046484649181366,2.625018358230591,0.6326656341552734,0.057724617421627,0.5294592976570129,0.6281490325927734,-0.3852346837520599,-0.466801106929779,-0.488998681306839,9.09593391418457,-0.378180056810379,-3.204219102859497,0.1033152267336845,1.0119386911392212,1.2431316375732422,0.3414068818092346,-0.6804643273353577,-0.4504516422748565,-0.4663722217082977
1698128,9.423871040344238,-0.1726590543985366,2.616192102432251,0.6335493326187134,0.2360402345657348,0.1208983361721038,0.6281565427780151,-0.3851741850376129,-0.4667838513851166,-0.4890533983707428,9.15576171875,-0.3624940812587738,-3.200397253036499,0.3013781905174255,0.4539786577224731,0.721093475818634,0.341468870639801,-0.6804298758506775,-0.4504282772541046,-0.4663996696472168
1698295,9.43364143371582,-0.2100878804922104,2.6411292552948,0.1330003589391708,-0.1948998272418975,0.4500471353530884,0.6281176209449768,-0.3852235972881317,-0.466742604970932,-0.489103615283966,9.176411628723145,-0.3557861447334289,-3.2134296894073486,0.3230593502521515,0.1583569049835205,0.2852038145065307,0.3414877951145172,-0.6803828477859497,-0.4504687786102295,-0.4664153754711151
1698461,9.465838432312012,-0.2583952844142914,2.6920008659362797,0.5185867547988892,-0.3018456697463989,0.5717714428901672,0.6281136274337769,-0.3852427005767822,-0.4667410552501678,-0.4890953302383423,9.191628456115724,-0.3630102872848511,-3.199036121368408,0.3707374036312103,0.1235620602965354,0.2224911004304886,0.3414874970912933,-0.6803475022315979,-0.4504958689212799,-0.4664410054683685
1698628,9.463692665100098,-0.2125876396894455,2.681586742401123,0.5453776717185974,-0.262645423412323,0.2349901050329208,0.628089427947998,-0.3852340877056122,-0.4667559862136841,-0.4891188740730285,9.201288223266602,-0.3383130729198456,-3.2209115028381348,0.4448093771934509,0.2892122268676758,0.2315964549779892,0.3415215611457824,-0.68028324842453,-0.4505409002304077,-0.4664660692214966
1698795,9.401784896850586,-0.1483518034219741,2.7188150882720947,0.3353918492794037,0.1342681646347046,-0.1048968061804771,0.6280729174613953,-0.3851774036884308,-0.4667518436908722,-0.4891885817050934,9.199217796325684,-0.3073288202285766,-3.200040578842163,0.3051816821098327,0.4745200276374817,0.1268532872200012,0.3415312170982361,-0.6802210807800293,-0.4505551755428314,-0.4665358960628509
1698961,9.39751434326172,-0.1738501638174057,2.717756509780884,0.1585490256547927,-0.5553346276283264,-0.2533096075057983,0.6279714107513428,-0.3851916790008545,-0.4667924344539642,-0.489268958568573,9.20125961303711,-0.2744309902191162,-3.172703742980957,-0.2166578471660614,0.7153562903404236,0.1926010847091674,0.3415046036243438,-0.6801763772964478,-0.4505096971988678,-0.4666644632816314
1699128,9.43651294708252,-0.2190248221158981,2.653284788131714,-0.1205205544829368,-0.7603898048400879,-0.04966302216053,0.6278439164161682,-0.3852697908878326,-0.4668115675449371,-0.4893527925014496,9.168912887573242,-0.266762912273407,-3.1867895126342773,-0.6445690989494324,0.9484317302703856,0.1369190812110901,0.3414668142795563,-0.6801150441169739,-0.4504570960998535,-0.4668321907520294
1699295,9.454768180847168,-0.2463187128305435,2.6491432189941406,0.3558436632156372,-0.6350796818733215,-0.0354351736605167,0.6277807354927063,-0.3852702379226684,-0.4668742418289184,-0.4893736541271209,9.200289726257324,-0.2973501086235046,-3.1821300983428955,-1.0045171976089478,0.9271605014801024,0.2946420907974243,0.3413981199264526,-0.6800865530967712,-0.4503602981567383,-0.4670173823833465
1699461,9.45111083984375,-0.2196721136569976,2.63912296295166,0.5049991607666016,-0.3409946858882904,-0.1404984593391418,0.627748429775238,-0.3852196931838989,-0.4669344425201416,-0.4893976747989654,9.15188980102539,-0.3220880031585693,-3.190265417098999,-0.9928634166717528,0.7705644965171814,0.353039026260376,0.3413181006908417,-0.6800774931907654,-0.4502574205398559,-0.4671884179115295
1699628,9.44752025604248,-0.1896426975727081,2.6433537006378174,0.3526036143302917,-0.2082824558019638,-0.180159717798233,0.6276915073394775,-0.385191410779953,-0.466956615447998,-0.4894715845584869,9.195237159729004,-0.3436758518218994,-3.1917531490325928,-0.9124396443367004,0.4811410009860992,0.3921880424022674,0.3412313759326935,-0.6800842881202698,-0.4501737356185913,-0.4673223197460174
1699795,9.485471725463867,-0.1793467998504638,2.6721527576446533,0.4551056623458862,-0.3074292242527008,-0.395357608795166,0.6276233196258545,-0.3851413428783417,-0.4670113623142242,-0.4895462989807129,9.226555824279783,-0.3334523737430572,-3.203226089477539,-0.7108932733535767,0.6814578771591187,0.0245305616408586,0.3411634266376495,-0.6800339221954346,-0.4501446187496185,-0.4674733281135559
1699961,9.484050750732422,-0.1654991656541824,2.682899475097656,0.7688996195793152,-0.5227935314178467,-0.3522002100944519,0.6275838017463684,-0.385059505701065,-0.4671233892440796,-0.4895544648170471,9.170483589172363,-0.3074901700019836,-3.1851773262023926,-0.622619092464447,0.6388127207756042,-0.2937264442443847,0.3410776257514953,-0.6799629926681519,-0.4501521587371826,-0.4676318168640136
1700128,9.468464851379396,-0.1780711263418197,2.690173864364624,1.2229998111724854,-0.6294960975646973,-0.0250620245933532,0.6275524497032166,-0.3849966824054718,-0.4672333896160126,-0.4895389676094055,9.203630447387695,-0.2982628345489502,-3.1962244510650635,-0.4382844865322113,0.4595749974250793,-0.4727078974246979,0.3409787118434906,-0.6798897385597229,-0.4501888453960418,-0.4677751958370209
1700295,9.441146850585938,-0.2113485932350158,2.6662518978118896,1.5092217922210691,-0.4688148498535156,0.3812513947486877,0.6275905966758728,-0.384910374879837,-0.4673372805118561,-0.4894587993621826,9.18565273284912,-0.26772141456604,-3.1878697872161865,-0.3381772637367248,0.6126493811607361,-0.4775231182575226,0.34089395403862,-0.6798055768013,-0.4502175450325012,-0.4679314494132995
1700461,9.437788009643556,-0.1955098807811737,2.642815351486206,1.1585456132888794,-0.5675262212753296,0.2812594473361969,0.6276072263717651,-0.3848453760147095,-0.4674397706985473,-0.4893907904624939,9.13363552093506,-0.2843483686447143,-3.2033839225769043,-0.1971921771764755,0.221953272819519,0.0950935557484626,0.340823084115982,-0.6797893047332764,-0.45020192861557,-0.4680217504501343
1700628,9.463056564331056,-0.1586224436759948,2.711552143096924,0.0395780205726623,-0.2985288202762604,0.1235876604914665,0.6275255084037781,-0.3848926126956939,-0.4674135446548462,-0.4894834458827972,9.240830421447754,-0.2694743573665619,-3.199636220932007,0.0150026371702551,0.1040195822715759,0.7927706241607666,0.3408254981040954,-0.6798049211502075,-0.4501551687717438,-0.4680422842502594
1700795,9.449851036071776,-0.1672028452157974,2.632622241973877,-0.3106692433357239,-0.8799499869346619,-0.0346283763647079,0.6274055242538452,-0.3849722445011139,-0.4674489498138428,-0.4895407557487488,9.18325424194336,-0.2470154464244842,-3.1813642978668213,0.0170388482511043,0.3602234423160553,1.0264610052108765,0.3408768773078918,-0.6798038482666016,-0.4500948786735534,-0.4680645763874054
1700961,9.466212272644045,-0.1495015621185302,2.5846683979034424,-0.6079686284065247,-1.197995662689209,0.3735420107841491,0.6272748112678528,-0.3851300179958343,-0.4674688875675201,-0.4895651042461395,9.184783935546877,-0.2330337166786193,-3.2011563777923584,-0.2265571355819702,0.250127226114273,1.0950132608413696,0.3408873081207275,-0.6798384189605713,-0.449998527765274,-0.468099296092987
1701128,9.49240779876709,-0.2087400257587433,2.611255168914795,-0.0502137020230293,-1.0635546445846558,0.8201378583908081,0.6272017955780029,-0.3852715194225311,-0.4674803614616394,-0.4895365238189697,9.13667106628418,-0.2442963272333145,-3.215348482131958,-0.4130559861660003,-0.0225519817322492,1.0217097997665403,0.3408708572387695,-0.679882824420929,-0.4499304592609405,-0.4681121408939361
1701295,9.48245334625244,-0.2333637028932571,2.589566230773926,0.546696662902832,-0.821540117263794,1.1397074460983276,0.6271931529045105,-0.385371059179306,-0.4674879908561706,-0.4894620180130005,9.129100799560549,-0.3063735961914062,-3.2154664993286133,-0.4153227806091308,-0.4971937537193298,1.1443049907684326,0.3408288955688476,-0.6799699068069458,-0.4498707950115204,-0.468073695898056
1701461,9.449316024780272,-0.2018106877803802,2.599980115890503,0.809841513633728,-0.7814179062843323,1.1332145929336548,0.6272183656692505,-0.3854269981384277,-0.467524766921997,-0.4893503189086914,9.138916969299316,-0.340781956911087,-3.2301154136657715,-0.064044564962387,-1.0084744691848757,1.4864012002944946,0.3408035337924957,-0.6801028251647949,-0.4498172700405121,-0.4679504632949829
1701628,9.445023536682127,-0.1730014085769653,2.6196296215057373,0.1884646415710449,-0.5380715727806091,0.859696626663208,0.627192497253418,-0.3855163753032684,-0.4675003290176391,-0.4893364906311035,9.15556812286377,-0.3443394005298614,-3.2148032188415527,0.3429732620716095,-1.392613649368286,1.718349575996399,0.3408304154872894,-0.6802383065223694,-0.4498161971569061,-0.4677348434925079
1701795,9.472942352294922,-0.1784995794296264,2.6357853412628174,-0.5476763248443604,-0.6103890538215637,0.7606266736984253,0.6271087527275085,-0.3856750130653381,-0.4674325883388519,-0.4893834888935089,9.20469856262207,-0.3258245289325714,-3.2202305793762207,0.6562550067901611,-1.308898687362671,1.6734507083892822,0.3408763706684112,-0.680362343788147,-0.4498171210289001,-0.4675198197364807
1701961,9.441969871520996,-0.2068349719047546,2.6561474800109863,-0.2681265473365783,-0.3472313582897186,1.075778245925903,0.6270855665206909,-0.3858066201210022,-0.4673466086387634,-0.489391565322876,9.215250968933104,-0.308267593383789,-3.22757887840271,0.6511579751968384,-0.9013234972953796,1.6183573007583618,0.3409562110900879,-0.6804460287094116,-0.4498175680637359,-0.4673396050930023
1702128,9.450277328491213,-0.2134985923767089,2.6353254318237305,0.3212409019470215,-0.6712576746940613,1.230594277381897,0.6270977258682251,-0.3859053254127502,-0.4673337340354919,-0.4893104135990143,9.214725494384766,-0.3181875050067901,-3.2478511333465576,0.6144678592681885,-0.6864843368530273,1.3534326553344729,0.3410215675830841,-0.6805039644241333,-0.4498240947723388,-0.4672012031078338
1702295,9.503841400146484,-0.2100566774606704,2.6310582160949707,0.4180057048797607,-0.954687774181366,1.211564064025879,0.6271515488624573,-0.3859606087207794,-0.467399001121521,-0.4891355335712433,9.207547187805176,-0.341483324766159,-3.222047805786133,0.6812658905982971,-0.3603706955909729,1.2194783687591553,0.3411014378070831,-0.6805316805839539,-0.449826180934906,-0.4671004116535187
1702461,9.501724243164062,-0.1836220473051071,2.625994205474853,0.3304486572742462,-0.4952856302261352,1.0481805801391602,0.6271610260009766,-0.3860353529453277,-0.4673794507980346,-0.4890830516815185,9.169815063476562,-0.3296324908733368,-3.2477376461029053,0.740507960319519,-0.2731722593307495,1.305741786956787,0.3411937952041626,-0.6805604100227356,-0.4498128890991211,-0.4670038521289825
1702628,9.46839427947998,-0.1772094815969467,2.6335256099700928,0.0802253782749176,-0.4340583980083465,0.8663816452026367,0.6271492838859558,-0.3861145079135895,-0.4673483073711395,-0.4890654981136322,9.16298007965088,-0.3296759724617004,-3.2552425861358643,0.689756453037262,-0.1807872503995895,1.240621566772461,0.34128138422966,-0.6805829405784607,-0.4497956037521362,-0.466923713684082
1702795,9.46742057800293,-0.185128778219223,2.593120574951172,-0.2008547782897949,-0.4034256041049957,0.7933213114738464,0.6271129846572876,-0.3862173855304718,-0.4672940671443939,-0.4890826940536499,9.157474517822266,-0.3361261487007141,-3.255481243133545,0.5106339454650879,-0.2184763103723526,1.06427800655365,0.3413425087928772,-0.6805997490882874,-0.4497944116592407,-0.4668557345867157
1702961,9.457195281982422,-0.2233984619379043,2.614532709121704,-0.090758591890335,-0.3071474730968475,0.5900077223777771,0.6271080374717712,-0.3862580060958862,-0.4672767221927643,-0.4890734553337097,9.147724151611328,-0.3287149369716644,-3.235592126846313,0.4001087546348572,-0.2847107648849487,1.0698039531707764,0.3413851857185364,-0.6806298494338989,-0.4497842490673065,-0.4667905569076538
1703128,9.473681449890137,-0.1988586783409118,2.594166755676269,0.381353884935379,-0.1457746773958206,0.6073219180107117,0.6271166205406189,-0.3862693905830383,-0.467257410287857,-0.4890720248222351,9.135448455810549,-0.3282218873500824,-3.264946937561035,0.2326977998018264,-0.3998398780822754,0.9901934266090392,0.3413910269737243,-0.6806769371032715,-0.4497669041156769,-0.4667340815067291
1703295,9.48280429840088,-0.1797907650470733,2.6056771278381348,0.6925866603851318,0.2664041221141815,0.6671532392501831,0.6271634697914124,-0.3862371444702148,-0.467210978269577,-0.4890815317630768,9.166130065917969,-0.3116271197795868,-3.2697906494140625,0.1077462211251258,-0.4879730939865112,0.6526179909706116,0.3413674533367157,-0.6807031631469727,-0.4497967660427093,-0.4666845500469208
1703461,9.455451011657717,-0.2033682018518448,2.6371617317199707,0.8891641497612,0.7191342115402222,0.6415533423423767,0.6272633075714111,-0.3861409425735473,-0.4671491384506225,-0.4890886843204498,9.172048568725586,-0.3343503475189209,-3.2535154819488525,0.0268229022622108,-0.2392226308584213,0.4598440527915954,0.3413385152816772,-0.6807045936584473,-0.4498267471790313,-0.4666746258735657
1703628,9.434375762939451,-0.2256060242652893,2.679917335510254,0.870082676410675,0.8247993588447571,0.7176998257637024,0.6273706555366516,-0.3860473930835724,-0.4670690596103668,-0.489101231098175,9.202457427978516,-0.3455546200275421,-3.254445075988769,0.0419343933463096,0.2274215519428253,0.4997358024120331,0.3413547277450561,-0.6806673407554626,-0.4498445093631744,-0.4667000472545624
1703795,9.461774826049805,-0.2206052988767624,2.704016923904419,0.765224277973175,0.7981109619140625,0.5931581854820251,0.6274458169937134,-0.3859719336032867,-0.4669781029224396,-0.4891511499881744,9.25951099395752,-0.3519867062568664,-3.2479031085968018,0.2554546594619751,0.8918533325195312,0.4510844349861145,0.3414233922958374,-0.6805789470672607,-0.4498369693756103,-0.4667859375476837
1703961,9.463825225830078,-0.2218367159366607,2.716022491455078,0.2940785884857178,0.6234835982322693,0.5330834984779358,0.6274979710578918,-0.3859290480613708,-0.4668880105018616,-0.4892041385173797,9.24321460723877,-0.3451797068119049,-3.2557144165039062,0.3772814869880676,1.7867226600646973,0.3727223873138428,0.3415654003620147,-0.6804118752479553,-0.449811190366745,-0.4669506251811981
1704128,9.450756072998049,-0.2184473425149917,2.689785480499268,-0.0457827001810073,0.9179912209510804,0.5313162803649902,0.6275374293327332,-0.3859091103076935,-0.4667355716228485,-0.4893147051334381,9.234213829040527,-0.3522632122039795,-3.236532926559448,0.6573819518089294,2.2730438709259038,0.4768252670764923,0.3417528569698334,-0.6802220344543457,-0.4497431218624115,-0.467155396938324
1704295,9.457168579101562,-0.2323077470064163,2.6415956020355225,0.0148361548781394,0.8232241868972778,0.4586529731750488,0.6275849342346191,-0.3858697712421417,-0.4666128158569336,-0.4894018173217773,9.18638038635254,-0.3409363031387329,-3.1922147274017334,0.6745168566703796,2.588195323944092,0.479809045791626,0.3419751524925232,-0.6799992918968201,-0.4496767520904541,-0.4673807322978973
1704461,9.473865509033203,-0.2052891701459884,2.656266212463379,0.4073508083820343,1.1338551044464111,0.5039491057395935,0.6276811361312866,-0.3857732117176056,-0.4664890766143799,-0.4894725978374481,9.15602207183838,-0.3267587125301361,-3.194032430648804,0.620832622051239,2.49207067489624,0.501720666885376,0.3421899974346161,-0.6797853112220764,-0.449612021446228,-0.4675971865653991
1704628,9.426807403564451,-0.2273597866296768,2.6926422119140625,0.3262865841388702,1.4304372072219849,0.6501207947731018,0.6277904510498047,-0.3856851756572723,-0.4663140177726745,-0.4895685911178589,9.16336441040039,-0.3291670978069305,-3.162827730178833,0.4021770060062408,2.1773293018341064,0.4978533089160919,0.3423524498939514,-0.6796117424964905,-0.4495353698730469,-0.4678041636943817
1704795,9.419456481933594,-0.2708602547645569,2.617284774780273,0.2833084464073181,0.7704107165336609,0.7437735795974731,0.6278530359268188,-0.3856596946716308,-0.4661860764026642,-0.489630252122879,9.182437896728516,-0.3293821513652801,-3.1645960807800293,0.4618545770645141,2.261274814605713,0.6892185211181641,0.3425412774085998,-0.6794398427009583,-0.4494426250457763,-0.4680045843124389
1704961,9.451563835144045,-0.2781883776187897,2.588665246963501,0.2803117632865906,0.4615600109100342,0.6729928255081177,0.6279051303863525,-0.3856379389762878,-0.4661017656326294,-0.4896608889102936,9.101354598999023,-0.3597871959209442,-3.168724536895752,0.3928539752960205,1.6917123794555664,0.8367604613304138,0.3427061438560486,-0.6793111562728882,-0.4493720233440399,-0.4681385159492492
1705128,9.513288497924805,-0.2154753059148788,2.674363851547241,-0.1277433335781097,1.007776379585266,0.3185515701770782,0.6279560327529907,-0.3855813443660736,-0.4659665524959564,-0.4897690117359161,9.16468620300293,-0.362906664609909,-3.1588165760040283,0.4249211251735687,1.0800683498382568,1.0158957242965698,0.3428345620632171,-0.6792440414428711,-0.4493016302585602,-0.4682095348834991
1705295,9.474099159240724,-0.2029137015342712,2.7015295028686523,-0.1497062295675277,1.5547610521316528,-0.000128063475131,0.6280139684677124,-0.3854718208312988,-0.4657928645610809,-0.4899460077285766,9.233898162841797,-0.3624757528305053,-3.14780592918396,0.2703612446784973,0.8250810503959656,0.8031437993049622,0.3429336249828338,-0.6791738867759705,-0.4492760896682739,-0.4682633578777313
1705461,9.393815994262695,-0.2586168348789215,2.6932592391967773,0.1148793697357177,0.7049063444137573,0.2270117700099945,0.6280525326728821,-0.3854071199893951,-0.4657085537910461,-0.490027517080307,9.249374389648438,-0.383655697107315,-3.147620439529419,0.1092573702335357,1.0945522785186768,0.3285148739814758,0.3429894745349884,-0.6790729761123657,-0.4492564499378204,-0.4683876037597656
1705628,9.450230598449709,-0.2898906171321869,2.740036725997925,0.2957818508148193,0.2555314898490906,0.4472168982028961,0.6280668377876282,-0.3853908479213714,-0.4656504690647125,-0.4900771379470825,9.245484352111816,-0.4164990484714508,-3.10488224029541,0.1534520834684372,1.3041409254074097,0.1322831958532333,0.3430528044700622,-0.6789406538009644,-0.4492513537406921,-0.4685378074645996
1705795,9.461904525756836,-0.2605234086513519,2.706778287887573,0.5576332211494446,0.405954897403717,0.0864620730280876,0.6280617117881775,-0.385333240032196,-0.465602308511734,-0.4901747703552246,9.249088287353516,-0.4074300825595855,-3.1377806663513184,0.3509387671947479,1.6032204627990725,0.2500632107257843,0.3431595265865326,-0.6787893772125244,-0.4492271840572357,-0.4687020778656006
1705961,9.4397611618042,-0.1960771381855011,2.711376190185547,0.5802748799324036,0.6775774955749512,-0.2900125980377197,0.6280971765518188,-0.3851848244667053,-0.4655885100364685,-0.4902590811252594,9.168428421020508,-0.3754222691059112,-3.1158976554870605,0.2567737400531769,1.469125270843506,-0.0877619162201881,0.3432291448116302,-0.6786264181137085,-0.4492416679859161,-0.4688731431961059
1706128,9.393033981323242,-0.2045089900493621,2.7042136192321777,0.472714364528656,0.4890808761119842,-0.3584496974945068,0.628095805644989,-0.3850668370723724,-0.4655779600143432,-0.4903635680675506,9.205225944519045,-0.3556845486164093,-3.118927001953125,0.0931469872593879,1.1610172986984253,-0.2713281512260437,0.3432430624961853,-0.6784868836402893,-0.4492683708667755,-0.4690392017364502
1706295,9.439105987548828,-0.2560954988002777,2.7051963806152344,0.6842111945152283,0.2935279011726379,-0.3390992879867553,0.6280910968780518,-0.3849475979804992,-0.4655966162681579,-0.4904454946517944,9.21860694885254,-0.3295374512672424,-3.0845611095428467,-0.2239574193954467,1.005099892616272,-0.5092700719833374,0.3431985080242157,-0.6783579587936401,-0.4493049085140228,-0.4692232012748718
1706461,9.442278861999512,-0.2607210576534271,2.7054593563079834,0.9914867877960204,0.3391697108745575,-0.2575868964195251,0.628106415271759,-0.3848089873790741,-0.4656228125095367,-0.4905097186565399,9.214694023132324,-0.3210334181785583,-3.0980732440948486,-0.5907056927680969,0.8503736257553101,-0.5155067443847656,0.3431118130683899,-0.6782543659210205,-0.4493290185928345,-0.4694132804870605
1706628,9.40231704711914,-0.2261277735233307,2.6741483211517334,0.9897707104682922,-0.1169219687581062,-0.3823079764842987,0.6281011700630188,-0.384676456451416,-0.4657126069068908,-0.490535169839859,9.20816135406494,-0.3378692269325256,-3.091264009475708,-0.7694054245948792,0.6076676845550537,-0.4983718991279602,0.3429890871047973,-0.6781800389289856,-0.4493467509746551,-0.469593346118927
1706795,9.44723129272461,-0.1955456882715225,2.6744909286499023,0.4759031534194946,-0.382615327835083,-0.5805502533912659,0.6279995441436768,-0.3846294283866882,-0.4657734632492065,-0.4906444847583771,9.177301406860352,-0.327041894197464,-3.1051299571990967,-0.8949717879295349,0.3233027160167694,-0.2116761654615402,0.3428654968738556,-0.6781412363052368,-0.4493550658226013,-0.469731718301773
1706961,9.46333122253418,-0.216964915394783,2.711609125137329,0.0193696022033691,0.1878627389669418,-0.753845751285553,0.6278944611549377,-0.3845753073692322,-0.4657562971115112,-0.4908376336097717,9.168049812316896,-0.3170405328273773,-3.102550506591797,-1.1001933813095093,-0.1503849625587463,-0.1771630197763443,0.3426709771156311,-0.6781648993492126,-0.4493422508239746,-0.4698517322540283
1707128,9.418549537658691,-0.2380681186914444,2.6970252990722656,0.3322543203830719,-0.1358753740787506,-0.5038657784461975,0.6278348565101624,-0.3845033049583435,-0.465801328420639,-0.4909275770187378,9.164767265319824,-0.3182461261749267,-3.12069034576416,-1.1959081888198853,-0.5837646722793579,-0.2164529412984848,0.3424495160579681,-0.6782096028327942,-0.4493646919727325,-0.4699272513389587
1707295,9.44594669342041,-0.2311353385448455,2.6944167613983154,0.7753027677536011,-0.315125823020935,-0.3815779685974121,0.6278076171875,-0.3844019472599029,-0.4658956527709961,-0.4909521043300628,9.18874740600586,-0.3465247452259063,-3.1100754737854004,-1.3137139081954956,-1.1149593591690063,-0.0656837671995163,0.3421898782253265,-0.6783081293106079,-0.4493876695632934,-0.4699522852897644
1707461,9.4532470703125,-0.2087868005037307,2.699476718902588,0.6465606689453125,-0.2908450365066528,-0.4679312407970428,0.6277444958686829,-0.3843273818492889,-0.4659646451473236,-0.4910259544849396,9.2333345413208,-0.3328976035118103,-3.1050968170166016,-1.1760584115982056,-1.1642380952835083,-0.0248059015721082,0.3419505059719085,-0.6784001588821411,-0.4494266808032989,-0.4699561893939972
1707628,9.431591987609863,-0.2527305781841278,2.6217174530029297,0.4647360444068908,-0.3812706470489502,-0.3843697607517242,0.6276832222938538,-0.3842701017856598,-0.4660334587097168,-0.491083562374115,9.159749984741213,-0.3536211550235748,-3.1490182876586914,-1.0853893756866455,-1.07990825176239,0.1115753203630447,0.3417325615882873,-0.6784926056861877,-0.4494512379169464,-0.4699579179286957
1707795,9.446142196655272,-0.2059643715620041,2.7486801147460938,-0.0157390031963586,-0.2322303354740142,-0.5235875844955444,0.6275882720947266,-0.3842432200908661,-0.4660570919513702,-0.4912035763263702,9.231484413146973,-0.3498905599117279,-3.1441450119018555,-0.8610990047454834,-1.561760187149048,0.1582544893026352,0.3415096998214721,-0.6786090731620789,-0.4495115876197815,-0.4698939025402069
1707961,9.449841499328612,-0.1954724788665771,2.7099194526672363,0.3424610495567322,-0.6398053169250488,-0.7905232310295105,0.6274812817573547,-0.3841814398765564,-0.4661689698696136,-0.4912824332714081,9.245379447937012,-0.3443957567214966,-3.1692495346069336,-0.7205236554145813,-1.1245512962341309,-0.0985064432024955,0.3413113057613373,-0.6786722540855408,-0.4495843350887298,-0.469877153635025
1708128,9.452078819274902,-0.1727261692285537,2.7346768379211426,0.3612863421440124,-1.001584768295288,-0.8448604941368103,0.6273683309555054,-0.384120374917984,-0.4663344025611877,-0.4913175702095032,9.19551944732666,-0.3192367553710937,-3.147801160812378,-0.7354814410209656,-1.1253067255020142,-0.413337767124176,0.3410890996456146,-0.6787166595458984,-0.4496856331825256,-0.4698775112628937
1708295,9.43715763092041,-0.1947119832038879,2.695249319076538,0.7532630562782288,-0.6447228789329529,-0.5854294300079346,0.6272792816162109,-0.3840527236461639,-0.4664497375488281,-0.491374671459198,9.19692325592041,-0.2971802651882171,-3.160402297973633,-0.7609917521476746,-1.1463220119476318,-0.6494484543800354,0.3408569991588592,-0.6787403225898743,-0.4498215019702911,-0.4698817729949951
1708461,9.45982837677002,-0.1983202695846557,2.651982545852661,0.9432581067085266,-1.0733513832092283,-0.682988166809082,0.6271710395812988,-0.3839861750602722,-0.4666275680065155,-0.4913958609104156,9.199299812316896,-0.2949243783950805,-3.176640272140503,-0.8766330480575562,-1.2144005298614502,-0.6442490816116333,0.3406021893024444,-0.6787806153297424,-0.4499429762363434,-0.4698919951915741
1708628,9.489872932434082,-0.1575112342834472,2.6672394275665283,0.744183361530304,-0.7003280520439148,-0.7318060398101807,0.6270521283149719,-0.3839279115200043,-0.4667435586452484,-0.4914829432964325,9.213011741638184,-0.2787246704101562,-3.194563388824463,-0.8658884763717651,-1.116034984588623,-0.6249114274978638,0.34036386013031,-0.6788085103034973,-0.4500682055950165,-0.4699045717716217
1708795,9.433649063110352,-0.1159756109118461,2.6700549125671387,0.4141252934932709,-0.37139692902565,-0.8802828192710876,0.6269751191139221,-0.3838206231594085,-0.4668518304824829,-0.4915622472763061,9.195648193359377,-0.2529477179050445,-3.1811769008636475,-1.008884310722351,-1.0429619550704956,-0.5653363466262817,0.3401201069355011,-0.6788419485092163,-0.4501747786998749,-0.4699305593967438
1708961,9.40874195098877,-0.1411231309175491,2.6721370220184326,-0.0522755160927772,-0.8320925831794739,-0.8174036741256714,0.6268382668495178,-0.3837997019290924,-0.4669597446918487,-0.4916505515575409,9.177515983581545,-0.2283641248941421,-3.174116373062134,-1.2593894004821775,-1.0356367826461792,-0.4345963299274444,0.3398522138595581,-0.6789032220840454,-0.4502395689487457,-0.4699736833572387
1709128,9.472474098205566,-0.1570431143045425,2.644241571426392,0.0490291081368923,-1.3882596492767334,-1.0009443759918213,0.6266210675239563,-0.3838288486003876,-0.4671095609664917,-0.4917624294757843,9.162753105163574,-0.2337943464517593,-3.201085329055786,-1.675685167312622,-1.1599221229553225,-0.2713281214237213,0.3395403623580932,-0.6790074706077576,-0.4502611756324768,-0.4700278639793396
1709295,9.484843254089355,-0.1453535407781601,2.63346266746521,0.5302661657333374,-0.7590708136558533,-0.8308632373809814,0.6264756917953491,-0.3837893307209015,-0.4672200679779053,-0.4918734729290008,9.157526969909668,-0.2320551574230194,-3.1983084678649902,-1.9471800327301023,-1.2923014163970947,-0.3916694223880768,0.3391963541507721,-0.679116427898407,-0.4502975046634674,-0.4700840413570404
1709461,9.463265419006348,-0.1280360966920852,2.646690368652344,0.323302686214447,-0.5985943675041199,-0.9408568739891052,0.6263511180877686,-0.3837230503559112,-0.4673293530941009,-0.4919799864292145,9.161169052124023,-0.2584688365459442,-3.2053680419921875,-2.068366289138794,-1.5889735221862793,-0.3756742477416992,0.3388064205646515,-0.679265558719635,-0.4503188133239746,-0.470129132270813
1709628,9.452777862548828,-0.1331428438425064,2.66367769241333,0.4492659568786621,-0.557101845741272,-0.8197343349456787,0.6262447834014893,-0.3836502134799957,-0.4674373567104339,-0.4920693039894104,9.194181442260742,-0.2735024690628052,-3.1921725273132324,-1.930774807929993,-1.5968492031097412,-0.3744448125362396,0.3384465277194977,-0.6793950796127319,-0.4503702223300934,-0.4701520204544067
1709795,9.45217514038086,-0.1460078656673431,2.6971852779388428,0.3704813122749328,-0.7406424283981323,-0.9089435338974,0.6260948181152344,-0.3836100995540619,-0.4675467014312744,-0.4921877682209015,9.214027404785156,-0.2803281843662262,-3.2223148345947266,-1.6776702404022217,-1.3460626602172852,-0.33167165517807,0.3381306529045105,-0.6794974207878113,-0.4504225552082062,-0.470181256532669
1709961,9.466839790344238,-0.1271043121814727,2.650919198989868,0.4455393254756927,-0.8913092017173767,-0.8846755027770996,0.6259302496910095,-0.3835849463939667,-0.467665821313858,-0.4923035204410553,9.170798301696776,-0.2744816541671753,-3.22108793258667,-1.4371669292449951,-1.2838619947433472,-0.3782355189323425,0.3378347158432007,-0.6795846819877625,-0.4504865407943725,-0.470206469297409
1710128,9.472529411315918,-0.1158241108059883,2.641540288925171,0.4421968758106231,-0.7021465301513672,-0.9345433115959167,0.6258084774017334,-0.383512020111084,-0.4677955210208893,-0.4923917949199676,9.18964958190918,-0.2552899718284607,-3.2275872230529785,-1.1409432888031006,-1.3974673748016355,-0.4302293062210083,0.3375575244426727,-0.6796618103981018,-0.4505819380283355,-0.4702029824256897
1710295,9.45339012145996,-0.1205215975642204,2.6507718563079834,0.4530054330825805,-0.5966478586196899,-0.9534072279930116,0.6257089972496033,-0.3834145963191986,-0.4679294228553772,-0.4924669861793518,9.196063995361328,-0.2506909668445587,-3.2176666259765625,-0.9757030010223388,-1.2655491828918457,-0.5271350145339966,0.3372985124588012,-0.679715096950531,-0.4506919384002685,-0.470206469297409
1710461,9.454666137695312,-0.1082651913166046,2.669393301010132,0.3815588057041168,-0.585250198841095,-0.864736020565033,0.6255927085876465,-0.3833473622798919,-0.4680374264717102,-0.4925644099712372,9.196422576904297,-0.2245577722787857,-3.2137036323547363,-0.8695256114006042,-0.9770219922065736,-0.5910258293151855,0.337055504322052,-0.6797460913658142,-0.4507910907268524,-0.4702407121658325
1710628,9.46402072906494,-0.1074025928974151,2.655137538909912,0.4519937634468078,-0.7918935418128967,-0.6142821907997131,0.6254763007164001,-0.3833121657371521,-0.468149870634079,-0.4926327764987945,9.175728797912598,-0.1964096128940582,-3.229789972305298,-0.9920822978019714,-0.8927690386772156,-0.7126604914665222,0.3368174731731415,-0.6797537207603455,-0.450912743806839,-0.470283567905426
1710795,9.459506034851074,-0.1108867228031158,2.63533091545105,0.6098319888114929,-1.0161454677581787,-0.5596887469291687,0.6253842115402222,-0.3832578659057617,-0.4683105647563934,-0.4926390647888183,9.169906616210938,-0.1976232528686523,-3.2560365200042725,-1.004440426826477,-0.9602585434913636,-0.4626806378364563,0.3365874886512756,-0.6797856092453003,-0.4510082304477691,-0.4703106582164764
1710961,9.491437911987305,-0.1120926141738891,2.6152400970458984,0.20194973051548,-0.7190636992454529,-0.5512621402740479,0.6252702474594116,-0.3832379579544067,-0.4684002995491028,-0.4927138984203338,9.162814140319824,-0.1919938623905182,-3.2315497398376465,-0.9885733127593994,-0.9109028577804564,-0.2650530040264129,0.3363683819770813,-0.6798310875892639,-0.4510759711265564,-0.4703367352485657
1711128,9.45406436920166,-0.0745280385017395,2.6722567081451416,-0.2777185142040252,-0.1907889991998672,-0.6575292348861694,0.6251418590545654,-0.3832315504550934,-0.4684019088745117,-0.4928803741931915,9.153677940368652,-0.1827895492315292,-3.2380874156951904,-0.8885685801506042,-0.9680191278457642,0.0560213737189769,0.3361698389053345,-0.6799025535583496,-0.4511129260063171,-0.4703397750854492
1711295,9.443727493286133,-0.0620898380875587,2.653951644897461,-0.6555826663970947,-0.5327953696250916,-0.7064238786697388,0.6249840259552002,-0.3832630813121795,-0.4684241116046905,-0.4930349588394165,9.192758560180664,-0.1641481816768646,-3.243513345718384,-0.9278584718704224,-0.9019768834114076,0.2420848459005355,0.3359870314598083,-0.6799816489219666,-0.4511287808418274,-0.4703409969806671
1711461,9.459881782531738,-0.0783600285649299,2.629228115081787,-0.603281557559967,-0.957351565361023,-0.4678415954113006,0.6248220205307007,-0.3833314478397369,-0.468479186296463,-0.4931345582008362,9.178723335266112,-0.153914600610733,-3.241142988204956,-1.2108914852142334,-0.7811616659164429,0.2360146045684814,0.3357781767845154,-0.6800695061683655,-0.4511145949363708,-0.4703766107559204
1711628,9.489630699157717,-0.0848526731133461,2.603378772735596,0.042984515428543,-0.2830715477466583,-0.2806767523288727,0.6247034072875977,-0.3833538889884949,-0.4684705734252929,-0.4932755529880523,9.190311431884766,-0.1534328460693359,-3.2578961849212646,-1.4795174598693848,-0.6349003314971924,0.0046166889369487,0.3355565965175628,-0.6801297068595886,-0.4511203467845917,-0.47044238448143
1711795,9.499558448791504,-0.1004094183444976,2.662064790725708,0.5865756273269653,0.1578062325716018,-0.0809873640537262,0.6247028112411499,-0.3832685053348541,-0.4684821665287018,-0.4933316111564636,9.205068588256836,-0.1794128119945526,-3.264180898666382,-1.4650976657867432,-0.582573652267456,0.0183835159987211,0.3353329300880432,-0.6801919937133789,-0.4511153995990753,-0.4705164730548858
1711962,9.46432399749756,-0.103733591735363,2.72536301612854,0.8882933259010315,0.0640509575605392,0.2058556824922561,0.6247474551200867,-0.3831688463687897,-0.4685183763504028,-0.4933180212974548,9.223163604736328,-0.1838710010051727,-3.2599215507507324,-1.3545020818710327,-0.3425058424472809,0.1216026991605758,0.3351418972015381,-0.6802396774291992,-0.4510953724384308,-0.4706029593944549
1712128,9.442893028259276,-0.1261685937643051,2.6625328063964844,0.4726759493350982,-0.3954216539859772,0.2396900504827499,0.6247268915176392,-0.3831547796726227,-0.4685542285442352,-0.4933211207389831,9.234073638916016,-0.1999831795692443,-3.247352361679077,-0.9105826616287231,0.1102050393819809,0.4108468890190124,0.3350532650947571,-0.6802470088005066,-0.451064258813858,-0.470685213804245
1712295,9.447097778320312,-0.14956596493721,2.57737135887146,0.2261665314435959,-0.8932172656059265,0.4023434817790985,0.6246520280838013,-0.3832263052463531,-0.4685956537723541,-0.4933210611343384,9.136940956115724,-0.2163937985897064,-3.236299991607666,-0.5035713315010071,0.3519120812416076,0.6951350569725037,0.3350312411785126,-0.6802432537078857,-0.4510117173194885,-0.470756471157074
1712462,9.519083976745604,-0.1103760600090026,2.617812395095825,0.127724140882492,-0.7781522274017334,0.2474891096353531,0.624609649181366,-0.3832505345344543,-0.4686580896377563,-0.4932966828346252,9.102514266967772,-0.2526682913303375,-3.2640838623046875,0.2783268094062805,-0.1740254908800125,0.9730200171470642,0.3350905776023865,-0.680240273475647,-0.4510327577590942,-0.4706984758377075
1712628,9.510663032531738,-0.0587465092539787,2.651944160461426,0.2995597124099731,-0.0821911469101905,0.2093902230262756,0.6245831251144409,-0.3832415044307709,-0.4686446487903595,-0.4933499991893768,9.142452239990234,-0.2213199138641357,-3.2584774494171143,0.7634696960449219,-0.5510059595108032,1.034887433052063,0.3351656198501587,-0.6802531480789185,-0.4510857760906219,-0.4705757200717926
1712795,9.455113410949709,-0.0872439295053482,2.648634195327759,0.583578884601593,-0.3870719075202942,0.5455184578895569,0.6245901584625244,-0.3832379281520843,-0.4686713218688965,-0.4933184683322906,9.207727432250977,-0.2042642533779144,-3.2522623538970947,0.911421537399292,-0.7367364764213562,0.5362210869789124,0.3352071642875671,-0.6802393794059753,-0.4512068629264831,-0.4704499840736389
1712962,9.464629173278809,-0.1254642456769943,2.6780436038970947,0.5990106463432312,-0.2678704261779785,1.0424305200576782,0.6246556043624878,-0.3832456469535827,-0.4686701595783233,-0.4932306706905365,9.237067222595217,-0.222367912530899,-3.227403163909912,1.011810541152954,-0.3123084604740143,0.5587859153747559,0.3352769017219543,-0.6802021861076355,-0.4512990117073059,-0.470365434885025
1713128,9.46787929534912,-0.1459518074989318,2.676191806793213,0.8660742044448853,-0.4399878084659576,1.138631820678711,0.6247206926345825,-0.3832579851150512,-0.4686905443668365,-0.4931192398071289,9.22665309906006,-0.2018086016178131,-3.228649854660034,1.2292110919952393,0.1792184710502624,0.7404183745384216,0.3354159295558929,-0.6801301836967468,-0.4513676464557647,-0.4703044891357422
1713295,9.469876289367676,-0.071744218468666,2.6471471786499023,0.4646079242229461,-0.5228447318077087,0.6562549471855164,0.6247429251670837,-0.3832617104053497,-0.4687307476997375,-0.4930500388145447,9.1918306350708,-0.1866936385631561,-3.225292444229126,1.161529541015625,0.544967770576477,1.030866265296936,0.3355849087238312,-0.6800615787506104,-0.4513764381408691,-0.4702747464179992
1713462,9.435748100280762,-0.0161716099828481,2.6768805980682373,0.3292960822582245,-0.2146728336811065,0.5823495388031006,0.6247501373291016,-0.3832718133926391,-0.4687205255031585,-0.4930426180362701,9.195229530334473,-0.1646377295255661,-3.2375526428222656,0.8599399328231812,0.8232242465019226,0.9602392315864564,0.335744559764862,-0.6799783110618591,-0.4513658583164215,-0.4702916145324707
1713628,9.43372631072998,-0.0949232876300811,2.6659481525421143,-0.1059469282627105,-0.222305417060852,0.7504584193229675,0.6247413754463196,-0.3833355903625488,-0.4686688184738159,-0.4930534362792969,9.17519474029541,-0.1534888744354248,-3.2033047676086426,0.4406345188617706,0.9124587774276732,0.8286541104316711,0.3358447253704071,-0.6799117922782898,-0.451319932937622,-0.4703602194786072
1713795,9.449069023132324,-0.1458835750818252,2.655383348464966,0.6444218754768372,-0.279690682888031,1.0865739583969116,0.6247860193252563,-0.3833661377429962,-0.4686510860919952,-0.4929899275302887,9.15847110748291,-0.1908356845378875,-3.209628105163574,-0.0668491497635841,0.8521025776863098,0.8588770627975464,0.3359028697013855,-0.6798688769340515,-0.4512487947940826,-0.4704490303993225
1713962,9.442856788635254,-0.1470877528190612,2.6157798767089844,0.9812289476394652,-0.2254686057567596,1.1819429397583008,0.6248909831047058,-0.383339911699295,-0.4686695635318756,-0.4928596615791321,9.16781997680664,-0.2108670026063919,-3.2166244983673096,-0.1118122488260269,0.8252860307693481,1.0975106954574585,0.3359716236591339,-0.6798442006111145,-0.4511545896530151,-0.4705259501934051
1714128,9.448431968688965,-0.0945310741662979,2.651953935623169,0.3516559898853302,0.0465574823319911,0.8689941167831421,0.6249226331710815,-0.3833622336387634,-0.4686108529567718,-0.4928580820560455,9.168821334838867,-0.2343983948230743,-3.2078819274902344,0.0963998064398765,0.6314747333526611,1.4336645603179932,0.336082398891449,-0.6798356175422668,-0.4510630667209625,-0.4705469906330108
1714295,9.45432186126709,-0.0822420269250869,2.6720845699310303,-0.2260064482688903,0.1074900925159454,0.7279577255249023,0.6249092817306519,-0.3834289908409118,-0.4685085713863373,-0.4929203689098358,9.166458129882812,-0.2434249520301818,-3.2095866203308105,0.310739666223526,0.5463381409645081,1.3286523818969729,0.3361908197402954,-0.6798242926597595,-0.4509888589382171,-0.4705570042133331
1714462,9.469934463500977,-0.1114682182669639,2.688328742980957,-0.1002096831798553,0.1040451899170875,0.8324190974235535,0.6249379515647888,-0.3834660649299621,-0.4684291779994964,-0.49293053150177,9.18872356414795,-0.2347507774829864,-3.1865127086639404,0.4804622530937195,0.4106420278549194,1.001975178718567,0.3363014161586761,-0.679779052734375,-0.450983315706253,-0.4705486297607422
1714628,9.441211700439451,-0.146881490945816,2.665374755859375,0.626019299030304,0.0804430842399597,1.0227344036102295,0.6250231862068176,-0.3834476470947265,-0.4683965742588043,-0.4928676784038543,9.202333450317385,-0.2442468255758285,-3.2017595767974854,0.4711648225784302,0.3496581315994262,0.8152714371681213,0.3363835215568542,-0.6797347068786621,-0.4509870111942291,-0.4705504477024078
1714795,9.45577621459961,-0.1136458665132522,2.661552906036377,1.1421278715133667,-0.5096030831336975,1.1371206045150757,0.625087559223175,-0.3834492862224579,-0.4684352874755859,-0.492747962474823,9.182186126708984,-0.2294622212648391,-3.1810312271118164,0.604286789894104,0.2920295596122741,0.6271589398384094,0.3364583849906921,-0.6796785593032837,-0.4510170221328735,-0.4705492556095123
1714962,9.489831924438477,-0.1542668789625167,2.601590394973755,0.7999935150146484,-0.6114519238471985,1.2644284963607788,0.6251510977745056,-0.3834834098815918,-0.4684625566005707,-0.4926149249076843,9.163169860839844,-0.2153479158878326,-3.1754987239837646,0.682431161403656,0.2759064137935638,0.6019560694694519,0.3365398943424225,-0.6796167492866516,-0.4510570168495178,-0.4705418646335602
1715128,9.464903831481934,-0.1291794627904892,2.599322557449341,0.4869871139526367,-0.1810305714607238,1.2015814781188965,0.625205397605896,-0.383525937795639,-0.4684205949306488,-0.4925528466701507,9.102599143981934,-0.2485135793685913,-3.1816813945770264,1.032467246055603,-0.4296914637088775,0.939710795879364,0.3366294205188751,-0.6796111464500427,-0.451117992401123,-0.470427393913269
1715295,9.454841613769531,-0.1329411417245865,2.664696455001831,0.1009204387664794,0.0272070877254009,1.0461186170578003,0.625245213508606,-0.3835747539997101,-0.4683435261249542,-0.492537647485733,9.179678916931152,-0.2133546471595764,-3.2108757495880127,1.0743824243545532,-0.761811375617981,1.224562406539917,0.3367222249507904,-0.6796448826789856,-0.4511700272560119,-0.4702624976634979
1715462,9.468698501586914,-0.1074164658784866,2.6396279335021973,0.3656532764434814,-0.6314554810523987,0.842869222164154,0.6252576112747192,-0.3836162984371185,-0.46836918592453,-0.492464929819107,9.161090850830078,-0.2124564200639724,-3.2102808952331543,1.047757863998413,-0.967481255531311,1.2947412729263306,0.336802989244461,-0.6796979904174805,-0.4512239694595337,-0.4700761139392853
1715628,9.468401908874512,-0.1236688643693924,2.6579504013061523,0.4016135334968567,-0.2465606480836868,1.2706140279769895,0.6252904534339905,-0.3836921155452728,-0.468311458826065,-0.4924192428588867,9.188061714172363,-0.2057210206985473,-3.21025013923645,0.7596405744552612,-1.179477572441101,1.1689187288284302,0.3368380069732666,-0.6797667145729065,-0.4512876272201538,-0.4698905944824219
1715795,9.471702575683594,-0.1606455743312835,2.654554605484009,0.3955305218696594,-0.4876018166542053,1.362358570098877,0.6253370046615601,-0.3837691843509674,-0.4682871997356415,-0.492323100566864,9.180081367492676,-0.2291718125343322,-3.225569486618042,0.5667386054992676,-1.1333364248275757,1.0653923749923706,0.3368403017520904,-0.6798425316810608,-0.4513356387615204,-0.4697329699993133
1715962,9.46989631652832,-0.1351875364780426,2.630610466003418,0.5458771586418152,-0.6491283178329468,1.3381292819976809,0.6253939270973206,-0.3838294446468353,-0.4682995080947876,-0.4921920895576477,9.185715675354004,-0.2462929934263229,-3.2360141277313232,0.5647280216217041,-1.0169521570205688,1.1769611835479736,0.3368590772151947,-0.6799167990684509,-0.4513680040836334,-0.4695806801319122
1716128,9.461921691894531,-0.1226179227232933,2.6357455253601074,0.3629511594772339,-0.6936303377151489,1.452476978302002,0.6254100799560547,-0.3839503526687622,-0.4682714343070984,-0.4921039938926697,9.204452514648438,-0.2607831656932831,-3.2594871520996094,0.5961547493934631,-0.8211175799369812,1.2609196901321411,0.336918830871582,-0.6799662113189697,-0.4514055848121643,-0.4694302380084991
1716295,9.449304580688477,-0.1381795853376388,2.6545615196228027,-0.0411980263888835,-0.5608668923377991,1.334095120429993,0.625417947769165,-0.3840775191783905,-0.4682188928127289,-0.4920448064804077,9.213960647583008,-0.2464805245399475,-3.271557569503784,0.5393842458724976,-0.5101153254508972,1.3244006633758545,0.3369807302951813,-0.680014967918396,-0.4513994455337524,-0.4693210422992706
1716462,9.448810577392578,-0.1635339707136154,2.6520559787750244,-0.2421552836894989,-1.014519214630127,1.3257839679718018,0.625374436378479,-0.3842631578445434,-0.4681873321533203,-0.4919852316379547,9.186797142028809,-0.239357054233551,-3.263667345046997,0.3353790938854217,-0.0078630996868014,1.2433876991271973,0.3370494842529297,-0.6800345182418823,-0.4513624310493469,-0.4692790508270263
1716628,9.481368064880373,-0.1752460151910781,2.606335163116455,0.1506731063127517,-1.2011460065841677,1.3066896200180054,0.6253660917282104,-0.3843996524810791,-0.4682210087776184,-0.4918572306632995,9.129388809204102,-0.2669969499111175,-3.2896223068237305,0.2660198807716369,0.0413965247571468,1.1129422187805176,0.3371049761772156,-0.6800466179847717,-0.4513299167156219,-0.4692530632019043
1716795,9.48495101928711,-0.1860058754682541,2.6044304370880127,0.2488978058099746,-0.5127149820327759,1.5260493755340576,0.6254104375839233,-0.3845071494579315,-0.4681762456893921,-0.4917592704296112,9.164127349853516,-0.2844685614109039,-3.2937819957733154,0.3678944408893585,-0.2928043901920318,1.4172979593276978,0.3371783196926117,-0.6800891757011414,-0.451300710439682,-0.4691666662693023
1716962,9.503290176391602,-0.1722864657640457,2.593141794204712,-0.0784388855099678,-0.2870030701160431,1.014217972755432,0.6254101395606995,-0.3845983445644378,-0.4681127667427063,-0.4917487502098083,9.12675952911377,-0.3030103147029876,-3.2852001190185547,0.4766587316989898,-0.4191133975982666,1.4956984519958496,0.3372476994991302,-0.6801498532295227,-0.4512646794319153,-0.4690634906291961
1717128,9.493897438049316,-0.1459485739469528,2.623037338256836,-0.3576428890228271,0.2465158253908157,0.5784692168235779,0.6253901720046997,-0.3846562206745147,-0.4679985642433166,-0.4918377101421356,9.150543212890623,-0.2931276261806488,-3.3001949787139893,0.5925690531730652,-0.4872560501098633,1.5405336618423462,0.3373320400714874,-0.680208683013916,-0.4512405693531036,-0.4689407348632812
1717295,9.471211433410645,-0.1662940829992294,2.586916446685791,-0.3357312679290771,0.2410091012716293,0.8773181438446045,0.6254104375839233,-0.3847154676914215,-0.4678828716278076,-0.4918755292892456,9.184297561645508,-0.3036426305770874,-3.2905287742614746,0.6500823497772217,-0.4033104181289673,1.411765694618225,0.3374204933643341,-0.6802490949630737,-0.4512314200401306,-0.4688273072242737
1717462,9.48557472229004,-0.1880155205726623,2.61329197883606,0.0757303386926651,0.354998379945755,0.7062637209892273,0.6254438161849976,-0.3847227990627289,-0.4677920341491699,-0.4919137358665466,9.15201187133789,-0.2919549643993377,-3.264089584350586,0.4690773785114288,-0.354940801858902,1.1571881771087646,0.3374725878238678,-0.6802822947502136,-0.4512274861335754,-0.4687451720237732
1717628,9.513416290283203,-0.1755397617816925,2.627773761749268,-0.2557812333106994,0.9107043743133544,0.5394994020462036,0.6254885196685791,-0.3847050368785858,-0.4676394760608673,-0.4920157790184021,9.2172269821167,-0.297435313463211,-3.2551229000091557,0.435102105140686,-0.0645568072795867,0.8808270692825317,0.3375291228294372,-0.6802730560302734,-0.4512429535388946,-0.4687030017375946
1717795,9.43222999572754,-0.1743660420179367,2.647969961166382,-0.2056955695152282,0.8603241443634033,0.6580221652984619,0.6255466341972351,-0.3846898376941681,-0.4674919545650482,-0.492093950510025,9.164066314697266,-0.2991143465042114,-3.258572578430176,0.4120378792285919,0.2880852520465851,0.7892105579376221,0.3375999331474304,-0.6802359819412231,-0.4512467384338379,-0.4687021970748901
1717962,9.433329582214355,-0.1703605651855468,2.6191771030426025,0.4698841571807861,0.1390961557626724,0.8068320155143738,0.6255959272384644,-0.3846827745437622,-0.4674441516399383,-0.4920822083950043,9.135246276855469,-0.3009163737297058,-3.235022783279419,0.4609837830066681,0.1671548783779144,0.666679322719574,0.3376626074314117,-0.6801938414573669,-0.4512757956981659,-0.4686901271343231
1718128,9.48740291595459,-0.1836775839328766,2.5610365867614746,0.6660261750221252,0.1099488958716392,0.4688596725463867,0.6256443858146667,-0.3846235871315002,-0.4674423038959503,-0.4920684695243835,9.113677978515623,-0.3037129938602447,-3.226933479309082,0.4699225723743438,-0.1773039102554321,0.643243670463562,0.3377007842063904,-0.6801738142967224,-0.4513242244720459,-0.4686450958251953
1718295,9.516366004943848,-0.1785771548748016,2.594228982925415,0.2919399440288543,0.7419294118881226,0.5673404932022095,0.6257147789001465,-0.3845667243003845,-0.4673458337783813,-0.4921152591705322,9.138211250305176,-0.2872621715068817,-3.221437692642212,0.4348460137844085,-0.7648463845252991,0.6823927760124207,0.3376888036727905,-0.680207371711731,-0.4513829946517944,-0.4685483872890472
1718462,9.455313682556152,-0.1795262694358825,2.641649007797241,0.2738701999187469,1.1261199712753296,0.6133152842521667,0.6257898807525635,-0.384509414434433,-0.4671939313411712,-0.4922088980674743,9.161347389221191,-0.2812734246253967,-3.2440714836120605,0.3541275858879089,-0.8139843344688416,0.7612926363945007,0.3376699090003967,-0.6802544593811035,-0.4514293968677521,-0.4684489071369171
1718628,9.442922592163086,-0.1718545109033584,2.6562318801879883,0.6408682465553284,0.4565207660198211,0.3669019341468811,0.6258252859115601,-0.3844471573829651,-0.4671452045440674,-0.4922587275505066,9.140573501586914,-0.2772852480411529,-3.2647993564605717,0.1898477524518966,-0.9583632946014404,0.802042543888092,0.3376472592353821,-0.6803068518638611,-0.4514873027801513,-0.4683334827423095
