sampleTimeFine,W4_acc_x,W4_acc_y,W4_acc_z,W4_gyro_x,W4_gyro_y,W4_gyro_z,W4_quat_w,W4_quat_x,W4_quat_y,W4_quat_z,W5_acc_x,W5_acc_y,W5_acc_z,W5_gyro_x,W5_gyro_y,W5_gyro_z,W5_quat_w,W5_quat_x,W5_quat_y,W5_quat_z
84296,0.0,0.0,0.0,0.0,0.0,0.0,0.6809042692184448,-0.3293947279453277,-0.4283704161643982,-0.4943351149559021,0.0,0.0,0.0,0.0,0.0,0.0,0.3910839855670929,-0.671151876449585,-0.430799275636673,-0.4593695104122162
84462,8.939885139465332,-0.2461900264024734,4.066787242889404,0.5400245189666748,-0.2573307752609253,0.1130608543753624,0.6806330680847168,-0.3297550082206726,-0.4281307756900787,-0.4946760833263397,9.291558265686035,-1.235940933227539,-2.66910719871521,0.0515007339417934,1.1361600160598757,0.1560901999473571,0.3908754289150238,-0.6712101101875305,-0.4305961728096008,-0.4596524238586426
84629,8.930801391601562,-0.2323318868875503,4.075850009918213,0.4535944759845733,-0.3606652021408081,-0.1377194821834564,0.6800655126571655,-0.3302477300167084,-0.4280306696891784,-0.4952141940593719,9.326844215393066,-1.2009081840515137,-2.6571967601776123,0.1059277281165123,0.6694967746734619,0.1191054508090019,0.3907585442066192,-0.6711302399635315,-0.4308308660984039,-0.4596486091613769
84796,8.930254936218262,-0.2279546111822128,4.056602954864502,0.4565015733242035,-0.1176519468426704,-0.0307608544826507,0.6796929836273193,-0.3304532766342163,-0.4280217885971069,-0.495596170425415,9.361602783203123,-1.1985300779342651,-2.6689021587371826,-0.0974050909280777,0.7619457840919495,0.2114520370960235,0.3905467391014099,-0.6709169149398804,-0.4311089217662811,-0.4598791301250458
84962,8.900847434997559,-0.227682814002037,4.04582405090332,0.5698121786117554,-0.173154667019844,0.1528373658657074,0.6794951558113098,-0.3305054008960724,-0.428162932395935,-0.4957107305526733,9.336832046508787,-1.2065527439117432,-2.6317737102508545,-0.0371896363794803,1.0141412019729614,0.6130719780921936,0.3903872668743133,-0.6707148551940918,-0.4312869310379028,-0.4601422250270843
85129,8.943443298339844,-0.2236881852149963,4.096473693847656,0.4869550466537475,-0.1992283761501312,0.1067729368805885,0.6793419122695923,-0.3305357098579407,-0.4282924234867096,-0.4957886636257171,9.278566360473633,-1.257040023803711,-2.653306245803833,0.1681281477212906,0.7537112832069397,1.0206724405288696,0.3903602957725525,-0.6705618500709534,-0.4313097596168518,-0.4603667855262756
85296,8.972142219543457,-0.227675661444664,4.139839172363281,0.3753605484962463,-0.3078006505966186,0.1668219119310379,0.6793057322502136,-0.3304791450500488,-0.4284001290798187,-0.4957830309867859,9.315133094787598,-1.237119197845459,-2.6723763942718506,0.3510284423828125,0.3079478740692138,0.9444746375083924,0.3905091285705566,-0.670455276966095,-0.4314032196998596,-0.4603082537651062
85462,8.90342903137207,-0.2738224267959595,4.043097972869873,0.7476410269737244,-0.7263504862785339,0.618322491645813,0.6792131662368774,-0.3305228054523468,-0.4283944368362427,-0.4958856105804443,9.37889003753662,-1.2327474355697632,-2.6457035541534424,0.3431653380393982,0.549770176410675,0.5255661606788635,0.3905721008777618,-0.6704220175743103,-0.4313981533050537,-0.4603079855442047
85629,8.88150405883789,-0.2535095512866974,4.056146621704102,0.738023579120636,-0.8323615193367004,0.4224494397640228,0.6792894005775452,-0.3304854333400726,-0.4285198450088501,-0.4956975877285003,9.363492012023926,-1.2467155456542969,-2.6309032440185547,0.4170707464218139,0.973327338695526,0.3266067206859588,0.3906779587268829,-0.6703287959098816,-0.4313695728778839,-0.4603807926177978
85796,9.033059120178224,-0.1777718812227249,4.104701519012451,0.3364548087120056,-0.6385501027107239,-0.4833244085311889,0.6791514158248901,-0.3305561244487762,-0.4285328984260559,-0.495828241109848,9.35109519958496,-1.2404931783676147,-2.616124629974365,0.6108821034431458,1.143190860748291,0.2445948868989944,0.3909010887145996,-0.6701399087905884,-0.4314268827438354,-0.4604125022888183
85962,9.035677909851074,-0.2097734063863754,4.072072982788086,0.529100775718689,-0.37742879986763,-0.1204949542880058,0.6792010068893433,-0.3304365873336792,-0.4286671876907348,-0.4957239925861358,9.312357902526855,-1.2063311338424685,-2.595245361328125,0.5672637224197388,1.3227486610412598,0.230917677283287,0.3911035656929016,-0.6699725389480591,-0.4314010739326477,-0.4605084657669067
86129,8.87544059753418,-0.2606014311313629,4.111244201660156,1.0813746452331543,0.3621571660041809,0.7315306663513184,0.6793139576911926,-0.3303190767765045,-0.4287170171737671,-0.495604395866394,9.250679969787598,-1.158039927482605,-2.592942714691162,0.2080327421426773,0.987606406211853,0.1969168186187744,0.3912061750888824,-0.669869065284729,-0.4313251376152038,-0.46064293384552
86296,8.811249732971191,-0.2239699512720108,4.169277191162109,0.9668986797332764,-1.3624675273895264,0.6614928245544434,0.6792807579040527,-0.3303802013397217,-0.4288477897644043,-0.4954960942268371,9.251641273498535,-1.178249478340149,-2.596219301223755,-0.1866525262594223,0.5144758820533752,0.3593909740447998,0.3912110328674316,-0.6698380708694458,-0.431230366230011,-0.4607726335525512
86462,8.904184341430664,-0.1802989095449447,4.063582420349121,0.7125260829925537,-1.5513485670089722,-0.1429957151412964,0.6791898608207703,-0.3304004967212677,-0.4289674162864685,-0.4955035746097564,9.320898056030272,-1.1939239501953125,-2.608614444732666,-0.1986136585474014,0.207776591181755,0.6454335451126099,0.391258180141449,-0.669798731803894,-0.4312075972557068,-0.460811048746109
86629,8.922464370727539,-0.1748891770839691,4.055531024932861,0.5598999857902527,-0.8650688529014587,0.0351854413747787,0.6791418790817261,-0.3303864002227783,-0.4290266633033752,-0.495527446269989,9.3649320602417,-1.225079894065857,-2.636648178100586,-0.2210503965616226,0.2177271395921707,0.7030749917030334,0.3912712633609772,-0.6697976589202881,-0.4311290979385376,-0.4608749449253082
86796,8.926027297973633,-0.2452562898397445,4.055733680725098,0.2235924452543258,-0.5265585780143738,0.2813234627246856,0.6791676878929138,-0.3303419053554535,-0.4290770292282104,-0.4954781532287597,9.35154151916504,-1.2368491888046265,-2.645570755004883,-0.0434903614223003,0.277635246515274,0.7790806889533997,0.3912491798400879,-0.669854462146759,-0.4309578835964203,-0.4609712660312652
86962,8.936298370361328,-0.2387654781341552,4.059760570526123,0.2333893328905105,-0.0559637434780597,0.2342601716518402,0.6792128682136536,-0.3302821516990661,-0.4290808141231537,-0.4954527914524078,9.370121002197266,-1.250360131263733,-2.6363799571990967,0.1531063020229339,0.2352078109979629,0.6564086079597473,0.3912625312805176,-0.669881284236908,-0.4308484196662903,-0.4610232710838318
87129,8.933823585510254,-0.1946779042482376,4.0731072425842285,0.4453087747097015,-0.0855848416686058,0.1596887707710266,0.6791239976882935,-0.3303274810314178,-0.4290179014205932,-0.4955987334251404,9.321290969848633,-1.226317286491394,-2.6173689365386963,0.3819045424461365,0.4926281869411468,0.4474474191665649,0.3914267420768738,-0.6697575449943542,-0.4309314787387848,-0.4609859585762024
87296,8.925187110900879,-0.2153016477823257,4.096968650817871,0.4466150403022766,-0.5254188776016235,0.1426819264888763,0.6791719198226929,-0.3302564620971679,-0.429116815328598,-0.4954947829246521,9.302406311035156,-1.2470933198928833,-2.6652655601501465,0.632025420665741,0.0676111280918121,0.6021866798400879,0.3915167450904846,-0.6697386503219604,-0.4309172928333282,-0.4609501957893371
87462,8.960423469543457,-0.236376017332077,4.104781150817871,0.6970047354698181,-0.6703483462333679,0.3373768925666809,0.6791717410087585,-0.3302411437034607,-0.4291916489601135,-0.4954402446746826,9.307857513427734,-1.2200877666473389,-2.6516335010528564,1.129411220550537,-0.0775936767458915,0.7290335297584534,0.3917066752910614,-0.6696680784225464,-0.4310118556022644,-0.4608029425144195
87629,8.936168670654297,-0.2127728313207626,4.071535587310791,0.5526387691497803,-0.7158108353614807,0.407158613204956,0.6791695356369019,-0.3302511572837829,-0.4292545318603515,-0.4953822791576385,9.29766845703125,-1.1651890277862549,-2.6468801498413086,0.6676141619682312,-0.3136018514633178,0.4649024903774261,0.3917326331138611,-0.6697044968605042,-0.4309963881969452,-0.4607424139976501
87796,8.934121131896973,-0.2521032989025116,4.046764850616455,0.53668212890625,-0.7556514739990234,0.6460099220275879,0.6791645288467407,-0.3302958905696869,-0.4293006062507629,-0.4953192770481109,9.334487915039062,-1.1917638778686523,-2.65311336517334,0.2829754948616028,-0.3377546370029449,0.3800476193428039,0.39173424243927,-0.6697314977645874,-0.4310138821601867,-0.4606854915618896
87962,8.92356014251709,-0.1896288245916366,4.089693069458008,0.3594038486480713,-0.4346475601196289,0.0550224855542182,0.679125189781189,-0.3303083777427673,-0.4293295741081238,-0.4953396618366241,9.35781192779541,-1.2041840553283691,-2.6456637382507324,0.1649265587329864,-0.3815779685974121,0.6642588973045349,0.3917239010334015,-0.6697986721992493,-0.4309821426868438,-0.4606263935565948
88129,8.954141616821289,-0.1891616731882095,4.013552188873291,-0.084560327231884,-1.2685331106185913,-0.2916133999824524,0.6790191531181335,-0.330372005701065,-0.4294480085372925,-0.4953402578830719,9.358884811401367,-1.217930793762207,-2.6434922218322754,0.147970974445343,-0.2373016625642776,0.8814418911933899,0.391772449016571,-0.6698352694511414,-0.430975079536438,-0.4605383574962616
88296,8.950321197509766,-0.2092833071947097,4.012770175933838,0.5488864779472351,-0.0925386771559715,0.5640491843223572,0.6790390610694885,-0.3303741812705993,-0.429440289735794,-0.4953180253505707,9.32151985168457,-1.2069664001464844,-2.637270450592041,-0.0950487181544303,-0.134581908583641,0.8067039251327515,0.391792893409729,-0.6698803901672363,-0.4309428334236145,-0.4604855477809906
88462,8.948253631591797,-0.25508713722229,4.082574367523193,0.2509980499744415,-1.135539174079895,0.6351885795593262,0.678967297077179,-0.3305018544197082,-0.4295061826705932,-0.4952741265296936,9.28673267364502,-1.2230441570281982,-2.672083616256714,-0.2695992588996887,-0.2516447901725769,0.8683152794837952,0.3917781412601471,-0.6699613928794861,-0.4308772683143616,-0.4604416191577911
88629,8.962742805480957,-0.2107820957899093,4.054690837860107,0.5140277147293091,-0.968569815158844,0.3031454980373382,0.6789968013763428,-0.3304872214794159,-0.429653137922287,-0.4951159954071045,9.267276763916016,-1.2370589971542358,-2.6573219299316406,-0.3185195624828338,-0.5493155717849731,0.5740510821342468,0.3917052745819092,-0.6700628995895386,-0.4308340847492218,-0.4603963494300842
88796,8.94329833984375,-0.1851716786623001,4.051223278045654,0.3624261021614074,-0.9019255042076112,0.1541948467493057,0.6789512038230896,-0.3305266499519348,-0.4297506213188171,-0.4950674176216125,9.3045654296875,-1.2452353239059448,-2.675661087036133,-0.1951559633016586,-0.6823607087135315,0.3792920410633087,0.3916391134262085,-0.6701425313949585,-0.4308463037014007,-0.4603253901004791
88962,8.91472339630127,-0.228712648153305,4.048542499542236,-0.0067745586857199,-0.776244044303894,0.2657253444194793,0.6790174841880798,-0.3304995596408844,-0.4298822283744812,-0.4948803782463074,9.351849555969238,-1.2249618768692017,-2.663416147232056,0.0071267331950366,-0.6147816181182861,0.254916787147522,0.3916115462779999,-0.6701799035072327,-0.4309114813804626,-0.4602331519126892
89129,8.950590133666992,-0.2373123317956924,4.006704807281494,0.5085209608078003,-0.7489537596702576,0.4627895057201385,0.6789886355400085,-0.3305517137050628,-0.4299463927745819,-0.4948294758796692,9.361348152160645,-1.215559959411621,-2.669978380203247,-0.0711392685770988,-0.2087562978267669,-0.0325025133788585,0.3915688097476959,-0.6701899170875549,-0.430955171585083,-0.4602139294147491
89296,8.970165252685547,-0.205850064754486,4.026333808898926,0.5969871878623962,-0.1987545490264892,0.3607228398323059,0.6790125370025635,-0.3305330574512481,-0.4299840927124023,-0.4947764873504638,9.347001075744627,-1.216160774230957,-2.658362865447998,-0.0132161537185311,0.0915077775716781,0.0655493140220642,0.3915456533432007,-0.6701933145523071,-0.4309594631195068,-0.460224986076355
89462,8.957372665405273,-0.1923853904008865,4.078525066375732,0.4274823367595672,-0.2135842889547348,0.1889896988868713,0.6789522171020508,-0.3305757343769073,-0.4299802482128143,-0.4948338568210602,9.324045181274414,-1.1825087070465088,-2.6283442974090576,-0.1063567325472831,0.2576701045036316,0.2958843111991882,0.3915561735630035,-0.6701893210411072,-0.4309492409229278,-0.4602313935756683
89629,8.922926902770996,-0.2081173807382583,4.05840539932251,0.5224798917770386,-0.1135538965463638,0.2778785526752472,0.6789827942848206,-0.3305418193340301,-0.4300175011157989,-0.4947822093963623,9.324302673339844,-1.1752238273620603,-2.636676549911499,-0.229246437549591,0.3488769829273224,0.6286188960075378,0.3915646970272064,-0.6702219247817993,-0.4308671355247497,-0.4602534174919128
89796,8.91723346710205,-0.2202550321817398,4.087454795837402,0.5241959691047668,-0.2496853917837143,0.4417998194694519,0.678993821144104,-0.3305476009845733,-0.4300439059734344,-0.4947403371334076,9.324508666992188,-1.1730836629867554,-2.635354995727539,-0.3955369293689728,0.423640489578247,0.7006162405014038,0.3915671110153198,-0.670261025428772,-0.4307648241519928,-0.4602901935577392
89962,8.952186584472656,-0.2289789617061615,4.07384204864502,0.6812530159950256,-0.4368374347686767,0.482024610042572,0.6789975166320801,-0.3305597007274627,-0.4300904870033264,-0.4946867525577545,9.311893463134766,-1.200175404548645,-2.641747236251831,-0.5700234174728394,0.4737388789653778,0.7379339337348938,0.3915560841560364,-0.6703091263771057,-0.4306427538394928,-0.4603438079357147
90129,8.94861125946045,-0.2021021991968155,4.06126594543457,0.4715490043163299,-0.2411435693502426,0.3978868722915649,0.6790317893028259,-0.3305440247058868,-0.4301280081272125,-0.4946174621582031,9.332751274108888,-1.2294085025787354,-2.6417324542999268,-0.3474106788635254,0.4455137550830841,0.7985463738441467,0.3915926218032837,-0.6703282594680786,-0.430564820766449,-0.4603577852249145
90296,8.936473846435547,-0.2005072087049484,4.049396514892578,-0.0015367619926109,0.1733019202947616,0.2745489180088043,0.6790680885314941,-0.33053058385849,-0.4301016330718994,-0.4945996701717376,9.382859230041504,-1.2646353244781494,-2.623491048812866,0.0594790950417518,0.4481645822525024,0.9306567311286926,0.3916283547878265,-0.6703800559043884,-0.4304257333278656,-0.4603821039199829
90462,8.909805297851562,-0.2238312363624572,4.0567779541015625,0.1439113467931747,0.4058012068271637,0.5287293195724487,0.6791199445724487,-0.3305224478244781,-0.4300348162651062,-0.4945918023586273,9.383389472961426,-1.261065125465393,-2.6191883087158203,0.4824727773666382,0.7486528158187866,0.8918278217315674,0.3917543590068817,-0.6703571081161499,-0.4303424060344696,-0.4603862166404724
90629,8.924874305725098,-0.2452961951494217,4.0752716064453125,0.389383465051651,0.2508827745914459,0.7407256364822388,0.6791863441467285,-0.3305177688598633,-0.4299875497817993,-0.4945448637008667,9.32209587097168,-1.2235994338989258,-2.602715492248535,0.8043860793113708,0.6585217714309692,0.9267380237579346,0.3919136822223663,-0.6703209280967712,-0.4302845001220703,-0.4603573679924011
90962,8.932779312133789,-0.20248843729496,4.090816497802734,0.4847908318042755,0.2438264936208725,0.5644975304603577,0.6793367862701416,-0.3304624557495117,-0.4298989772796631,-0.4944522976875305,9.271576881408691,-1.2106140851974487,-2.5990259647369385,0.9087194204330444,0.1253165304660797,0.8806094527244568,0.392051488161087,-0.6703075766563416,-0.4302727282047272,-0.4602704346179962
91129,8.925869941711426,-0.2254973202943802,4.07068395614624,0.4974305629730224,-0.1328530609607696,0.7196848392486572,0.6793315410614014,-0.3305191099643707,-0.4298606812953949,-0.4944548308849334,9.316515922546388,-1.193195343017578,-2.605678081512451,0.7229247689247131,-0.1201363578438758,0.6694071292877197,0.3921606838703155,-0.6702905297279358,-0.4303092360496521,-0.4601682126522064
91296,8.926133155822754,-0.22186940908432,4.038589000701904,0.5884326100349426,-0.2185147404670715,0.8178198337554932,0.6793689727783203,-0.330547571182251,-0.4298565685749054,-0.4943881034851074,9.337532043457031,-1.2243181467056274,-2.602303028106689,0.641258716583252,-0.5036737322807312,0.8033871054649353,0.3922097086906433,-0.6703457832336426,-0.4302954375743866,-0.4600589275360107
91463,8.988049507141113,-0.1766610592603683,4.0769944190979,0.2532903552055359,0.1949318349361419,0.6692405939102173,0.6794009208679199,-0.3305741548538208,-0.4297923445701599,-0.4943820834159851,9.263477325439451,-1.235539197921753,-2.6149916648864746,0.5983062982559204,-0.5268917083740234,1.1291295289993286,0.3923039734363556,-0.6703982353210449,-0.4302887320518493,-0.4599080979824066
91629,8.952658653259277,-0.247194305062294,4.049859046936035,0.2250395864248275,0.0985000357031822,0.9725077748298644,0.6794946193695068,-0.3305871188640594,-0.4297539889812469,-0.4942779839038849,9.276333808898926,-1.2489757537841797,-2.652608156204224,0.5298178791999817,-1.2872430086135864,1.3445833921432495,0.3923596739768982,-0.6705184578895569,-0.4303005933761596,-0.459674060344696
91796,8.833245277404785,-0.2466005682945251,3.9920883178710938,0.4502520561218261,-0.4612334966659546,1.1599671840667725,0.6795526742935181,-0.3306521773338318,-0.429761677980423,-0.4941480457782745,9.366890907287598,-1.2252334356307983,-2.653273105621338,0.4932429194450378,-1.4853827953338623,1.0400997400283811,0.3923843801021576,-0.6706312894821167,-0.4303578734397888,-0.4594346880912781
91963,8.98298168182373,-0.2029998302459716,4.059785842895508,0.0878323540091514,-0.6425970792770386,0.4975202679634094,0.6794970631599426,-0.3307583034038543,-0.4297681748867035,-0.4941478371620178,9.395030975341797,-1.2393721342086792,-2.660823106765747,0.0311770588159561,-1.1198768615722656,0.4463717639446258,0.3923292756080627,-0.6707252860069275,-0.4303959012031555,-0.459308922290802
92129,9.057044982910156,-0.1618734449148178,4.071569442749023,0.0597352162003517,-0.2722757756710052,0.0630776658654213,0.679457426071167,-0.3307905793190002,-0.4297752380371094,-0.4941745102405548,9.365601539611816,-1.265891432762146,-2.628637313842773,0.1931005418300628,-0.514251708984375,0.4884789586067199,0.3923388719558716,-0.6707644462585449,-0.4304179847240448,-0.4592228829860687
92296,8.967503547668457,-0.2620306611061096,4.051322937011719,0.715036153793335,0.0553810633718967,0.9531959295272828,0.6795232892036438,-0.330797791481018,-0.4297496974468231,-0.4941013753414154,9.34209442138672,-1.2376574277877808,-2.619629144668579,0.303209513425827,-0.3455664813518524,0.4209382832050323,0.3923434913158417,-0.6708033680915833,-0.4304094314575195,-0.4591700732707977
92463,8.797340393066406,-0.2809156477451324,4.170681953430176,1.24502694606781,0.2746513783931732,1.260970950126648,0.6796823740005493,-0.3307295143604278,-0.4297467172145843,-0.4939308166503906,9.326934814453123,-1.1954689025878906,-2.641519069671631,0.249960720539093,-0.0975459590554237,0.3395027220249176,0.3923777639865875,-0.6708004474639893,-0.4304263293743133,-0.4591293632984161
92629,8.907992362976074,-0.2140795290470123,4.125490188598633,0.514194130897522,-1.3425408601760864,0.6115607619285583,0.6796454787254333,-0.3308215737342834,-0.4298674762248993,-0.4938148856163025,9.283369064331056,-1.1885238885879517,-2.6389763355255127,-0.2340360283851623,-0.0677327811717987,0.1302597820758819,0.3923476040363312,-0.6708134412765503,-0.4304241240024566,-0.4591380357742309
92796,8.975658416748047,-0.1564805209636688,4.0549397468566895,0.4827801287174225,-0.3800156116485595,0.1942659020423889,0.6795974969863892,-0.3308557868003845,-0.4298824369907379,-0.493844985961914,9.2918701171875,-1.2109538316726685,-2.642384529113769,-0.5453199744224548,-0.3224126398563385,0.3125837743282318,0.3922611773014068,-0.670892596244812,-0.4303670525550842,-0.4591498076915741
92963,8.883352279663086,-0.2189568728208542,4.084407806396484,0.1917174458503723,-0.4121723473072052,0.403854638338089,0.6796019077301025,-0.3308856189250946,-0.429907739162445,-0.4937969446182251,9.302763938903809,-1.2234376668930054,-2.6293725967407227,-0.6515358090400696,-0.3913235664367676,0.6431156396865845,0.3922203183174133,-0.6709669828414917,-0.4303310513496399,-0.4591097235679626
93129,8.896484375,-0.2818087041378021,4.051639080047607,0.1019961759448051,-0.5251243710517883,0.5277816653251648,0.6795890927314758,-0.3309527933597564,-0.42992103099823,-0.4937580227851867,9.310798645019531,-1.2219831943511963,-2.6727466583251958,-0.717014729976654,-0.4646655619144439,0.634599506855011,0.3921471834182739,-0.6710689067840576,-0.4302649199962616,-0.4590853154659271
93296,8.957379341125488,-0.2388660162687301,4.027299404144287,0.3359169661998749,-0.325358122587204,0.3977459669113159,0.6795861124992371,-0.3309798836708069,-0.4299333095550537,-0.4937333464622497,9.288091659545898,-1.2402136325836182,-2.6889538764953613,-0.7636170983314514,-0.6628182530403137,0.6963901519775391,0.3920599222183227,-0.6711917519569397,-0.4301999807357788,-0.4590411782264709
93463,8.962197303771973,-0.202030673623085,4.006303310394287,0.0103795453906059,-0.0262402091175317,-0.0108341723680496,0.6795315146446228,-0.3310146033763885,-0.4298960864543915,-0.4938174486160278,9.349486351013184,-1.2447395324707031,-2.6752617359161377,-0.7475834488868713,-0.6622931957244873,0.4528773427009582,0.3919658958911896,-0.6712912917137146,-0.4301721155643463,-0.4590020179748535
93629,8.949841499328613,-0.220702052116394,4.041901111602783,-0.2373272478580474,-0.0638012290000915,-0.0011525714071467,0.6794420480728149,-0.3310952484607696,-0.4298320412635803,-0.4939422607421875,9.264904022216797,-1.2737387418746948,-2.662954092025757,-0.6965245008468628,-0.4714529514312744,0.3598392009735107,0.3918684422969818,-0.6713830232620239,-0.4301246702671051,-0.4589955508708954
93796,8.949773788452148,-0.2528307139873504,4.062610626220703,0.0111607322469353,0.0950423255562782,0.2668522894382477,0.6794703006744385,-0.3310899436473846,-0.4298092126846313,-0.4939267933368683,9.32211971282959,-1.3028440475463867,-2.7070937156677246,-0.1885862946510315,-0.8883508443832397,0.595271110534668,0.3917980492115021,-0.6715008020401001,-0.4300929605960846,-0.4589129388332367
93963,8.938765525817871,-0.2597687840461731,4.018856048583984,0.1384174227714538,-0.4039890766143799,0.6123676300048828,0.6794889569282532,-0.3311382234096527,-0.4298215210437774,-0.4938581883907318,9.328725814819336,-1.2200396060943604,-2.696917772293091,0.3478652834892273,-0.7692389488220215,0.5382573008537292,0.3918122947216034,-0.6715511679649353,-0.4301364719867706,-0.4587862491607666
94129,8.996614456176758,-0.2583559453487396,4.03381872177124,0.321343332529068,-0.067387007176876,0.6588930487632751,0.6795164942741394,-0.3311689794063568,-0.4297954440116882,-0.4938221871852875,9.362106323242188,-1.1955690383911133,-2.7032623291015625,-0.0295186340808868,-0.6190204620361328,0.14952053129673,0.3917579650878906,-0.6716026663780212,-0.430163025856018,-0.4587323665618896
94296,8.955939292907715,-0.1825617998838424,4.046911239624023,0.1548351943492889,-0.1965134441852569,-0.0612911917269229,0.6794830560684204,-0.3311752378940582,-0.4298099875450134,-0.4938513338565826,9.366033554077148,-1.2199695110321045,-2.695905923843384,-0.1769453138113021,-0.2565111517906189,0.0879988223314285,0.3917350172996521,-0.6716079711914062,-0.4302071034908294,-0.4587028324604034
94463,8.96281623840332,-0.1997812390327453,4.045287609100342,0.0121468231081962,-0.3238726258277893,-0.210382729768753,0.679421067237854,-0.3311969935894012,-0.4298331439495086,-0.4939019978046417,9.33001708984375,-1.238276124000549,-2.685084342956543,-0.1770349740982055,-0.1068049520254135,0.372363805770874,0.3917207419872284,-0.6716392040252686,-0.4301868677139282,-0.4586882591247558
94629,8.910348892211914,-0.2471624165773391,4.080899715423584,0.4254973530769348,0.0860650613903999,0.5313417911529541,0.6793956756591797,-0.3312483429908752,-0.429768830537796,-0.4939582943916321,9.293699264526367,-1.2194149494171145,-2.680245876312256,-0.082972340285778,-0.1738333851099014,0.6969150304794312,0.3917172849178314,-0.6717048287391663,-0.430121898651123,-0.4586561620235443
94796,8.96121597290039,-0.2801388502120971,4.063084125518799,0.5699529647827148,-1.3141748905181885,0.6895259022712708,0.6793553829193115,-0.3313489258289337,-0.4298810660839081,-0.4938486218452453,9.287741661071776,-1.1976103782653809,-2.672351360321045,-0.1576589792966842,-0.2365076541900634,0.8048343658447266,0.3916929364204407,-0.6718012690544128,-0.4300207495689392,-0.4586305916309356
94963,8.988368034362793,-0.2265242636203766,3.9992763996124263,0.8106997013092041,-0.8916677832603455,0.4508539736270904,0.6793135404586792,-0.3314011693000793,-0.4299643635749817,-0.4937987625598907,9.276206016540527,-1.2131638526916504,-2.6959383487701416,-0.4009539484977722,-0.3065199553966522,0.4507129788398742,0.3916298449039459,-0.6718811392784119,-0.4299621284008026,-0.4586222469806671
95129,8.93237590789795,-0.178617313504219,4.043846607208252,-0.0354479737579822,-0.3922200798988342,0.0113272173330187,0.6792241334915161,-0.3314790427684784,-0.4299558997154236,-0.4938769340515136,9.28761100769043,-1.224178671836853,-2.6730504035949707,-0.5556803345680237,-0.3898124694824219,0.2830779552459717,0.3915502429008484,-0.6719505786895752,-0.4299375414848327,-0.4586115777492523
95296,8.909998893737793,-0.2432571947574615,4.054965019226074,-0.1757927387952804,-0.4311257302761078,0.1607132703065872,0.67913818359375,-0.3315802216529846,-0.429935872554779,-0.4939443469047546,9.315354347229004,-1.2411513328552246,-2.6891684532165527,-0.3729336559772491,-0.291664570569992,0.293399840593338,0.3915359079837799,-0.671965479850769,-0.4299783110618591,-0.4585636854171753
95463,8.934907913208008,-0.2341789901256561,4.032867908477783,0.7118601202964783,-0.3386383056640625,0.5750755071640015,0.6790978312492371,-0.33164182305336,-0.4299278557300567,-0.4939653873443603,9.334158897399902,-1.237160325050354,-2.6953086853027344,-0.043221428990364,-0.0878259390592575,0.3578029572963714,0.3915351629257202,-0.6719856262207031,-0.4299708902835846,-0.4585417211055755
95629,8.952765464782715,-0.2193145006895065,4.034760475158691,0.8956184983253479,-0.3691686689853668,0.6832636594772339,0.6791456937789917,-0.3316303193569183,-0.4299803674221039,-0.4938617050647735,9.33322525024414,-1.212945818901062,-2.688803672790528,0.0147465104237198,0.0779842659831047,0.4467687010765075,0.3915561437606811,-0.6719972491264343,-0.4299489259719848,-0.4585274159908294
95796,8.958414077758789,-0.2112210094928741,4.057976722717285,0.6635929942131042,-0.1608477383852005,0.5220188498497009,0.6791136860847473,-0.3316773474216461,-0.4299567341804504,-0.4938947558403015,9.35729694366455,-1.1899468898773191,-2.679791212081909,0.0097712455317378,0.3746882081031799,0.3202996253967285,0.391583114862442,-0.6719844937324524,-0.4299172461032867,-0.4585527181625366
95963,8.959096908569336,-0.2111537009477615,4.054640293121338,0.3128398954868316,-0.1093150004744529,0.3466870784759521,0.6791254281997681,-0.3316829800605774,-0.4299585223197937,-0.49387326836586,9.359522819519045,-1.1952688694000244,-2.681343078613281,-0.1563527137041092,0.726203203201294,0.4851365387439728,0.3916366696357727,-0.6719579100608826,-0.4298542737960815,-0.458605021238327
96129,8.919157981872559,-0.2211347818374633,4.103933811187744,0.1586002558469772,0.1428612321615219,0.2286509573459625,0.6791256070137024,-0.3316879570484161,-0.4299225509166717,-0.4939010441303253,9.354421615600586,-1.219918131828308,-2.6735496520996094,-0.2053754180669784,1.1144661903381348,0.6740173697471619,0.3917164802551269,-0.6719247698783875,-0.4297398924827575,-0.4586926996707916
96296,8.904635429382324,-0.2260379493236541,4.117270469665527,0.3269780874252319,-0.1672253310680389,0.3497862219810486,0.6790673136711121,-0.3317544162273407,-0.4298848211765289,-0.4939691722393036,9.324209213256836,-1.225499391555786,-2.66925311088562,-0.2136355340480804,1.2013444900512695,0.8071522116661072,0.3918269276618957,-0.6718781590461731,-0.4296323955059051,-0.4587674438953399
96463,8.935489654541016,-0.2339840978384018,4.08552360534668,0.4626102149486542,-0.2612623572349548,0.4955737590789795,0.678996205329895,-0.331844300031662,-0.4298416376113891,-0.4940442144870758,9.302678108215332,-1.230322003364563,-2.6565616130828857,-0.0584609843790531,1.0417131185531616,0.9203987121582032,0.3918941617012024,-0.6718927621841431,-0.4294509291648865,-0.4588582813739776
96629,8.966832160949707,-0.2229228913784027,4.066887378692627,0.2245016992092132,-0.023986293002963,0.3082936406135559,0.6789971590042114,-0.331857293844223,-0.429821640253067,-0.4940517544746399,9.27320384979248,-1.223641037940979,-2.650805950164795,-0.012319709174335,0.987837016582489,0.7971888780593872,0.3919810056686401,-0.6718754172325134,-0.429327130317688,-0.4589253664016723
96796,8.932826042175293,-0.2128594368696212,4.053852558135986,0.2716931402683258,0.0672653540968895,0.2496661692857742,0.6789751648902893,-0.331878125667572,-0.4297809898853302,-0.4941031038761139,9.301434516906738,-1.2292349338531494,-2.6412813663482666,0.0104819955304265,0.6925609707832336,0.7257294058799744,0.3920633494853973,-0.6718564033508301,-0.4292531609535217,-0.4589521288871765
96963,8.90036392211914,-0.2283663004636764,4.056931972503662,0.2486929297447204,-0.2441530674695968,0.2596551775932312,0.678929328918457,-0.3319276869297027,-0.4297662675380707,-0.4941457211971283,9.312541007995604,-1.231910228729248,-2.64974045753479,0.1066320687532424,0.5210967659950256,0.443131685256958,0.3921144902706146,-0.6718358397483826,-0.4292067885398865,-0.4589819312095642
97129,8.91468334197998,-0.2369952499866485,4.04705810546875,0.5764970779418945,-0.0720741301774978,0.4352813959121704,0.6789489984512329,-0.3319204449653625,-0.4297670423984527,-0.4941228330135345,9.320444107055664,-1.2247437238693235,-2.671140670776367,0.2778273522853851,0.3419999778270721,0.4958426654338836,0.3921330869197845,-0.6718597412109375,-0.429115355014801,-0.4590165615081787
97296,8.952563285827637,-0.2244821041822433,4.064219951629639,0.4703963994979858,-0.0164945777505636,0.3464309573173523,0.6789339780807495,-0.3319374024868011,-0.4297407865524292,-0.4941550195217132,9.332521438598633,-1.195358157157898,-2.6400816440582275,0.2406377047300338,0.3344698250293731,0.3971312940120697,0.3921819031238556,-0.6718412637710571,-0.4290926158428192,-0.4590229988098144
97463,8.955892562866211,-0.2079671770334243,4.049997329711914,0.5558275580406189,0.1300292611122131,0.4393666386604309,0.6789465546607971,-0.331934243440628,-0.4297069311141968,-0.4941692948341369,9.287836074829102,-1.182025909423828,-2.622758150100708,-0.0131265083327889,0.1523891538381576,0.3130832314491272,0.3922102153301239,-0.6718239188194275,-0.4291031956672668,-0.4590145349502563
97629,8.946626663208008,-0.2055567800998687,4.043288707733154,0.5494115948677063,0.0079207271337509,0.2849476635456085,0.6789613962173462,-0.3319120705127716,-0.42970672249794,-0.4941640794277191,9.304944038391112,-1.1825087070465088,-2.646851062774658,-0.24175825715065,-0.1724887192249298,0.4915781021118164,0.3922188282012939,-0.6718409657478333,-0.4291172325611114,-0.4589690864086151
97796,8.935302734375,-0.2092368602752685,4.044033050537109,0.2602314352989197,-0.132968321442604,0.4407881200313568,0.6789198517799377,-0.3319769203662872,-0.4296623170375824,-0.4942162930965423,9.348906517028809,-1.218510389328003,-2.663691520690918,-0.4201891422271728,-0.1155260726809501,0.5245673060417175,0.3922045826911926,-0.6718760132789612,-0.4290979504585266,-0.4589479863643646
97963,8.946598052978516,-0.2083425521850586,4.077123641967773,0.4127038121223449,0.1456914246082306,0.5493859648704529,0.6789154410362244,-0.3320092558860779,-0.4295993149280548,-0.4942552745342254,9.354496002197266,-1.249717354774475,-2.6447105407714844,-0.1779186129570007,0.0855015888810157,0.943334937095642,0.392225831747055,-0.6719369292259216,-0.4289997518062591,-0.4589325189590454
98129,8.984959602355957,-0.2266850471496582,4.103665828704834,0.2792104482650757,-0.179813951253891,0.7707437872886658,0.6788943409919739,-0.3320965468883514,-0.4295442402362823,-0.4942734241485595,9.280372619628906,-1.261521577835083,-2.674015522003174,0.2051257044076919,-0.0908226370811462,1.2457441091537476,0.3922768533229828,-0.6720218062400818,-0.4288832545280456,-0.4588732421398163
98296,8.88696575164795,-0.2628804445266723,4.016676425933838,0.4614063799381256,-0.2426162958145141,0.806268572807312,0.6788734793663025,-0.33217853307724,-0.4295016229152679,-0.49428391456604,9.344388961791992,-1.24363112449646,-2.6717617511749268,0.5469143390655518,-0.3884550034999847,1.0710910558700562,0.392360508441925,-0.6720693707466125,-0.4288664758205414,-0.4587480127811432
98463,8.93283462524414,-0.2387269884347915,4.020871639251709,0.3128783106803894,-0.7325103282928467,0.522415816783905,0.6788280010223389,-0.3322638571262359,-0.429532915353775,-0.4942618310451507,9.385656356811523,-1.2326114177703855,-2.64863920211792,0.4282635450363159,0.1420928537845611,0.3954408466815948,0.3924035429954529,-0.6720619201660156,-0.4288526475429535,-0.4587351977825165
98629,9.048659324645996,-0.1833414137363433,4.085677146911621,0.6254045367240906,-0.3963309228420257,-0.0478061065077781,0.6787383556365967,-0.3322928249835968,-0.4295547306537628,-0.4943465292453766,9.381497383117676,-1.2601327896118164,-2.63127875328064,0.5789045691490173,0.8269252777099609,0.3481470048427582,0.3925234079360962,-0.6719751954078674,-0.4288484752178192,-0.4587632417678833
98796,8.983722686767578,-0.220652088522911,4.05161714553833,0.3106500208377838,0.0477356687188148,0.3797018826007843,0.6787298917770386,-0.3323138654232025,-0.4295157492160797,-0.4943778216838836,9.349650382995604,-1.223641872406006,-2.63215708732605,0.8264641761779785,1.1094845533370972,0.4881972074508667,0.3926560282707214,-0.6719002723693848,-0.4287738800048828,-0.458829253911972
98963,8.83525562286377,-0.2884439527988434,4.153285503387451,1.1329457759857178,0.476812481880188,1.2025355100631714,0.6788456439971924,-0.3322754204273224,-0.4294529557228088,-0.494299441576004,9.2982816696167,-1.187918186187744,-2.640434980392456,0.7003985643386841,1.218889236450195,0.568697988986969,0.3928252756595611,-0.6717952489852905,-0.4287313222885132,-0.4588779509067535
99129,8.864296913146973,-0.2265540808439254,4.151451110839844,1.0001695156097412,-1.1848690509796145,0.9749794006347656,0.6788299679756165,-0.3323598206043243,-0.4295501410961151,-0.4941796660423279,9.27194118499756,-1.1605525016784668,-2.630176067352295,0.1941890716552734,0.945832133293152,0.4761208593845367,0.3929021060466766,-0.6717494130134583,-0.4286514222621918,-0.4589539170265198
99296,8.949996948242188,-0.1541416198015213,4.035342693328857,0.7808095812797546,-0.6901214122772217,0.3958891034126282,0.6788003444671631,-0.3323875069618225,-0.4296141266822815,-0.4941461384296417,9.273391723632812,-1.1815431118011477,-2.602545499801636,-0.2056955844163894,0.5999838709831238,0.5346714854240417,0.392931193113327,-0.6717435121536255,-0.4285742342472076,-0.4590097665786743
99463,8.919461250305176,-0.17238749563694,4.079605102539063,0.5229536294937134,-0.0766972228884697,0.4461027681827545,0.6788309812545776,-0.3323716819286346,-0.4296184778213501,-0.4941109418869018,9.324039459228516,-1.2168468236923218,-2.635193347930908,-0.3091580867767334,0.3708654642105102,0.7958057522773743,0.3929412066936493,-0.6717856526374817,-0.4284604489803314,-0.4590456485748291
99629,8.923234939575195,-0.2646035254001617,4.036281108856201,0.2239510416984558,-0.366210401058197,0.7789782285690308,0.678816556930542,-0.3324579894542694,-0.429589182138443,-0.4940980672836303,9.344576835632324,-1.216146469116211,-2.629811763763428,-0.2298227399587631,0.2480910122394561,0.8751795291900635,0.3929649889469147,-0.6718283295631409,-0.4283641576766968,-0.4590528905391693
99796,8.952404022216797,-0.2374671995639801,4.046557903289795,0.3364803791046142,0.1100769788026809,0.6454976201057434,0.678854763507843,-0.332467257976532,-0.4295456707477569,-0.494077205657959,9.331741333007812,-1.2561103105545044,-2.6250808238983154,-0.1248106732964515,0.1653235703706741,0.946869432926178,0.392986923456192,-0.6718853116035461,-0.4282558262348175,-0.4590516686439514
99963,8.931559562683105,-0.1913986206054687,4.08025598526001,0.3656020760536194,0.3274903893470764,0.5132209062576294,0.6788796782493591,-0.332466185092926,-0.4294764101505279,-0.4941039979457855,9.308710098266602,-1.2485612630844116,-2.6292812824249268,0.0647553130984306,-0.0744433104991912,0.8323039412498474,0.3930146992206573,-0.6719308495521545,-0.4281999468803406,-0.459013432264328
100129,8.949834823608398,-0.2306437790393829,4.070764541625977,-0.0302614029496908,-0.2588931620121002,0.5383597612380981,0.6788276433944702,-0.332567036151886,-0.4294200241565704,-0.4941565990447998,9.356059074401855,-1.2256914377212524,-2.637767553329468,0.1672060936689376,-0.4898684918880462,0.5400373339653015,0.3929994702339172,-0.6719871163368225,-0.4281917810440063,-0.4589517116546631
100296,8.991326332092285,-0.2339445054531097,4.030942916870117,0.1745441406965255,-0.4113655686378479,0.5746272802352905,0.6787831783294678,-0.3326570689678192,-0.4293943047523498,-0.4941794872283935,9.293807983398438,-1.2644377946853638,-2.6203715801239014,0.2950134873390198,-0.4260544776916504,0.6946740746498108,0.393028050661087,-0.6720249056816101,-0.4281995296478271,-0.4588646590709686
100463,8.946550369262695,-0.2283858358860016,4.096574306488037,0.6324735283851624,0.1352670639753341,0.6251739263534546,0.678791344165802,-0.3326718509197235,-0.4293408095836639,-0.4942049086093902,9.331856727600098,-1.2893589735031128,-2.648482084274292,0.7825254797935486,-0.6961916089057922,1.1219321489334106,0.3931193351745605,-0.6720761060714722,-0.4282188713550567,-0.4586934745311737
100629,8.880038261413574,-0.2551599740982055,4.050793170928955,0.2782883942127228,-0.3499206900596618,0.8473513126373291,0.6787728071212769,-0.3327657878398895,-0.4293018579483032,-0.494200736284256,9.25205421447754,-1.2092024087905884,-2.6367852687835693,1.0321725606918335,-0.8833948373794556,0.9380331039428712,0.3931883871555328,-0.6721354126930237,-0.4282493889331817,-0.4585186541080475
100796,8.943629264831543,-0.2665624916553497,4.048684597015381,0.3309480845928192,-0.3977139890193939,0.7172515988349915,0.6787480115890503,-0.3328469693660736,-0.4292795062065124,-0.4941995739936828,9.308119773864746,-1.183078408241272,-2.663705348968506,0.3829546570777893,-1.264562964439392,0.5299203395843506,0.3931431472301483,-0.672231137752533,-0.4282998442649841,-0.4583700299263
100963,8.946123123168945,-0.1767372190952301,4.013640403747559,0.4195680022239685,-1.0434868335723877,0.1117161884903907,0.6786685585975647,-0.3329063653945923,-0.4293734729290008,-0.4941871166229248,9.31456184387207,-1.2261193990707395,-2.6854209899902344,0.038476675748825,-1.3315147161483765,0.5202130675315857,0.3930861353874206,-0.6723241806030273,-0.4283739626407623,-0.4582131803035736
101129,8.979666709899902,-0.1897356808185577,4.01483964920044,0.4031502604484558,-0.2707646191120147,0.2593349814414978,0.6786050796508789,-0.3329567313194275,-0.4293552935123443,-0.4942559897899627,9.3446044921875,-1.255805730819702,-2.6847732067108154,0.1130096465349197,-1.362262725830078,0.7729465365409851,0.3930402100086212,-0.672440767288208,-0.4284144341945648,-0.4580436050891876
101296,8.9343843460083,-0.2509527802467346,4.073756694793701,0.3423329293727875,0.0122492732480168,0.8340839147567749,0.6786240339279175,-0.3330053389072418,-0.4292956590652466,-0.4942490756511688,9.329961776733398,-1.231950283050537,-2.669107675552368,0.1298243850469589,-1.0212552547454834,1.003947377204895,0.3930164873600006,-0.672562837600708,-0.4283908009529114,-0.45790696144104
101463,8.961670875549316,-0.2483352571725845,4.045753002166748,0.5481054186820984,-0.8216938376426697,0.7510859966278076,0.6786240339279175,-0.3330629467964172,-0.4293565452098846,-0.4941573143005371,9.302896499633787,-1.2060140371322632,-2.680026769638061,-0.0128319635987281,-0.9467222690582277,0.8857064247131348,0.392982542514801,-0.6726736426353455,-0.4283763468265533,-0.45778688788414
101629,8.95642375946045,-0.2034545689821243,4.035369873046875,0.6009059548377991,-0.5124076008796692,0.4722917377948761,0.678581953048706,-0.3331139385700226,-0.4293743968009949,-0.4941650927066803,9.27264404296875,-1.2340774536132812,-2.692991018295288,-0.2798827886581421,-0.9640620946884156,0.755862832069397,0.3929376304149627,-0.6727687120437622,-0.428395926952362,-0.4576673209667206
101796,8.9175443649292,-0.2019376903772354,4.070124626159668,0.1571403294801712,-0.7245576977729797,0.3743104338645935,0.6785121560096741,-0.3332052230834961,-0.4293960332870483,-0.494180828332901,9.307635307312012,-1.270952582359314,-2.683433771133423,-0.3280090391635895,-0.8626356720924377,0.5771629810333252,0.3928554356098175,-0.6728736162185669,-0.4283850789070129,-0.4575938284397125
101963,8.920440673828125,-0.2481424808502197,4.060640811920166,0.0205349847674369,-0.3910675346851349,0.3531543314456939,0.6784927845001221,-0.3332512974739074,-0.4294014573097229,-0.4941717684268951,9.3455810546875,-1.2677690982818604,-2.7028117179870605,-0.0713569745421409,-0.5947396755218506,0.4309913218021393,0.3927915394306183,-0.6729493141174316,-0.4283706247806549,-0.4575507640838623
102129,8.95922565460205,-0.2422737330198288,4.050516128540039,0.3004433810710907,0.0924170240759849,0.477491170167923,0.6785387396812439,-0.3332315683364868,-0.4293815195560455,-0.4941393136978149,9.363122940063477,-1.2405292987823486,-2.7031049728393555,0.0171669106930494,-0.2505818605422973,0.3379787504673004,0.3927774727344513,-0.6729668974876404,-0.4283905923366546,-0.4575181901454925
102296,8.952516555786133,-0.2227978557348251,4.062874794006348,0.5429188013076782,0.0825049057602882,0.5724758505821228,0.6785244941711426,-0.3332623541355133,-0.4293222725391388,-0.4941893815994262,9.33358669281006,-1.216017723083496,-2.6968536376953125,0.0248123034834861,0.2547630965709686,0.4000127613544464,0.392791211605072,-0.6729620695114136,-0.4283637702465057,-0.4575385749340057
102463,8.936212539672852,-0.213052213191986,4.069605827331543,0.57113116979599,-0.3694119453430176,0.3565095067024231,0.6784814596176147,-0.3332973122596741,-0.4293292462825775,-0.4942188858985901,9.331794738769531,-1.2134429216384888,-2.686725854873657,-0.1812610626220703,0.4104114770889282,0.3516815602779388,0.3928174376487732,-0.6729303598403931,-0.4283598661422729,-0.4575666487216949
102629,8.942170143127441,-0.2230693101882934,4.0782670974731445,0.5394994020462036,-0.2945844531059265,0.3663832247257232,0.6784102320671082,-0.3333581089973449,-0.4293042719364166,-0.4942973256111145,9.325361251831056,-1.2107571363449097,-2.687298059463501,-0.2038386762142181,0.531726062297821,0.5390896797180176,0.3928371071815491,-0.6729253530502319,-0.4282945394515991,-0.4576182663440704
102796,8.926871299743652,-0.2294495850801468,4.063736915588379,0.5044869184494019,0.0634618625044822,0.3336758315563202,0.6784666776657104,-0.3332988321781158,-0.4293173551559448,-0.4942485690116882,9.334126472473145,-1.2289849519729614,-2.7002413272857666,-0.2285549342632293,0.6843777298927307,0.692676305770874,0.392888456583023,-0.6729069352149963,-0.4282264709472656,-0.4576648473739624
102963,8.954208374023438,-0.224432036280632,4.051302909851074,0.3479421436786651,-0.0235508773475885,0.3958634734153747,0.6784685254096985,-0.3333049416542053,-0.429293155670166,-0.4942626953125,9.314007759094238,-1.2341692447662354,-2.675983428955078,-0.2383390069007873,0.7503048181533813,0.7685027122497559,0.3928994834423065,-0.6729344129562378,-0.428075224161148,-0.4577564895153045
103129,8.948088645935059,-0.2164892852306366,4.027535438537598,0.3739005625247955,0.1792824864387512,0.5097118616104126,0.6784834265708923,-0.3333089053630829,-0.4292390048503876,-0.4942865967750549,9.309366226196287,-1.2333942651748655,-2.6718530654907227,-0.0187869146466255,0.6795881390571594,0.8927624821662903,0.3929468691349029,-0.6729505658149719,-0.427948534488678,-0.4578104317188263
103296,8.925765991210938,-0.2302827090024948,4.06848669052124,0.3642829954624176,-0.1519601494073867,0.4384317696094513,0.6784777045249939,-0.3333276510238647,-0.4292247593402862,-0.4942942261695862,9.340826034545898,-1.2533841133117676,-2.662938117980957,-0.0013830858515575,0.7088890671730042,0.8158221244812012,0.3930013477802276,-0.6729506850242615,-0.4278419017791748,-0.4578631222248077
103463,8.928730964660645,-0.2660591006278991,4.062403202056885,0.4496245384216308,-0.1963981837034225,0.300302505493164,0.6785081028938293,-0.3332935273647308,-0.429257869720459,-0.4942468106746673,9.304909706115724,-1.262324333190918,-2.6626946926116943,0.1902831196784973,0.6276839971542358,0.6107923984527588,0.3930562734603882,-0.6729316115379333,-0.4277741909027099,-0.4579073190689087
103629,8.94958782196045,-0.2403676658868789,4.050561904907227,0.6003808975219727,-0.0275208465754985,0.4128575026988983,0.6785123944282532,-0.3332846760749817,-0.4292438924312591,-0.4942589700222015,9.292488098144531,-1.249444603919983,-2.675696849822998,0.2976899743080139,0.312724620103836,0.6331906914710999,0.3931127786636352,-0.672919750213623,-0.4277441799640655,-0.4579044282436371
103796,8.954580307006836,-0.2365410774946212,4.032127380371094,0.52550208568573,-0.0448606386780738,0.4938448369503021,0.6784968972206116,-0.333307534456253,-0.4292080402374267,-0.4942959547042846,9.27546215057373,-1.2082931995391846,-2.6707937717437744,0.2843969762325287,0.0839264020323753,0.4127934575080871,0.3931533396244049,-0.672896683216095,-0.4277695715427398,-0.4578797817230224
103963,8.956632614135742,-0.2277722209692001,4.043088436126709,0.61330246925354,0.1498278975486755,0.4559508264064789,0.6784840822219849,-0.3333150148391723,-0.429153710603714,-0.4943558275699615,9.288968086242676,-1.1886560916900637,-2.64485239982605,-0.109122909605503,0.0230962522327899,0.3423329591751098,0.3931189179420471,-0.6729209423065186,-0.4277392327785492,-0.4579019844532013
104129,8.962379455566406,-0.1815962344408035,4.062231540679932,0.2803117632865906,0.2135394960641861,0.2115544825792312,0.678519606590271,-0.3332670032978058,-0.4291346371173858,-0.4943559765815735,9.303993225097656,-1.1976038217544556,-2.6599113941192627,-0.2606604397296905,-0.187741070985794,0.4582560062408447,0.3930641710758209,-0.6729744076728821,-0.4277004897594452,-0.4579065442085266
104296,8.911386489868164,-0.2165143191814422,4.0725202560424805,0.5204820036888123,0.1806911826133728,0.4124860763549804,0.6784745454788208,-0.3333005905151367,-0.4290553331375122,-0.494464099407196,9.353530883789062,-1.2311773300170898,-2.668322801589966,-0.4321374595165252,-0.1072147414088249,0.6833659410476685,0.3930127024650574,-0.6730454564094543,-0.4276249706745147,-0.4579168558120727
104463,8.91257381439209,-0.2333081811666488,4.055458545684815,0.4394306540489197,0.0968992486596107,0.6096910834312439,0.6784985065460205,-0.333304226398468,-0.4290123283863067,-0.4944659173488617,9.36272144317627,-1.264033317565918,-2.643941164016724,-0.230245366692543,0.1782195568084716,0.9644910097122192,0.393013596534729,-0.6731062531471252,-0.4275145530700683,-0.4579298496246338
104629,8.973261833190918,-0.2210060358047485,4.090741157531738,0.0904576480388641,0.390203058719635,0.4898748993873596,0.6785280704498291,-0.3333024382591247,-0.4289297759532928,-0.4944981336593628,9.300612449645996,-1.2808809280395508,-2.6769890785217285,-0.0362163595855236,0.2889048755168915,1.0191997289657593,0.39307901263237,-0.6731189489364624,-0.4274581372737884,-0.4579075872898102
104796,8.926538467407227,-0.2491650879383087,4.103740692138672,0.5045381784439087,0.1910899579524994,0.6223437190055847,0.6785301566123962,-0.3333207666873932,-0.4288596510887146,-0.4945436418056488,9.29212760925293,-1.2799932956695557,-2.6793503761291504,0.3427555561065674,0.1504938155412674,0.9422591924667358,0.3931344449520111,-0.6731455326080322,-0.4273925423622131,-0.4578821659088135
104963,8.87304973602295,-0.2494654953479766,4.0535807609558105,-0.0436312370002269,0.0028622192330658,0.4440794289112091,0.6785444617271423,-0.3333403766155243,-0.4288201034069061,-0.4945452809333801,9.358701705932615,-1.2355223894119265,-2.684680223464966,0.2441594451665878,0.1187084466218948,0.0414989776909351,0.3930993974208832,-0.6731417775154114,-0.4273817241191864,-0.4579278826713562
105129,8.984984397888184,-0.2101450860500335,4.097514629364014,0.2239382117986679,-0.128396451473236,-0.0769405514001846,0.6784517168998718,-0.3333751559257507,-0.4287866950035095,-0.4946779906749725,9.399942398071287,-1.2204773426055908,-2.6728322505950928,-0.0570522919297218,0.7242823243141174,-0.3510348796844482,0.3930758833885193,-0.673061728477478,-0.4274012446403503,-0.4580475091934204
105296,9.006875038146973,-0.1704169362783432,4.107060432434082,0.6635289788246155,-0.0991339534521102,-0.3592053055763244,0.6784115433692932,-0.3333029747009277,-0.4288298785686493,-0.494744211435318,9.368355751037598,-1.2484865188598633,-2.62726092338562,-0.0008196064736694,1.2011011838912964,0.0543949753046035,0.3931283950805664,-0.6729580163955688,-0.4273799359798431,-0.4581746757030487
105463,8.934317588806152,-0.2534792423248291,4.106132507324219,0.9169025421142578,0.7851892709732056,0.3761160969734192,0.6784720420837402,-0.3332044184207916,-0.4287551343441009,-0.4947924017906189,9.350646018981934,-1.2062747478485107,-2.630500316619873,-0.0962269157171249,1.4339336156845093,0.265392392873764,0.393187940120697,-0.672868549823761,-0.4272996783256531,-0.4583299458026886
105629,8.826828002929688,-0.2584410905838012,4.160074234008789,1.3389742374420166,-0.2715202271938324,0.96912682056427,0.6785496473312378,-0.3331599533557892,-0.4287992417812347,-0.4946776926517486,9.29404640197754,-1.1764470338821411,-2.611053705215454,-0.560226559638977,1.4230480194091797,0.3131985068321228,0.3932145833969116,-0.672798752784729,-0.4272011816501617,-0.458501398563385
105796,8.915550231933594,-0.2042772769927978,4.111274719238281,0.6932525634765625,-0.8844064474105835,0.0133378133177757,0.6784571409225464,-0.333191454410553,-0.4288803935050964,-0.49471315741539,9.264260292053224,-1.1987969875335691,-2.60654878616333,-1.1917078495025637,1.1567400693893433,0.3587507009506225,0.3931644856929779,-0.6727860569953918,-0.4270702004432678,-0.4586849212646484
105963,8.905067443847656,-0.1681818813085556,4.052708148956299,0.3684066534042358,-0.1385646909475326,-0.2447421103715896,0.6784290671348572,-0.3331388533115387,-0.4289126694202423,-0.4947590231895447,9.274361610412598,-1.233319640159607,-2.608194351196289,-1.3315659761428833,0.5436744093894958,0.4060701429843902,0.3930542469024658,-0.6728348731994629,-0.4269444346427917,-0.4588247835636139
106129,8.890748023986816,-0.2239102125167846,4.07592248916626,-0.1868574172258377,-0.201418250799179,0.0763450488448143,0.6783742308616638,-0.3331817388534546,-0.428882747888565,-0.4948313236236572,9.32331657409668,-1.2738152742385864,-2.6210858821868896,-1.128047227859497,0.315093845129013,0.4487025141716003,0.3929542899131775,-0.6728882193565369,-0.4268436431884765,-0.4589260518550873
106296,8.917545318603516,-0.289690762758255,4.052021503448486,-0.0715746879577636,0.1525940597057342,0.2538410127162933,0.6783841848373413,-0.3331772089004516,-0.4288341104984283,-0.4948629140853882,9.338388442993164,-1.2769359350204468,-2.620039463043213,-0.7901389598846436,0.2591941356658935,0.4623796343803406,0.3928862512111664,-0.6729254126548767,-0.4267688989639282,-0.4589990079402923
106463,8.941262245178223,-0.2235058099031448,4.06757116317749,0.3976051211357116,0.4174293279647827,0.227370336651802,0.6783897876739502,-0.3331424295902252,-0.4287652969360351,-0.4949382543563843,9.329176902770996,-1.2762947082519531,-2.636873483657837,-0.4324448406696319,0.0196641515940427,0.2789159119129181,0.3928312361240387,-0.6729418039321899,-0.4267577230930328,-0.4590325057506561
106629,8.930243492126465,-0.2077919542789459,4.093194484710693,0.1916790157556533,0.0543181300163269,0.040833044797182,0.6783430576324463,-0.3331474065780639,-0.4287225008010864,-0.4950360059738159,9.310236930847168,-1.2525486946105957,-2.631591558456421,-0.0266628228127956,-0.3256783187389374,0.1213977932929992,0.3927815854549408,-0.6729505658149719,-0.426804780960083,-0.459018349647522
106796,8.948321342468262,-0.235457494854927,4.071579933166504,0.1838031262159347,-0.1926971524953842,0.1524147689342498,0.678309440612793,-0.3331593573093414,-0.4287121593952179,-0.4950829744338989,9.345987319946287,-1.23332679271698,-2.611095905303955,0.0996141880750656,-0.4316380023956299,0.0070627024397253,0.3927397131919861,-0.6729428172111511,-0.4268922507762909,-0.4589841067790985
106963,8.965072631835938,-0.2469765245914459,4.0690016746521,0.6102417707443237,-0.0944340154528617,0.2406505197286605,0.6783109903335571,-0.3331257700920105,-0.4287198781967163,-0.4950967729091644,9.305988311767578,-1.256436109542847,-2.6297354698181152,0.1653619855642318,-0.678851842880249,0.2430581003427505,0.3926995396614074,-0.672966480255127,-0.4269688725471496,-0.4589128196239471
107129,8.917816162109375,-0.2071446478366851,4.1382975578308105,0.4411082863807678,0.2021546214818954,0.2335301786661148,0.6783808469772339,-0.333035945892334,-0.4287264943122864,-0.4950557947158813,9.303614616394045,-1.2316949367523191,-2.628159523010254,0.5393458604812622,-0.687534511089325,0.5146936178207397,0.3927084803581238,-0.6729905009269714,-0.4270368814468384,-0.4588062763214111
107296,8.904934883117676,-0.2563854455947876,4.053823947906494,0.2965886294841766,-0.2265443056821823,0.4956505596637726,0.6783862113952637,-0.3330504596233368,-0.428717702627182,-0.4950461089611053,9.338640213012695,-1.1691209077835083,-2.649296522140503,0.2695160210132599,-0.9173443913459778,0.3508747816085815,0.3926818370819092,-0.67302006483078,-0.4271404147148132,-0.4586896002292633
107463,8.947356224060059,-0.2450453042984008,4.0657148361206055,0.1311050057411193,-0.1433542668819427,0.0525252409279346,0.6783744692802429,-0.3330323696136474,-0.4287223815917969,-0.4950703382492065,9.350481033325195,-1.1900311708450315,-2.6581270694732666,-0.2635802924633026,-0.7358912825584412,0.3057707846164703,0.3925842344760895,-0.6730890870094299,-0.4271634519100189,-0.4586504399776459
107629,8.964457511901855,-0.1695546507835388,4.060326099395752,0.4749811291694641,-0.5027005076408386,-0.1683522760868072,0.6783217191696167,-0.3330093622207641,-0.4287845194339752,-0.495104432106018,9.315817832946776,-1.1918619871139526,-2.6619646549224854,-0.5386991500854492,-0.7926618456840515,0.321368932723999,0.3924433887004852,-0.673190712928772,-0.4271503090858459,-0.4586341083049774
107796,8.948482513427734,-0.1830624788999557,4.088252067565918,0.508392870426178,0.0595943480730056,0.3704684674739837,0.67833012342453,-0.3329878151416778,-0.4287581741809845,-0.4951301515102386,9.35851764678955,-1.2106982469558716,-2.677687406539917,-0.6267299056053162,-0.7366467714309692,0.5233122110366821,0.3923411965370178,-0.6732770800590515,-0.4271554350852966,-0.4585898816585541
107963,8.899506568908691,-0.2415513396263122,4.124110698699951,0.0320222750306129,-0.6952950954437256,0.3596086502075195,0.6783206462860107,-0.3330202996730804,-0.4288089573383331,-0.4950774013996124,9.350465774536133,-1.22817063331604,-2.6577999591827397,-0.7364162802696228,-0.4093549251556396,0.6536296606063843,0.3922633230686188,-0.6733494997024536,-0.4271325767040252,-0.4585714042186737
108130,8.953339576721191,-0.2067480236291885,4.078084945678711,0.4040851294994354,-0.5413371324539185,0.1413372606039047,0.678290069103241,-0.3330201208591461,-0.4288584589958191,-0.4950763881206512,9.326616287231444,-1.2218260765075684,-2.645545959472656,-0.7010708451271057,-0.3069041669368744,0.3828650414943695,0.3921694755554199,-0.6734029054641724,-0.4271219670772552,-0.4585832357406616
108296,8.930676460266113,-0.1985760629177093,4.074000835418701,0.3064367473125458,-0.2344074249267578,0.149866297841072,0.678257405757904,-0.3330225348472595,-0.4288586974143982,-0.4951193034648895,9.305008888244627,-1.2024527788162231,-2.675668239593506,-0.7493250966072083,-0.2635034620761871,0.2343882471323013,0.3920651078224182,-0.6734451651573181,-0.4271224737167358,-0.458609938621521
108463,8.899160385131836,-0.2077241688966751,4.081386089324951,-0.1245801672339439,-0.5599448084831238,0.0348012559115886,0.6782213449478149,-0.3330431878566742,-0.4288970828056335,-0.4951215386390686,9.298933029174805,-1.1986767053604126,-2.672914505004883,-0.7034912109375,-0.368374615907669,-0.1032319888472557,0.3919200301170349,-0.673485517501831,-0.4271417260169983,-0.458656907081604
108630,8.927214622497559,-0.21153624355793,4.06374454498291,0.2348492592573166,-0.5891689658164978,-0.1274231821298599,0.678166389465332,-0.3330396115779876,-0.4289566576480865,-0.4951475858688354,9.334705352783203,-1.2209632396697998,-2.6827056407928467,-0.6959482431411743,-0.3092605471611023,-0.2333316653966903,0.3917861580848694,-0.6734979152679443,-0.4271960258483886,-0.4587022960186004
108796,8.946332931518555,-0.1890526264905929,4.0631937980651855,0.3579438626766205,-0.1754341870546341,0.0211112666875123,0.6780946850776672,-0.3330546617507934,-0.4289366900920868,-0.4952529966831207,9.34109592437744,-1.2128245830535889,-2.6890292167663574,-0.5551552176475525,-0.1962572932243347,-0.052185870707035,0.3916783630847931,-0.6735119819641113,-0.4272259473800659,-0.4587457776069641
108963,8.929010391235352,-0.1930186301469802,4.074894905090332,0.6159022450447083,-0.0808336809277534,0.0384766794741153,0.6780545115470886,-0.3330276608467102,-0.4289335608482361,-0.4953287243843078,9.340821266174316,-1.1744621992111206,-2.695605516433716,-0.4178327322006225,0.0538699105381965,0.0865260958671569,0.3915960788726806,-0.6735216379165649,-0.4272190630435943,-0.4588083028793335
109130,8.94274616241455,-0.2040401995182037,4.073893070220947,0.4040211141109466,0.1362915635108947,0.0410891696810722,0.6780554056167603,-0.3329733312129974,-0.4289190471172333,-0.4953768849372864,9.358838081359863,-1.1619383096694946,-2.7027437686920166,-0.5451918840408325,0.268786072731018,0.1273271292448043,0.3915303945541382,-0.673514187335968,-0.4272076785564422,-0.4588860273361206
109296,8.944562911987305,-0.1848076581954956,4.085076332092285,0.1279290318489074,-0.005429892335087,-0.0172629579901695,0.6780375838279724,-0.3329457342624664,-0.4289066195487976,-0.4954304099082947,9.339773178100586,-1.1521100997924805,-2.662885904312134,-0.927499771118164,0.6553585529327393,0.233901560306549,0.3914663195610046,-0.6735005974769592,-0.427152931690216,-0.4590114951133728
109463,8.923864364624023,-0.1752807199954986,4.107664585113525,0.1398005336523056,0.0416142381727695,-0.1678912490606308,0.6779969334602356,-0.332916796207428,-0.4288875460624695,-0.4955219626426697,9.320831298828123,-1.173240065574646,-2.677276611328125,-0.9499621391296388,0.6191805601119995,0.3419999480247497,0.3913795948028564,-0.6735199689865112,-0.4270514249801636,-0.4591515660285949
109630,8.912802696228027,-0.1993020325899124,4.114040374755859,0.2958586513996124,-0.2600456774234772,0.1395699977874755,0.6779785752296448,-0.3329032063484192,-0.4289020597934723,-0.4955436289310455,9.316987037658691,-1.1843721866607666,-2.6609251499176025,-0.8258815407752991,0.6487760543823242,0.5561093091964722,0.3913233578205108,-0.6735408902168274,-0.4269399344921112,-0.4592724144458771
109796,8.943021774291992,-0.2140785157680511,4.04925012588501,0.3681249618530273,-0.3444139957427978,0.2569402158260345,0.6779559850692749,-0.3329048454761505,-0.4289167523384094,-0.4955608546733856,9.289522171020508,-1.210675597190857,-2.6597421169281006,-0.5927931070327759,0.4760696291923523,0.7535063624382019,0.3913013339042663,-0.6735636591911316,-0.4268484711647033,-0.459342747926712
109963,8.936273574829102,-0.2139644473791122,4.040881633758545,0.4956377446651459,-0.0250236056745052,0.2766235470771789,0.6779342889785767,-0.3328950405120849,-0.4288903176784515,-0.4956200122833252,9.320107460021973,-1.199827790260315,-2.653275966644287,-0.3518032133579254,0.2892377972602844,0.8007361888885498,0.3912925124168396,-0.6735889911651611,-0.4267781376838684,-0.4593784809112549
110130,8.951204299926758,-0.1871608048677444,4.068361282348633,-0.02640669234097,-0.0747250542044639,0.3134289979934692,0.6778969168663025,-0.3329337239265442,-0.4288363754749298,-0.4956918358802795,9.349790573120115,-1.2206132411956787,-2.6515896320343018,-0.0948054045438766,0.1668475121259689,0.7148952484130859,0.3912853002548218,-0.6736118793487549,-0.4267250001430511,-0.4594003558158874
110296,8.944816589355469,-0.1879583001136779,4.067707061767578,-0.1069202125072479,0.1441034376621246,0.1180553287267685,0.6778547167778015,-0.3329526484012604,-0.4287641942501068,-0.4957992136478424,9.341164588928224,-1.2047669887542725,-2.6521153450012207,0.081480398774147,0.3178984224796295,0.4789126515388489,0.3913128972053528,-0.6735779643058777,-0.4267331957817077,-0.459418922662735
110463,8.923831939697266,-0.2242603898048401,4.085638046264648,0.175030767917633,0.2314171344041824,0.1502632945775985,0.6778263449668884,-0.3329453766345978,-0.4286974668502807,-0.4959005713462829,9.320000648498535,-1.205174684524536,-2.668076038360596,0.2258463650941848,0.222478300333023,0.6649376749992371,0.3913667798042297,-0.6735475659370422,-0.4267486333847046,-0.4594033062458038
110630,8.916711807250977,-0.2094084769487381,4.1041412353515625,0.3503753244876861,-0.0456546321511268,0.2666729986667633,0.6778280735015869,-0.33292156457901,-0.4286855459213257,-0.495924562215805,9.305387496948242,-1.187297224998474,-2.65529465675354,0.3100481033325195,0.0878707617521286,0.5735771059989929,0.3913955986499786,-0.6735327243804932,-0.4267586469650268,-0.459391176700592
110796,8.944293975830078,-0.1975248605012893,4.068576335906982,0.3467383086681366,-0.1469272226095199,0.4967390596866607,0.677817165851593,-0.3329394459724426,-0.4286562204360962,-0.4959528148174286,9.308568000793455,-1.1833992004394531,-2.661020278930664,0.21946881711483,0.0491699762642383,0.6874512434005737,0.3914134800434112,-0.6735392808914185,-0.4267430901527405,-0.4593809247016907
110963,8.963920593261719,-0.1952644884586334,4.051620960235596,0.4165200889110565,0.0708383172750473,0.3949542045593261,0.6778044700622559,-0.3329378068447113,-0.4286080300807953,-0.4960128962993622,9.325007438659668,-1.1663979291915894,-2.66113805770874,0.0918023139238357,-0.0749683678150177,0.7180327773094177,0.3914269804954529,-0.6735499501228333,-0.4267450273036957,-0.459352046251297
111130,8.922344207763672,-0.19337959587574,4.07459831237793,0.2808880805969238,0.3720564842224121,0.5099808573722839,0.6778438091278076,-0.3329074382781982,-0.42853644490242,-0.49604132771492,9.353863716125488,-1.1773053407669067,-2.6709797382354736,-0.0108085591346025,0.1326161623001098,0.708095133304596,0.3914332389831543,-0.673559308052063,-0.426717460155487,-0.4593584239482879
111296,8.912506103515625,-0.1979110836982727,4.111743927001953,0.1970064640045166,0.3983863294124603,0.5174469351768494,0.6778923869132996,-0.3328739404678345,-0.4284634888172149,-0.4960605204105377,9.358948707580566,-1.2006831169128418,-2.652836799621582,-0.188829630613327,0.3092157542705536,0.7972530126571655,0.3914363384246826,-0.6735744476318359,-0.4266562461853027,-0.4593905210494995
111463,8.927680015563965,-0.1967307329177856,4.101244449615479,0.3017880022525787,0.1047623381018638,0.4986215829849243,0.6779108643531799,-0.3328632414340973,-0.4284171462059021,-0.4960825741291046,9.373841285705566,-1.1882086992263794,-2.653717517852783,-0.1791480183601379,0.5747553706169128,0.7229760885238647,0.391445517539978,-0.6735721826553345,-0.4265783429145813,-0.4594581127166748
111630,8.951586723327637,-0.1843677908182144,4.080960273742676,0.1055435240268707,0.182560920715332,0.5791223645210266,0.6778823137283325,-0.3329123854637146,-0.4283125102519989,-0.4961788952350616,9.330581665039062,-1.173662543296814,-2.6525537967681885,-0.555091142654419,0.7850611805915833,0.4605227410793304,0.3914205729961395,-0.6735541224479675,-0.4265001714229584,-0.4595785737037658
111796,8.917412757873535,-0.1702596545219421,4.113593101501465,0.0908674523234367,0.0696857497096061,0.3779729902744293,0.6778464317321777,-0.3329455852508545,-0.4282378256320953,-0.4962701201438904,9.30039119720459,-1.2016867399215698,-2.623795747756958,-0.5761704444885254,0.6760407090187073,0.3604154884815216,0.3913964331150055,-0.6735218167304993,-0.4264632761478424,-0.4596806764602661
111963,8.90701961517334,-0.1945776045322418,4.107356071472168,0.4834716916084289,-0.1616289317607879,0.3745537102222442,0.677836000919342,-0.3329376578330993,-0.4282286465167999,-0.4962974488735199,9.3303804397583,-1.2088016271591189,-2.6223132610321045,-0.4576605260372162,0.4133057296276092,0.6329858303070068,0.3913896679878235,-0.6735135912895203,-0.4264281094074249,-0.4597311019897461
112130,8.89966106414795,-0.2077022492885589,4.09320592880249,0.8118138313293457,-0.0413004793226718,0.6969536542892456,0.6779061555862427,-0.3328792154788971,-0.4282383918762207,-0.4962324202060699,9.319167137145996,-1.2167580127716064,-2.6173582077026367,-0.3514702618122101,0.4550928473472595,0.5819397568702698,0.3913714587688446,-0.67351233959198,-0.4263717532157898,-0.4598007202148437
112296,8.953750610351562,-0.2036077827215194,4.099839210510254,0.2674285769462585,0.0701723918318748,0.4950486421585083,0.6779085397720337,-0.3328825831413269,-0.4281847774982452,-0.4962730407714844,9.30974578857422,-1.232676386833191,-2.625638484954834,-0.1514350622892379,0.44377201795578,0.7077236175537109,0.3913921117782593,-0.6734972596168518,-0.4263346791267395,-0.4598395824432373
112463,8.934581756591797,-0.1928434073925018,4.101380348205566,0.2607949078083038,0.1631592810153961,0.3571498394012451,0.6779255270957947,-0.3328548073768616,-0.4281409680843353,-0.496306449174881,9.298632621765137,-1.2240070104599,-2.667435884475708,0.1459475755691528,0.0586082600057125,0.7842288613319397,0.391410619020462,-0.6735071539878845,-0.426313191652298,-0.459829181432724
112630,8.878388404846191,-0.238887071609497,4.029223442077637,0.0834653824567794,-0.1067665293812751,0.5449549555778503,0.6779307126998901,-0.3328753709793091,-0.4281018376350403,-0.4963193535804748,9.3539457321167,-1.1672419309616089,-2.647909641265869,-0.0939217656850814,-0.286951869726181,0.1046726927161216,0.3913337588310241,-0.6735160946846008,-0.4263550341129303,-0.4598427712917328
112796,8.939120292663574,-0.234348863363266,4.1146159172058105,0.5533431172370911,-0.1103138923645019,0.2192895263433456,0.6779258847236633,-0.3328374028205871,-0.4281067848205566,-0.4963471293449402,9.397750854492188,-1.1992632150650024,-2.6278293132781982,-0.4673805236816406,0.0183835141360759,-0.1339544206857681,0.3912185728549957,-0.6735149025917053,-0.4263715147972107,-0.4599272608757019
112963,8.968574523925781,-0.1285796761512756,4.128971099853516,1.1258255243301392,-0.207783043384552,-0.3378058969974518,0.6779112815856934,-0.3327076137065887,-0.4281953275203705,-0.4963776767253876,9.348280906677246,-1.210267186164856,-2.648607015609741,-0.4266819357872009,0.385246992111206,0.1803454160690307,0.3911950886249542,-0.6734651327133179,-0.4264051020145416,-0.4599889516830444
113130,8.985464096069336,-0.2165178954601287,4.075567245483398,0.4906944632530212,0.3292960822582245,0.3549471795558929,0.6779268383979797,-0.3326634764671325,-0.4281366169452667,-0.4964366257190704,9.361488342285156,-1.167410135269165,-2.5926222801208496,-0.4589923322200775,0.5978067517280579,0.3848371803760528,0.3911677598953247,-0.6734413504600525,-0.4263626039028168,-0.4600863456726074
113296,8.833734512329102,-0.257173091173172,4.173263072967529,0.8890743851661682,0.173737347126007,1.02074933052063,0.6780190467834473,-0.3326165378093719,-0.4281026422977447,-0.4963715374469757,9.310603141784668,-1.1427185535430908,-2.613454818725586,-0.7967213988304138,0.8116599917411804,0.3304358422756195,0.3910979628562927,-0.673435389995575,-0.4262642562389374,-0.4602454602718353
113463,8.87895393371582,-0.1926177591085434,4.153476238250732,0.5331091284751892,-1.003441572189331,0.1942787319421768,0.6779302954673767,-0.3326647281646728,-0.4281771779060364,-0.4963961839675903,9.287206649780272,-1.1741620302200315,-2.6078543663024902,-1.0519776344299316,0.6361874938011169,0.2599753141403198,0.390994668006897,-0.6734435558319092,-0.4261781573295593,-0.4604010879993438
113630,8.900167465209961,-0.1558721214532852,4.101767539978027,0.4160975217819214,-0.4257470667362213,-0.0022411111276596,0.6779141426086426,-0.3326216638088226,-0.4282330572605133,-0.4963987469673157,9.29914093017578,-1.2408089637756348,-2.6345789432525635,-0.9472856521606444,0.324621707201004,0.3535640835762024,0.3909007310867309,-0.6734610199928284,-0.4261253774166107,-0.4605041444301605
113796,8.895276069641113,-0.2002314329147339,4.09324836730957,0.158574640750885,-0.4827865958213806,0.409476637840271,0.677908718585968,-0.332635223865509,-0.4282545149326324,-0.4963785409927368,9.30220890045166,-1.2515580654144287,-2.591902732849121,-0.4408201575279236,-0.0424146279692649,0.4238837659358978,0.3908430635929107,-0.6734744310379028,-0.4261275827884674,-0.4605315327644348
113963,8.94201946258545,-0.2684090435504913,4.05915641784668,0.3267475962638855,-0.4928907752037048,0.4948309361934662,0.6778836846351624,-0.3326673209667206,-0.4282621741294861,-0.4963848292827606,9.315970420837402,-1.2124308347702026,-2.629645586013794,-0.0295314397662878,-0.2868365943431854,0.4042388200759887,0.39080810546875,-0.6734812259674072,-0.4261697828769684,-0.4605123102664947
114130,8.911604881286621,-0.2083462029695511,4.060654640197754,0.7103362083435059,-0.0651587098836898,0.3885510265827179,0.6779088973999023,-0.332613468170166,-0.4282689094543457,-0.4963806271553039,9.327494621276855,-1.2122628688812256,-2.6480486392974854,0.1605467945337295,-0.4794441163539886,0.2990090250968933,0.3907596468925476,-0.6734948754310608,-0.4262275993824005,-0.460479736328125
114296,8.929607391357422,-0.1656356155872345,4.085602283477783,0.1826505661010742,-0.3715762197971344,0.0577502287924289,0.6778526902198792,-0.3326241970062256,-0.4282751381397247,-0.4964448511600494,9.352829933166504,-1.1884881258010864,-2.6442549228668213,0.4374969005584717,-0.5901422500610352,0.0927499905228614,0.3907158374786377,-0.6734891533851624,-0.4263277351856231,-0.4604326784610748
114463,8.96071720123291,-0.2230475693941116,4.100858688354492,0.0777153298258781,-0.179019957780838,0.1145592033863067,0.6778230667114258,-0.3326210081577301,-0.4282627701759338,-0.4964979588985443,9.379064559936523,-1.163569092750549,-2.658094644546509,0.5078293681144714,-0.4088042378425598,0.0101234195753932,0.3906923532485962,-0.6734548211097717,-0.42644202709198,-0.4603968560695648
114630,8.944787979125977,-0.226581335067749,4.082551956176758,0.5691462159156799,-0.2256350815296173,0.2761369347572326,0.677833616733551,-0.3325763344764709,-0.4282876551151275,-0.4964920282363891,9.280818939208984,-1.1944279670715332,-2.671477794647217,0.467879980802536,-0.439641922712326,0.2779746055603027,0.3906880617141723,-0.6734341382980347,-0.4265407025814056,-0.4603393077850342
114796,8.939154624938965,-0.1880903840065002,4.123632431030273,0.7356927394866943,-0.184731587767601,0.4232434332370758,0.6778334379196167,-0.332548588514328,-0.4282923340797424,-0.4965068399906158,9.332592010498049,-1.216489315032959,-2.6690170764923096,0.930810272693634,-0.5840975642204285,0.7472825050354004,0.3907398283481598,-0.6734367609024048,-0.4266160130500793,-0.4602220356464386
114963,8.920683860778809,-0.2358128875494003,4.053275108337402,0.6057595014572144,-0.6926697492599487,0.7192749977111816,0.6778209209442139,-0.3325850069522857,-0.4283259510993957,-0.4964704811573028,9.32097339630127,-1.1454403400421145,-2.656633853912353,1.0037297010421753,-0.7742719054222107,0.5932989716529846,0.3907793760299682,-0.6734352111816406,-0.4267273247241974,-0.4600872993469238
115130,8.941329956054688,-0.2417386323213577,4.118109703063965,0.8180887699127197,-0.5091292262077332,0.5862939357757568,0.6778321862220764,-0.3325695693492889,-0.428370714187622,-0.4964268505573272,9.380558013916016,-1.1430895328521729,-2.6676840782165527,0.4770045280456543,-0.724250316619873,0.2784164845943451,0.3907596468925476,-0.6734311580657959,-0.426846444606781,-0.459999531507492
115296,8.937773704528809,-0.1585897505283355,4.063196182250977,0.9309639930725098,-0.8400580883026123,0.0739886835217475,0.6777875423431396,-0.3325380086898803,-0.4284783005714416,-0.4964160621166229,9.33399772644043,-1.1578829288482666,-2.6633946895599365,0.3808288276195526,-0.4089067578315735,0.2703356742858886,0.390726774930954,-0.6734307408332825,-0.4269110560417175,-0.4599682092666626
115463,8.963860511779785,-0.1375048011541366,4.0685577392578125,0.4355759620666504,-0.2638876438140869,0.3124300539493561,0.6777799129486084,-0.3325216174125671,-0.4284873604774475,-0.4964296519756317,9.345985412597656,-1.1627250909805298,-2.660447835922241,0.3201394975185394,-0.3222333788871765,0.3817252814769745,0.3907186686992645,-0.6734174489974976,-0.4269833862781524,-0.4599271714687347
115630,8.927888870239258,-0.195724681019783,4.092311382293701,0.3512589335441589,-0.4559572339057922,0.6484814882278442,0.6778212189674377,-0.3325121998786926,-0.4285211861133575,-0.4963504076004028,9.315973281860352,-1.162288784980774,-2.652029514312744,0.180332601070404,-0.1991771608591079,0.5891625285148621,0.3907124996185303,-0.6734229922294617,-0.4270085990428924,-0.4599008858203888
115796,8.925049781799316,-0.2173665761947631,4.081953525543213,0.9669755101203918,-1.0231505632400513,0.6584320664405823,0.6778379082679749,-0.3325010240077972,-0.4286412000656128,-0.4962313771247864,9.297141075134276,-1.1655181646347046,-2.658745527267456,0.1150458380579948,-0.1724887192249298,0.5904815793037415,0.3907059133052826,-0.6734256744384766,-0.427035927772522,-0.4598771631717682
115963,8.932243347167969,-0.1675011664628982,4.100923538208008,0.9499430656433104,-0.6596679091453552,0.5977043509483337,0.6778267621994019,-0.3325003981590271,-0.428696870803833,-0.4961990714073181,9.312711715698242,-1.1585230827331543,-2.654686689376831,-0.0472938455641269,-0.1688645035028457,0.4163536131381988,0.3906807601451874,-0.6734179258346558,-0.4270831942558288,-0.4598660767078399
116130,8.904828071594238,-0.1721883863210678,4.059045791625977,0.480001151561737,-0.8187227249145508,0.3701483011245727,0.6777743101119995,-0.3325358927249908,-0.4287508726119995,-0.496200293302536,9.313305854797363,-1.1537349224090576,-2.6697349548339844,-0.202980637550354,-0.0593702346086502,0.3078838586807251,0.3906159698963165,-0.6734268069267273,-0.4270894527435303,-0.4599024355411529
116296,8.928970336914062,-0.1846252828836441,4.064076900482178,0.3470712900161743,-0.5866460800170898,0.2628055214881897,0.6777329444885254,-0.3325510621070862,-0.4287852346897125,-0.4962169528007507,9.344490051269531,-1.1735502481460571,-2.67849349975586,-0.235636830329895,-0.0434903614223003,0.2836414277553558,0.3905484080314636,-0.6734330654144287,-0.427098274230957,-0.4599423408508301
116463,8.908286094665527,-0.1788047105073928,4.081779956817627,0.7317484021186829,-0.2324224561452865,0.3896267712116241,0.6777635812759399,-0.3324919044971466,-0.4288208484649658,-0.4961838126182556,9.342090606689451,-1.1779454946517944,-2.659907817840576,-0.1183818951249122,0.0829787403345108,0.3791895508766174,0.3905015587806701,-0.673434853553772,-0.4270908832550049,-0.4599863886833191
116630,8.931222915649414,-0.1651389151811599,4.085777759552002,0.4713697731494903,-0.4719011783599853,0.4368693828582763,0.6777723431587219,-0.332476794719696,-0.4288603067398071,-0.4961478412151336,9.338814735412598,-1.1618059873580933,-2.669080972671509,-0.0029070414602756,0.2275496274232864,0.4778112769126892,0.3905008435249328,-0.6734082698822021,-0.4271023273468017,-0.460015207529068
116796,8.93756103515625,-0.1919207423925399,4.064756393432617,0.3492995798587799,-0.2377754896879196,0.3494404554367065,0.6777570247650146,-0.3324733674526214,-0.4288549125194549,-0.4961757659912109,9.34544849395752,-1.1370837688446045,-2.6754393577575684,-0.0240759383887052,0.4319773614406585,0.4572186768054962,0.3905020952224731,-0.6733744740486145,-0.4270923137664795,-0.4600728452205658
116963,8.94685173034668,-0.1884375214576721,4.087011337280273,0.4189533293247223,0.0698266178369522,0.3457266092300415,0.677771806716919,-0.332433819770813,-0.4288297593593597,-0.4962038099765777,9.338908195495604,-1.1411569118499756,-2.6496942043304443,-0.1972177624702453,0.6460738778114319,0.5291391611099243,0.3905067145824432,-0.6733378767967224,-0.4270564913749695,-0.4601559638977051
117130,8.940865516662598,-0.1635006219148636,4.094850540161133,0.3175782561302185,0.1365605294704437,0.2510364949703216,0.6777958869934082,-0.3323792517185211,-0.4288062453269958,-0.4962278604507446,9.345396041870115,-1.1652507781982422,-2.660632610321045,-0.1254766136407852,0.8870766162872314,0.6687539219856262,0.3905447721481323,-0.6732873320579529,-0.4270016849040985,-0.4602485001087188
117296,8.889860153198242,-0.1864523887634277,4.1164727210998535,0.370903879404068,0.2145639806985855,0.4645695090293884,0.6778286099433899,-0.3323383927345276,-0.4287596642971039,-0.4962507486343384,9.346559524536133,-1.1731021404266355,-2.6691927909851074,0.0454177185893058,1.0088138580322266,0.8212776184082031,0.3906088173389435,-0.6732359528541565,-0.4269243478775024,-0.4603409767150879
117463,8.905088424682617,-0.1924428641796112,4.138294219970703,0.3780114650726318,-0.0557204224169254,0.5433286428451538,0.6778532862663269,-0.3323189914226532,-0.4287376999855041,-0.4962490200996399,9.363259315490724,-1.2088277339935305,-2.6532227993011475,0.3395155370235443,1.272355556488037,1.0323389768600464,0.3907396495342254,-0.6731560826301575,-0.426842600107193,-0.4604224860668182
117630,8.93147087097168,-0.2072448432445526,4.093145370483398,0.4132800698280334,-0.0938577279448509,0.6013541221618652,0.6778841018676758,-0.332300066947937,-0.4287205040454864,-0.4962344169616699,9.340432167053224,-1.2253621816635132,-2.6329233646392822,0.7106563448905945,1.1681246757507324,1.1574442386627195,0.3908940851688385,-0.673083484172821,-0.4267577826976776,-0.460476279258728
117796,8.929679870605469,-0.1857519149780273,4.105552673339844,0.5856024026870728,-0.0394307561218738,0.6728392839431763,0.6779531240463257,-0.3322464227676391,-0.4287208616733551,-0.4961757361888885,9.295130729675291,-1.2301419973373413,-2.6065824031829834,1.149478554725647,0.9376744031906128,1.072819709777832,0.3910924792289734,-0.6729764342308044,-0.4267547130584717,-0.4604671895503998
117963,8.933576583862305,-0.2172760516405105,4.093108654022217,0.3160798847675323,-0.3711664080619812,0.5982421636581421,0.6779254078865051,-0.3322879672050476,-0.4286998212337494,-0.4962039589881897,9.28466510772705,-1.2327102422714231,-2.603349447250366,1.588428974151611,0.3493252098560333,0.802119255065918,0.3912628591060638,-0.6728822588920593,-0.4268165826797485,-0.4604026973247528
118130,8.948005676269531,-0.226665049791336,4.094552516937256,0.3728760778903961,-0.509385347366333,0.5918518304824829,0.6779142022132874,-0.3323138952255249,-0.4287118315696716,-0.4961915612220764,9.308446884155272,-1.2321065664291382,-2.637864589691162,1.905578374862671,-0.0450271219015121,0.6350732445716858,0.3914223909378052,-0.6727921366691589,-0.4269282817840576,-0.4602951109409332
118296,8.978142738342285,-0.2405799329280853,4.037957668304443,0.5822726488113403,-0.4353902637958526,0.6910241842269897,0.6779048442840576,-0.3323372006416321,-0.4287135899066925,-0.496187299489975,9.352818489074709,-1.1999257802963257,-2.638115644454956,1.934174656867981,-0.2339335530996322,0.3878466486930847,0.3915660679340362,-0.6726889610290527,-0.4270907342433929,-0.460172951221466
118463,8.9639310836792,-0.2058967798948288,4.062173843383789,0.7292127013206482,0.0855015888810157,0.747256875038147,0.6779451370239258,-0.3323071300983429,-0.4286760091781616,-0.4961848556995392,9.314671516418455,-1.1252756118774414,-2.633521556854248,1.564494013786316,-0.0306455958634614,0.163223311305046,0.3916742503643036,-0.6725761294364929,-0.4272440671920776,-0.4601036012172699
118630,8.935105323791504,-0.1900798380374908,4.085275173187256,0.9101792573928832,0.0526020787656307,0.6428211331367493,0.677983283996582,-0.3322562873363495,-0.428659051656723,-0.4961814284324646,9.325601577758787,-1.1176780462265017,-2.646608829498291,0.8986791372299194,-0.1967055350542068,0.2564535737037658,0.391705572605133,-0.6725241541862488,-0.4273438155651092,-0.4600602984428406
118796,8.911251068115234,-0.1786780059337616,4.08475923538208,0.9883621335029602,-0.3383181691169739,0.7558499574661255,0.6780051589012146,-0.3322360813617706,-0.4286783933639526,-0.496148407459259,9.323716163635254,-1.1292232275009155,-2.646733045578003,0.2856648564338684,-0.0852646827697753,0.4718435704708099,0.3917076885700226,-0.6725034713745117,-0.4273900985717773,-0.4600455164909363
118963,8.901694297790527,-0.1879389882087707,4.086698532104492,0.9480605721473694,-0.5813186168670654,0.9503016471862792,0.678066074848175,-0.3322127759456634,-0.428737461566925,-0.4960295259952545,9.315608024597168,-1.1727107763290403,-2.640350341796875,0.0579039081931114,0.0624245554208755,0.8870253562927246,0.3917238712310791,-0.6725122332572937,-0.4273712933063507,-0.460036426782608
119130,8.968544960021973,-0.1942394971847534,4.104598045349121,0.7305189967155457,-0.4553297758102417,1.0299056768417358,0.6780986785888672,-0.332234263420105,-0.4287433624267578,-0.4959656000137329,9.276678085327148,-1.1960233449935913,-2.657876491546631,0.0612463727593421,0.1835854351520538,1.256322145462036,0.3917796611785888,-0.6725292205810547,-0.4273195564746856,-0.4600122570991516
119296,8.954147338867188,-0.2227044999599456,4.023871898651123,1.1067310571670532,-0.3913492262363434,1.200601577758789,0.6781733632087708,-0.3322176039218902,-0.4287671744823456,-0.4958541393280029,9.219315528869627,-1.198261857032776,-2.6983859539031982,0.0496694259345531,-0.2266211211681366,1.136300802230835,0.3917915821075439,-0.6725748181343079,-0.4272900521755218,-0.4599628746509552
119463,8.868224143981934,-0.2064907699823379,4.00617265701294,0.9037377834320068,-0.2741455435752868,1.0455679893493652,0.6782221794128418,-0.3322134613990783,-0.4287644922733307,-0.4957922399044037,9.397625923156738,-1.1920678615570068,-2.677088022232056,0.040858656167984,-0.2725319266319275,0.5905455946922302,0.3917536437511444,-0.6725991368293762,-0.4273023009300232,-0.459948182106018
119630,8.963007926940918,-0.1494830995798111,4.105887413024902,0.7500358819961548,-0.3508043587207794,0.4693207144737243,0.6782441735267639,-0.3321709632873535,-0.4288042485713959,-0.4957562088966369,9.457039833068848,-1.2592580318450928,-2.680936574935913,0.2230673879384994,1.0654690265655518,0.4050584137439728,0.3918010294437408,-0.6725143194198608,-0.4272657930850982,-0.4600659310817718
119796,8.964592933654785,-0.1623436957597732,4.080193996429443,0.7156636118888855,0.4425169825553894,0.2746257781982422,0.6782568097114563,-0.3320991098880768,-0.4287444055080414,-0.4958387315273285,9.409798622131348,-1.2383248805999756,-2.66049861907959,0.7291103601455688,1.960671544075012,0.6196160912513733,0.3919659256935119,-0.672356367111206,-0.4271866977214813,-0.4602295458316803
119963,8.906734466552734,-0.2342666387557983,4.120305061340332,0.82496577501297,1.0358991622924805,1.2570648193359375,0.6784313321113586,-0.3319926857948303,-0.4286191761493683,-0.4957797229290008,9.389714241027832,-1.1744037866592407,-2.631810426712036,0.8879475593566895,2.4000701904296875,0.8180633187294006,0.3922030627727508,-0.6721571683883667,-0.4270979166030884,-0.4604008495807647
120130,8.841650009155273,-0.2321783155202865,4.198478221893311,1.120472431182861,-0.3247946500778198,1.3002865314483645,0.6785169243812561,-0.3319768607616424,-0.4286324083805084,-0.4956617951393127,9.332066535949709,-1.12608003616333,-2.58837890625,0.6333187818527222,2.661204099655152,0.8762680292129517,0.3924307525157928,-0.671962559223175,-0.426965057849884,-0.4606141448020935
120296,8.955714225769043,-0.1561497002840042,4.152657985687256,0.7663255929946899,-0.9107365012168884,0.574934720993042,0.6784855127334595,-0.3320022523403168,-0.4287046492099762,-0.4956251084804535,9.268877029418944,-1.1579272747039795,-2.5857667922973637,0.12978595495224,2.4472997188568115,0.7190828919410706,0.3925810754299164,-0.6718046069145203,-0.4268200993537903,-0.460850715637207
120463,8.908073425292969,-0.1679909527301788,4.120674133300781,0.7134224772453308,-0.1952456086874008,0.5157948732376099,0.6785197257995605,-0.3319530189037323,-0.4287238717079162,-0.4955946803092956,9.29508113861084,-1.2038946151733398,-2.5826568603515625,0.231558009982109,1.7319754362106323,0.9569992423057556,0.392704963684082,-0.6717101335525513,-0.4266890585422516,-0.4610043168067932
120630,8.905013084411621,-0.2176849693059921,4.100377082824707,0.3628359138965606,-0.367029994726181,0.6891161203384399,0.6785178780555725,-0.331979364156723,-0.4287124276161194,-0.495589405298233,9.326409339904783,-1.1851511001586914,-2.5793278217315674,0.3437032401561737,1.149657964706421,0.9666296243667604,0.3928137719631195,-0.671640157699585,-0.4266116023063659,-0.461085170507431
120796,8.971017837524414,-0.2352962493896484,4.045975208282471,0.4018312394618988,-0.0227184630930423,0.7469367384910583,0.6785390973091125,-0.3319847881793976,-0.4286635816097259,-0.4955990016460418,9.338808059692385,-1.1846657991409302,-2.562660455703736,0.2080583572387695,0.9265073537826538,0.906311810016632,0.3928908705711365,-0.6715893149375916,-0.426543265581131,-0.4611567258834839
120963,8.959671020507812,-0.1728466004133224,4.084794998168945,0.5302533507347107,0.4902718961238861,0.5299203395843506,0.6786006093025208,-0.3319120109081268,-0.4285958111286163,-0.4956220984458923,9.38922119140625,-1.213302493095398,-2.5641746520996094,0.1397877037525177,0.9163391590118408,0.7157276272773743,0.3929510414600372,-0.6715280413627625,-0.4264942109584808,-0.4612399935722351
121130,8.913961410522461,-0.1792433410882949,4.100811958312988,0.3491459488868713,0.3821607232093811,0.4043925106525421,0.6786209940910339,-0.3318704068660736,-0.4285215437412262,-0.4956862330436706,9.372641563415527,-1.23027241230011,-2.57283616065979,0.5872159600257874,0.89114910364151,0.6409258842468262,0.3930442631244659,-0.6714422106742859,-0.4264772534370422,-0.4613012671470642
121296,8.917532920837402,-0.2472738027572631,4.144008159637451,0.5579918622970581,0.3355071544647217,0.8490673303604126,0.6786981821060181,-0.3318243026733398,-0.4284569323062897,-0.4956675171852112,9.310677528381348,-1.215800404548645,-2.523792028427124,0.6725574731826782,1.0538153648376465,0.8436118364334106,0.3931724727153778,-0.671350359916687,-0.4264410436153412,-0.4613592028617859
121463,8.934025764465332,-0.2292190939188003,4.106817245483398,0.9672186970710754,-0.1274487972259521,1.0949748754501345,0.6787484288215637,-0.3318171501159668,-0.4284316301345825,-0.4956252872943878,9.297761917114258,-1.2193868160247805,-2.545158624649048,0.8617328405380249,0.3136594891548157,1.261188507080078,0.3932979106903076,-0.6713265180587769,-0.4264134168624878,-0.4613126516342163
121630,8.88268756866455,-0.1843147128820419,4.144369125366211,0.6248025894165039,-0.0851366147398948,1.057734131813049,0.6788227558135986,-0.3318037092685699,-0.4284057915210724,-0.4955548048019409,9.29549789428711,-1.180880069732666,-2.5341005325317383,0.8875889778137207,-0.048484843224287,1.253517508506775,0.3933891654014587,-0.6713368892669678,-0.4263901114463806,-0.461241066455841
121796,8.877279281616211,-0.2259726077318191,4.083878517150879,0.1190798282623291,-0.4467366933822632,0.9505576491355896,0.6788259148597717,-0.3318736553192138,-0.4283731281757355,-0.4955319166183471,9.34012508392334,-1.1788073778152466,-2.544603109359741,0.4643517434597015,-0.425785481929779,0.9895017743110656,0.3934164941310882,-0.6713639497756958,-0.4264112412929535,-0.4611589312553406
121963,8.882329940795898,-0.2236524224281311,4.118739604949951,0.307192325592041,-0.2568313777446747,0.6180024743080139,0.6788474321365356,-0.3318723440170288,-0.4283652305603027,-0.495510071516037,9.37172508239746,-1.2428473234176636,-2.5493597984313965,0.3528341352939605,-0.4095086455345154,1.0534566640853882,0.3934434056282043,-0.6713953018188477,-0.4264249801635742,-0.4610776901245117
122130,8.957077026367188,-0.1979715228080749,4.068310737609863,-0.0163921266794204,-0.5114215612411499,0.5327121019363403,0.6788173317909241,-0.3319277167320251,-0.4283539652824402,-0.4955239295959472,9.376145362854004,-1.254413366317749,-2.5486416816711426,0.5365411639213562,-0.5482654571533203,1.1429858207702637,0.3934850990772247,-0.6714313626289368,-0.4264493286609649,-0.4609668850898742
122296,8.936333656311035,-0.2371057718992233,4.123834133148193,0.559682309627533,0.4206309914588928,1.3291902542114258,0.6789126396179199,-0.3319239020347595,-0.4282422661781311,-0.4954925179481506,9.38597583770752,-1.2529131174087524,-2.589120388031006,0.5493091344833374,-0.4353262186050415,1.239725112915039,0.3935359120368957,-0.6714704036712646,-0.426450103521347,-0.4608660042285919
122463,8.933917045593262,-0.2466793954372406,4.1170501708984375,0.2661223709583282,-1.0679343938827517,1.0193277597427368,0.6789118647575378,-0.332008957862854,-0.4282927811145782,-0.4953929483890533,9.323410034179688,-1.2321584224700928,-2.556370735168457,0.4794377088546753,-0.4867437183856964,1.013808250427246,0.3935734927654266,-0.6714922189712524,-0.4264878332614898,-0.4607672691345215
122630,8.916823387145996,-0.2012913823127746,4.12065315246582,0.3359681665897369,-0.8160974383354187,0.5788404941558838,0.6788544654846191,-0.3320793509483337,-0.4283155500888824,-0.4954046905040741,9.282593727111816,-1.2492555379867554,-2.558269739151001,0.3264914751052856,-0.8225774765014648,0.7570921778678894,0.3935478925704956,-0.671538770198822,-0.4265443980693817,-0.4606688618659973
122796,8.888399124145508,-0.2219612896442413,4.124289989471436,0.2460548132658004,-0.973602831363678,0.5181512832641602,0.6788116097450256,-0.3321377038955688,-0.4283719956874847,-0.4953754842281341,9.28829574584961,-1.2420743703842163,-2.575135469436645,0.2444027960300445,-1.1451822519302368,0.5431109070777893,0.393485277891159,-0.671593427658081,-0.4266428053379059,-0.4605514407157898
122963,8.927913665771484,-0.2602235674858093,4.058897495269775,0.2877138555049896,-0.9820676445961,0.5850772857666016,0.6787757277488708,-0.332196444272995,-0.4284289479255676,-0.4953360259532928,9.376143455505373,-1.2401273250579834,-2.604613780975342,0.2509980499744415,-1.2167311906814575,0.3401046395301819,0.3934115171432495,-0.6716347336769104,-0.4267733097076416,-0.4604334235191345
123130,8.913329124450684,-0.2158298194408416,4.068027973175049,0.6240983009338379,-0.4502584636211395,0.6453567743301392,0.6787617802619934,-0.3322146534919739,-0.428433895111084,-0.4953386485576629,9.414348602294922,-1.2213391065597534,-2.6003177165985107,-0.0040596132166683,-0.6705532670021057,0.1987609565258026,0.3933115303516388,-0.6716681122779846,-0.4268331527709961,-0.4604147672653198
123296,8.909476280212402,-0.1851867437362671,4.137192726135254,0.489080935716629,-0.2940722107887268,0.4039186835289001,0.6787074208259583,-0.3322421908378601,-0.4284083843231201,-0.4954166114330292,9.370582580566406,-1.212552189826965,-2.604404926300049,-0.2295409888029098,-0.2685875594615936,-0.0479341633617877,0.393206387758255,-0.6716642379760742,-0.4268913865089416,-0.4604560136795044
123463,8.906187057495117,-0.1978817731142044,4.140960693359375,0.5088539123535156,-0.8453214168548584,0.2670187652111053,0.6786731481552124,-0.332244724035263,-0.4284866452217102,-0.4953942596912384,9.317829132080078,-1.188563585281372,-2.5999529361724854,-0.4463012814521789,-0.2082824558019638,0.0743088349699974,0.3931126892566681,-0.6716585159301758,-0.42694753408432,-0.4604922533035278
123630,8.90440559387207,-0.2159325331449508,4.115367412567139,0.7021529078483582,-1.238207459449768,0.2363731861114502,0.6785902976989746,-0.3322812616825104,-0.4285981655120849,-0.4953868091106415,9.286447525024414,-1.1743271350860596,-2.608153820037842,-0.8264064788818359,-0.4811729490756988,0.1949062198400497,0.3929656445980072,-0.6717062592506409,-0.4269727766513824,-0.4605247378349304
123796,8.943148612976074,-0.1924374848604202,4.090410709381104,0.4589859545230865,-1.335369348526001,0.220134750008583,0.6785194277763367,-0.3323209285736084,-0.4287228286266327,-0.4953493177890777,9.33351707458496,-1.1914942264556885,-2.600285768508911,-1.11777663230896,-0.7922648787498474,0.2446845173835754,0.3927522897720337,-0.6718131899833679,-0.4269621968269348,-0.4605606198310852
123963,8.968343734741211,-0.1903934478759765,4.027079582214356,0.3608509302139282,-1.0842112302780151,0.0624501667916774,0.6784185767173767,-0.3323672413825989,-0.4288041591644287,-0.4953860342502594,9.373384475708008,-1.2067227363586426,-2.5999131202697754,-1.254702091217041,-0.7463412284851074,0.4116665124893188,0.3925517797470093,-0.6719244718551636,-0.4269404411315918,-0.4605894684791565
124130,8.92331600189209,-0.1955327540636062,4.08929967880249,0.0310105737298727,-0.5593941807746887,0.0034256984945386,0.6783304810523987,-0.3324043154716491,-0.428813487291336,-0.4954736828804016,9.377301216125488,-1.2308934926986694,-2.607938289642334,-1.1394834518432615,-0.4288206398487091,0.4142534136772156,0.3923974633216858,-0.6719944477081299,-0.4269290566444397,-0.4606294631958008
124296,8.902531623840332,-0.228551834821701,4.101780891418457,-0.0614832825958728,-0.7734394669532776,0.1869791001081466,0.6782334446907043,-0.3324812352657318,-0.4288253784179687,-0.4955446124076843,9.320773124694824,-1.2469112873077393,-2.605552673339844,-0.7932892441749573,-0.3961644172668457,0.5281274318695068,0.392293244600296,-0.6720439791679382,-0.4269362986087799,-0.4606392085552215
124463,8.92344856262207,-0.2425029575824737,4.083717346191406,0.2561717927455902,-1.089935541152954,0.1003057286143302,0.6781147122383118,-0.3325539529323578,-0.4288878142833709,-0.4956043660640716,9.286640167236328,-1.256025314331055,-2.624101161956787,-0.4474282264709472,-0.4773182272911072,0.572770357131958,0.3921990394592285,-0.6721014976501465,-0.4269364178180694,-0.4606354534626007
124630,8.949885368347168,-0.2462255209684372,4.055500984191895,0.3950438499450683,-1.055038332939148,0.1994780898094177,0.6780564785003662,-0.3325786590576172,-0.428981214761734,-0.495586633682251,9.311296463012695,-1.2459931373596191,-2.6255953311920166,-0.181043341755867,-0.8594852685928345,0.3622468113899231,0.3920977115631103,-0.6721522212028503,-0.427003264427185,-0.4605855643749237
124797,8.954718589782715,-0.2394394427537918,4.050677299499512,0.4624693393707275,-1.1745984554290771,0.0365301147103309,0.6779618263244629,-0.3326127827167511,-0.4290857911109924,-0.4956026673316955,9.386706352233888,-1.2128671407699585,-2.6256940364837646,0.0399622172117233,-0.7243399024009705,0.0632057413458824,0.3919976055622101,-0.6721712946891785,-0.4270930588245392,-0.4605597853660583
124963,8.95254898071289,-0.2323637753725052,4.04865312576294,0.3969520330429077,-0.6636763215065002,-0.0669900104403495,0.6778711676597595,-0.3326248228549957,-0.4291290640830993,-0.4956811666488647,9.37096881866455,-1.224110722541809,-2.637399196624756,0.1274679899215698,-0.2653347253799438,0.1406713426113128,0.3919568061828613,-0.6721445918083191,-0.4271781742572784,-0.4605546593666076
125130,8.922597885131836,-0.2117543816566467,4.142088413238525,0.4616880714893341,-0.440205454826355,0.1400182247161865,0.6778084635734558,-0.3326311111450195,-0.4291422665119171,-0.4957512319087982,9.344121932983398,-1.1927473545074463,-2.6225435733795166,0.1207318529486656,-0.2835325896739959,0.3872575759887695,0.3919127285480499,-0.6721500158309937,-0.4272158145904541,-0.4605492055416107
125297,8.907748222351074,-0.2293476462364196,4.068746566772461,0.5270261764526367,-1.0871824026107788,0.4292496144771576,0.6777823567390442,-0.3326504230499267,-0.429244190454483,-0.4956855177879333,9.33862018585205,-1.1789608001708984,-2.604530572891236,-0.1526900976896286,-0.1709391623735427,0.4581407606601715,0.3918628394603729,-0.672159731388092,-0.4272346794605255,-0.4605599045753479
125463,8.931015014648438,-0.1846900284290313,4.059983253479004,0.4708703160285949,-1.2329570055007937,0.3960043787956238,0.6777237057685852,-0.3326993882656097,-0.4293460547924042,-0.4956448376178741,9.308914184570312,-1.1990665197372437,-2.576156616210937,-0.3469367623329162,-0.1287166029214859,0.7433765530586243,0.3918111026287079,-0.6721993684768677,-0.4272039830684662,-0.4605745375156402
125630,8.987083435058594,-0.1719838082790374,4.07565975189209,-0.0647617131471633,-1.2903167009353638,0.1348572671413421,0.6776099801063538,-0.3327945172786712,-0.4294233322143554,-0.4956693053245544,9.225417137145996,-1.20878267288208,-2.628135204315185,-0.394333153963089,-0.4018120467662811,0.8886134624481201,0.3917509317398071,-0.6722658276557922,-0.4271766543388366,-0.4605542421340942
125797,8.927242279052734,-0.2488804161548614,4.033210277557373,0.3303141891956329,-1.2838237285614014,0.5342041254043579,0.6775231957435608,-0.3328940272331238,-0.4294947683811188,-0.4956595003604889,9.30035400390625,-1.252142310142517,-2.6619136333465576,-0.1808384507894516,-1.1489472389221191,0.9320525527000428,0.3916676640510559,-0.6723736524581909,-0.4272002577781677,-0.4604456126689911
125963,8.863306045532227,-0.2636916041374206,3.986635446548462,0.6231250166893005,-1.6787843704223633,0.6305270791053772,0.6774682998657227,-0.3329685628414154,-0.4296451210975647,-0.4955540597438812,9.411995887756348,-1.250107765197754,-2.62686538696289,0.1114728674292564,-1.0339462757110596,0.2498070448637008,0.3915823400020599,-0.6724077463150024,-0.4273152351379394,-0.4603616595268249
126130,9.053698539733888,-0.1820905953645706,4.051236152648926,0.6208454966545105,-1.3935742378234863,0.0583393275737762,0.6773737072944641,-0.3330013453960418,-0.429784208536148,-0.4955408275127411,9.387683868408203,-1.2457467317581177,-2.6581268310546875,0.3253261148929596,-0.3632905185222626,-0.0124221593141555,0.3915388286113739,-0.6723716259002686,-0.4274264872074127,-0.4603480398654938
126297,9.072952270507812,-0.176121175289154,4.026525974273682,0.4924362003803253,-0.746046781539917,-0.1073044165968895,0.6773077845573425,-0.3329837918281555,-0.4298630356788635,-0.4955742359161377,9.384718894958496,-1.208958387374878,-2.627922296524048,0.6365460157394409,0.0615921393036842,-0.085110992193222,0.3915418982505798,-0.6722897887229919,-0.4275341033935547,-0.460365355014801
126463,8.930438995361328,-0.2575697302818298,4.080149173736572,1.541711688041687,-0.0686164274811744,0.6473162174224854,0.6773865222930908,-0.3328638672828674,-0.4299127757549286,-0.4955041110515594,9.35421085357666,-1.1687651872634888,-2.618741989135742,0.4005249738693237,0.5072914958000183,-0.2067841291427612,0.3915547132492065,-0.6721726655960083,-0.4276293218135834,-0.4604369401931762
126630,8.812994956970215,-0.212985947728157,4.153954029083252,1.2479084730148315,-0.8680912852287292,0.7064046859741211,0.6773976683616638,-0.3328410983085632,-0.4300118088722229,-0.4954182803630829,9.298992156982422,-1.129144549369812,-2.606039047241211,0.0470569320023059,0.6930476427078247,-0.1012982279062271,0.3915448188781738,-0.6720750331878662,-0.4276719987392425,-0.4605480432510376
126797,8.903253555297852,-0.1641246676445007,4.105027675628662,0.9221659302711488,-1.7251174449920654,0.1253421306610107,0.677309513092041,-0.332865446805954,-0.4302069246768951,-0.4953531324863434,9.288681030273438,-1.1186615228652954,-2.607826232910156,-0.726055920124054,0.5406648516654968,0.304349273443222,0.3914874196052551,-0.6720471978187561,-0.427647203207016,-0.4606605172157287
126963,8.920820236206055,-0.1420721262693405,4.039795875549316,0.7846386432647705,-1.1874560117721558,0.182266354560852,0.6772384643554688,-0.3328795433044433,-0.4303270876407623,-0.4953361749649048,9.316340446472168,-1.1423823833465576,-2.6073999404907227,-1.074734449386597,0.2129759937524795,0.8511291742324829,0.3914080560207367,-0.672098696231842,-0.427558571100235,-0.4607351422309875
127130,8.946356773376465,-0.1886241436004638,4.045892238616943,0.1406201273202896,-0.9749858379364014,0.2559540867805481,0.6771796941757202,-0.3329243659973144,-0.4303932785987854,-0.4953288733959198,9.317349433898926,-1.1569753885269165,-2.6065688133239746,-1.4041650295257568,0.0884598642587661,0.9364964365959167,0.3912949562072754,-0.6721817255020142,-0.427447646856308,-0.4608131051063537
127297,8.941605567932129,-0.1956256926059723,4.022511005401611,-0.1089820489287376,-0.4140549600124359,0.0376570746302604,0.677089273929596,-0.3329738974571228,-0.4303707182407379,-0.495438814163208,9.342594146728516,-1.2157222032546997,-2.606717348098755,-1.4382554292678833,-0.0926027223467826,0.6851204633712769,0.3911440372467041,-0.672269344329834,-0.4273591935634613,-0.4608952701091766
127463,8.949394226074219,-0.1667621284723281,4.008996486663818,-0.1508203744888305,-0.3585777580738067,-0.120469331741333,0.6770098805427551,-0.3329956829547882,-0.4303612112998962,-0.4955408871173858,9.344598770141602,-1.2828065156936646,-2.606952667236328,-0.940959334373474,-0.1856536418199539,0.5467862486839294,0.3910169005393982,-0.672334611415863,-0.4273099601268768,-0.4609535932540893
127630,8.955009460449219,-0.2238813042640686,4.037398338317871,0.0477484725415706,-0.4169234931468963,0.0031183459796011,0.6769343018531799,-0.3330194056034088,-0.4303587675094604,-0.4956303536891937,9.369197845458984,-1.2831038236618042,-2.6062397956848145,-0.258483350276947,-0.219987466931343,0.417237251996994,0.3909541368484497,-0.6723477840423584,-0.427333116531372,-0.4609661400318146
127797,8.959790229797363,-0.2514646053314209,4.053831100463867,0.3756038248538971,-0.3866365253925323,0.3154139816761017,0.6769047975540161,-0.3330230116844177,-0.4303658306598663,-0.495662122964859,9.28159523010254,-1.2291889190673828,-2.6231837272644043,0.1808192580938339,-0.0408906750380992,0.2681585252285003,0.3909263610839844,-0.6723235249519348,-0.4273759126663208,-0.460985392332077
127963,8.970866203308105,-0.2161316573619842,4.086281776428223,0.139237031340599,-0.4490418136119842,0.062232457101345,0.6768558025360107,-0.3330270051956177,-0.4303830564022064,-0.495711475610733,9.328651428222656,-1.2115904092788696,-2.6376495361328125,0.4204517006874084,-0.5894762873649597,0.4200418591499328,0.3908901512622833,-0.6723390817642212,-0.4274399280548095,-0.460934042930603
128130,8.930526733398438,-0.2221611440181732,4.010222911834717,-0.056821770966053,-0.6115416288375854,0.0569818466901779,0.6767393946647644,-0.3331029117107391,-0.4303706884384155,-0.4958301484584808,9.31394100189209,-1.148959755897522,-2.6248936653137207,0.5164480805397034,-0.7622082233428955,0.3933149874210357,0.3908559679985046,-0.672354519367218,-0.4275301396846771,-0.4608568549156189
128297,8.931571960449219,-0.2430995404720306,4.013484001159668,0.4713057279586792,-0.6979973912239075,0.3424866497516632,0.6767117381095886,-0.3331086635589599,-0.4304235279560089,-0.4958181083202362,9.340106010437012,-1.1506068706512451,-2.6307690143585205,-0.0964830368757247,-1.0648479461669922,0.2439545392990112,0.39075767993927,-0.672393798828125,-0.4276452660560608,-0.4607761204242706
128463,8.966226577758789,-0.1920990347862243,4.008978366851807,0.5361825823783875,-0.8743022680282593,-0.1709391474723816,0.6766422390937805,-0.3330864608287811,-0.4305250644683838,-0.4958395957946777,9.35556983947754,-1.1598128080368042,-2.669248104095459,-0.3398293554782867,-0.9330066442489624,0.4797194600105285,0.3906417787075043,-0.6724683046340942,-0.4276891648769378,-0.4607249200344085
128630,9.025731086730955,-0.1821722835302353,3.97765040397644,0.3131985068321228,-0.7576876878738403,-0.0524932257831096,0.6765588521957397,-0.3331019580364227,-0.430580735206604,-0.4958946108818054,9.365192413330078,-1.1724464893341064,-2.630665779113769,-0.5318349003791809,-0.9079574346542358,0.7324528694152832,0.3905327916145324,-0.6725612878799438,-0.4277043044567108,-0.4606676697731018
128797,8.962991714477539,-0.1902719885110855,4.063250541687012,-0.0070306868292391,-0.1709903925657272,0.4394178986549377,0.6765350103378296,-0.3331348598003387,-0.4305344521999359,-0.4959453344345093,9.347930908203123,-1.1808576583862305,-2.61920166015625,-0.7350972890853882,-0.9171267747879028,0.9249578714370728,0.3904055953025818,-0.6726874709129333,-0.4276732802391052,-0.4606199860572815
128963,8.986711502075195,-0.2212035953998565,4.058977127075195,0.0102258706465363,-1.0912290811538696,0.2620627582073211,0.6764388680458069,-0.3332235515117645,-0.4305866062641144,-0.4959716200828552,9.325345993041992,-1.2010188102722168,-2.6217024326324463,-0.7680224776268005,-0.7896523475646973,0.739509105682373,0.3902833759784698,-0.6727840900421143,-0.4276683032512665,-0.4605871140956878
129130,8.978421211242676,-0.2015678435564041,4.025642395019531,0.2985607981681824,-0.8110901713371277,0.2230417728424072,0.6763973832130432,-0.3332386910915375,-0.4306510090827942,-0.4959620535373688,9.283939361572266,-1.20258891582489,-2.637885570526123,-0.6907873153686523,-0.9273205995559692,0.6341769099235535,0.3901486396789551,-0.672883152961731,-0.4276800751686096,-0.4605456292629242
129297,8.928620338439941,-0.1663901954889297,4.039730072021484,0.19680155813694,-0.7680863738059998,0.2615248560905456,0.6763583421707153,-0.3332617282867431,-0.4307032823562622,-0.4959544539451599,9.291142463684082,-1.1947258710861206,-2.6596343517303467,-0.5136370658874512,-1.2423439025878906,0.4035216271877289,0.3899984657764435,-0.6729766726493835,-0.4277477562427521,-0.4604732692241668
129463,8.945230484008789,-0.1971246749162674,4.012540340423584,-0.0873393043875694,-0.973423421382904,0.210773304104805,0.6762692928314209,-0.3333414494991302,-0.4307445883750915,-0.4959864616394043,9.313746452331545,-1.186477780342102,-2.6557047367095947,-0.3587058782577514,-1.4314810037612915,0.1141878142952919,0.3898506164550781,-0.6730396747589111,-0.4278901219367981,-0.4603741466999054
129630,8.96765422821045,-0.1924380809068679,3.982035160064697,0.505024790763855,-0.6691318154335022,0.3579182624816894,0.6762640476226807,-0.3333278000354767,-0.4308085739612579,-0.4959470927715301,9.352023124694824,-1.178193211555481,-2.6533868312835693,-0.1836430579423904,-1.208996295928955,0.1005874797701835,0.3897079527378082,-0.6730996370315552,-0.4279977977275848,-0.4603071510791778
129797,8.956454277038574,-0.1602891832590103,4.025396823883057,0.5427011251449585,-0.2852102220058441,0.3102530241012573,0.6762810349464417,-0.3332801759243011,-0.4308399558067322,-0.4959287047386169,9.369022369384766,-1.178547739982605,-2.6702051162719727,-0.1147192865610122,-0.8353326320648193,0.1740959137678146,0.3896088004112243,-0.6731275916099548,-0.4280933737754822,-0.4602613747119903
129963,8.927847862243652,-0.1816927939653396,4.0559163093566895,0.0918279290199279,-0.0623925328254699,0.2886615097522735,0.6762815117835999,-0.3332653045654297,-0.4308134913444519,-0.49596107006073,9.33936882019043,-1.1471614837646484,-2.668937921524048,-0.1608477532863617,-0.4655748307704925,0.3410778939723968,0.3895405828952789,-0.6731420159339905,-0.4281515479087829,-0.460243672132492
130130,8.943551063537598,-0.1840995699167251,4.046164035797119,0.4150473475456238,-0.2681777477264404,0.4166865944862366,0.6762652397155762,-0.3332667946815491,-0.4308050870895386,-0.4959896206855774,9.318787574768066,-1.1207404136657717,-2.676408529281616,-0.2826873660087585,-0.2746193706989288,0.606515109539032,0.3894814848899841,-0.6731752157211304,-0.4281522333621979,-0.4602445960044861
130297,8.975311279296875,-0.18042653799057,4.048977851867676,0.3765259087085724,-0.1879715919494629,0.4979428946971893,0.6762693524360657,-0.3332610130310058,-0.4307897388935089,-0.4960012137889862,9.358773231506348,-1.1506866216659546,-2.646531105041504,-0.4178455471992492,-0.2187452614307403,0.875307559967041,0.3894365429878235,-0.6732233166694641,-0.4281233549118042,-0.4602391123771667
130463,8.948989868164062,-0.1743901669979095,4.050819873809815,0.1575437039136886,0.0939089581370353,0.4871022999286651,0.6762948632240295,-0.3332425355911255,-0.4307414889335632,-0.4960207343101501,9.374467849731444,-1.196702480316162,-2.6417813301086426,-0.3729849755764007,0.1594198644161224,1.161247968673706,0.3894352316856384,-0.6732642650604248,-0.4280433356761932,-0.4602547883987427
130630,8.931098937988281,-0.1903330236673355,4.086235046386719,0.0420112311840057,0.1492516100406646,0.5194960236549377,0.6763013601303101,-0.3332503736019134,-0.4306649267673492,-0.4960731565952301,9.399771690368652,-1.208675503730774,-2.6349501609802246,-0.232845053076744,0.4072739481925964,1.2451165914535522,0.3894800841808319,-0.6732757091522217,-0.4279657006263733,-0.4602723121643066
130797,8.936545372009277,-0.208525076508522,4.083642482757568,0.0289487559348344,-0.0929100736975669,0.4916422069072723,0.6762704849243164,-0.3332927823066711,-0.4305989742279053,-0.496144026517868,9.3251314163208,-1.2222323417663574,-2.619830846786499,0.2090444564819336,0.6250587105751038,1.1491971015930176,0.3895747065544128,-0.6732428073883057,-0.4279124140739441,-0.4602899551391601
130963,8.964414596557617,-0.2066189497709274,4.063733577728272,0.0343530289828777,-0.0772991254925727,0.4345258474349975,0.6762702465057373,-0.3333005607128143,-0.4305566251277923,-0.4961759448051452,9.27933120727539,-1.2160048484802246,-2.638721704483032,0.5552768707275391,0.4053145349025726,0.9645037055015564,0.389677882194519,-0.6731923222541809,-0.4279147386550903,-0.4602743089199066
131130,8.975325584411621,-0.1953503191471099,4.041228771209717,-0.0615985430777072,-0.3443499207496643,0.3753476738929748,0.6762396693229675,-0.3333371579647064,-0.4305333793163299,-0.4962131083011627,9.27292251586914,-1.1793456077575684,-2.6264498233795166,0.6511452198028564,-0.1146808490157127,0.7365251183509827,0.3897460103034973,-0.6731544733047485,-0.427978515625,-0.4602123498916626
131297,8.973562240600586,-0.1849828958511352,4.008978366851807,0.1950407028198242,-0.3302757740020752,0.3848948180675506,0.6762171387672424,-0.3333534300327301,-0.4305229783058166,-0.4962419271469116,9.294187545776367,-1.1647056341171265,-2.592844009399414,0.4879410862922668,-0.3938080370426178,0.5974097847938538,0.389772355556488,-0.6731355786323547,-0.4280613958835602,-0.4601407945156097
131463,8.950760841369629,-0.1833199560642242,4.0261406898498535,0.2281643152236938,-0.4044116735458374,0.375462919473648,0.6761952638626099,-0.3333670496940613,-0.4305259883403778,-0.4962598979473114,9.236863136291504,-1.1523019075393677,-2.6408116817474365,0.2640989422798157,-1.0962876081466677,0.6142885684967041,0.3897232115268707,-0.6731865406036377,-0.4281535744667053,-0.4600221216678619
131630,8.938687324523926,-0.1919135898351669,4.016417026519775,0.1342425346374511,-0.2852358222007751,0.5141813158988953,0.6761810183525085,-0.333394855260849,-0.4305002093315124,-0.4962829053401947,9.28504467010498,-1.1550616025924685,-2.6312663555145264,-0.0849061012268066,-1.610680341720581,0.8118009567260742,0.3896284401416778,-0.673297643661499,-0.4282414019107818,-0.4598578810691833
131797,8.9461030960083,-0.1887063831090927,3.9659616947174072,0.2084297388792038,-0.4248250126838684,0.7585264444351196,0.6761885285377502,-0.3334327638149261,-0.4304878115653991,-0.4962579607963562,9.281170845031738,-1.1609628200531006,-2.6530568599700928,-0.4219692647457123,-1.888654947280884,0.9173764586448668,0.389482706785202,-0.6734600067138672,-0.4283016324043274,-0.45968759059906
131963,9.003992080688477,-0.1463062167167663,4.009529113769531,-0.0865837186574935,-0.2886166870594024,0.5203795433044434,0.6761636137962341,-0.3334834575653076,-0.4304461777210235,-0.4962939918041229,9.265056610107422,-1.1812434196472168,-2.675640344619751,-0.5858137011528015,-1.8783713579177856,1.238726258277893,0.3893536627292633,-0.6736406683921814,-0.4283345937728882,-0.4595015347003937
132130,8.994562149047852,-0.2179734110832214,4.01321268081665,-0.301102876663208,-0.315868616104126,0.6959034204483032,0.676141083240509,-0.3335660994052887,-0.4303850531578064,-0.4963221251964569,9.292814254760742,-1.2136200666427612,-2.7218337059021,-0.5576652884483337,-2.414547681808472,1.3642412424087524,0.3891949951648712,-0.6738702058792114,-0.42837655544281,-0.4592601358890533
132297,8.882390975952148,-0.2384744435548782,3.948398351669312,0.4382909536361694,-0.2663080394268036,1.1091643571853638,0.6762083172798157,-0.3335798680782318,-0.4303665161132812,-0.4962372481822967,9.447457313537598,-1.2442861795425415,-2.7287909984588623,-0.298516035079956,-1.9639434814453125,1.090915322303772,0.3890822529792785,-0.6740278601646423,-0.4284528791904449,-0.4590531885623932
132463,8.974905967712402,-0.197088673710823,4.053920745849609,0.2982150614261627,-0.4941714107990265,0.5689156651496887,0.6762082576751709,-0.3335970640182495,-0.4303814470767975,-0.4962129294872284,9.462889671325684,-1.2555694580078125,-2.7017533779144287,0.0042068855836987,-0.7462899684906006,0.72555011510849,0.3890486061573028,-0.6740663051605225,-0.4285130500793457,-0.4589687883853912
132630,9.090295791625977,-0.1507480144500732,4.094324111938477,0.0139525178819894,-0.1608477383852005,0.0205477848649024,0.6761715412139893,-0.333587646484375,-0.4303669035434723,-0.4962819814682007,9.382219314575195,-1.2476600408554075,-2.713869333267212,0.3960683643817901,0.1981334239244461,0.707416296005249,0.3891039490699768,-0.674025297164917,-0.4285371601581573,-0.4589596390724182
132797,8.98668098449707,-0.2524081766605377,4.037052631378174,0.6957882642745972,-0.1724503189325332,0.8594532608985901,0.676209032535553,-0.3335802853107452,-0.4303500056266784,-0.4962505400180816,9.342228889465332,-1.2251582145690918,-2.660355806350708,0.7158172726631165,0.5979348421096802,0.6016486287117004,0.3892127275466919,-0.6739292740821838,-0.4285758733749389,-0.458972305059433
132963,8.816713333129883,-0.2779188752174377,4.152130126953125,1.5011794567108154,-0.0609582252800464,1.3519470691680908,0.676334798336029,-0.3335111439228058,-0.4303605258464813,-0.4961164891719818,9.283863067626951,-1.1677943468093872,-2.6460936069488525,0.6245976090431213,0.6653345823287964,0.5137715339660645,0.3893076181411743,-0.6738308668136597,-0.428609699010849,-0.4590047299861908
133130,8.906445503234863,-0.2042372375726699,4.1079583168029785,0.6320381760597229,-1.794579267501831,0.5700170397758484,0.6762586236000061,-0.3335995674133301,-0.4305188953876495,-0.496023416519165,9.28376579284668,-1.1275960206985474,-2.6296353340148926,0.0973090454936027,0.4636731147766113,0.3925210237503052,0.389325201511383,-0.6737732887268066,-0.4286237061023712,-0.4590613543987274
133297,8.952569007873535,-0.1294066309928894,4.035607814788818,0.298496812582016,-1.1487936973571775,0.2123356908559799,0.6761823892593384,-0.3336504101753235,-0.4306076765060425,-0.4960159659385681,9.275888442993164,-1.165339112281799,-2.638278722763061,-0.3790422976016998,0.3151194155216217,0.5738716721534729,0.3892991542816162,-0.6737627983093262,-0.4285980463027954,-0.4591225981712341
133463,8.936869621276855,-0.1766737997531891,4.027892589569092,0.1012534126639366,-0.7657941579818726,0.4139845073223114,0.6761382818222046,-0.333702027797699,-0.4306374490261078,-0.4960154891014099,9.260947227478027,-1.1911025047302246,-2.6563262939453125,-0.5206164717674255,-0.1130672618746757,0.9584848284721376,0.3892678022384643,-0.6738042235374451,-0.4285619854927063,-0.4591220021247864
133630,8.937466621398926,-0.2548494637012481,3.987079620361328,0.0300244856625795,-0.5398644804954529,0.6926121711730957,0.6761203408241272,-0.3337656855583191,-0.4306234121322632,-0.4960093796253204,9.274088859558104,-1.2036765813827517,-2.670288562774658,-0.6243992447853088,-0.6446204781532288,1.0295729637145996,0.3891943693161011,-0.6738945245742798,-0.4285377860069275,-0.4590742588043213
133797,8.959540367126465,-0.2135781645774841,3.96005916595459,0.2240278571844101,-0.1552001535892486,0.7331442832946777,0.6761331558227539,-0.3337909281253814,-0.4305793642997741,-0.4960132241249084,9.28923511505127,-1.2231703996658323,-2.696596622467041,-0.6325183510780334,-1.075361967086792,1.0434293746948242,0.389104813337326,-0.674005389213562,-0.4285504519939422,-0.4589757919311523
133963,8.972442626953125,-0.172881007194519,3.98745322227478,0.1990939080715179,-0.0714978575706482,0.5381036400794983,0.6761412024497986,-0.333795815706253,-0.4305384457111358,-0.4960343539714813,9.310972213745115,-1.243818998336792,-2.710256099700928,-0.3994428813457489,-1.3354591131210327,0.7692198157310486,0.3889923691749573,-0.6741140484809875,-0.4286038279533386,-0.4588615000247955
134130,8.973978042602539,-0.1917562335729599,4.004586696624756,-0.1674558073282241,-0.1428676098585128,0.4435158967971802,0.6761215329170227,-0.3338345289230346,-0.4304841160774231,-0.4960822463035583,9.334035873413086,-1.2427208423614502,-2.6788580417633057,-0.2592389583587646,-1.1834477186203003,0.3475579619407654,0.3888777792453766,-0.6741762757301331,-0.4287024438381195,-0.4587753117084503
134297,8.980085372924805,-0.2118580937385559,4.041443347930908,0.20686736702919,-0.0709215626120567,0.5171524286270142,0.6761320233345032,-0.3338336050510406,-0.4304479956626892,-0.496099978685379,9.324750900268556,-1.2827112674713137,-2.7079901695251465,0.1182730346918106,-1.3373926877975464,0.5165377259254456,0.3887995183467865,-0.6742400527000427,-0.4288150072097778,-0.4586425125598907
134463,8.945821762084961,-0.2258911281824112,4.054217338562012,0.305437833070755,-0.098647303879261,0.6190397143363953,0.6761709451675415,-0.3338153064250946,-0.4304289519786834,-0.4960757791996002,9.344935417175291,-1.251786231994629,-2.7072672843933105,0.7930908799171448,-1.2075235843658447,0.5874081254005432,0.3888032436370849,-0.674258828163147,-0.4289622604846954,-0.4584741592407226
134630,8.9423189163208,-0.2680124938488006,3.99382209777832,0.5896490812301636,-0.4914436340332031,0.9014196395874025,0.6761980652809143,-0.3338343501091003,-0.4304406344890594,-0.4960158467292785,9.30824089050293,-1.1583126783370972,-2.6994354724884038,0.5680448412895203,-1.1480252742767334,0.2847556173801422,0.3887596726417541,-0.6742764115333557,-0.429107129573822,-0.4583496451377868
134797,8.992365837097168,-0.2174248099327087,4.0576171875,0.6020713448524475,-0.426541119813919,0.4174166023731231,0.6762122511863708,-0.3338019847869873,-0.4304818511009216,-0.4959825575351715,9.307110786437988,-1.1547794342041016,-2.695009469985962,0.0521538592875003,-1.14454185962677,0.1610206365585327,0.388652354478836,-0.6743192076683044,-0.4292239546775818,-0.458268254995346
134963,8.999141693115234,-0.1750178039073944,3.9970219135284415,0.2716290950775146,-1.080407738685608,-0.0963933914899826,0.6761387586593628,-0.3338117897510528,-0.4305925965309143,-0.4959799647331238,9.31318187713623,-1.1601166725158691,-2.7198665142059326,-0.478598952293396,-1.131556272506714,0.4415053129196167,0.3885171711444855,-0.6744040846824646,-0.4292837679386139,-0.458201915025711
135130,8.965025901794434,-0.1916060298681259,4.023197650909424,0.2892121970653534,-0.2304502725601196,0.3281562924385071,0.6761094331741333,-0.333821177482605,-0.4305735230445862,-0.4960302412509918,9.304402351379396,-1.191700458526611,-2.7026526927948,-0.7302820086479187,-1.0779359340667725,0.6946483254432678,0.3883745372295379,-0.6745181679725647,-0.4292948246002197,-0.4581445753574371
135297,8.943747520446777,-0.2458056807518005,4.063199043273926,-0.0916422456502914,-1.028234601020813,0.4499191343784332,0.6760438680648804,-0.3339123427867889,-0.4306153059005737,-0.49602210521698,9.248183250427246,-1.173123121261597,-2.70057225227356,-1.0545772314071655,-1.1309415102005005,0.767465353012085,0.3882087469100952,-0.6746517419815063,-0.4292904436588287,-0.4580925405025482
