// Start Time: Unknown
// Update Rate: 60.0Hz
//Filter Profile: human (46.1)
// Option Flags: AHS Disabled ICC Disabled
// Firmware Version: 4.0.2
0	sampleTimeFine	Year	Month	Day	Second	UTC_Nano	UTC_Year	UTC_Month	UTC_Day	UTC_Hour	UTC_Minute	UTC_Second	UTC_Valid	Acc_X	Acc_Y	Acc_Z	Mat[1][1]	Mat[2][1]	Mat[3][1]	Mat[1][2]	Mat[2][2]	Mat[3][2]	Mat[1][3]	Mat[2][3]	Mat[3][3]
0	3189710													-0.086063	-0.026999	0.240236	0.029390	-0.762319	-0.646534	-0.041136	-0.647187	0.761220	-0.998721	0.004224	-0.050380
1	3189877													9.802792	-0.432685	0.268051	0.029608	-0.761824	-0.647107	-0.040708	-0.647773	0.760745	-0.998732	0.003818	-0.050192
2	3190043													9.796750	-0.462926	0.251000	0.029131	-0.761059	-0.648028	-0.041395	-0.648666	0.759947	-0.998718	0.004688	-0.050400
3	3190210													9.817771	-0.448515	0.206690	0.028402	-0.760720	-0.648459	-0.042641	-0.649052	0.759548	-0.998687	0.006078	-0.050873
4	3190710													9.829416	-0.464400	0.235268	0.026318	-0.761161	-0.648028	-0.044820	-0.648499	0.759895	-0.998648	0.009046	-0.051182
5	3190877													9.836761	-0.425774	0.278482	0.026035	-0.760776	-0.648493	-0.045319	-0.648944	0.759485	-0.998633	0.009616	-0.051373
6	3191043													9.837555	-0.430254	0.280123	0.025893	-0.760782	-0.648491	-0.045662	-0.648931	0.759476	-0.998621	0.009946	-0.051541
7	3191210													9.788443	-0.413430	0.293773	0.025808	-0.760915	-0.648338	-0.045976	-0.648771	0.759593	-0.998609	0.010204	-0.051727
8	3191377													9.869306	-0.398994	0.226277	0.025700	-0.761036	-0.648200	-0.046087	-0.648627	0.759710	-0.998607	0.010349	-0.051744
9	3191544													9.814579	-0.461216	0.213389	0.025679	-0.760921	-0.648336	-0.046071	-0.648762	0.759596	-0.998608	0.010364	-0.051716
10	3191710													9.760539	-0.449698	0.242126	0.025578	-0.760879	-0.648389	-0.046156	-0.648809	0.759550	-0.998607	0.010499	-0.051715
11	3191877													9.808615	-0.427184	0.243877	0.025333	-0.760870	-0.648410	-0.046272	-0.648815	0.759538	-0.998608	0.010762	-0.051643
12	3192044													9.810892	-0.464664	0.232071	0.025236	-0.760851	-0.648436	-0.046292	-0.648836	0.759519	-0.998609	0.010850	-0.051596
13	3192210													9.785455	-0.453789	0.253993	0.025149	-0.760992	-0.648273	-0.046289	-0.648669	0.759661	-0.998611	0.010903	-0.051539
14	3192377													9.806464	-0.443289	0.280450	0.024980	-0.761094	-0.648160	-0.046337	-0.648547	0.759763	-0.998613	0.011054	-0.051468
15	3192544													9.822536	-0.452179	0.257154	0.024830	-0.761076	-0.648188	-0.046376	-0.648566	0.759744	-0.998615	0.011196	-0.051400
16	3192710													9.809601	-0.438057	0.258807	0.024718	-0.760893	-0.648407	-0.046349	-0.648780	0.759564	-0.998619	0.011278	-0.051303
17	3192877													9.815047	-0.445721	0.256099	0.024551	-0.760724	-0.648611	-0.046324	-0.648976	0.759398	-0.998625	0.011402	-0.051173
18	3193044													9.808292	-0.437570	0.268666	0.024418	-0.760585	-0.648779	-0.046329	-0.649136	0.759260	-0.998628	0.011518	-0.051088
19	3193210													9.832338	-0.417143	0.240922	0.024307	-0.760498	-0.648885	-0.046349	-0.649236	0.759173	-0.998630	0.011621	-0.051029
20	3193377													9.800038	-0.430118	0.246562	0.024193	-0.760319	-0.649099	-0.046306	-0.649444	0.758998	-0.998634	0.011694	-0.050919
21	3193544													9.828465	-0.410917	0.229561	0.024089	-0.760202	-0.649240	-0.046282	-0.649580	0.758883	-0.998638	0.011767	-0.050831
22	3193710													9.812355	-0.410284	0.238994	0.023977	-0.760157	-0.649297	-0.046248	-0.649632	0.758841	-0.998642	0.011833	-0.050732
23	3193877													9.819392	-0.412880	0.248318	0.023866	-0.760088	-0.649382	-0.046215	-0.649712	0.758775	-0.998646	0.011902	-0.050634
24	3194044													9.812941	-0.422009	0.236653	0.023755	-0.759962	-0.649534	-0.046223	-0.649857	0.758650	-0.998649	0.012002	-0.050565
25	3194210													9.836895	-0.429692	0.248829	0.023632	-0.759854	-0.649664	-0.046248	-0.649981	0.758542	-0.998650	0.012120	-0.050503
26	3194377													9.830082	-0.415863	0.245925	0.023529	-0.759868	-0.649651	-0.046273	-0.649963	0.758556	-0.998652	0.012213	-0.050454
27	3194544													9.814386	-0.432267	0.222408	0.023449	-0.759866	-0.649656	-0.046298	-0.649963	0.758554	-0.998652	0.012290	-0.050421
28	3194710													9.833791	-0.432743	0.221553	0.023386	-0.759869	-0.649656	-0.046331	-0.649959	0.758556	-0.998652	0.012360	-0.050405
29	3194877													9.816224	-0.447755	0.234553	0.023330	-0.759825	-0.649709	-0.046377	-0.650009	0.758510	-0.998652	0.012435	-0.050403
30	3195044													9.792736	-0.423284	0.216059	0.023298	-0.759753	-0.649795	-0.046479	-0.650091	0.758433	-0.998648	0.012532	-0.050458
31	3195210													9.802066	-0.404405	0.209258	0.023284	-0.759717	-0.649837	-0.046599	-0.650131	0.758392	-0.998642	0.012623	-0.050539
32	3195377													9.855867	-0.451559	0.208205	0.023288	-0.759599	-0.649975	-0.046754	-0.650267	0.758265	-0.998635	0.012731	-0.050658
33	3195544													9.825160	-0.476549	0.173924	0.023291	-0.759513	-0.650075	-0.047061	-0.650364	0.758164	-0.998620	0.012935	-0.050891
34	3195710													9.854054	-0.370258	0.219552	0.023486	-0.759513	-0.650068	-0.047297	-0.650363	0.758150	-0.998605	0.012940	-0.051197
35	3195877													9.830145	-0.326985	0.290353	0.023680	-0.759640	-0.649913	-0.047385	-0.650217	0.758269	-0.998596	0.012840	-0.051392
36	3196044													9.840321	-0.426642	0.224539	0.023793	-0.759638	-0.649911	-0.047390	-0.650222	0.758265	-0.998593	0.012758	-0.051470
37	3196210													9.839479	-0.427575	0.293863	0.024049	-0.759295	-0.650302	-0.047484	-0.650624	0.757914	-0.998582	0.012652	-0.051701
38	3196377													9.828202	-0.346186	0.335184	0.024106	-0.759117	-0.650508	-0.047696	-0.650829	0.757725	-0.998571	0.012761	-0.051895
39	3196544													9.813953	-0.399024	0.293816	0.024229	-0.759121	-0.650498	-0.047852	-0.650824	0.757719	-0.998561	0.012769	-0.052095
40	3196710													9.799870	-0.468689	0.249042	0.024278	-0.759118	-0.650500	-0.048037	-0.650826	0.757706	-0.998550	0.012853	-0.052266
41	3196877													9.802005	-0.480449	0.217294	0.024299	-0.759113	-0.650505	-0.048229	-0.650830	0.757690	-0.998541	0.012963	-0.052426
42	3197044													9.785528	-0.451487	0.219267	0.024447	-0.758964	-0.650674	-0.048404	-0.651004	0.757530	-0.998529	0.012976	-0.052652
43	3197210													9.786421	-0.453018	0.233627	0.024669	-0.758914	-0.650723	-0.048574	-0.651063	0.757468	-0.998515	0.012922	-0.052924
44	3197377													9.801548	-0.471194	0.247292	0.024938	-0.758964	-0.650655	-0.048804	-0.651006	0.757502	-0.998497	0.012864	-0.053276
45	3197544													9.832578	-0.442129	0.271347	0.025215	-0.758961	-0.650648	-0.049039	-0.651010	0.757483	-0.998479	0.012808	-0.053634
46	3197710													9.818192	-0.433769	0.241195	0.025359	-0.758988	-0.650611	-0.049207	-0.650979	0.757499	-0.998467	0.012805	-0.053856
47	3197877													9.819237	-0.451532	0.301340	0.025507	-0.759006	-0.650583	-0.049465	-0.650956	0.757502	-0.998450	0.012860	-0.054148
48	3198044													9.880116	-0.420447	0.281275	0.025473	-0.759187	-0.650374	-0.049610	-0.650743	0.757676	-0.998444	0.012965	-0.054239
49	3198210													9.813518	-0.455701	0.239141	0.025470	-0.759442	-0.650076	-0.049724	-0.650445	0.757924	-0.998438	0.013021	-0.054329
50	3198377													9.788727	-0.493248	0.248443	0.025570	-0.759418	-0.650100	-0.049888	-0.650472	0.757890	-0.998427	0.013053	-0.054518
51	3198544													9.776153	-0.443893	0.266113	0.025484	-0.759505	-0.650002	-0.050063	-0.650367	0.757968	-0.998421	0.013225	-0.054597
52	3198710													9.810495	-0.443135	0.241430	0.025448	-0.759611	-0.649880	-0.050251	-0.650241	0.758064	-0.998412	0.013366	-0.054719
53	3198877													9.778556	-0.456242	0.257691	0.025422	-0.759734	-0.649737	-0.050375	-0.650095	0.758181	-0.998407	0.013456	-0.054798
54	3199044													9.790515	-0.430897	0.287216	0.025344	-0.759841	-0.649615	-0.050497	-0.649967	0.758283	-0.998403	0.013586	-0.054842
55	3199210													9.826138	-0.448485	0.278361	0.025203	-0.759897	-0.649555	-0.050596	-0.649898	0.758335	-0.998401	0.013753	-0.054828
56	3199377													9.814211	-0.440753	0.315286	0.025048	-0.759893	-0.649566	-0.050636	-0.649900	0.758331	-0.998403	0.013897	-0.054756
57	3199544													9.799616	-0.451698	0.283467	0.024853	-0.759892	-0.649574	-0.050651	-0.649897	0.758332	-0.998407	0.014055	-0.054641
58	3199710													9.809824	-0.455585	0.314931	0.024650	-0.759904	-0.649568	-0.050623	-0.649881	0.758348	-0.998414	0.014190	-0.054488
59	3199877													9.812251	-0.432749	0.292205	0.024465	-0.759968	-0.649500	-0.050591	-0.649803	0.758417	-0.998420	0.014304	-0.054344
60	3200044													9.799325	-0.432639	0.258834	0.024251	-0.759958	-0.649519	-0.050538	-0.649812	0.758413	-0.998428	0.014433	-0.054165
61	3200210													9.812214	-0.429446	0.269423	0.024028	-0.759863	-0.649639	-0.050477	-0.649919	0.758325	-0.998436	0.014571	-0.053972
62	3200377													9.816405	-0.444576	0.258616	0.023840	-0.759849	-0.649663	-0.050451	-0.649934	0.758314	-0.998442	0.014698	-0.053829
63	3200544													9.808152	-0.439001	0.258492	0.023686	-0.759776	-0.649754	-0.050400	-0.650017	0.758246	-0.998448	0.014787	-0.053689
64	3200710													9.809883	-0.439906	0.240010	0.023543	-0.759782	-0.649751	-0.050380	-0.650007	0.758256	-0.998453	0.014883	-0.053582
65	3200877													9.815402	-0.436709	0.249898	0.023418	-0.759711	-0.649839	-0.050396	-0.650088	0.758186	-0.998455	0.014994	-0.053511
66	3201044													9.843650	-0.428315	0.239420	0.023250	-0.759812	-0.649727	-0.050436	-0.649967	0.758287	-0.998457	0.015139	-0.053434
67	3201210													9.845140	-0.450896	0.233476	0.023117	-0.759992	-0.649522	-0.050519	-0.649753	0.758464	-0.998455	0.015280	-0.053415
68	3201377													9.820236	-0.453535	0.237881	0.022991	-0.760020	-0.649493	-0.050643	-0.649716	0.758488	-0.998452	0.015453	-0.053427
69	3201544													9.812901	-0.438400	0.254454	0.022910	-0.760087	-0.649418	-0.050758	-0.649635	0.758550	-0.998448	0.015584	-0.053463
70	3201710													9.816183	-0.442447	0.207396	0.022784	-0.760172	-0.649322	-0.050938	-0.649530	0.758628	-0.998442	0.015791	-0.053520
71	3201877													9.802896	-0.411637	0.221106	0.022676	-0.760184	-0.649312	-0.051105	-0.649511	0.758633	-0.998436	0.015980	-0.053578
72	3202044													9.828300	-0.424817	0.193994	0.022604	-0.760124	-0.649385	-0.051225	-0.649578	0.758567	-0.998431	0.016118	-0.053620
73	3202210													9.859694	-0.462548	0.179036	0.022519	-0.760014	-0.649517	-0.051392	-0.649702	0.758449	-0.998425	0.016300	-0.053689
74	3202377													9.838842	-0.436351	0.187629	0.022509	-0.760112	-0.649402	-0.051608	-0.649584	0.758537	-0.998414	0.016441	-0.053849
75	3202544													9.833079	-0.363399	0.272852	0.022684	-0.760241	-0.649245	-0.051763	-0.649434	0.758654	-0.998402	0.016398	-0.054084
76	3202710													9.817598	-0.370640	0.250710	0.022720	-0.760294	-0.649181	-0.051705	-0.649374	0.758710	-0.998404	0.016328	-0.054065
77	3202877													9.870689	-0.488485	0.242116	0.022871	-0.760390	-0.649064	-0.051610	-0.649266	0.758808	-0.998405	0.016143	-0.054093
78	3203044													9.826223	-0.406289	0.331203	0.023009	-0.760190	-0.649293	-0.051708	-0.649501	0.758601	-0.998397	0.016119	-0.054252
79	3203210													9.831948	-0.389263	0.330484	0.023016	-0.760237	-0.649238	-0.051828	-0.649444	0.758641	-0.998391	0.016188	-0.054350
80	3203377													9.784021	-0.469735	0.292355	0.023003	-0.760371	-0.649081	-0.051907	-0.649286	0.758771	-0.998387	0.016238	-0.054404
81	3203544													9.800551	-0.501273	0.231530	0.022936	-0.760348	-0.649111	-0.052050	-0.649309	0.758741	-0.998381	0.016384	-0.054469
82	3203710													9.798803	-0.482227	0.197190	0.022974	-0.760347	-0.649110	-0.052196	-0.649308	0.758732	-0.998373	0.016450	-0.054604
83	3203877													9.785277	-0.435301	0.236491	0.023147	-0.760358	-0.649092	-0.052338	-0.649297	0.758732	-0.998361	0.016410	-0.054824
84	3204044													9.792264	-0.465455	0.236122	0.023367	-0.760587	-0.648816	-0.052482	-0.649031	0.758949	-0.998348	0.016317	-0.055083
85	3204210													9.817316	-0.469276	0.257793	0.023623	-0.760544	-0.648857	-0.052644	-0.649084	0.758893	-0.998334	0.016231	-0.055372
86	3204377													9.822530	-0.444199	0.281725	0.023808	-0.760498	-0.648903	-0.052782	-0.649138	0.758837	-0.998322	0.016184	-0.055596
87	3204544													9.838094	-0.461858	0.299892	0.023979	-0.760489	-0.648908	-0.052961	-0.649150	0.758815	-0.998309	0.016171	-0.055842
88	3204710													9.802714	-0.450883	0.309466	0.024105	-0.760706	-0.648649	-0.053177	-0.648895	0.759018	-0.998294	0.016197	-0.056093
89	3204877													9.859402	-0.433690	0.258760	0.024207	-0.760692	-0.648661	-0.053253	-0.648911	0.758998	-0.998288	0.016171	-0.056218
90	3205044													9.785447	-0.479312	0.226413	0.024295	-0.760643	-0.648716	-0.053302	-0.648970	0.758945	-0.998283	0.016139	-0.056311
91	3205210													9.773579	-0.464053	0.263183	0.024319	-0.760671	-0.648682	-0.053423	-0.648936	0.758965	-0.998276	0.016197	-0.056419
92	3205377													9.813678	-0.421009	0.257319	0.024281	-0.760782	-0.648553	-0.053516	-0.648803	0.759072	-0.998272	0.016277	-0.056468
93	3205544													9.786156	-0.456743	0.245714	0.024249	-0.760997	-0.648302	-0.053512	-0.648551	0.759288	-0.998273	0.016280	-0.056449
94	3205710													9.784356	-0.449218	0.268280	0.024185	-0.761001	-0.648300	-0.053489	-0.648546	0.759294	-0.998276	0.016314	-0.056390
95	3205877													9.795782	-0.454450	0.298223	0.024082	-0.761161	-0.648115	-0.053483	-0.648356	0.759457	-0.998278	0.016375	-0.056323
96	3206044													9.807269	-0.451668	0.295338	0.023950	-0.761217	-0.648055	-0.053443	-0.648289	0.759516	-0.998284	0.016444	-0.056208
97	3206210													9.821038	-0.442019	0.311033	0.023782	-0.761190	-0.648093	-0.053367	-0.648319	0.759497	-0.998292	0.016525	-0.056041
98	3206377													9.816107	-0.457010	0.274449	0.023610	-0.761208	-0.648078	-0.053264	-0.648296	0.759523	-0.998301	0.016587	-0.055851
99	3206544													9.801653	-0.447671	0.282426	0.023424	-0.761324	-0.647949	-0.053159	-0.648158	0.759648	-0.998311	0.016651	-0.055653
100	3206710													9.810081	-0.432721	0.265537	0.023255	-0.761438	-0.647820	-0.053042	-0.648022	0.759772	-0.998321	0.016693	-0.055458
101	3206877													9.802080	-0.441894	0.249451	0.023110	-0.761467	-0.647791	-0.052923	-0.647987	0.759810	-0.998331	0.016724	-0.055274
102	3207044													9.810892	-0.421653	0.262837	0.022980	-0.761520	-0.647734	-0.052801	-0.647926	0.759871	-0.998341	0.016739	-0.055098
103	3207210													9.818377	-0.418384	0.233662	0.022871	-0.761484	-0.647780	-0.052701	-0.647967	0.759843	-0.998348	0.016760	-0.054951
104	3207377													9.823001	-0.428583	0.235561	0.022787	-0.761370	-0.647917	-0.052631	-0.648100	0.759735	-0.998354	0.016789	-0.054839
105	3207544													9.830580	-0.419672	0.247361	0.022671	-0.761329	-0.647969	-0.052618	-0.648146	0.759696	-0.998357	0.016872	-0.054753
106	3207710													9.835618	-0.420326	0.276902	0.022556	-0.761402	-0.647887	-0.052607	-0.648058	0.759772	-0.998361	0.016946	-0.054673
107	3207877													9.822610	-0.428755	0.249308	0.022454	-0.761542	-0.647726	-0.052632	-0.647892	0.759912	-0.998361	0.017028	-0.054630
108	3208044													9.818252	-0.424542	0.228459	0.022368	-0.761672	-0.647577	-0.052672	-0.647737	0.760041	-0.998361	0.017108	-0.054608
109	3208211													9.826742	-0.438847	0.251407	0.022285	-0.761738	-0.647502	-0.052734	-0.647657	0.760105	-0.998360	0.017206	-0.054603
110	3208377													9.796587	-0.426298	0.222402	0.022207	-0.761697	-0.647552	-0.052835	-0.647701	0.760060	-0.998356	0.017335	-0.054628
111	3208544													9.794196	-0.421383	0.204592	0.022123	-0.761741	-0.647503	-0.052990	-0.647645	0.760097	-0.998350	0.017495	-0.054693
112	3208711													9.821481	-0.419850	0.233365	0.022051	-0.761793	-0.647446	-0.053065	-0.647582	0.760146	-0.998348	0.017595	-0.054704
113	3208877													9.849292	-0.462340	0.210824	0.021958	-0.761858	-0.647372	-0.053183	-0.647502	0.760206	-0.998343	0.017737	-0.054735
114	3209044													9.826199	-0.462776	0.198915	0.021892	-0.761769	-0.647479	-0.053383	-0.647601	0.760108	-0.998334	0.017924	-0.054843
115	3209211													9.850884	-0.371573	0.267945	0.022080	-0.761865	-0.647359	-0.053519	-0.647489	0.760193	-0.998323	0.017861	-0.055071
116	3209377													9.804434	-0.350608	0.276244	0.022205	-0.762135	-0.647037	-0.053425	-0.647176	0.760466	-0.998325	0.017682	-0.055088
117	3209544													9.864590	-0.479627	0.264622	0.022328	-0.762171	-0.646991	-0.053298	-0.647140	0.760506	-0.998329	0.017503	-0.055071
118	3209711													9.824454	-0.424434	0.306601	0.022477	-0.761961	-0.647232	-0.053307	-0.647388	0.760294	-0.998325	0.017413	-0.055169
119	3209877													9.819736	-0.381878	0.300641	0.022473	-0.761907	-0.647296	-0.053376	-0.647450	0.760236	-0.998322	0.017465	-0.055218
120	3210044													9.791306	-0.453106	0.281083	0.022471	-0.762149	-0.647011	-0.053415	-0.647165	0.760476	-0.998320	0.017472	-0.055252
121	3210211													9.798082	-0.504324	0.244037	0.022425	-0.762224	-0.646925	-0.053494	-0.647076	0.760547	-0.998316	0.017551	-0.055286
122	3210377													9.802190	-0.483210	0.233832	0.022445	-0.762085	-0.647088	-0.053613	-0.647237	0.760401	-0.998309	0.017625	-0.055385
123	3210544													9.787767	-0.446541	0.228696	0.022569	-0.762012	-0.647169	-0.053777	-0.647322	0.760317	-0.998298	0.017643	-0.055588
124	3210711													9.792492	-0.468937	0.244008	0.022720	-0.762068	-0.647098	-0.053944	-0.647256	0.760361	-0.998285	0.017632	-0.055815
125	3210877													9.822801	-0.464529	0.233657	0.022889	-0.762153	-0.646992	-0.054149	-0.647157	0.760431	-0.998271	0.017629	-0.056082
126	3211044													9.839438	-0.431607	0.284906	0.023042	-0.762138	-0.647005	-0.054318	-0.647175	0.760404	-0.998258	0.017623	-0.056310
127	3211211													9.839021	-0.444322	0.269585	0.023147	-0.762152	-0.646984	-0.054499	-0.647157	0.760406	-0.998245	0.017659	-0.056516
128	3211377													9.798219	-0.419091	0.312461	0.023175	-0.762197	-0.646930	-0.054736	-0.647101	0.760437	-0.998232	0.017787	-0.056716
129	3211544													9.889214	-0.432518	0.247851	0.023050	-0.762359	-0.646744	-0.054821	-0.646906	0.760596	-0.998230	0.017923	-0.056704
130	3211711													9.807930	-0.497011	0.200454	0.023067	-0.762389	-0.646708	-0.054846	-0.646871	0.760625	-0.998228	0.017924	-0.056736
131	3211877													9.760402	-0.460131	0.269574	0.023096	-0.762306	-0.646804	-0.054929	-0.646967	0.760537	-0.998223	0.017963	-0.056815
132	3212044													9.812891	-0.439212	0.238783	0.022958	-0.762413	-0.646683	-0.054990	-0.646838	0.760643	-0.998223	0.018098	-0.056775
133	3212211													9.805274	-0.466441	0.228977	0.022956	-0.762444	-0.646647	-0.054948	-0.646802	0.760676	-0.998225	0.018070	-0.056743
134	3212377													9.780326	-0.460573	0.257387	0.022932	-0.762543	-0.646531	-0.054893	-0.646686	0.760778	-0.998229	0.018044	-0.056688
135	3212544													9.791888	-0.472034	0.264167	0.022810	-0.762664	-0.646393	-0.054813	-0.646543	0.760906	-0.998236	0.018075	-0.056552
136	3212711													9.824588	-0.452330	0.275815	0.022709	-0.762728	-0.646321	-0.054718	-0.646467	0.760977	-0.998244	0.018084	-0.056416
137	3212877													9.806611	-0.450903	0.280575	0.022589	-0.762748	-0.646302	-0.054567	-0.646444	0.761008	-0.998255	0.018077	-0.056223
138	3213044													9.809848	-0.451031	0.281419	0.022473	-0.762734	-0.646321	-0.054431	-0.646459	0.761005	-0.998265	0.018078	-0.056045
139	3213211													9.822797	-0.439241	0.275718	0.022345	-0.762785	-0.646266	-0.054276	-0.646400	0.761066	-0.998276	0.018071	-0.055844
140	3213377													9.806275	-0.420687	0.260434	0.022234	-0.762630	-0.646453	-0.054110	-0.646583	0.760922	-0.998287	0.018061	-0.055642
141	3213544													9.807463	-0.438879	0.266564	0.022123	-0.762633	-0.646454	-0.053945	-0.646580	0.760936	-0.998299	0.018039	-0.055444
142	3213711													9.810692	-0.431630	0.228781	0.022036	-0.762589	-0.646508	-0.053774	-0.646633	0.760903	-0.998310	0.017999	-0.055257
143	3213877													9.811979	-0.440049	0.236033	0.021964	-0.762502	-0.646613	-0.053644	-0.646737	0.760825	-0.998319	0.017976	-0.055108
144	3214044													9.816452	-0.432408	0.238912	0.021870	-0.762498	-0.646620	-0.053526	-0.646740	0.760830	-0.998327	0.017971	-0.054958
145	3214211													9.830802	-0.440691	0.250752	0.021769	-0.762402	-0.646738	-0.053476	-0.646853	0.760738	-0.998332	0.018024	-0.054851
146	3214377													9.831204	-0.444569	0.239617	0.021702	-0.762364	-0.646784	-0.053447	-0.646896	0.760703	-0.998335	0.018060	-0.054785
147	3214544													9.827990	-0.431359	0.261600	0.021637	-0.762411	-0.646731	-0.053468	-0.646839	0.760750	-0.998335	0.018119	-0.054760
148	3214711													9.813271	-0.438014	0.267068	0.021568	-0.762438	-0.646702	-0.053528	-0.646805	0.760774	-0.998333	0.018209	-0.054762
149	3214877													9.820673	-0.445200	0.239561	0.021505	-0.762439	-0.646703	-0.053589	-0.646801	0.760774	-0.998331	0.018296	-0.054768
150	3215044													9.811757	-0.434116	0.247079	0.021428	-0.762390	-0.646763	-0.053697	-0.646855	0.760720	-0.998327	0.018429	-0.054799
151	3215211													9.798268	-0.434123	0.210452	0.021332	-0.762388	-0.646768	-0.053809	-0.646853	0.760714	-0.998323	0.018574	-0.054822
152	3215377													9.830641	-0.407180	0.225751	0.021275	-0.762470	-0.646674	-0.053864	-0.646755	0.760793	-0.998322	0.018646	-0.054829
153	3215544													9.849280	-0.458210	0.203456	0.021227	-0.762502	-0.646638	-0.053952	-0.646715	0.760821	-0.998318	0.018737	-0.054867
154	3215711													9.834978	-0.483297	0.183676	0.021141	-0.762473	-0.646674	-0.054127	-0.646743	0.760785	-0.998310	0.018919	-0.054943
155	3215877													9.832673	-0.379901	0.244556	0.021289	-0.762491	-0.646649	-0.054255	-0.646723	0.760793	-0.998300	0.018888	-0.055137
156	3216044													9.823688	-0.352442	0.294440	0.021400	-0.762709	-0.646387	-0.054190	-0.646470	0.761013	-0.998301	0.018742	-0.055166
157	3216211													9.853735	-0.450956	0.231162	0.021483	-0.762880	-0.646183	-0.054008	-0.646274	0.761192	-0.998309	0.018547	-0.055086
158	3216377													9.830730	-0.438980	0.280414	0.021692	-0.762637	-0.646463	-0.053960	-0.646566	0.760947	-0.998307	0.018376	-0.055177
159	3216544													9.820385	-0.376443	0.311082	0.021714	-0.762608	-0.646496	-0.054009	-0.646599	0.760916	-0.998304	0.018394	-0.055228
160	3216711													9.805005	-0.449919	0.275790	0.021672	-0.762792	-0.646281	-0.054000	-0.646382	0.761101	-0.998306	0.018405	-0.055199
161	3216877													9.786302	-0.498080	0.251611	0.021624	-0.762981	-0.646059	-0.054023	-0.646158	0.761289	-0.998306	0.018440	-0.055191
162	3217044													9.800599	-0.478880	0.224419	0.021600	-0.762943	-0.646105	-0.054113	-0.646201	0.761246	-0.998301	0.018520	-0.055243
163	3217211													9.787747	-0.456170	0.234369	0.021722	-0.762914	-0.646135	-0.054188	-0.646236	0.761212	-0.998294	0.018478	-0.055379
164	3217377													9.787442	-0.459708	0.228735	0.021884	-0.762964	-0.646071	-0.054297	-0.646179	0.761252	-0.998285	0.018421	-0.055568
165	3217544													9.809663	-0.474369	0.232666	0.022042	-0.763016	-0.646004	-0.054416	-0.646119	0.761294	-0.998275	0.018373	-0.055762
166	3217711													9.850080	-0.426709	0.287604	0.022222	-0.763040	-0.645969	-0.054532	-0.646092	0.761309	-0.998265	0.018308	-0.055967
167	3217877													9.833379	-0.441787	0.240167	0.022295	-0.763175	-0.645807	-0.054638	-0.645933	0.761437	-0.998257	0.018309	-0.056099
168	3218044													9.814519	-0.426091	0.300898	0.022346	-0.763235	-0.645735	-0.054832	-0.645860	0.761485	-0.998246	0.018391	-0.056282
169	3218211													9.881510	-0.439921	0.274823	0.022212	-0.763373	-0.645576	-0.054888	-0.645693	0.761622	-0.998245	0.018518	-0.056242
170	3218377													9.810634	-0.466391	0.218635	0.022185	-0.763460	-0.645474	-0.054876	-0.645590	0.761710	-0.998247	0.018522	-0.056218
171	3218544													9.774432	-0.460112	0.251784	0.022252	-0.763342	-0.645612	-0.054903	-0.645730	0.761589	-0.998244	0.018500	-0.056279
172	3218711													9.808287	-0.429501	0.225454	0.022125	-0.763393	-0.645555	-0.054902	-0.645666	0.761643	-0.998247	0.018591	-0.056198
173	3218877													9.807885	-0.454121	0.237292	0.022114	-0.763422	-0.645521	-0.054842	-0.645633	0.761676	-0.998250	0.018558	-0.056145
174	3219044													9.782829	-0.457054	0.267679	0.022152	-0.763431	-0.645510	-0.054730	-0.645626	0.761690	-0.998255	0.018456	-0.056085
175	3219211													9.798022	-0.463759	0.280174	0.022066	-0.763485	-0.645448	-0.054625	-0.645562	0.761752	-0.998263	0.018449	-0.055951
176	3219377													9.827879	-0.462997	0.284666	0.021980	-0.763513	-0.645418	-0.054476	-0.645530	0.761790	-0.998273	0.018415	-0.055782
177	3219544													9.820834	-0.456503	0.271717	0.021928	-0.763618	-0.645296	-0.054321	-0.645407	0.761904	-0.998283	0.018346	-0.055633
178	3219711													9.816839	-0.453488	0.266914	0.021833	-0.763684	-0.645221	-0.054130	-0.645331	0.761983	-0.998295	0.018289	-0.055428
179	3219877													9.817698	-0.450914	0.263656	0.021732	-0.763680	-0.645229	-0.053925	-0.645337	0.761992	-0.998308	0.018234	-0.055206
180	3220044													9.821333	-0.424238	0.243076	0.021620	-0.763657	-0.645260	-0.053735	-0.645366	0.761981	-0.998321	0.018199	-0.054988
181	3220211													9.817798	-0.429556	0.256503	0.021524	-0.763634	-0.645290	-0.053565	-0.645393	0.761970	-0.998332	0.018164	-0.054796
182	3220377													9.809333	-0.427775	0.247924	0.021407	-0.763675	-0.645246	-0.053402	-0.645346	0.762021	-0.998344	0.018145	-0.054596
183	3220544													9.812183	-0.419939	0.191023	0.021400	-0.763667	-0.645255	-0.053202	-0.645358	0.762025	-0.998354	0.018021	-0.054439
184	3220711													9.818656	-0.428551	0.224904	0.021392	-0.763595	-0.645341	-0.053062	-0.645446	0.761960	-0.998362	0.017943	-0.054325
185	3220877													9.822486	-0.426577	0.242950	0.021367	-0.763495	-0.645460	-0.052985	-0.645565	0.761865	-0.998367	0.017921	-0.054248
186	3221044													9.839341	-0.424825	0.241208	0.021421	-0.763588	-0.645349	-0.052914	-0.645458	0.761961	-0.998369	0.017826	-0.054231
187	3221211													9.813488	-0.428061	0.249823	0.021442	-0.763641	-0.645285	-0.052900	-0.645395	0.762015	-0.998370	0.017797	-0.054235
188	3221377													9.833020	-0.422339	0.238623	0.021470	-0.763764	-0.645138	-0.052918	-0.645251	0.762136	-0.998368	0.017777	-0.054271
189	3221544													9.814769	-0.417948	0.232693	0.021506	-0.763775	-0.645124	-0.052945	-0.645237	0.762145	-0.998366	0.017766	-0.054315
190	3221711													9.788700	-0.439042	0.222773	0.021546	-0.763711	-0.645199	-0.053013	-0.645313	0.762076	-0.998361	0.017784	-0.054391
191	3221877													9.787832	-0.426760	0.218295	0.021589	-0.763662	-0.645256	-0.053068	-0.645372	0.762023	-0.998357	0.017791	-0.054459
192	3222044													9.848467	-0.442069	0.212348	0.021625	-0.763671	-0.645243	-0.053082	-0.645361	0.762032	-0.998356	0.017772	-0.054493
193	3222211													9.836340	-0.495948	0.199416	0.021638	-0.763693	-0.645216	-0.053183	-0.645333	0.762048	-0.998350	0.017826	-0.054580
194	3222377													9.843730	-0.406528	0.238115	0.021826	-0.763626	-0.645290	-0.053338	-0.645414	0.761968	-0.998338	0.017788	-0.054817
195	3222544													9.805243	-0.343024	0.305707	0.022053	-0.763738	-0.645150	-0.053381	-0.645286	0.762074	-0.998331	0.017633	-0.055000
196	3222711													9.845413	-0.390804	0.241165	0.022140	-0.763997	-0.644840	-0.053220	-0.644984	0.762340	-0.998337	0.017440	-0.054940
197	3222877													9.859756	-0.474577	0.271211	0.022419	-0.763763	-0.645107	-0.053087	-0.645269	0.762109	-0.998338	0.017161	-0.055012
198	3223044													9.811478	-0.386782	0.319423	0.022571	-0.763523	-0.645386	-0.053121	-0.645555	0.761864	-0.998333	0.017088	-0.055130
199	3223211													9.831483	-0.399001	0.304099	0.022604	-0.763589	-0.645307	-0.053127	-0.645477	0.761929	-0.998332	0.017060	-0.055158
200	3223377													9.807345	-0.476233	0.249956	0.022614	-0.763706	-0.645168	-0.053116	-0.645340	0.762047	-0.998332	0.017036	-0.055159
201	3223544													9.791394	-0.493616	0.228796	0.022630	-0.763693	-0.645183	-0.053181	-0.645354	0.762030	-0.998328	0.017066	-0.055218
202	3223711													9.775753	-0.476755	0.227323	0.022750	-0.763582	-0.645310	-0.053244	-0.645486	0.761914	-0.998322	0.017025	-0.055341
203	3223877													9.788737	-0.452911	0.244226	0.022945	-0.763509	-0.645389	-0.053316	-0.645575	0.761834	-0.998314	0.016929	-0.055520
204	3224044													9.787864	-0.486031	0.246973	0.023152	-0.763496	-0.645398	-0.053402	-0.645594	0.761812	-0.998305	0.016828	-0.055719
205	3224211													9.821505	-0.442192	0.289496	0.023350	-0.763463	-0.645430	-0.053506	-0.645635	0.761770	-0.998294	0.016747	-0.055925
206	3224377													9.832808	-0.444640	0.298829	0.023432	-0.763477	-0.645410	-0.053604	-0.645618	0.761777	-0.998287	0.016746	-0.056054
207	3224544													9.836746	-0.462024	0.285453	0.023553	-0.763468	-0.645417	-0.053755	-0.645629	0.761757	-0.998276	0.016753	-0.056247
208	3224711													9.824703	-0.415682	0.286626	0.023451	-0.763588	-0.645277	-0.053901	-0.645482	0.761871	-0.998271	0.016915	-0.056296
209	3224878													9.865226	-0.435761	0.230841	0.023447	-0.763719	-0.645123	-0.053934	-0.645327	0.762000	-0.998269	0.016928	-0.056321
210	3225044													9.785403	-0.510289	0.187039	0.023597	-0.763723	-0.645113	-0.053961	-0.645325	0.762000	-0.998264	0.016830	-0.056439
211	3225211													9.778646	-0.458813	0.263504	0.023609	-0.763713	-0.645124	-0.054050	-0.645335	0.761985	-0.998259	0.016879	-0.056514
212	3225378													9.819421	-0.470843	0.248121	0.023561	-0.763809	-0.645013	-0.054041	-0.645221	0.762082	-0.998261	0.016902	-0.056479
213	3225544													9.787149	-0.499392	0.267225	0.023576	-0.763877	-0.644931	-0.053973	-0.645142	0.762154	-0.998264	0.016840	-0.056439
214	3225711													9.779444	-0.441872	0.332019	0.023505	-0.763908	-0.644897	-0.053908	-0.645105	0.762190	-0.998269	0.016850	-0.056344
215	3225878													9.806839	-0.460379	0.293739	0.023330	-0.763920	-0.644889	-0.053824	-0.645089	0.762210	-0.998278	0.016928	-0.056168
216	3226044													9.849326	-0.474205	0.261836	0.023299	-0.763886	-0.644931	-0.053667	-0.645131	0.762185	-0.998287	0.016854	-0.056027
217	3226211													9.822468	-0.443364	0.272092	0.023272	-0.763832	-0.644996	-0.053518	-0.645197	0.762139	-0.998296	0.016783	-0.055894
218	3226378													9.805095	-0.446232	0.254748	0.023209	-0.763855	-0.644971	-0.053316	-0.645172	0.762175	-0.998308	0.016698	-0.055700
219	3226544													9.803855	-0.447191	0.262686	0.023114	-0.763783	-0.645059	-0.053097	-0.645258	0.762117	-0.998322	0.016636	-0.055469
220	3226711													9.810772	-0.418961	0.228415	0.023034	-0.763738	-0.645115	-0.052835	-0.645314	0.762088	-0.998338	0.016531	-0.055216
221	3226878													9.807873	-0.425409	0.247688	0.022917	-0.763739	-0.645118	-0.052551	-0.645316	0.762106	-0.998355	0.016436	-0.054924
222	3227044													9.815901	-0.422601	0.244051	0.022774	-0.763718	-0.645148	-0.052257	-0.645343	0.762104	-0.998374	0.016357	-0.054607
223	3227211													9.818580	-0.428308	0.220742	0.022625	-0.763723	-0.645147	-0.051985	-0.645338	0.762126	-0.998392	0.016295	-0.054303
224	3227378													9.828047	-0.417655	0.248128	0.022520	-0.763725	-0.645149	-0.051744	-0.645338	0.762142	-0.998406	0.016220	-0.054051
225	3227544													9.825857	-0.437521	0.250874	0.022387	-0.763757	-0.645115	-0.051541	-0.645301	0.762188	-0.998420	0.016187	-0.053811
226	3227711													9.823913	-0.427289	0.275279	0.022310	-0.763814	-0.645051	-0.051388	-0.645235	0.762254	-0.998430	0.016142	-0.053646
227	3227878													9.823981	-0.427857	0.252934	0.022255	-0.763885	-0.644968	-0.051274	-0.645151	0.762333	-0.998437	0.016104	-0.053525
228	3228044													9.817164	-0.434098	0.267271	0.022211	-0.763929	-0.644917	-0.051209	-0.645099	0.762381	-0.998441	0.016093	-0.053448
229	3228211													9.805234	-0.435879	0.233845	0.022168	-0.763943	-0.644903	-0.051206	-0.645082	0.762395	-0.998442	0.016122	-0.053418
230	3228378													9.795084	-0.406415	0.214294	0.022141	-0.763936	-0.644912	-0.051216	-0.645090	0.762389	-0.998442	0.016150	-0.053408
231	3228544													9.830558	-0.394130	0.230801	0.022121	-0.763885	-0.644974	-0.051181	-0.645151	0.762339	-0.998444	0.016147	-0.053367
232	3228711													9.838428	-0.445398	0.211334	0.022034	-0.763885	-0.644977	-0.051276	-0.645148	0.762335	-0.998441	0.016274	-0.053384
233	3228878													9.834503	-0.411180	0.192498	0.022059	-0.763842	-0.645027	-0.051428	-0.645196	0.762284	-0.998433	0.016357	-0.053515
234	3229044													9.827767	-0.334084	0.267065	0.022239	-0.763865	-0.644993	-0.051541	-0.645170	0.762298	-0.998423	0.016291	-0.053718
235	3229211													9.819962	-0.332051	0.256879	0.022292	-0.764010	-0.644819	-0.051436	-0.645002	0.762448	-0.998427	0.016170	-0.053675
236	3229378													9.859457	-0.446129	0.223109	0.022478	-0.763940	-0.644895	-0.051318	-0.645090	0.762382	-0.998429	0.015958	-0.053704
237	3229544													9.808222	-0.375814	0.317024	0.022680	-0.763683	-0.645193	-0.051376	-0.645397	0.762118	-0.998422	0.015863	-0.053872
238	3229711													9.818723	-0.351731	0.298929	0.022656	-0.763647	-0.645237	-0.051436	-0.645438	0.762079	-0.998419	0.015923	-0.053902
239	3229878													9.802348	-0.442695	0.249187	0.022683	-0.763737	-0.645129	-0.051496	-0.645331	0.762165	-0.998416	0.015933	-0.053967
240	3230044													9.790605	-0.475452	0.223095	0.022688	-0.763763	-0.645098	-0.051612	-0.645299	0.762185	-0.998409	0.016002	-0.054060
241	3230211													9.798059	-0.435837	0.187986	0.022704	-0.763677	-0.645199	-0.051760	-0.645398	0.762091	-0.998401	0.016093	-0.054181
242	3230378													9.789144	-0.437254	0.220523	0.022825	-0.763623	-0.645258	-0.051923	-0.645461	0.762026	-0.998390	0.016110	-0.054383
243	3230544													9.788572	-0.456713	0.215782	0.022967	-0.763601	-0.645279	-0.052071	-0.645487	0.761994	-0.998379	0.016099	-0.054586
244	3230711													9.829727	-0.464286	0.246044	0.023172	-0.763616	-0.645255	-0.052231	-0.645471	0.761996	-0.998366	0.016046	-0.054841
245	3230878													9.842514	-0.427916	0.297767	0.023302	-0.763604	-0.645264	-0.052381	-0.645485	0.761974	-0.998355	0.016044	-0.055039
246	3231044													9.835608	-0.463436	0.286840	0.023357	-0.763659	-0.645198	-0.052539	-0.645420	0.762019	-0.998346	0.016099	-0.055197
247	3231211													9.812777	-0.425933	0.285235	0.023336	-0.763620	-0.645245	-0.052745	-0.645462	0.761969	-0.998335	0.016251	-0.055340
248	3231378													9.874421	-0.436780	0.208292	0.023278	-0.763756	-0.645086	-0.052838	-0.645299	0.762101	-0.998332	0.016345	-0.055377
249	3231544													9.806114	-0.488388	0.215041	0.023361	-0.763730	-0.645113	-0.052876	-0.645330	0.762072	-0.998328	0.016308	-0.055458
250	3231711													9.763237	-0.449005	0.274257	0.023402	-0.763647	-0.645210	-0.053016	-0.645426	0.761981	-0.998319	0.016374	-0.055590
251	3231878													9.817284	-0.447011	0.241269	0.023374	-0.763645	-0.645213	-0.053080	-0.645427	0.761975	-0.998317	0.016437	-0.055620
252	3232044													9.802309	-0.490616	0.231828	0.023466	-0.763659	-0.645193	-0.053091	-0.645412	0.761987	-0.998314	0.016373	-0.055688
253	3232211													9.785033	-0.460015	0.294007	0.023499	-0.763739	-0.645097	-0.053093	-0.645318	0.762067	-0.998313	0.016342	-0.055714
254	3232378													9.816013	-0.485306	0.287559	0.023489	-0.763766	-0.645065	-0.053063	-0.645286	0.762096	-0.998315	0.016328	-0.055685
255	3232544													9.840997	-0.482967	0.280228	0.023526	-0.763786	-0.645041	-0.053049	-0.645264	0.762115	-0.998315	0.016289	-0.055699
256	3232711													9.818288	-0.463283	0.298274	0.023535	-0.763799	-0.645025	-0.052945	-0.645250	0.762134	-0.998320	0.016214	-0.055626
257	3232878													9.825291	-0.478217	0.293016	0.023452	-0.763821	-0.645002	-0.052818	-0.645226	0.762164	-0.998329	0.016194	-0.055475
258	3233044													9.822725	-0.464760	0.231881	0.023429	-0.763869	-0.644946	-0.052685	-0.645170	0.762220	-0.998336	0.016121	-0.055360
259	3233211													9.820992	-0.451843	0.260641	0.023406	-0.763877	-0.644937	-0.052526	-0.645162	0.762238	-0.998345	0.016035	-0.055224
260	3233378													9.821095	-0.437459	0.244834	0.023393	-0.763857	-0.644962	-0.052376	-0.645189	0.762226	-0.998353	0.015950	-0.055101
261	3233544													9.800024	-0.460655	0.248285	0.023400	-0.763770	-0.645064	-0.052235	-0.645294	0.762147	-0.998361	0.015861	-0.054995
262	3233711													9.815760	-0.465604	0.248693	0.023422	-0.763774	-0.645059	-0.052090	-0.645292	0.762158	-0.998368	0.015750	-0.054899
263	3233878													9.831427	-0.457147	0.269664	0.023449	-0.763752	-0.645083	-0.051998	-0.645319	0.762142	-0.998372	0.015671	-0.054845
264	3234044													9.829477	-0.456735	0.237403	0.023476	-0.763794	-0.645033	-0.051924	-0.645271	0.762187	-0.998375	0.015599	-0.054808
265	3234211													9.822508	-0.444916	0.267093	0.023503	-0.763829	-0.644991	-0.051870	-0.645232	0.762224	-0.998377	0.015541	-0.054784
266	3234378													9.825308	-0.445249	0.259829	0.023521	-0.763874	-0.644936	-0.051810	-0.645179	0.762273	-0.998380	0.015485	-0.054751
267	3234544													9.827261	-0.475310	0.262297	0.023550	-0.763825	-0.644994	-0.051796	-0.645238	0.762223	-0.998380	0.015457	-0.054758
268	3234711													9.799417	-0.452669	0.247610	0.023572	-0.763794	-0.645030	-0.051817	-0.645276	0.762191	-0.998378	0.015457	-0.054789
269	3234878													9.789238	-0.438193	0.212273	0.023595	-0.763794	-0.645029	-0.051809	-0.645276	0.762191	-0.998378	0.015434	-0.054797
270	3235044													9.828097	-0.436405	0.221757	0.023622	-0.763759	-0.645069	-0.051803	-0.645317	0.762156	-0.998378	0.015413	-0.054808
271	3235211													9.837981	-0.493333	0.199921	0.023620	-0.763759	-0.645070	-0.051852	-0.645317	0.762153	-0.998375	0.015446	-0.054845
272	3235378													9.836246	-0.446240	0.201013	0.023708	-0.763692	-0.645145	-0.051923	-0.645396	0.762081	-0.998370	0.015431	-0.054954
273	3235544													9.839489	-0.369771	0.309144	0.024020	-0.763756	-0.645058	-0.051915	-0.645326	0.762141	-0.998363	0.015181	-0.055151
274	3235711													9.817572	-0.386494	0.274556	0.024169	-0.763955	-0.644817	-0.051719	-0.645097	0.762348	-0.998369	0.014924	-0.055103
275	3235878													9.865637	-0.475099	0.275608	0.024402	-0.763921	-0.644848	-0.051504	-0.645145	0.762323	-0.998375	0.014610	-0.055088
276	3236044													9.794762	-0.405974	0.368408	0.024573	-0.763682	-0.645124	-0.051482	-0.645430	0.762083	-0.998372	0.014486	-0.055176
277	3236211													9.828104	-0.362931	0.333367	0.024532	-0.763653	-0.645161	-0.051484	-0.645464	0.762054	-0.998372	0.014521	-0.055150
278	3236378													9.824642	-0.465636	0.277642	0.024474	-0.763723	-0.645080	-0.051437	-0.645381	0.762127	-0.998376	0.014528	-0.055079
279	3236711													9.792335	-0.468172	0.233113	0.024468	-0.763654	-0.645162	-0.051492	-0.645461	0.762056	-0.998374	0.014575	-0.055115
280	3236878													9.788589	-0.458090	0.232810	0.024575	-0.763535	-0.645299	-0.051554	-0.645603	0.761931	-0.998368	0.014543	-0.055229
281	3237044													9.795158	-0.469950	0.241120	0.024712	-0.763442	-0.645403	-0.051609	-0.645714	0.761834	-0.998362	0.014482	-0.055358
282	3237211													9.832564	-0.453596	0.277334	0.024883	-0.763388	-0.645461	-0.051683	-0.645780	0.761772	-0.998354	0.014404	-0.055523
283	3237378													9.847344	-0.426713	0.301256	0.025036	-0.763392	-0.645450	-0.051727	-0.645777	0.761772	-0.998347	0.014315	-0.055656
284	3237544													9.843160	-0.436093	0.284881	0.025123	-0.763496	-0.645324	-0.051787	-0.645655	0.761872	-0.998342	0.014279	-0.055760
285	3237711													9.802599	-0.426470	0.299099	0.025106	-0.763544	-0.645267	-0.051938	-0.645595	0.761911	-0.998335	0.014386	-0.055865
286	3237878													9.903019	-0.424687	0.262535	0.025018	-0.763733	-0.645048	-0.051962	-0.645371	0.762100	-0.998336	0.014452	-0.055831
287	3238044													9.803472	-0.483367	0.221457	0.025075	-0.763786	-0.644982	-0.051938	-0.645309	0.762154	-0.998335	0.014388	-0.055850
288	3238211													9.756050	-0.456968	0.265486	0.025037	-0.763674	-0.645117	-0.052007	-0.645440	0.762038	-0.998333	0.014471	-0.055876
289	3238378													9.833040	-0.447784	0.218056	0.024934	-0.763741	-0.645041	-0.052022	-0.645359	0.762106	-0.998335	0.014554	-0.055823
290	3238544													9.806933	-0.455645	0.254994	0.024956	-0.763811	-0.644957	-0.051995	-0.645277	0.762178	-0.998336	0.014514	-0.055817
291	3238711													9.792156	-0.452998	0.298266	0.024954	-0.763869	-0.644888	-0.051918	-0.645209	0.762240	-0.998340	0.014460	-0.055759
292	3238878													9.825554	-0.466799	0.298546	0.024892	-0.763923	-0.644827	-0.051877	-0.645145	0.762297	-0.998343	0.014477	-0.055689
293	3239044													9.823094	-0.472613	0.291747	0.024825	-0.763924	-0.644828	-0.051793	-0.645143	0.762304	-0.998349	0.014474	-0.055581
294	3239211													9.813115	-0.454565	0.296668	0.024768	-0.763922	-0.644834	-0.051699	-0.645147	0.762307	-0.998356	0.014456	-0.055473
295	3239378													9.824568	-0.472961	0.290266	0.024664	-0.763938	-0.644818	-0.051602	-0.645128	0.762330	-0.998363	0.014472	-0.055332
296	3239544													9.834552	-0.448807	0.265437	0.024565	-0.763916	-0.644848	-0.051514	-0.645153	0.762315	-0.998370	0.014493	-0.055200
297	3239711													9.812104	-0.436991	0.253936	0.024531	-0.763861	-0.644915	-0.051414	-0.645219	0.762265	-0.998376	0.014458	-0.055101
298	3239878													9.807652	-0.443428	0.243822	0.024474	-0.763856	-0.644923	-0.051315	-0.645226	0.762267	-0.998383	0.014438	-0.054989
299	3240044													9.822265	-0.440310	0.229607	0.024456	-0.763763	-0.645033	-0.051202	-0.645336	0.762181	-0.998389	0.014388	-0.054889
300	3240211													9.829560	-0.438583	0.242564	0.024439	-0.763754	-0.645045	-0.051100	-0.645348	0.762178	-0.998394	0.014335	-0.054800
301	3240378													9.827926	-0.444236	0.216722	0.024431	-0.763669	-0.645146	-0.050996	-0.645451	0.762098	-0.998400	0.014281	-0.054713
302	3240544													9.834727	-0.444254	0.268427	0.024422	-0.763579	-0.645253	-0.050952	-0.645557	0.762011	-0.998402	0.014267	-0.054672
303	3240711													9.830286	-0.449361	0.267972	0.024439	-0.763557	-0.645278	-0.050945	-0.645583	0.761989	-0.998402	0.014251	-0.054677
304	3240878													9.826599	-0.463190	0.242964	0.024420	-0.763632	-0.645189	-0.050926	-0.645494	0.762065	-0.998404	0.014248	-0.054652
305	3241044													9.813831	-0.449354	0.234052	0.024444	-0.763601	-0.645225	-0.050921	-0.645531	0.762034	-0.998403	0.014228	-0.054663
306	3241211													9.794695	-0.464961	0.238769	0.024484	-0.763581	-0.645248	-0.050974	-0.645555	0.762010	-0.998400	0.014234	-0.054729
307	3241378													9.791970	-0.469830	0.224477	0.024489	-0.763554	-0.645280	-0.051056	-0.645587	0.761979	-0.998395	0.014286	-0.054794
308	3241545													9.809435	-0.429538	0.227555	0.024534	-0.763543	-0.645291	-0.051117	-0.645599	0.761964	-0.998391	0.014292	-0.054869
309	3241711													9.846550	-0.450171	0.217358	0.024564	-0.763501	-0.645339	-0.051163	-0.645648	0.761919	-0.998388	0.014301	-0.054923
310	3241878													9.824852	-0.499315	0.209472	0.024618	-0.763434	-0.645416	-0.051316	-0.645726	0.761843	-0.998379	0.014365	-0.055073
311	3242045													9.847284	-0.412092	0.230394	0.024850	-0.763385	-0.645465	-0.051424	-0.645786	0.761785	-0.998368	0.014262	-0.055304
312	3242211													9.817278	-0.371382	0.307046	0.025079	-0.763554	-0.645256	-0.051381	-0.645591	0.761953	-0.998364	0.014046	-0.055423
313	3242378													9.863505	-0.429585	0.263105	0.025225	-0.763688	-0.645092	-0.051185	-0.645438	0.762096	-0.998371	0.013795	-0.055371
314	3242545													9.833929	-0.472518	0.304952	0.025575	-0.763448	-0.645363	-0.051086	-0.645729	0.761856	-0.998367	0.013485	-0.055516
315	3242711													9.798017	-0.410858	0.349466	0.025651	-0.763237	-0.645609	-0.051133	-0.645978	0.761641	-0.998362	0.013475	-0.055597
316	3242878													9.825766	-0.411972	0.312088	0.025693	-0.763367	-0.645454	-0.051121	-0.645825	0.761772	-0.998362	0.013424	-0.055617
317	3243045													9.792074	-0.513922	0.229035	0.025721	-0.763475	-0.645325	-0.051105	-0.645699	0.761880	-0.998362	0.013383	-0.055626
318	3243211													9.783377	-0.501869	0.268161	0.025787	-0.763400	-0.645411	-0.051127	-0.645788	0.761803	-0.998359	0.013353	-0.055683
319	3243378													9.785698	-0.479602	0.232456	0.025902	-0.763242	-0.645593	-0.051177	-0.645976	0.761641	-0.998354	0.013312	-0.055792
320	3243545													9.787134	-0.484586	0.238796	0.026088	-0.763194	-0.645642	-0.051243	-0.646034	0.761587	-0.998345	0.013216	-0.055962
321	3243711													9.809937	-0.478661	0.261707	0.026293	-0.763181	-0.645650	-0.051321	-0.646052	0.761566	-0.998336	0.013111	-0.056154
322	3243878													9.833630	-0.471244	0.281326	0.026518	-0.763209	-0.645607	-0.051395	-0.646021	0.761587	-0.998326	0.012985	-0.056356
323	3244045													9.839778	-0.459757	0.300523	0.026594	-0.763187	-0.645630	-0.051461	-0.646048	0.761560	-0.998321	0.012972	-0.056455
324	3244211													9.828411	-0.468201	0.300758	0.026660	-0.763183	-0.645632	-0.051571	-0.646051	0.761550	-0.998313	0.012993	-0.056582
325	3244378													9.836688	-0.447442	0.295300	0.026509	-0.763357	-0.645433	-0.051641	-0.645844	0.761721	-0.998314	0.013139	-0.056541
326	3244545													9.846704	-0.448374	0.244384	0.026424	-0.763524	-0.645239	-0.051583	-0.645646	0.761893	-0.998319	0.013152	-0.056445
327	3244711													9.774240	-0.491153	0.260051	0.026488	-0.763452	-0.645322	-0.051499	-0.645733	0.761825	-0.998322	0.013054	-0.056421
328	3244878													9.779196	-0.455157	0.271608	0.026316	-0.763345	-0.645455	-0.051507	-0.645856	0.761720	-0.998326	0.013201	-0.056314
329	3245045													9.816886	-0.449772	0.233955	0.026211	-0.763388	-0.645409	-0.051462	-0.645805	0.761766	-0.998331	0.013247	-0.056213
330	3245211													9.789706	-0.479226	0.267908	0.026183	-0.763434	-0.645355	-0.051338	-0.645752	0.761820	-0.998338	0.013184	-0.056101
331	3245378													9.793973	-0.464016	0.299851	0.026043	-0.763468	-0.645320	-0.051233	-0.645710	0.761862	-0.998347	0.013221	-0.055931
332	3245545													9.809358	-0.484129	0.293270	0.025900	-0.763454	-0.645342	-0.051077	-0.645726	0.761859	-0.998359	0.013230	-0.055719
333	3245711													9.829671	-0.456249	0.320385	0.025743	-0.763429	-0.645378	-0.050904	-0.645756	0.761846	-0.998372	0.013240	-0.055485
334	3245878													9.808833	-0.458084	0.287091	0.025540	-0.763433	-0.645382	-0.050717	-0.645750	0.761862	-0.998386	0.013273	-0.055211
335	3246045													9.816789	-0.446822	0.274890	0.025355	-0.763424	-0.645400	-0.050494	-0.645762	0.761867	-0.998402	0.013271	-0.054921
336	3246211													9.826948	-0.440741	0.273245	0.025168	-0.763393	-0.645443	-0.050268	-0.645798	0.761852	-0.998419	0.013271	-0.054627
337	3246378													9.814575	-0.439717	0.238898	0.024984	-0.763414	-0.645426	-0.050082	-0.645772	0.761886	-0.998433	0.013289	-0.054367
338	3246545													9.804597	-0.439038	0.232301	0.024826	-0.763385	-0.645466	-0.049857	-0.645807	0.761871	-0.998448	0.013266	-0.054093
339	3246711													9.808965	-0.443467	0.237822	0.024689	-0.763343	-0.645522	-0.049638	-0.645858	0.761842	-0.998462	0.013233	-0.053836
340	3246878													9.814821	-0.435982	0.237148	0.024571	-0.763307	-0.645569	-0.049458	-0.645901	0.761818	-0.998474	0.013210	-0.053622
341	3247045													9.827271	-0.428388	0.215740	0.024439	-0.763293	-0.645590	-0.049329	-0.645917	0.761812	-0.998484	0.013229	-0.053438
342	3247211													9.843899	-0.460588	0.238548	0.024338	-0.763241	-0.645656	-0.049249	-0.645978	0.761766	-0.998490	0.013258	-0.053310
343	3247378													9.823416	-0.437356	0.250728	0.024271	-0.763206	-0.645699	-0.049229	-0.646018	0.761733	-0.998493	0.013299	-0.053251
344	3247545													9.839873	-0.467296	0.243050	0.024169	-0.763228	-0.645677	-0.049248	-0.645990	0.761756	-0.998494	0.013387	-0.053201
345	3247711													9.828426	-0.442899	0.248074	0.024108	-0.763254	-0.645648	-0.049270	-0.645958	0.761781	-0.998495	0.013446	-0.053178
346	3247878													9.810152	-0.446939	0.224148	0.024078	-0.763208	-0.645704	-0.049304	-0.646011	0.761734	-0.998494	0.013494	-0.053184
347	3248045													9.797219	-0.433844	0.227161	0.023959	-0.763118	-0.645815	-0.049379	-0.646116	0.761641	-0.998493	0.013642	-0.053163
348	3248211													9.803788	-0.419071	0.202453	0.023870	-0.763080	-0.645863	-0.049447	-0.646157	0.761601	-0.998491	0.013756	-0.053156
349	3248378													9.835200	-0.443303	0.198679	0.023798	-0.762960	-0.646007	-0.049484	-0.646297	0.761480	-0.998491	0.013845	-0.053135
350	3248545													9.831255	-0.487899	0.214963	0.023748	-0.762813	-0.646183	-0.049642	-0.646467	0.761325	-0.998485	0.013997	-0.053220
351	3248711													9.820422	-0.418596	0.224092	0.023797	-0.762619	-0.646410	-0.049795	-0.646695	0.761122	-0.998476	0.014076	-0.053363
352	3248878													9.836211	-0.362363	0.282610	0.023933	-0.762676	-0.646338	-0.049848	-0.646629	0.761174	-0.998470	0.014002	-0.053494
353	3249045													9.833172	-0.403282	0.237231	0.023947	-0.762863	-0.646117	-0.049669	-0.646412	0.761370	-0.998479	0.013859	-0.053370
354	3249211													9.839181	-0.478243	0.231449	0.024168	-0.762690	-0.646312	-0.049538	-0.646621	0.761201	-0.998480	0.013620	-0.053409
355	3249378													9.819004	-0.395694	0.325620	0.024152	-0.762464	-0.646580	-0.049596	-0.646886	0.760972	-0.998477	0.013689	-0.053439
356	3249545													9.840214	-0.393873	0.306803	0.024066	-0.762577	-0.646449	-0.049624	-0.646751	0.761086	-0.998478	0.013763	-0.053406
357	3249711													9.801951	-0.498713	0.247463	0.023973	-0.762672	-0.646341	-0.049650	-0.646638	0.761180	-0.998479	0.013843	-0.053369
358	3249878													9.777037	-0.498591	0.202095	0.023845	-0.762635	-0.646390	-0.049695	-0.646679	0.761142	-0.998480	0.013972	-0.053319
359	3250045													9.777408	-0.486748	0.206335	0.023802	-0.762502	-0.646548	-0.049794	-0.646833	0.761005	-0.998476	0.014080	-0.053364
360	3250211													9.789388	-0.467130	0.211279	0.023835	-0.762389	-0.646679	-0.049882	-0.646964	0.760887	-0.998471	0.014122	-0.053450
361	3250378													9.788716	-0.494019	0.200040	0.023868	-0.762278	-0.646809	-0.049998	-0.647094	0.760769	-0.998464	0.014181	-0.053557
362	3250545													9.838346	-0.467384	0.232616	0.023903	-0.762232	-0.646862	-0.050130	-0.647147	0.760715	-0.998457	0.014244	-0.053680
363	3250711													9.845440	-0.458828	0.261471	0.023853	-0.762228	-0.646868	-0.050238	-0.647149	0.760706	-0.998452	0.014353	-0.053729
364	3250878													9.851232	-0.477375	0.270109	0.023808	-0.762223	-0.646876	-0.050402	-0.647152	0.760693	-0.998445	0.014493	-0.053825
365	3251045													9.810154	-0.437685	0.271364	0.023565	-0.762284	-0.646814	-0.050576	-0.647074	0.760748	-0.998442	0.014786	-0.053801
366	3251211													9.885449	-0.436685	0.185437	0.023343	-0.762411	-0.646672	-0.050575	-0.646921	0.760878	-0.998447	0.014945	-0.053660
367	3251378													9.794352	-0.503569	0.195447	0.023297	-0.762371	-0.646720	-0.050568	-0.646966	0.760840	-0.998449	0.014977	-0.053624
368	3251545													9.763246	-0.445505	0.261395	0.023062	-0.762189	-0.646944	-0.050630	-0.647176	0.760658	-0.998451	0.015212	-0.053514
369	3251711													9.847954	-0.444823	0.207395	0.022854	-0.762159	-0.646986	-0.050602	-0.647207	0.760633	-0.998457	0.015355	-0.053358
370	3251878													9.803429	-0.468444	0.208228	0.022756	-0.762155	-0.646995	-0.050504	-0.647213	0.760635	-0.998465	0.015367	-0.053220
371	3252045													9.793216	-0.465205	0.265333	0.022562	-0.762198	-0.646951	-0.050389	-0.647160	0.760687	-0.998475	0.015437	-0.053008
372	3252211													9.819114	-0.484431	0.249865	0.022355	-0.762206	-0.646949	-0.050292	-0.647149	0.760703	-0.998484	0.015531	-0.052800
373	3252378													9.823553	-0.479018	0.266290	0.022159	-0.762192	-0.646972	-0.050168	-0.647163	0.760699	-0.998495	0.015601	-0.052578
374	3252545													9.823180	-0.470025	0.250831	0.021966	-0.762170	-0.647004	-0.050013	-0.647188	0.760688	-0.998507	0.015649	-0.052334
375	3252711													9.822651	-0.475692	0.229386	0.021773	-0.762177	-0.647003	-0.049838	-0.647179	0.760707	-0.998520	0.015682	-0.052076
376	3252878													9.833690	-0.442908	0.196051	0.021582	-0.762111	-0.647087	-0.049642	-0.647256	0.760655	-0.998534	0.015706	-0.051801
377	3253045													9.825945	-0.438758	0.219094	0.021402	-0.762019	-0.647201	-0.049429	-0.647364	0.760576	-0.998548	0.015712	-0.051521
378	3253211													9.807280	-0.446629	0.184482	0.021234	-0.761896	-0.647351	-0.049212	-0.647509	0.760467	-0.998563	0.015710	-0.051243
379	3253378													9.821321	-0.441935	0.202081	0.021079	-0.761762	-0.647514	-0.049018	-0.647666	0.760346	-0.998575	0.015713	-0.050992
380	3253545													9.818730	-0.444255	0.180619	0.020931	-0.761660	-0.647639	-0.048823	-0.647787	0.760256	-0.998588	0.015707	-0.050746
381	3253711													9.817492	-0.438053	0.207152	0.020793	-0.761515	-0.647813	-0.048651	-0.647957	0.760122	-0.998599	0.015711	-0.050521
382	3253878													9.819262	-0.441110	0.201595	0.020571	-0.761405	-0.647950	-0.048559	-0.648084	0.760019	-0.998608	0.015830	-0.050305
383	3254045													9.831094	-0.431253	0.197155	0.020356	-0.761352	-0.648019	-0.048483	-0.648142	0.759975	-0.998617	0.015948	-0.050106
384	3254211													9.818720	-0.450658	0.238459	0.020150	-0.761398	-0.647971	-0.048451	-0.648085	0.760025	-0.998622	0.016081	-0.049949
385	3254378													9.819758	-0.452289	0.198021	0.019939	-0.761456	-0.647910	-0.048471	-0.648013	0.760085	-0.998626	0.016249	-0.049830
386	3254545													9.822980	-0.444006	0.183160	0.019747	-0.761514	-0.647848	-0.048521	-0.647940	0.760144	-0.998627	0.016424	-0.049744
387	3254711													9.807201	-0.455032	0.201317	0.019556	-0.761521	-0.647845	-0.048601	-0.647927	0.760150	-0.998627	0.016620	-0.049681
388	3254878													9.801500	-0.424047	0.195589	0.019338	-0.761417	-0.647974	-0.048707	-0.648043	0.760044	-0.998626	0.016863	-0.049618
389	3255045													9.811199	-0.409904	0.166957	0.019047	-0.761425	-0.647973	-0.048756	-0.648027	0.760055	-0.998629	0.017116	-0.049467
390	3255211													9.846082	-0.467913	0.144434	0.018763	-0.761367	-0.648050	-0.048812	-0.648089	0.759999	-0.998632	0.017373	-0.049324
391	3255378													9.799170	-0.470651	0.131111	0.018490	-0.761234	-0.648213	-0.048965	-0.648236	0.759864	-0.998629	0.017690	-0.049259
392	3255545													9.837763	-0.393111	0.164177	0.018345	-0.761188	-0.648271	-0.049075	-0.648284	0.759815	-0.998627	0.017875	-0.049248
393	3255711													9.857141	-0.375675	0.178259	0.018197	-0.761363	-0.648071	-0.049003	-0.648078	0.759996	-0.998633	0.017928	-0.049102
394	3255878													9.889887	-0.452151	0.196691	0.018158	-0.761447	-0.647973	-0.048813	-0.647982	0.760090	-0.998643	0.017828	-0.048935
395	3256045													9.784369	-0.465092	0.265363	0.018143	-0.761286	-0.648163	-0.048805	-0.648171	0.759929	-0.998644	0.017846	-0.048914
396	3256211													9.825410	-0.421949	0.270522	0.017823	-0.761214	-0.648256	-0.048866	-0.648247	0.759860	-0.998646	0.018135	-0.048751
397	3256378													9.821483	-0.464207	0.231991	0.017577	-0.761215	-0.648262	-0.048825	-0.648242	0.759868	-0.998653	0.018295	-0.048561
398	3256545													9.781657	-0.499452	0.217192	0.017280	-0.761167	-0.648325	-0.048865	-0.648290	0.759824	-0.998656	0.018551	-0.048398
399	3256711													9.791363	-0.477600	0.160587	0.016994	-0.761080	-0.648435	-0.048968	-0.648384	0.759737	-0.998656	0.018841	-0.048288
400	3256878													9.807824	-0.481163	0.123152	0.016906	-0.761007	-0.648523	-0.049100	-0.648465	0.759659	-0.998651	0.019000	-0.048329
401	3257045													9.775132	-0.482083	0.142724	0.016907	-0.760952	-0.648588	-0.049267	-0.648527	0.759596	-0.998643	0.019112	-0.048454
402	3257211													9.819240	-0.474377	0.135653	0.016874	-0.760921	-0.648625	-0.049449	-0.648559	0.759556	-0.998634	0.019257	-0.048570
403	3257378													9.852568	-0.475371	0.175451	0.016888	-0.760867	-0.648688	-0.049631	-0.648619	0.759494	-0.998625	0.019369	-0.048716
404	3257545													9.853817	-0.454784	0.135374	0.016778	-0.760865	-0.648694	-0.049799	-0.648616	0.759485	-0.998618	0.019562	-0.048773
405	3257711													9.810328	-0.449146	0.166506	0.016757	-0.760818	-0.648748	-0.050003	-0.648665	0.759429	-0.998608	0.019713	-0.048913
406	3257878													9.856673	-0.431407	0.140739	0.016476	-0.760930	-0.648624	-0.050097	-0.648526	0.759542	-0.998608	0.019980	-0.048806
407	3258045													9.839833	-0.476311	0.097655	0.016314	-0.761021	-0.648522	-0.050060	-0.648416	0.759638	-0.998613	0.020072	-0.048675
408	3258212													9.768601	-0.477094	0.147876	0.016230	-0.760892	-0.648676	-0.050035	-0.648566	0.759512	-0.998616	0.020130	-0.048597
409	3258378													9.819476	-0.456135	0.141339	0.015828	-0.760884	-0.648695	-0.050010	-0.648567	0.759513	-0.998623	0.020420	-0.048317
410	3258545													9.808026	-0.498619	0.106731	0.015545	-0.760911	-0.648670	-0.049923	-0.648530	0.759551	-0.998632	0.020576	-0.048069
411	3258712													9.795444	-0.472452	0.148560	0.015304	-0.760900	-0.648689	-0.049792	-0.648540	0.759550	-0.998642	0.020675	-0.047811
412	3258878													9.778720	-0.465804	0.135158	0.014945	-0.760955	-0.648632	-0.049671	-0.648469	0.759619	-0.998654	0.020866	-0.047489
413	3259045													9.813635	-0.474350	0.117913	0.014610	-0.760998	-0.648590	-0.049532	-0.648414	0.759675	-0.998666	0.021027	-0.047167
414	3259212													9.819329	-0.479194	0.149742	0.014305	-0.761026	-0.648564	-0.049391	-0.648377	0.759716	-0.998677	0.021166	-0.046862
415	3259378													9.820773	-0.451972	0.123855	0.014015	-0.761043	-0.648550	-0.049231	-0.648353	0.759747	-0.998689	0.021281	-0.046554
416	3259545													9.815932	-0.450212	0.133548	0.013767	-0.761062	-0.648533	-0.049026	-0.648329	0.759781	-0.998703	0.021335	-0.046237
417	3259712													9.841883	-0.444552	0.114298	0.013473	-0.760993	-0.648620	-0.048810	-0.648406	0.759728	-0.998717	0.021423	-0.045880
418	3259878													9.829402	-0.435609	0.111218	0.013219	-0.760892	-0.648744	-0.048568	-0.648524	0.759644	-0.998732	0.021466	-0.045528
419	3260045													9.835376	-0.430692	0.121915	0.013048	-0.760797	-0.648858	-0.048350	-0.648634	0.759563	-0.998745	0.021462	-0.045248
420	3260212													9.834527	-0.428221	0.122323	0.012865	-0.760746	-0.648922	-0.048121	-0.648695	0.759526	-0.998759	0.021455	-0.044953
421	3260378													9.827775	-0.434402	0.133718	0.012733	-0.760707	-0.648970	-0.048000	-0.648740	0.759495	-0.998766	0.021480	-0.044774
422	3260545													9.835303	-0.429814	0.121702	0.012655	-0.760662	-0.649025	-0.047904	-0.648793	0.759455	-0.998772	0.021480	-0.044649
423	3260712													9.844723	-0.449379	0.116180	0.012667	-0.760676	-0.649008	-0.047862	-0.648777	0.759472	-0.998774	0.021443	-0.044626
424	3260878													9.860641	-0.431827	0.111739	0.012812	-0.760757	-0.648910	-0.047851	-0.648686	0.759550	-0.998772	0.021320	-0.044714
425	3261045													9.831826	-0.446920	0.096188	0.013075	-0.760872	-0.648770	-0.047837	-0.648559	0.759660	-0.998770	0.021103	-0.044878
426	3261212													9.870186	-0.435908	0.070940	0.013500	-0.760933	-0.648690	-0.047831	-0.648498	0.759712	-0.998764	0.020771	-0.045151
427	3261378													9.836715	-0.425169	0.094539	0.013996	-0.760953	-0.648656	-0.047873	-0.648486	0.759720	-0.998755	0.020420	-0.045505
428	3261545													9.826400	-0.433728	0.056373	0.014464	-0.760931	-0.648671	-0.048000	-0.648520	0.759683	-0.998743	0.020148	-0.045905
429	3261712													9.811198	-0.420914	0.044429	0.015021	-0.760824	-0.648785	-0.048115	-0.648656	0.759559	-0.998729	0.019807	-0.046351
430	3261878													9.841538	-0.426447	0.036875	0.015587	-0.760826	-0.648769	-0.048195	-0.648666	0.759546	-0.998716	0.019428	-0.046778
431	3262045													9.844810	-0.494575	0.053795	0.016299	-0.760769	-0.648818	-0.048385	-0.648744	0.759467	-0.998696	0.019014	-0.047384
432	3262212													9.835763	-0.359678	0.072912	0.017149	-0.760575	-0.649023	-0.048481	-0.648988	0.759253	-0.998677	0.018445	-0.048002
433	3262378													9.845347	-0.344469	0.156264	0.017914	-0.760651	-0.648913	-0.048454	-0.648915	0.759316	-0.998665	0.017840	-0.048481
434	3262545													9.917878	-0.410359	0.194212	0.018875	-0.760613	-0.648932	-0.048248	-0.648984	0.759271	-0.998657	0.016979	-0.048948
435	3262712													9.824958	-0.488193	0.240116	0.019926	-0.760399	-0.649150	-0.048163	-0.649255	0.759044	-0.998641	0.016140	-0.049560
436	3262878													9.820139	-0.430658	0.278665	0.020836	-0.760196	-0.649360	-0.048227	-0.649509	0.758823	-0.998619	0.015506	-0.050195
437	3263045													9.863532	-0.435708	0.242090	0.021787	-0.760137	-0.649397	-0.048196	-0.649595	0.758751	-0.998600	0.014767	-0.050788
438	3263212													9.792549	-0.499487	0.242643	0.022887	-0.759985	-0.649538	-0.048203	-0.649791	0.758583	-0.998575	0.013948	-0.051506
439	3263378													9.808394	-0.478679	0.239885	0.024097	-0.759795	-0.649716	-0.048208	-0.650032	0.758377	-0.998547	0.013047	-0.052292
440	3263545													9.825300	-0.463717	0.244563	0.025687	-0.759688	-0.649780	-0.048207	-0.650180	0.758250	-0.998507	0.011847	-0.053323
441	3263712													9.797206	-0.456127	0.312070	0.027572	-0.759622	-0.649780	-0.048213	-0.650282	0.758162	-0.998456	0.010424	-0.054554
442	3263878													9.810440	-0.470580	0.330828	0.029619	-0.759737	-0.649555	-0.048236	-0.650170	0.758256	-0.998397	0.008873	-0.055905
443	3264045													9.865828	-0.451796	0.361014	0.031807	-0.759870	-0.649296	-0.048262	-0.650035	0.758370	-0.998328	0.007215	-0.057349
444	3264212													9.919460	-0.438971	0.464322	0.034281	-0.759883	-0.649156	-0.048270	-0.650038	0.758367	-0.998246	0.005337	-0.058964
445	3264378													9.894421	-0.446502	0.603691	0.037080	-0.759834	-0.649059	-0.048363	-0.650109	0.758301	-0.998141	0.003273	-0.060853
446	3264545													9.848047	-0.450518	0.548381	0.039934	-0.760132	-0.648541	-0.048493	-0.649768	0.758584	-0.998025	0.001156	-0.062809
447	3264712													9.979306	-0.444357	0.388241	0.043462	-0.760306	-0.648109	-0.048511	-0.649563	0.758758	-0.997877	-0.001537	-0.065114
448	3264878													9.868890	-0.476839	0.372122	0.047939	-0.760463	-0.647610	-0.048594	-0.649363	0.758924	-0.997667	-0.004912	-0.068084
449	3265045													9.596833	-0.452982	0.444408	0.051715	-0.760946	-0.646751	-0.048640	-0.648768	0.759430	-0.997477	-0.007816	-0.070563
450	3265212													9.738564	-0.497157	0.298649	0.054875	-0.761736	-0.645559	-0.048447	-0.647803	0.760266	-0.997317	-0.010444	-0.072452
451	3265378													10.068831	-0.601399	0.103527	0.059519	-0.761717	-0.645170	-0.047977	-0.647752	0.760339	-0.997074	-0.014301	-0.075098
452	3265545													9.852790	-0.462874	0.304249	0.065146	-0.760948	-0.645534	-0.047458	-0.648539	0.759700	-0.996747	-0.018856	-0.078363
453	3265712													9.873324	-0.447248	0.364748	0.070540	-0.760587	-0.645392	-0.047124	-0.648822	0.759479	-0.996395	-0.023160	-0.081610
454	3265878													9.950979	-0.488111	0.394120	0.076075	-0.760359	-0.645032	-0.046719	-0.648915	0.759425	-0.996007	-0.027638	-0.084889
455	3266045													9.916570	-0.455781	0.502892	0.081820	-0.760029	-0.644718	-0.046385	-0.649090	0.759296	-0.995567	-0.032220	-0.088363
456	3266378													9.833564	-0.477166	0.747987	0.091852	-0.759718	-0.643733	-0.046219	-0.649022	0.759365	-0.994699	-0.039996	-0.094728
457	3266545													9.780843	-0.397447	0.803583	0.096217	-0.759541	-0.643304	-0.046286	-0.649017	0.759364	-0.994284	-0.043287	-0.097603
458	3266712													9.707567	-0.356935	0.895490	0.100687	-0.759557	-0.642601	-0.046220	-0.648757	0.759591	-0.993844	-0.046780	-0.100428
459	3266878													9.711929	-0.394062	0.971482	0.104756	-0.759713	-0.641765	-0.046151	-0.648334	0.759956	-0.993427	-0.049992	-0.102978
460	3267045													9.741497	-0.360305	1.010060	0.108997	-0.759770	-0.640991	-0.046083	-0.648002	0.760243	-0.992973	-0.053326	-0.105642
461	3267212													9.743821	-0.359613	1.050483	0.113396	-0.759889	-0.640086	-0.045960	-0.647563	0.760624	-0.992486	-0.056833	-0.108356
462	3267378													9.756581	-0.355965	1.138264	0.117828	-0.760021	-0.639128	-0.045845	-0.647089	0.761035	-0.991975	-0.060371	-0.111089
463	3267545													9.863991	-0.337751	1.175175	0.122598	-0.760287	-0.637913	-0.045669	-0.646403	0.761628	-0.991405	-0.064241	-0.113969
464	3267712													9.924659	-0.372797	1.218274	0.128356	-0.760481	-0.636548	-0.045415	-0.645692	0.762247	-0.990688	-0.068931	-0.117415
465	3267878													9.862474	-0.382940	1.323866	0.134949	-0.760534	-0.635120	-0.045098	-0.645033	0.762822	-0.989826	-0.074300	-0.121345
466	3268045													9.822552	-0.421100	1.390732	0.142292	-0.760359	-0.633725	-0.044636	-0.644517	0.763286	-0.988818	-0.080322	-0.125649
467	3268212													9.818589	-0.348909	1.456132	0.150404	-0.759953	-0.632336	-0.044281	-0.644149	0.763617	-0.987632	-0.086850	-0.130534
468	3268378													9.793812	-0.472319	1.535594	0.159713	-0.759315	-0.630819	-0.043896	-0.643853	0.763889	-0.986187	-0.094312	-0.136163
469	3268545													9.618476	-0.453602	1.652078	0.169035	-0.758299	-0.629611	-0.043363	-0.643906	0.763875	-0.984656	-0.101819	-0.141725
470	3268712													9.656979	-0.448429	1.716022	0.177940	-0.757298	-0.628361	-0.042873	-0.643911	0.763898	-0.983107	-0.108989	-0.147045
471	3268878													9.731731	-0.544172	1.713843	0.187135	-0.756292	-0.626900	-0.042538	-0.643814	0.763999	-0.981413	-0.116304	-0.152651
472	3269045													9.765698	-0.434243	1.828528	0.197502	-0.754896	-0.625399	-0.042265	-0.643930	0.763916	-0.979391	-0.124442	-0.159083
473	3269212													9.608596	-0.442639	2.000856	0.208409	-0.753611	-0.623407	-0.041961	-0.643706	0.764121	-0.977141	-0.133091	-0.165777
474	3269378													9.660083	-0.444332	2.066514	0.219277	-0.752210	-0.621367	-0.041548	-0.643488	0.764327	-0.974778	-0.141783	-0.172355
475	3269545													9.653510	-0.492690	2.178857	0.230348	-0.750817	-0.619043	-0.041399	-0.643135	0.764633	-0.972227	-0.150504	-0.179228
476	3269712													9.596430	-0.462533	2.275010	0.241570	-0.749329	-0.616563	-0.041488	-0.642775	0.764930	-0.969496	-0.159205	-0.186363
477	3269878													9.494879	-0.429627	2.345570	0.252364	-0.747792	-0.614101	-0.041598	-0.642440	0.765206	-0.966738	-0.167565	-0.193236
478	3270045													9.543882	-0.452346	2.369637	0.262691	-0.746227	-0.611668	-0.041781	-0.642134	0.765453	-0.963975	-0.175522	-0.199861
479	3270212													9.592319	-0.461460	2.408745	0.273178	-0.743991	-0.609795	-0.041722	-0.642474	0.765171	-0.961058	-0.183586	-0.206551
480	3270378													9.508615	-0.379222	2.607464	0.284355	-0.741177	-0.608111	-0.041513	-0.643219	0.764556	-0.957820	-0.192161	-0.213671
481	3270545													9.397535	-0.368407	2.811064	0.295690	-0.738080	-0.606470	-0.041275	-0.644136	0.763796	-0.954392	-0.200815	-0.220929
482	3270712													9.308208	-0.401652	2.917687	0.306785	-0.734839	-0.604892	-0.040896	-0.645129	0.762978	-0.950900	-0.209333	-0.227968
483	3270878													9.236368	-0.365347	3.073323	0.317368	-0.731502	-0.603476	-0.040338	-0.646212	0.762091	-0.947444	-0.217520	-0.234594
484	3271045													9.230887	-0.318103	3.173744	0.327128	-0.728236	-0.602213	-0.039569	-0.647273	0.761231	-0.944151	-0.225191	-0.240557
485	3271212													9.314495	-0.306897	3.216870	0.336626	-0.725050	-0.600821	-0.038692	-0.648171	0.760511	-0.940843	-0.232761	-0.246244
486	3271378													9.278175	-0.316827	3.339135	0.346783	-0.721669	-0.599112	-0.037909	-0.649011	0.759834	-0.937179	-0.240786	-0.252423
487	3271545													9.114476	-0.280644	3.430602	0.356775	-0.718391	-0.597182	-0.036968	-0.649607	0.759371	-0.933459	-0.248848	-0.258321
488	3271712													9.233932	-0.310560	3.374162	0.366253	-0.715421	-0.595006	-0.036145	-0.649893	0.759166	-0.929813	-0.256540	-0.263884
489	3271878													9.268891	-0.320876	3.495609	0.376535	-0.712268	-0.592364	-0.035472	-0.650041	0.759071	-0.925723	-0.264804	-0.270029
490	3272045													9.144299	-0.325093	3.691527	0.387178	-0.708989	-0.589430	-0.034872	-0.650095	0.759052	-0.921345	-0.273333	-0.276426
491	3272212													9.051250	-0.302630	3.847247	0.397689	-0.705645	-0.586438	-0.034287	-0.650138	0.759042	-0.916879	-0.281756	-0.282747
492	3272378													8.953054	-0.271390	4.008437	0.408123	-0.702255	-0.583330	-0.033822	-0.650159	0.759045	-0.912300	-0.290055	-0.289096
493	3272545													8.902882	-0.293002	4.058856	0.418085	-0.698965	-0.580218	-0.033354	-0.650101	0.759116	-0.907795	-0.298022	-0.295111
494	3272712													8.907305	-0.293985	4.160362	0.428026	-0.695468	-0.577164	-0.032791	-0.650151	0.759097	-0.903171	-0.305988	-0.301087
495	3272878													8.779728	-0.275569	4.244460	0.437883	-0.691882	-0.574071	-0.032241	-0.650218	0.759063	-0.898453	-0.313872	-0.307027
496	3273045													8.742778	-0.271725	4.339082	0.447423	-0.688359	-0.570942	-0.031733	-0.650225	0.759079	-0.893760	-0.321511	-0.312769
497	3273212													8.667028	-0.284773	4.493340	0.457027	-0.684700	-0.567725	-0.031253	-0.650253	0.759074	-0.888904	-0.329175	-0.318582
498	3273378													8.601135	-0.293352	4.602428	0.466327	-0.681006	-0.564597	-0.030741	-0.650332	0.759027	-0.884078	-0.336599	-0.324203
499	3273545													8.602768	-0.300173	4.664979	0.475441	-0.677251	-0.561504	-0.030145	-0.650423	0.758974	-0.879231	-0.343921	-0.329654
500	3273712													8.525854	-0.289398	4.808034	0.484568	-0.673324	-0.558415	-0.029427	-0.650555	0.758889	-0.874258	-0.351301	-0.335052
501	3273878													8.464630	-0.298440	4.915172	0.493398	-0.669431	-0.555357	-0.028703	-0.650669	0.758819	-0.869330	-0.358459	-0.340253
502	3274045													8.511115	-0.324185	4.914778	0.501912	-0.665675	-0.552233	-0.028103	-0.650694	0.758820	-0.864462	-0.365342	-0.345299
503	3274212													8.547713	-0.294187	4.922214	0.510785	-0.661527	-0.549073	-0.027446	-0.650896	0.758671	-0.859270	-0.372448	-0.350624
504	3274378													8.464499	-0.261027	4.969941	0.519873	-0.657169	-0.545766	-0.026893	-0.651163	0.758462	-0.853820	-0.379626	-0.356195
505	3274545													8.504417	-0.252962	5.031988	0.529265	-0.652675	-0.542120	-0.026491	-0.651349	0.758316	-0.848043	-0.386989	-0.362026
506	3274712													8.304303	-0.224044	5.145210	0.539131	-0.647880	-0.538134	-0.026175	-0.651526	0.758174	-0.841815	-0.394670	-0.368216
507	3274879													8.230061	-0.195547	5.226117	0.548801	-0.643120	-0.534054	-0.025954	-0.651657	0.758069	-0.835550	-0.402169	-0.374322
508	3275045													8.150675	-0.201082	5.332388	0.558642	-0.638255	-0.529669	-0.025847	-0.651697	0.758039	-0.829006	-0.409782	-0.380562
509	3275212													8.119019	-0.219052	5.419638	0.568281	-0.633427	-0.525193	-0.025821	-0.651687	0.758049	-0.822429	-0.417223	-0.386697
510	3275379													8.075636	-0.221404	5.550989	0.577927	-0.628479	-0.520591	-0.025807	-0.651665	0.758068	-0.815680	-0.424673	-0.392834
511	3275545													8.046070	-0.236473	5.654466	0.587368	-0.623630	-0.515834	-0.025939	-0.651546	0.758165	-0.808904	-0.431941	-0.398874
512	3275712													7.934831	-0.325444	5.712673	0.596509	-0.618841	-0.511090	-0.026186	-0.651455	0.758235	-0.802179	-0.438911	-0.404804
513	3275879													7.906008	-0.285218	5.822341	0.605601	-0.613933	-0.506294	-0.026353	-0.651356	0.758314	-0.795332	-0.445894	-0.410641
514	3276045													7.748493	-0.271667	6.000360	0.614724	-0.609062	-0.501157	-0.026600	-0.651034	0.758582	-0.788293	-0.452988	-0.416408
515	3276212													7.648356	-0.215495	6.087309	0.623396	-0.604266	-0.496225	-0.026678	-0.650703	0.758863	-0.781451	-0.459834	-0.421767
516	3276379													7.567026	-0.240117	6.190334	0.631983	-0.599464	-0.491162	-0.026811	-0.650305	0.759200	-0.774518	-0.466633	-0.427054
517	3276545													7.487356	-0.250673	6.285880	0.640140	-0.594914	-0.486105	-0.027137	-0.649851	0.759577	-0.767779	-0.473044	-0.432140
518	3276712													7.334022	-0.263493	6.404077	0.648007	-0.590350	-0.481222	-0.027498	-0.649550	0.759821	-0.761138	-0.479137	-0.437146
519	3276879													7.338044	-0.248957	6.457783	0.655353	-0.585959	-0.476618	-0.027899	-0.649361	0.759968	-0.754808	-0.484750	-0.441908
520	3277045													7.370087	-0.237472	6.485888	0.662811	-0.581365	-0.471907	-0.028355	-0.649264	0.760034	-0.748250	-0.490378	-0.446824
521	3277212													7.335382	-0.256130	6.522464	0.670431	-0.576446	-0.467152	-0.028715	-0.649296	0.759994	-0.741416	-0.496109	-0.451861
522	3277379													7.269715	-0.299701	6.565967	0.678150	-0.571256	-0.462364	-0.029037	-0.649467	0.759835	-0.734350	-0.501856	-0.457023
523	3277545													7.181445	-0.291383	6.628109	0.685944	-0.565823	-0.457520	-0.029357	-0.649768	0.759566	-0.727061	-0.507588	-0.462316
524	3277712													7.080117	-0.320111	6.707155	0.693541	-0.560249	-0.452904	-0.029521	-0.650243	0.759153	-0.719812	-0.513134	-0.467509
525	3277879													7.015552	-0.264205	6.828530	0.701124	-0.554478	-0.448307	-0.029571	-0.650796	0.758676	-0.712426	-0.518669	-0.472685
526	3278045													6.901628	-0.261908	6.904920	0.708475	-0.548743	-0.443784	-0.029644	-0.651409	0.758148	-0.705113	-0.523973	-0.477774
527	3278212													6.808530	-0.309720	7.007643	0.715381	-0.543370	-0.439293	-0.029934	-0.651954	0.757668	-0.698093	-0.528871	-0.482661
528	3278379													6.696190	-0.250916	7.103518	0.721838	-0.538067	-0.435240	-0.030003	-0.652642	0.757072	-0.691412	-0.533424	-0.487245
529	3278545													6.628808	-0.219182	7.199310	0.727737	-0.533237	-0.431344	-0.030214	-0.653227	0.756559	-0.685191	-0.537544	-0.491488
530	3278712													6.549612	-0.268208	7.245162	0.732993	-0.528966	-0.427687	-0.030593	-0.653731	0.756108	-0.679548	-0.541137	-0.495363
531	3278879													6.497598	-0.251397	7.337337	0.737615	-0.525153	-0.424427	-0.031001	-0.654251	0.755641	-0.674509	-0.544215	-0.498866
532	3279045													6.444314	-0.299479	7.363547	0.741691	-0.521825	-0.421417	-0.031498	-0.654689	0.755242	-0.670002	-0.546882	-0.502014
533	3279212													6.413126	-0.301212	7.390229	0.745207	-0.518916	-0.418799	-0.031972	-0.655124	0.754845	-0.666066	-0.549126	-0.504794
534	3279379													6.409188	-0.319713	7.391001	0.748199	-0.516428	-0.416532	-0.032421	-0.655514	0.754487	-0.662681	-0.551002	-0.507198
535	3279545													6.438110	-0.325379	7.457443	0.750875	-0.514115	-0.414576	-0.032737	-0.655923	0.754117	-0.659633	-0.552676	-0.509347
536	3279712													6.396025	-0.292346	7.501005	0.753312	-0.511944	-0.412837	-0.032932	-0.656309	0.753773	-0.656838	-0.554230	-0.511265
537	3279879													6.311391	-0.322186	7.546114	0.755620	-0.509880	-0.411169	-0.033056	-0.656614	0.753502	-0.654175	-0.555770	-0.513005
538	3280045													6.308695	-0.341843	7.484416	0.757778	-0.507887	-0.409663	-0.033076	-0.656914	0.753239	-0.651674	-0.557238	-0.514594
539	3280212													6.346374	-0.326517	7.437768	0.759901	-0.505876	-0.408215	-0.032981	-0.657182	0.753010	-0.649201	-0.558750	-0.516078
540	3280379													6.400362	-0.322036	7.487326	0.761966	-0.503882	-0.406830	-0.032885	-0.657489	0.752746	-0.646782	-0.560188	-0.517554
541	3280545													6.246993	-0.281718	7.607622	0.764148	-0.501627	-0.405523	-0.032600	-0.657907	0.752393	-0.644217	-0.561719	-0.519092
542	3280712													6.097286	-0.302844	7.586191	0.766257	-0.499619	-0.404018	-0.032468	-0.658093	0.752236	-0.641713	-0.563289	-0.520490
543	3280879													6.124215	-0.321054	7.536657	0.768339	-0.497851	-0.402242	-0.032505	-0.658002	0.752314	-0.639217	-0.564957	-0.521752
544	3281045													6.168261	-0.392521	7.522935	0.770312	-0.496303	-0.400377	-0.032644	-0.657747	0.752531	-0.636831	-0.566614	-0.522872
545	3281212													6.208360	-0.423517	7.590909	0.772236	-0.494739	-0.398604	-0.032653	-0.657467	0.752775	-0.634496	-0.568305	-0.523874
546	3281379													6.187493	-0.404817	7.673191	0.774144	-0.493088	-0.396946	-0.032574	-0.657278	0.752944	-0.632171	-0.569957	-0.524889
547	3281545													6.134528	-0.361787	7.671219	0.775988	-0.491326	-0.395527	-0.032412	-0.657308	0.752924	-0.629915	-0.571440	-0.525988
548	3281712													6.095071	-0.349277	7.700154	0.777729	-0.489610	-0.394232	-0.032254	-0.657415	0.752838	-0.627771	-0.572789	-0.527083
549	3281879													6.069681	-0.386501	7.700621	0.779362	-0.487981	-0.393027	-0.032148	-0.657579	0.752700	-0.625749	-0.573990	-0.528179
550	3282045													6.075131	-0.325604	7.692596	0.780926	-0.486244	-0.392074	-0.031947	-0.657967	0.752369	-0.623806	-0.575018	-0.529358
551	3282212													6.063257	-0.306476	7.692369	0.782357	-0.484585	-0.391274	-0.031779	-0.658459	0.751946	-0.622019	-0.575856	-0.530549
552	3282379													6.077671	-0.279146	7.722124	0.783704	-0.482931	-0.390622	-0.031630	-0.659098	0.751392	-0.620328	-0.576514	-0.531813
553	3282545													6.060607	-0.257484	7.755735	0.784995	-0.481153	-0.390224	-0.031452	-0.660041	0.750571	-0.618703	-0.576921	-0.533262
554	3282712													6.051475	-0.206136	7.738290	0.786200	-0.479363	-0.390001	-0.031387	-0.661259	0.749501	-0.617175	-0.577016	-0.534927
555	3282879													5.974082	-0.122714	7.711362	0.787371	-0.477618	-0.389780	-0.031421	-0.662537	0.748370	-0.615678	-0.576997	-0.536670
556	3283045													5.963131	-0.204515	7.806860	0.788511	-0.476264	-0.389130	-0.031812	-0.663448	0.747545	-0.614197	-0.577069	-0.538288
557	3283212													5.999110	-0.210483	7.808016	0.789622	-0.475291	-0.388067	-0.032428	-0.663889	0.747127	-0.612737	-0.577364	-0.539634
558	3283379													5.931104	-0.282017	7.896802	0.790797	-0.474615	-0.386499	-0.033245	-0.663825	0.747149	-0.611176	-0.577994	-0.540729
559	3283545													5.919639	-0.423826	7.862646	0.791916	-0.474229	-0.384677	-0.034201	-0.663425	0.747461	-0.609671	-0.578770	-0.541596
560	3283712													5.956007	-0.436569	7.793677	0.792963	-0.473711	-0.383155	-0.034888	-0.663147	0.747676	-0.608271	-0.579511	-0.542378
561	3283879													5.904571	-0.394938	7.854921	0.793900	-0.473001	-0.382091	-0.035241	-0.663126	0.747678	-0.607027	-0.580116	-0.543124
562	3284045													5.829737	-0.378775	7.854558	0.794700	-0.472210	-0.381405	-0.035353	-0.663282	0.747534	-0.605972	-0.580581	-0.543804
563	3284212													5.811091	-0.371582	7.870877	0.795303	-0.471572	-0.380936	-0.035375	-0.663418	0.747412	-0.605179	-0.580944	-0.544300
564	3284379													5.877082	-0.403150	7.855560	0.795742	-0.471137	-0.380558	-0.035428	-0.663496	0.747340	-0.604599	-0.581207	-0.544663
565	3284545													5.866344	-0.403286	7.864408	0.795994	-0.470940	-0.380275	-0.035548	-0.663524	0.747310	-0.604259	-0.581336	-0.544902
566	3284712													5.856642	-0.337086	7.872165	0.796125	-0.470855	-0.380107	-0.035699	-0.663589	0.747246	-0.604079	-0.581331	-0.545108
567	3284879													5.971150	-0.304853	7.844889	0.796192	-0.470782	-0.380057	-0.035873	-0.663772	0.747074	-0.603980	-0.581180	-0.545379
568	3285045													5.980135	-0.253221	7.849560	0.796207	-0.470693	-0.380135	-0.036045	-0.664085	0.746788	-0.603950	-0.580896	-0.545715
569	3285212													5.958942	-0.367088	7.833506	0.796160	-0.470789	-0.380114	-0.036388	-0.664313	0.746568	-0.603991	-0.580556	-0.546031
570	3285379													5.924576	-0.378483	7.828547	0.796122	-0.470920	-0.380032	-0.036779	-0.664504	0.746379	-0.604017	-0.580231	-0.546346
571	3285545													5.957739	-0.304957	7.790569	0.796077	-0.471077	-0.379931	-0.037154	-0.664641	0.746239	-0.604053	-0.579948	-0.546608
572	3285712													5.965744	-0.388080	7.749551	0.796034	-0.471373	-0.379654	-0.037685	-0.664649	0.746204	-0.604077	-0.579697	-0.546848
573	3285879													5.957190	-0.431815	7.804613	0.796054	-0.471524	-0.379425	-0.038104	-0.664718	0.746122	-0.604025	-0.579496	-0.547119
574	3286045													5.929262	-0.415533	7.815143	0.796086	-0.471654	-0.379197	-0.038481	-0.664763	0.746062	-0.603959	-0.579338	-0.547358
575	3286212													5.919464	-0.433257	7.825359	0.796167	-0.471715	-0.378950	-0.038765	-0.664763	0.746048	-0.603834	-0.579289	-0.547548
576	3286379													5.926862	-0.432797	7.755406	0.796299	-0.471764	-0.378613	-0.039024	-0.664667	0.746120	-0.603644	-0.579360	-0.547683
577	3286545													5.964967	-0.414676	7.804139	0.796395	-0.471786	-0.378381	-0.039173	-0.664583	0.746187	-0.603506	-0.579437	-0.547752
578	3286712													5.937098	-0.356745	7.863079	0.796466	-0.471711	-0.378325	-0.039171	-0.664593	0.746178	-0.603413	-0.579486	-0.547804
579	3286879													5.906475	-0.356705	7.866909	0.796455	-0.471733	-0.378322	-0.039113	-0.664516	0.746250	-0.603432	-0.579557	-0.547707
580	3287045													5.888295	-0.380740	7.797197	0.796364	-0.471912	-0.378289	-0.039023	-0.664249	0.746492	-0.603557	-0.579718	-0.547400
581	3287212													5.912342	-0.400304	7.832857	0.796198	-0.472198	-0.378282	-0.038875	-0.663856	0.746849	-0.603786	-0.579934	-0.546918
582	3287379													5.925941	-0.433181	7.784843	0.795817	-0.472612	-0.378567	-0.038526	-0.663426	0.747249	-0.604310	-0.580089	-0.546174
583	3287545													5.878824	-0.392720	7.815285	0.795464	-0.472480	-0.379473	-0.037383	-0.663258	0.747456	-0.604846	-0.580389	-0.545261
584	3287712													5.842288	-0.396134	7.875428	0.794833	-0.472991	-0.380159	-0.036708	-0.662798	0.747898	-0.605717	-0.580499	-0.544176
585	3287879													5.847712	-0.459829	7.919622	0.793804	-0.474182	-0.380823	-0.036311	-0.662010	0.748615	-0.607088	-0.580425	-0.542725
586	3288045													5.844059	-0.478535	7.985938	0.792324	-0.475877	-0.381790	-0.035996	-0.661155	0.749385	-0.609037	-0.580013	-0.540979
587	3288212													5.828003	-0.452999	7.938780	0.790534	-0.478012	-0.382832	-0.035916	-0.660226	0.750208	-0.611364	-0.579315	-0.539099
588	3288379													5.855306	-0.448745	7.874747	0.788407	-0.480557	-0.384031	-0.036013	-0.659270	0.751043	-0.614099	-0.578297	-0.537079
589	3288545													5.905307	-0.461713	7.871533	0.786054	-0.483333	-0.385369	-0.036208	-0.658344	0.751846	-0.617097	-0.577038	-0.534994
590	3288712													5.920009	-0.459550	7.798750	0.783517	-0.486336	-0.386753	-0.036515	-0.657382	0.752672	-0.620296	-0.575609	-0.532829
591	3288879													5.947179	-0.456965	7.755726	0.780776	-0.489449	-0.388367	-0.036783	-0.656503	0.753426	-0.623728	-0.573971	-0.530586
592	3289045													5.986351	-0.389741	7.732960	0.777881	-0.492521	-0.390287	-0.036954	-0.655846	0.753989	-0.627324	-0.572092	-0.528371
593	3289212													5.988793	-0.379560	7.665130	0.774932	-0.495416	-0.392483	-0.036932	-0.655405	0.754374	-0.630965	-0.570093	-0.526191
594	3289379													6.050508	-0.382637	7.650164	0.771891	-0.498305	-0.394813	-0.036886	-0.655070	0.754667	-0.634684	-0.567958	-0.524023
595	3289545													6.150793	-0.354709	7.577245	0.768781	-0.501246	-0.397151	-0.036851	-0.654712	0.754980	-0.638450	-0.565779	-0.521801
596	3289712													6.199610	-0.397617	7.567336	0.765648	-0.504198	-0.399459	-0.036895	-0.654390	0.755257	-0.642201	-0.563523	-0.519634
597	3289879													6.258035	-0.388897	7.471147	0.762501	-0.507104	-0.401794	-0.036985	-0.654171	0.755442	-0.645930	-0.561164	-0.517561
598	3290045													6.268062	-0.367308	7.553152	0.759318	-0.510145	-0.403966	-0.037285	-0.653887	0.755673	-0.649651	-0.558734	-0.515529
599	3290212													6.365162	-0.306769	7.538011	0.756078	-0.513109	-0.406281	-0.037455	-0.653673	0.755849	-0.653408	-0.556264	-0.513447
600	3290379													6.373767	-0.296827	7.537257	0.752880	-0.515953	-0.408613	-0.037570	-0.653522	0.755975	-0.657084	-0.553807	-0.511408
601	3290545													6.387965	-0.312826	7.477955	0.749622	-0.518816	-0.410971	-0.037687	-0.653378	0.756093	-0.660792	-0.551296	-0.509339
602	3290712													6.388963	-0.343029	7.414896	0.746206	-0.521879	-0.413301	-0.037944	-0.653171	0.756259	-0.664632	-0.548643	-0.507203
603	3290879													6.489347	-0.346443	7.357231	0.742556	-0.525061	-0.415839	-0.038128	-0.652985	0.756410	-0.668698	-0.545821	-0.504898
604	3291045													6.526064	-0.316755	7.312975	0.738682	-0.528411	-0.418487	-0.038287	-0.652740	0.756614	-0.672966	-0.542874	-0.502399
605	3291212													6.558113	-0.321308	7.258094	0.734541	-0.531912	-0.421330	-0.038360	-0.652471	0.756842	-0.677479	-0.539769	-0.499671
606	3291379													6.584070	-0.330842	7.211697	0.730200	-0.535536	-0.424275	-0.038405	-0.652172	0.757097	-0.682153	-0.536538	-0.496783
607	3291546													6.673958	-0.343729	7.140826	0.725495	-0.539478	-0.427341	-0.038463	-0.651741	0.757465	-0.687152	-0.533101	-0.493585
608	3291712													6.764713	-0.377084	7.075281	0.720595	-0.543477	-0.430554	-0.038424	-0.651317	0.757832	-0.692291	-0.529546	-0.490218
609	3291879													6.831629	-0.365266	7.093947	0.715514	-0.547507	-0.433909	-0.038301	-0.650922	0.758177	-0.697548	-0.525867	-0.486714
610	3292046													6.860148	-0.331814	6.970040	0.710252	-0.551502	-0.437479	-0.038079	-0.650654	0.758419	-0.702917	-0.522010	-0.483129
611	3292212													6.918067	-0.373004	6.965220	0.704669	-0.555758	-0.441106	-0.037974	-0.650331	0.758701	-0.708519	-0.517883	-0.479372
612	3292379													7.000316	-0.375604	6.856992	0.698796	-0.560086	-0.444959	-0.037790	-0.650077	0.758928	-0.714322	-0.513521	-0.475437
613	3292546													7.011845	-0.296559	6.836579	0.692614	-0.564497	-0.449030	-0.037515	-0.649871	0.759118	-0.720332	-0.508931	-0.471287
614	3292712													7.095951	-0.302879	6.808905	0.686239	-0.569059	-0.453043	-0.037391	-0.649621	0.759338	-0.726415	-0.504148	-0.467073
615	3292879													7.143785	-0.351603	6.722418	0.679513	-0.573789	-0.457197	-0.037324	-0.649399	0.759531	-0.732714	-0.499046	-0.462691
616	3293046													7.150565	-0.365222	6.620824	0.672557	-0.578644	-0.461345	-0.037348	-0.649146	0.759746	-0.739103	-0.493742	-0.458199
617	3293212													7.234413	-0.360808	6.591144	0.665293	-0.583662	-0.465536	-0.037480	-0.648880	0.759967	-0.745641	-0.488152	-0.453571
618	3293379													7.299352	-0.347579	6.524274	0.657759	-0.588802	-0.469751	-0.037703	-0.648605	0.760191	-0.752284	-0.482311	-0.448826
619	3293546													7.358887	-0.344834	6.472739	0.649920	-0.594034	-0.474054	-0.037945	-0.648338	0.760407	-0.759055	-0.476216	-0.443908
620	3293712													7.454789	-0.351199	6.357491	0.641754	-0.599426	-0.478373	-0.038248	-0.648006	0.760674	-0.765956	-0.469869	-0.438787
621	3293879													7.474271	-0.355970	6.261087	0.633505	-0.604771	-0.482622	-0.038587	-0.647671	0.760943	-0.772776	-0.463438	-0.433639
622	3294046													7.509540	-0.356377	6.193174	0.625034	-0.610291	-0.486701	-0.039111	-0.647198	0.761318	-0.779617	-0.456814	-0.428390
623	3294212													7.686911	-0.341605	6.136657	0.616573	-0.615717	-0.490643	-0.039623	-0.646677	0.761734	-0.786300	-0.450224	-0.423119
624	3294379													7.702518	-0.364523	6.016075	0.608109	-0.621101	-0.494406	-0.040117	-0.646040	0.762248	-0.792839	-0.443696	-0.417779
625	3294546													7.803747	-0.384725	5.917280	0.599684	-0.626398	-0.498000	-0.040595	-0.645328	0.762826	-0.799206	-0.437239	-0.412422
626	3294712													7.848682	-0.363808	5.806858	0.591266	-0.631391	-0.501748	-0.040856	-0.644799	0.763259	-0.805441	-0.430790	-0.407044
627	3294879													7.950529	-0.355915	5.754307	0.583029	-0.636133	-0.505383	-0.041026	-0.644305	0.763667	-0.811415	-0.424506	-0.401746
628	3295046													8.001418	-0.414064	5.625303	0.574879	-0.640789	-0.508825	-0.041218	-0.643744	0.764130	-0.817200	-0.418309	-0.396487
629	3295212													8.061863	-0.419742	5.573578	0.566712	-0.645234	-0.512358	-0.041305	-0.643325	0.764479	-0.822880	-0.412077	-0.391231
630	3295379													8.136922	-0.405064	5.460149	0.558517	-0.649697	-0.515706	-0.041523	-0.642831	0.764882	-0.828453	-0.405786	-0.386009
631	3295546													8.178690	-0.431541	5.411989	0.550491	-0.654053	-0.518820	-0.041799	-0.642274	0.765335	-0.833794	-0.399624	-0.380904
632	3295712													8.241024	-0.469207	5.283231	0.542495	-0.658301	-0.521860	-0.042105	-0.641746	0.765761	-0.839003	-0.393449	-0.375862
633	3295879													8.311502	-0.454152	5.257168	0.534778	-0.662328	-0.524722	-0.042371	-0.641216	0.766189	-0.843929	-0.387508	-0.370972
634	3296046													8.364481	-0.447501	5.140281	0.527021	-0.666274	-0.527568	-0.042572	-0.640694	0.766615	-0.848785	-0.381563	-0.366024
635	3296212													8.401320	-0.467146	5.087423	0.519215	-0.670210	-0.530315	-0.042731	-0.640092	0.767109	-0.853575	-0.375634	-0.360984
636	3296379													8.426987	-0.443142	4.997531	0.511317	-0.674151	-0.532987	-0.042959	-0.639465	0.767619	-0.858318	-0.369601	-0.355930
637	3296546													8.501582	-0.437816	4.912854	0.503508	-0.678015	-0.535514	-0.043192	-0.638793	0.768165	-0.862910	-0.363647	-0.350922
638	3296712													8.556267	-0.417444	4.873765	0.495790	-0.681688	-0.538046	-0.043445	-0.638246	0.768605	-0.867355	-0.357691	-0.346052
639	3296879													8.571821	-0.475763	4.777686	0.488069	-0.685416	-0.540365	-0.043802	-0.637568	0.769148	-0.871705	-0.351728	-0.341199
640	3297046													8.635624	-0.466111	4.672492	0.480353	-0.689207	-0.542452	-0.044202	-0.636715	0.769831	-0.875961	-0.345813	-0.336313
641	3297212													8.660524	-0.404440	4.683909	0.472715	-0.692775	-0.544612	-0.044452	-0.635984	0.770421	-0.880094	-0.339981	-0.331434
642	3297379													8.683323	-0.345905	4.604704	0.465030	-0.696135	-0.546939	-0.044586	-0.635437	0.770865	-0.884171	-0.334089	-0.326535
643	3297546													8.709391	-0.348596	4.534820	0.457786	-0.699708	-0.548489	-0.045094	-0.634410	0.771680	-0.887918	-0.328531	-0.321977
644	3297712													8.732226	-0.423263	4.426861	0.450478	-0.703457	-0.549743	-0.045741	-0.633137	0.772687	-0.891615	-0.322932	-0.317391
645	3297879													8.846789	-0.444731	4.302272	0.443345	-0.706918	-0.551101	-0.046302	-0.632067	0.773529	-0.895154	-0.317424	-0.312956
646	3298046													8.793727	-0.417070	4.247788	0.436125	-0.710376	-0.552414	-0.046708	-0.630913	0.774446	-0.898673	-0.311953	-0.308337
647	3298212													8.826203	-0.442768	4.139310	0.428687	-0.713752	-0.553883	-0.047004	-0.629863	0.775283	-0.902230	-0.306319	-0.303563
648	3298379													8.915098	-0.473314	4.103525	0.421332	-0.716674	-0.555749	-0.047127	-0.629270	0.775756	-0.905681	-0.300660	-0.298907
649	3298546													8.933434	-0.456128	4.089102	0.414086	-0.719587	-0.557429	-0.047328	-0.628592	0.776294	-0.909007	-0.295070	-0.294348
650	3298712													8.981521	-0.411095	4.009369	0.406710	-0.722619	-0.558935	-0.047737	-0.627797	0.776912	-0.912309	-0.289296	-0.289827
651	3298879													9.028336	-0.498533	4.019435	0.399531	-0.725322	-0.560610	-0.048170	-0.627305	0.777283	-0.915453	-0.283544	-0.285566
652	3299046													9.022776	-0.513395	3.986237	0.392495	-0.727753	-0.562426	-0.048533	-0.627032	0.777480	-0.918473	-0.277861	-0.281427
653	3299212													8.984938	-0.478776	3.888838	0.385099	-0.730174	-0.564398	-0.048877	-0.626843	0.777611	-0.921580	-0.271871	-0.277085
654	3299379													8.972502	-0.517783	3.739079	0.377168	-0.732855	-0.566275	-0.049326	-0.626460	0.777891	-0.924830	-0.265463	-0.272430
655	3299546													9.134343	-0.554814	3.619818	0.369117	-0.735213	-0.568519	-0.049490	-0.626398	0.777931	-0.928064	-0.259012	-0.267600
656	3299712													9.139734	-0.487838	3.500994	0.361108	-0.737351	-0.570889	-0.049561	-0.626508	0.777838	-0.931206	-0.252590	-0.262781
657	3299879													9.180070	-0.465040	3.442987	0.353224	-0.739378	-0.573196	-0.049799	-0.626682	0.777682	-0.934213	-0.246151	-0.258179
658	3300046													9.251424	-0.511728	3.316468	0.345347	-0.741535	-0.575205	-0.050291	-0.626657	0.777671	-0.937127	-0.239638	-0.253707
659	3300212													9.245893	-0.524770	3.226985	0.337397	-0.743638	-0.577205	-0.050863	-0.626664	0.777628	-0.939988	-0.233011	-0.249258
660	3300379													9.303860	-0.526950	3.097570	0.329586	-0.745392	-0.579451	-0.051378	-0.626994	0.777328	-0.942727	-0.226425	-0.244945
661	3300546													9.360460	-0.491009	3.117301	0.322389	-0.747077	-0.581327	-0.051961	-0.627157	0.777158	-0.945180	-0.220341	-0.241007
662	3300712													9.312516	-0.499022	3.016197	0.315050	-0.748970	-0.582913	-0.052582	-0.627021	0.777225	-0.947617	-0.214214	-0.236925
663	3300879													9.386098	-0.531848	2.951628	0.307587	-0.750919	-0.584390	-0.053160	-0.626767	0.777392	-0.950034	-0.208049	-0.232704
664	3301046													9.456358	-0.535082	2.891699	0.300617	-0.752583	-0.585873	-0.053632	-0.626654	0.777450	-0.952236	-0.202293	-0.228746
665	3301212													9.482872	-0.506617	2.901062	0.294026	-0.754189	-0.587152	-0.054156	-0.626464	0.777566	-0.954262	-0.196827	-0.225041
666	3301379													9.468689	-0.492837	2.848444	0.287759	-0.755555	-0.588500	-0.054580	-0.626430	0.777564	-0.956146	-0.191631	-0.221499
667	3301546													9.403829	-0.525626	2.817330	0.281678	-0.757026	-0.589550	-0.054992	-0.626156	0.777756	-0.957932	-0.186656	-0.218005
668	3301712													9.401807	-0.518210	2.778691	0.275506	-0.758374	-0.590733	-0.055297	-0.626000	0.777860	-0.959708	-0.181639	-0.214402
669	3301879													9.445911	-0.489746	2.738241	0.269417	-0.759680	-0.591862	-0.055536	-0.625820	0.777988	-0.961421	-0.176733	-0.210796
670	3302046													9.505749	-0.501916	2.667050	0.263767	-0.760810	-0.592955	-0.055788	-0.625728	0.778044	-0.962972	-0.172142	-0.207491
671	3302212													9.468155	-0.523921	2.582821	0.258483	-0.761813	-0.593993	-0.055983	-0.625669	0.778077	-0.964392	-0.167866	-0.204373
672	3302379													9.436072	-0.546180	2.578669	0.253302	-0.762844	-0.594901	-0.056064	-0.625498	0.778209	-0.965761	-0.163769	-0.201208
673	3302546													9.442444	-0.513738	2.506731	0.248069	-0.763780	-0.595904	-0.056142	-0.625433	0.778256	-0.967114	-0.159606	-0.198031
674	3302712													9.526705	-0.522911	2.496143	0.242866	-0.764795	-0.596745	-0.056265	-0.625233	0.778407	-0.968427	-0.155473	-0.194879
675	3302879													9.486613	-0.540200	2.417111	0.237704	-0.765871	-0.597444	-0.056312	-0.624904	0.778668	-0.969704	-0.151449	-0.191670
676	3303046													9.569396	-0.545068	2.388445	0.232729	-0.766777	-0.598240	-0.056220	-0.624709	0.778831	-0.970915	-0.147623	-0.188496
677	3303212													9.583750	-0.519853	2.374292	0.228271	-0.767470	-0.599068	-0.056000	-0.624645	0.778898	-0.971986	-0.144252	-0.185567
678	3303379													9.540789	-0.499233	2.304599	0.223757	-0.768383	-0.599600	-0.055883	-0.624301	0.779182	-0.973042	-0.140840	-0.182631
679	3303546													9.526849	-0.551103	2.147676	0.219026	-0.769352	-0.600105	-0.055682	-0.623892	0.779525	-0.974129	-0.137321	-0.179487
680	3303712													9.618895	-0.535174	2.081339	0.214551	-0.769893	-0.601027	-0.055407	-0.623960	0.779490	-0.975140	-0.133939	-0.176529
681	3303879													9.555902	-0.539269	2.083567	0.209971	-0.770451	-0.601927	-0.055160	-0.624006	0.779470	-0.976150	-0.130464	-0.173521
682	3304046													9.563766	-0.551624	1.960913	0.205160	-0.771023	-0.602855	-0.055102	-0.624079	0.779416	-0.977176	-0.126687	-0.170521
683	3304212													9.666238	-0.493611	1.903052	0.200606	-0.771419	-0.603878	-0.055123	-0.624320	0.779221	-0.978120	-0.123029	-0.167766
684	3304379													9.635357	-0.467308	1.883903	0.196102	-0.772155	-0.604418	-0.055153	-0.624095	0.779399	-0.979031	-0.119506	-0.164973
685	3304546													9.654750	-0.420803	1.879690	0.191628	-0.773122	-0.604616	-0.054887	-0.623510	0.779886	-0.979932	-0.116263	-0.161916
686	3304712													9.656320	-0.521955	1.882027	0.187009	-0.774166	-0.604728	-0.054759	-0.622846	0.780426	-0.980831	-0.112832	-0.158870
687	3304879													9.649323	-0.522535	1.823739	0.182039	-0.775147	-0.604986	-0.054991	-0.622329	0.780821	-0.981752	-0.108871	-0.155915
688	3305046													9.736652	-0.510686	1.749341	0.177145	-0.776067	-0.605260	-0.055363	-0.621870	0.781161	-0.982626	-0.104870	-0.153127
689	3305212													9.614909	-0.548653	1.737863	0.172221	-0.776999	-0.605486	-0.055787	-0.621377	0.781523	-0.983477	-0.100817	-0.150361
690	3305379													9.621676	-0.557823	1.628134	0.166919	-0.777781	-0.605966	-0.056185	-0.621093	0.781720	-0.984368	-0.096438	-0.147372
691	3305546													9.703288	-0.532083	1.574393	0.161816	-0.778606	-0.606290	-0.056639	-0.620702	0.781998	-0.985194	-0.092200	-0.144539
692	3305712													9.724901	-0.531159	1.496525	0.157184	-0.779300	-0.606618	-0.057107	-0.620398	0.782205	-0.985917	-0.088308	-0.142020
693	3305879													9.639356	-0.556249	1.577760	0.152685	-0.780311	-0.606466	-0.057600	-0.619645	0.782766	-0.986595	-0.084584	-0.139556
694	3306046													9.707642	-0.558815	1.523953	0.147993	-0.781176	-0.606517	-0.058125	-0.619080	0.783174	-0.987279	-0.080650	-0.137025
695	3306212													9.759187	-0.581396	1.457723	0.143477	-0.782149	-0.606347	-0.058591	-0.618325	0.783736	-0.987918	-0.076921	-0.134542
696	3306379													9.704605	-0.569217	1.464635	0.138928	-0.782953	-0.606369	-0.058980	-0.617762	0.784150	-0.988545	-0.073177	-0.132003
697	3306546													9.654294	-0.588350	1.384486	0.133893	-0.783915	-0.606259	-0.059401	-0.617016	0.784705	-0.989214	-0.069054	-0.129180
698	3306712													9.823072	-0.583093	1.251035	0.129041	-0.784866	-0.606081	-0.059560	-0.616222	0.785318	-0.989849	-0.065240	-0.126264
699	3306879													9.805294	-0.548640	1.173082	0.124816	-0.785439	-0.606223	-0.059621	-0.615834	0.785617	-0.990387	-0.061914	-0.123695
700	3307046													9.759182	-0.570225	1.197438	0.121157	-0.785792	-0.606508	-0.059751	-0.615674	0.785732	-0.990833	-0.058958	-0.121545
701	3307212													9.723205	-0.598612	1.213038	0.117433	-0.786089	-0.606856	-0.059838	-0.615575	0.785803	-0.991276	-0.055966	-0.119327
702	3307379													9.736157	-0.591935	1.166136	0.113644	-0.786628	-0.606878	-0.059783	-0.615143	0.786146	-0.991721	-0.053060	-0.116934
703	3307546													9.733694	-0.592938	1.107960	0.109861	-0.787185	-0.606853	-0.059620	-0.614668	0.786530	-0.992157	-0.050228	-0.114460
704	3307712													9.752684	-0.591013	1.056805	0.106168	-0.787703	-0.606838	-0.059442	-0.614224	0.786890	-0.992570	-0.047471	-0.112034
705	3307879													9.784548	-0.587745	0.998326	0.102697	-0.787880	-0.607206	-0.059222	-0.614193	0.786930	-0.992948	-0.044855	-0.109736
706	3308046													9.784979	-0.598674	0.947686	0.099335	-0.787955	-0.607667	-0.059009	-0.614278	0.786880	-0.993303	-0.042307	-0.107516
707	3308213													9.718734	-0.592528	0.946382	0.095601	-0.788188	-0.607964	-0.058780	-0.614166	0.786985	-0.993683	-0.039500	-0.105045
708	3308379													9.758798	-0.590687	0.820530	0.091545	-0.788059	-0.608755	-0.058598	-0.614526	0.786717	-0.994075	-0.036348	-0.102435
709	3308546													9.861001	-0.590942	0.726869	0.087905	-0.787539	-0.609963	-0.058458	-0.615357	0.786078	-0.994412	-0.033443	-0.100131
710	3308713													9.815447	-0.586511	0.738545	0.084686	-0.787040	-0.611061	-0.058325	-0.616128	0.785483	-0.994699	-0.030879	-0.098082
711	3308879													9.811313	-0.588228	0.722514	0.081573	-0.786543	-0.612124	-0.058196	-0.616881	0.784902	-0.994967	-0.028404	-0.096095
712	3309046													9.813295	-0.588529	0.711125	0.078471	-0.786019	-0.613202	-0.058158	-0.617661	0.784292	-0.995219	-0.025882	-0.094182
713	3309213													9.831038	-0.591841	0.610308	0.075503	-0.785356	-0.614422	-0.058087	-0.618599	0.783557	-0.995452	-0.023471	-0.092325
714	3309379													9.842290	-0.578596	0.563389	0.072880	-0.784502	-0.615828	-0.058049	-0.619760	0.782641	-0.995650	-0.021291	-0.090708
715	3309546													9.792312	-0.602301	0.592765	0.070417	-0.783621	-0.617236	-0.057934	-0.620940	0.781714	-0.995834	-0.019287	-0.089123
716	3309713													9.797242	-0.623253	0.617643	0.067943	-0.782607	-0.618797	-0.057774	-0.622276	0.780663	-0.996015	-0.017290	-0.087493
717	3309879													9.806692	-0.623977	0.614508	0.065559	-0.781473	-0.620486	-0.057559	-0.623750	0.779502	-0.996187	-0.015389	-0.085873
718	3310046													9.820103	-0.626154	0.584282	0.063409	-0.780246	-0.622251	-0.057305	-0.625323	0.778259	-0.996341	-0.013691	-0.084363
719	3310213													9.836444	-0.641224	0.562763	0.061456	-0.778775	-0.624285	-0.057040	-0.627186	0.776778	-0.996479	-0.012128	-0.082966
720	3310379													9.774362	-0.615957	0.530051	0.059469	-0.776964	-0.626730	-0.056889	-0.629458	0.774949	-0.996608	-0.010432	-0.081634
721	3310546													9.804647	-0.629354	0.498286	0.057613	-0.775026	-0.629298	-0.056889	-0.631870	0.772984	-0.996717	-0.008733	-0.080494
722	3310713													9.791686	-0.625814	0.499773	0.055944	-0.773133	-0.631772	-0.056907	-0.634203	0.771069	-0.996811	-0.007184	-0.079477
723	3310879													9.811770	-0.638116	0.480137	0.054219	-0.771436	-0.633993	-0.056885	-0.636282	0.769357	-0.996907	-0.005649	-0.078381
724	3311046													9.779970	-0.646755	0.441610	0.052314	-0.769918	-0.635995	-0.056979	-0.638131	0.767817	-0.997004	-0.003930	-0.077253
725	3311213													9.831004	-0.537536	0.397553	0.050519	-0.768447	-0.637916	-0.056954	-0.639909	0.766337	-0.997098	-0.002382	-0.076094
726	3311379													9.898453	-0.500510	0.434571	0.048987	-0.767127	-0.639622	-0.056730	-0.641494	0.765027	-0.997187	-0.001190	-0.074944
727	3311546													9.926442	-0.538236	0.450755	0.047815	-0.765922	-0.641154	-0.056424	-0.642934	0.763841	-0.997261	-0.000347	-0.073958
728	3311713													9.831966	-0.582573	0.524195	0.046851	-0.764809	-0.642551	-0.056314	-0.644257	0.762733	-0.997313	0.000449	-0.073254
729	3311879													9.786752	-0.486077	0.579120	0.045895	-0.763749	-0.643880	-0.056310	-0.645513	0.761671	-0.997358	0.001300	-0.072632
730	3312046													9.780256	-0.484273	0.563049	0.044678	-0.762917	-0.644951	-0.056234	-0.646493	0.760845	-0.997417	0.002275	-0.071786
731	3312213													9.744299	-0.484201	0.546644	0.043387	-0.762113	-0.645989	-0.056093	-0.647436	0.760052	-0.997482	0.003260	-0.070840
732	3312379													9.767470	-0.491875	0.485783	0.042101	-0.761412	-0.646900	-0.055874	-0.648255	0.759370	-0.997550	0.004175	-0.069835
733	3312546													9.779176	-0.465426	0.502388	0.040948	-0.760787	-0.647708	-0.055621	-0.648982	0.758768	-0.997612	0.004956	-0.068890
734	3312713													9.775705	-0.471442	0.470972	0.040012	-0.760368	-0.648259	-0.055417	-0.649468	0.758366	-0.997661	0.005581	-0.068124
735	3312879													9.790102	-0.464147	0.409550	0.039214	-0.760121	-0.648597	-0.055202	-0.649753	0.758138	-0.997705	0.006075	-0.067440
736	3313046													9.883884	-0.442190	0.390329	0.038600	-0.759967	-0.648814	-0.055011	-0.649929	0.758001	-0.997739	0.006433	-0.066894
737	3313213													9.874012	-0.453678	0.334272	0.038037	-0.759887	-0.648941	-0.054761	-0.650020	0.757941	-0.997775	0.006707	-0.066337
738	3313379													9.857347	-0.464585	0.297065	0.037673	-0.759741	-0.649134	-0.054475	-0.650190	0.757816	-0.997804	0.006813	-0.065882
739	3313546													9.856624	-0.477460	0.341773	0.037151	-0.759689	-0.649225	-0.054152	-0.650249	0.757789	-0.997841	0.007004	-0.065296
740	3313713													9.874424	-0.477134	0.276648	0.036581	-0.759634	-0.649321	-0.053669	-0.650311	0.757770	-0.997889	0.007128	-0.064558
741	3313879													9.824074	-0.504278	0.284822	0.036157	-0.759567	-0.649423	-0.053182	-0.650389	0.757737	-0.997930	0.007140	-0.063911
742	3314046													9.792428	-0.508518	0.297837	0.035817	-0.759419	-0.649615	-0.052850	-0.650562	0.757612	-0.997960	0.007197	-0.063436
743	3314213													9.823722	-0.467340	0.283262	0.035524	-0.759356	-0.649704	-0.052551	-0.650635	0.757570	-0.997986	0.007231	-0.063019
744	3314379													9.810801	-0.484487	0.286762	0.035334	-0.759335	-0.649740	-0.052303	-0.650660	0.757566	-0.998006	0.007215	-0.062705
745	3314546													9.801318	-0.450552	0.276491	0.035195	-0.759313	-0.649773	-0.052110	-0.650686	0.757557	-0.998021	0.007197	-0.062468
746	3314713													9.797138	-0.452612	0.272521	0.035009	-0.759361	-0.649727	-0.051957	-0.650630	0.757616	-0.998035	0.007235	-0.062232
747	3314879													9.844226	-0.461374	0.291518	0.034874	-0.759397	-0.649692	-0.051871	-0.650587	0.757658	-0.998045	0.007278	-0.062079
748	3315046													9.829463	-0.459886	0.257601	0.034742	-0.759471	-0.649612	-0.051880	-0.650499	0.757733	-0.998049	0.007377	-0.062001
749	3315213													9.849607	-0.484154	0.264092	0.034624	-0.759556	-0.649520	-0.051944	-0.650399	0.757814	-0.998050	0.007500	-0.061974
750	3315379													9.858677	-0.482344	0.291068	0.034501	-0.759628	-0.649442	-0.052032	-0.650313	0.757882	-0.998049	0.007644	-0.061961
751	3315546													9.843343	-0.495799	0.271982	0.034415	-0.759638	-0.649435	-0.052143	-0.650300	0.757886	-0.998046	0.007781	-0.061990
752	3315713													9.819880	-0.471391	0.277002	0.034369	-0.759608	-0.649473	-0.052250	-0.650334	0.757850	-0.998042	0.007888	-0.062041
753	3315879													9.824940	-0.461286	0.288939	0.034390	-0.759516	-0.649579	-0.052350	-0.650440	0.757752	-0.998036	0.007946	-0.062130
754	3316046													9.804314	-0.466865	0.302461	0.034427	-0.759413	-0.649697	-0.052459	-0.650559	0.757641	-0.998029	0.007999	-0.062234
755	3316213													9.803696	-0.463062	0.331846	0.034480	-0.759314	-0.649811	-0.052547	-0.650675	0.757536	-0.998023	0.008026	-0.062335
756	3316379													9.811910	-0.492282	0.348916	0.034547	-0.759238	-0.649895	-0.052624	-0.650763	0.757455	-0.998017	0.008032	-0.062436
757	3316546													9.805176	-0.502555	0.361563	0.034671	-0.759182	-0.649954	-0.052694	-0.650829	0.757393	-0.998009	0.007989	-0.062569
758	3316713													9.834133	-0.500902	0.375096	0.034838	-0.759145	-0.649988	-0.052767	-0.650873	0.757351	-0.997999	0.007913	-0.062733
759	3316879													9.808504	-0.508437	0.374308	0.035075	-0.759205	-0.649906	-0.052786	-0.650806	0.757407	-0.997990	0.007740	-0.062902
760	3317046													9.818417	-0.523163	0.370009	0.035237	-0.759278	-0.649812	-0.052823	-0.650722	0.757476	-0.997982	0.007634	-0.063037
761	3317213													9.805984	-0.518979	0.349918	0.035461	-0.759352	-0.649713	-0.052813	-0.650637	0.757550	-0.997975	0.007449	-0.063176
762	3317379													9.804193	-0.518658	0.338567	0.035699	-0.759437	-0.649601	-0.052838	-0.650540	0.757631	-0.997965	0.007277	-0.063351
763	3317546													9.809004	-0.510982	0.325737	0.035912	-0.759560	-0.649445	-0.052868	-0.650398	0.757751	-0.997956	0.007122	-0.063514
764	3317713													9.860262	-0.539228	0.304940	0.036141	-0.759658	-0.649318	-0.052882	-0.650286	0.757847	-0.997947	0.006948	-0.063675
765	3317879													9.825211	-0.565015	0.296262	0.036437	-0.759719	-0.649230	-0.053028	-0.650216	0.757897	-0.997928	0.006812	-0.063978
766	3318046													9.830839	-0.502199	0.344962	0.036901	-0.759764	-0.649151	-0.053140	-0.650166	0.757932	-0.997905	0.006528	-0.064366
767	3318213													9.832541	-0.463783	0.342906	0.037312	-0.759977	-0.648879	-0.053065	-0.649921	0.758147	-0.997894	0.006145	-0.064578
768	3318379													9.870998	-0.544674	0.326982	0.037867	-0.760203	-0.648581	-0.052918	-0.649661	0.758380	-0.997881	0.005603	-0.064829
769	3318546													9.816519	-0.574046	0.372396	0.038704	-0.760209	-0.648525	-0.052930	-0.649660	0.758380	-0.997848	0.004974	-0.065383
770	3318713													9.822029	-0.529538	0.433601	0.039434	-0.760205	-0.648486	-0.053123	-0.649668	0.758360	-0.997809	0.004545	-0.066004
771	3318879													9.799369	-0.535530	0.428774	0.040089	-0.760365	-0.648258	-0.053282	-0.649483	0.758507	-0.997774	0.004133	-0.066551
772	3319046													9.765752	-0.572939	0.385879	0.040700	-0.760495	-0.648067	-0.053442	-0.649333	0.758624	-0.997741	0.003758	-0.067070
773	3319213													9.773986	-0.555454	0.408145	0.041268	-0.760554	-0.647962	-0.053648	-0.649266	0.758667	-0.997707	0.003453	-0.067596
774	3319379													9.790545	-0.541487	0.358518	0.041883	-0.760535	-0.647945	-0.053788	-0.649290	0.758637	-0.997674	0.003078	-0.068101
775	3319546													9.794905	-0.546577	0.394351	0.042647	-0.760507	-0.647927	-0.053897	-0.649324	0.758600	-0.997635	0.002570	-0.068681
776	3319713													9.797888	-0.569767	0.445184	0.043423	-0.760483	-0.647904	-0.053937	-0.649354	0.758571	-0.997600	0.002006	-0.069216
777	3319879													9.818125	-0.539369	0.428928	0.044228	-0.760455	-0.647883	-0.053951	-0.649389	0.758540	-0.997564	0.001405	-0.069748
778	3320046													9.848940	-0.530655	0.437856	0.045103	-0.760435	-0.647846	-0.053926	-0.649414	0.758521	-0.997526	0.000724	-0.070298
779	3320213													9.833594	-0.528884	0.432207	0.046029	-0.760382	-0.647843	-0.053901	-0.649476	0.758470	-0.997485	0.000008	-0.070880
780	3320379													9.773972	-0.526745	0.466516	0.046897	-0.760372	-0.647793	-0.053996	-0.649488	0.758452	-0.997439	-0.000591	-0.071516
781	3320546													9.827747	-0.478536	0.488864	0.047600	-0.760414	-0.647691	-0.053885	-0.649437	0.758504	-0.997412	-0.001204	-0.071888
782	3320713													9.810840	-0.533036	0.442185	0.048361	-0.760461	-0.647580	-0.053710	-0.649381	0.758564	-0.997385	-0.001904	-0.072249
783	3320879													9.776608	-0.530158	0.455975	0.049206	-0.760397	-0.647591	-0.053599	-0.649453	0.758511	-0.997349	-0.002613	-0.072713
784	3321046													9.810155	-0.498137	0.467869	0.049994	-0.760363	-0.647572	-0.053463	-0.649490	0.758488	-0.997318	-0.003299	-0.073122
785	3321213													9.821408	-0.496451	0.473109	0.050864	-0.760404	-0.647456	-0.053249	-0.649438	0.758548	-0.997285	-0.004107	-0.073524
786	3321379													9.804691	-0.516451	0.482862	0.051843	-0.760389	-0.647396	-0.053013	-0.649449	0.758555	-0.997247	-0.005006	-0.073980
787	3321546													9.818138	-0.497063	0.507555	0.052878	-0.760406	-0.647292	-0.052757	-0.649421	0.758597	-0.997206	-0.005964	-0.074457
788	3321713													9.821033	-0.499866	0.491686	0.053944	-0.760440	-0.647164	-0.052518	-0.649371	0.758656	-0.997162	-0.006937	-0.074967
789	3321879													9.818966	-0.506795	0.511220	0.055113	-0.760511	-0.646981	-0.052278	-0.649275	0.758755	-0.997111	-0.007995	-0.075541
790	3322046													9.821641	-0.511348	0.526861	0.056390	-0.760609	-0.646757	-0.052018	-0.649146	0.758883	-0.997053	-0.009150	-0.076170
791	3322213													9.819172	-0.497133	0.520568	0.057701	-0.760761	-0.646462	-0.051737	-0.648950	0.759070	-0.996992	-0.010353	-0.076804
792	3322379													9.829389	-0.504771	0.527488	0.059052	-0.760902	-0.646174	-0.051478	-0.648764	0.759247	-0.996927	-0.011571	-0.077481
793	3322546													9.818566	-0.497971	0.529888	0.060548	-0.761003	-0.645916	-0.051210	-0.648620	0.759388	-0.996851	-0.012902	-0.078243
794	3322713													9.820144	-0.489716	0.545551	0.062167	-0.761084	-0.645668	-0.050958	-0.648496	0.759511	-0.996764	-0.014315	-0.079098
795	3322879													9.822221	-0.481635	0.555772	0.063875	-0.761126	-0.645452	-0.050741	-0.648413	0.759596	-0.996667	-0.015768	-0.080037
796	3323046													9.813302	-0.492036	0.572656	0.065646	-0.761191	-0.645197	-0.050547	-0.648298	0.759707	-0.996562	-0.017259	-0.081034
797	3323213													9.826827	-0.488084	0.561841	0.067507	-0.761214	-0.644977	-0.050377	-0.648228	0.759778	-0.996446	-0.018799	-0.082108
798	3323379													9.821888	-0.492524	0.613312	0.069394	-0.761262	-0.644720	-0.050241	-0.648125	0.759875	-0.996323	-0.020339	-0.083223
799	3323546													9.849468	-0.489486	0.622176	0.071411	-0.761301	-0.644454	-0.050145	-0.648027	0.759965	-0.996186	-0.021953	-0.084452
800	3323713													9.818442	-0.486063	0.645593	0.073556	-0.761331	-0.644177	-0.050044	-0.647931	0.760054	-0.996035	-0.023669	-0.085760
801	3323879													9.812881	-0.487672	0.686947	0.075775	-0.761317	-0.643937	-0.049916	-0.647880	0.760105	-0.995875	-0.025454	-0.087095
802	3324046													9.788919	-0.480336	0.713509	0.078087	-0.761245	-0.643746	-0.049831	-0.647891	0.760102	-0.995700	-0.027276	-0.088526
803	3324213													9.791941	-0.470615	0.729372	0.080421	-0.761170	-0.643547	-0.049730	-0.647898	0.760102	-0.995520	-0.029125	-0.089958
804	3324379													9.807843	-0.454895	0.761175	0.082856	-0.761069	-0.643357	-0.049626	-0.647927	0.760084	-0.995325	-0.031050	-0.091453
805	3324546													9.842511	-0.474781	0.761536	0.085378	-0.761025	-0.643080	-0.049526	-0.647880	0.760131	-0.995117	-0.033050	-0.093005
806	3324713													9.807904	-0.514423	0.745456	0.088029	-0.760951	-0.642810	-0.049517	-0.647861	0.760148	-0.994886	-0.035085	-0.094710
807	3324880													9.829226	-0.438215	0.865948	0.091042	-0.760778	-0.642595	-0.049513	-0.647935	0.760085	-0.994615	-0.037383	-0.096657
808	3325046													9.821891	-0.399093	0.923803	0.094238	-0.760738	-0.642182	-0.049287	-0.647827	0.760192	-0.994329	-0.039988	-0.098544
809	3325213													9.826594	-0.447751	0.915617	0.097698	-0.760683	-0.641730	-0.048972	-0.647708	0.760313	-0.994011	-0.042854	-0.100531
810	3325380													9.830192	-0.503928	0.975145	0.101526	-0.760490	-0.641364	-0.048774	-0.647725	0.760312	-0.993636	-0.045910	-0.102853
811	3325546													9.813638	-0.439142	1.060953	0.105483	-0.760254	-0.641005	-0.048744	-0.647779	0.760267	-0.993226	-0.048950	-0.105387
812	3325713													9.780888	-0.429463	1.072906	0.109661	-0.760108	-0.640477	-0.048775	-0.647702	0.760331	-0.992772	-0.052140	-0.108102
813	3325880													9.701587	-0.486296	1.080498	0.113796	-0.759832	-0.640083	-0.048803	-0.647765	0.760275	-0.992305	-0.055278	-0.110795
814	3326046													9.739781	-0.498409	1.079980	0.117773	-0.759556	-0.639691	-0.048848	-0.647825	0.760221	-0.991838	-0.058286	-0.113399
815	3326213													9.763922	-0.500750	1.108805	0.122024	-0.759171	-0.639352	-0.048827	-0.647977	0.760093	-0.991325	-0.061532	-0.116137
816	3326380													9.739654	-0.501623	1.208699	0.126608	-0.758665	-0.639060	-0.048810	-0.648228	0.759880	-0.990751	-0.065014	-0.119101
817	3326546													9.730611	-0.497470	1.252196	0.131296	-0.758176	-0.638694	-0.048820	-0.648435	0.759703	-0.990140	-0.068565	-0.122152
818	3326713													9.790854	-0.500210	1.299002	0.136132	-0.757684	-0.638266	-0.048807	-0.648611	0.759554	-0.989488	-0.072247	-0.125277
819	3326880													9.821234	-0.485934	1.348359	0.141242	-0.757204	-0.637725	-0.048763	-0.648722	0.759461	-0.988773	-0.076171	-0.128550
820	3327046													9.800450	-0.497931	1.362351	0.146604	-0.756706	-0.637105	-0.048793	-0.648812	0.759383	-0.987991	-0.080242	-0.132040
821	3327213													9.738169	-0.452447	1.454000	0.152314	-0.756259	-0.636297	-0.048926	-0.648789	0.759394	-0.987120	-0.084535	-0.135821
822	3327380													9.737394	-0.463227	1.514436	0.157942	-0.755825	-0.635440	-0.048916	-0.648715	0.759457	-0.986236	-0.088868	-0.139431
823	3327546													9.715000	-0.468232	1.509923	0.163527	-0.755396	-0.634536	-0.048969	-0.648616	0.759539	-0.985323	-0.093133	-0.143058
824	3327713													9.696079	-0.525080	1.542120	0.169396	-0.754797	-0.633708	-0.049090	-0.648665	0.759490	-0.984325	-0.097546	-0.146934
825	3327880													9.686224	-0.453191	1.680622	0.175400	-0.754053	-0.632960	-0.049178	-0.648836	0.759338	-0.983268	-0.102060	-0.150889
826	3328046													9.700451	-0.466666	1.695776	0.181118	-0.753409	-0.632117	-0.049253	-0.648889	0.759287	-0.982227	-0.106386	-0.154633
827	3328213													9.687947	-0.486521	1.755713	0.187230	-0.752428	-0.631504	-0.049285	-0.649258	0.758970	-0.981079	-0.110979	-0.158644
828	3328380													9.649718	-0.449133	1.831380	0.193210	-0.751639	-0.630641	-0.049358	-0.649384	0.758857	-0.979915	-0.115491	-0.162567
829	3328546													9.695482	-0.482673	1.810753	0.198922	-0.750771	-0.629899	-0.049396	-0.649608	0.758663	-0.978770	-0.119800	-0.166306
830	3328713													9.685610	-0.465702	1.863143	0.204703	-0.749891	-0.629094	-0.049542	-0.649818	0.758474	-0.977570	-0.124095	-0.170171
831	3328880													9.622262	-0.498310	1.992100	0.210408	-0.749054	-0.628210	-0.049677	-0.649957	0.758346	-0.976351	-0.128354	-0.173967
832	3329046													9.574889	-0.485984	2.076198	0.215739	-0.748074	-0.627568	-0.049770	-0.650292	0.758052	-0.975182	-0.132308	-0.177525
833	3329213													9.560310	-0.441573	2.127822	0.220979	-0.747042	-0.626975	-0.049868	-0.650681	0.757712	-0.974003	-0.136173	-0.181041
834	3329380													9.534847	-0.476110	2.227103	0.226037	-0.746068	-0.626331	-0.050096	-0.651024	0.757402	-0.972830	-0.139824	-0.184530
835	3329546													9.624242	-0.493899	2.286165	0.231143	-0.745172	-0.625533	-0.050134	-0.651212	0.757238	-0.971627	-0.143670	-0.187882
836	3329713													9.582030	-0.489273	2.333823	0.236455	-0.744097	-0.624827	-0.050072	-0.651540	0.756960	-0.970351	-0.147701	-0.191318
837	3329880													9.496124	-0.464913	2.399271	0.242020	-0.742945	-0.624066	-0.050009	-0.651884	0.756668	-0.968982	-0.151920	-0.194923
838	3330046													9.519303	-0.468972	2.362602	0.247626	-0.741883	-0.623130	-0.049888	-0.652071	0.756514	-0.967571	-0.156246	-0.198481
839	3330213													9.557386	-0.485272	2.400209	0.253324	-0.740708	-0.622237	-0.049763	-0.652344	0.756287	-0.966101	-0.160621	-0.202115
840	3330380													9.552792	-0.471259	2.484287	0.259417	-0.739396	-0.621286	-0.049586	-0.652659	0.756028	-0.964492	-0.165320	-0.205974
841	3330546													9.475741	-0.491937	2.573414	0.265879	-0.737885	-0.620350	-0.049303	-0.653078	0.755684	-0.962745	-0.170335	-0.210019
842	3330713													9.454193	-0.471863	2.646794	0.272778	-0.736258	-0.619286	-0.048966	-0.653488	0.755352	-0.960830	-0.175720	-0.214309
843	3330880													9.487723	-0.511238	2.648991	0.279884	-0.734651	-0.618023	-0.048547	-0.653758	0.755145	-0.958805	-0.181350	-0.218642
844	3331046													9.454505	-0.484774	2.734356	0.287233	-0.732968	-0.616649	-0.048104	-0.654003	0.754961	-0.956652	-0.187186	-0.223110
845	3331213													9.430298	-0.451387	2.825394	0.294677	-0.731269	-0.615151	-0.047699	-0.654188	0.754826	-0.954406	-0.193088	-0.227655
846	3331380													9.456724	-0.472050	2.909201	0.302244	-0.729426	-0.613666	-0.047236	-0.654445	0.754632	-0.952060	-0.199096	-0.232258
847	3331546													9.408523	-0.515453	2.907781	0.310069	-0.727398	-0.612168	-0.046879	-0.654818	0.754331	-0.949558	-0.205197	-0.237138
848	3331713													9.327990	-0.449806	3.042167	0.318185	-0.725241	-0.610560	-0.046607	-0.655219	0.754000	-0.946882	-0.211455	-0.242282
849	3331880													9.294010	-0.390110	3.135458	0.326364	-0.723219	-0.608638	-0.046265	-0.655345	0.753911	-0.944111	-0.217891	-0.247341
850	3332046													9.214787	-0.394173	3.185803	0.334610	-0.721178	-0.606579	-0.045801	-0.655369	0.753919	-0.941243	-0.224487	-0.252324
851	3332213													9.252287	-0.457754	3.286932	0.342788	-0.719126	-0.604446	-0.045434	-0.655368	0.753942	-0.938313	-0.230980	-0.257325
852	3332380													9.257094	-0.462925	3.379775	0.351021	-0.716885	-0.602379	-0.045050	-0.655499	0.753851	-0.935283	-0.237481	-0.262390
853	3332546													9.215717	-0.432612	3.453643	0.359251	-0.714544	-0.600304	-0.044669	-0.655675	0.753720	-0.932171	-0.243960	-0.267470
854	3332713													9.181107	-0.453838	3.529987	0.367535	-0.712062	-0.598235	-0.044223	-0.655910	0.753542	-0.928958	-0.250498	-0.272559
855	3332880													9.104956	-0.480570	3.596362	0.375705	-0.709397	-0.596323	-0.043629	-0.656290	0.753246	-0.925712	-0.256982	-0.277522
856	3333046													9.050454	-0.461004	3.707476	0.383749	-0.706689	-0.594413	-0.042980	-0.656668	0.752954	-0.922437	-0.263398	-0.282369
857	3333213													9.016631	-0.456649	3.819350	0.391724	-0.703860	-0.592566	-0.042284	-0.657126	0.752594	-0.919111	-0.269753	-0.287174
