// Start Time: Unknown
// Update Rate: 60.0Hz
//Filter Profile: human (46.1)
// Option Flags: AHS Disabled ICC Disabled
// Firmware Version: 4.0.2
0	sampleTimeFine	Year	Month	Day	Second	UTC_Nano	UTC_Year	UTC_Month	UTC_Day	UTC_Hour	UTC_Minute	UTC_Second	UTC_Valid	Acc_X	Acc_Y	Acc_Z	Mat[1][1]	Mat[2][1]	Mat[3][1]	Mat[1][2]	Mat[2][2]	Mat[3][2]	Mat[1][3]	Mat[2][3]	Mat[3][3]
0	5034845													0.144146	-0.005879	-0.161953	-0.118278	-0.953890	0.275870	-0.024865	0.280578	0.959509	-0.992669	0.106629	-0.056905
1	5035012													9.728082	-0.212656	-1.130307	-0.118140	-0.953808	0.276212	-0.024973	0.280926	0.959404	-0.992683	0.106446	-0.057008
2	5035178													9.726486	-0.223459	-1.131934	-0.117456	-0.953614	0.277173	-0.024478	0.281800	0.959161	-0.992776	0.105875	-0.056441
3	5035345													9.707268	-0.221306	-1.135106	-0.116831	-0.953543	0.277681	-0.024113	0.282237	0.959042	-0.992859	0.105350	-0.055967
4	5035512													9.718384	-0.241535	-1.120935	-0.116408	-0.953778	0.277048	-0.023936	0.281558	0.959246	-0.992913	0.105033	-0.055606
5	5035678													9.727367	-0.255144	-1.116914	-0.116040	-0.953966	0.276555	-0.024067	0.281055	0.959390	-0.992953	0.104672	-0.055573
6	5035845													9.718766	-0.272643	-1.122802	-0.115683	-0.953953	0.276750	-0.024372	0.281262	0.959321	-0.992987	0.104232	-0.055787
7	5036012													9.722681	-0.286517	-1.123610	-0.115387	-0.954074	0.276457	-0.024778	0.280994	0.959390	-0.993012	0.103851	-0.056063
8	5036178													9.707610	-0.274631	-1.129287	-0.115108	-0.954116	0.276430	-0.025272	0.281002	0.959374	-0.993031	0.103446	-0.056458
9	5036345													9.716022	-0.255082	-1.117835	-0.114893	-0.954254	0.276042	-0.025805	0.280655	0.959462	-0.993043	0.103112	-0.056870
10	5036512													9.710144	-0.253267	-1.131054	-0.114706	-0.954401	0.275611	-0.026292	0.280262	0.959563	-0.993052	0.102821	-0.057241
11	5036678													9.728416	-0.233514	-1.114153	-0.114546	-0.954438	0.275550	-0.026766	0.280240	0.959557	-0.993057	0.102538	-0.057647
12	5036845													9.722191	-0.244547	-1.121904	-0.114389	-0.954417	0.275687	-0.027193	0.280412	0.959494	-0.993064	0.102259	-0.058029
13	5037012													9.714212	-0.239901	-1.117104	-0.114240	-0.954500	0.275462	-0.027613	0.280221	0.959538	-0.993069	0.102011	-0.058369
14	5037178													9.707549	-0.253236	-1.113624	-0.114117	-0.954517	0.275455	-0.027997	0.280246	0.959520	-0.993073	0.101785	-0.058704
15	5037345													9.713084	-0.250332	-1.116088	-0.114002	-0.954618	0.275152	-0.028357	0.279971	0.959590	-0.993076	0.101592	-0.058987
16	5037512													9.684216	-0.279446	-1.107732	-0.113973	-0.954659	0.275019	-0.028666	0.279868	0.959610	-0.993070	0.101486	-0.059264
17	5037679													9.708536	-0.270646	-1.114114	-0.113973	-0.954660	0.275016	-0.028969	0.279896	0.959593	-0.993061	0.101400	-0.059556
18	5037845													9.726399	-0.280206	-1.101049	-0.113991	-0.954665	0.274991	-0.029269	0.279902	0.959582	-0.993051	0.101335	-0.059849
19	5038012													9.724450	-0.275520	-1.082109	-0.113987	-0.954557	0.275370	-0.029552	0.280312	0.959454	-0.993043	0.101227	-0.060161
20	5038179													9.719376	-0.266522	-1.107282	-0.114016	-0.954536	0.275430	-0.029852	0.280404	0.959418	-0.993030	0.101167	-0.060465
21	5038345													9.736947	-0.286137	-1.123478	-0.114058	-0.954552	0.275358	-0.030113	0.280362	0.959422	-0.993018	0.101137	-0.060722
22	5038512													9.717271	-0.278632	-1.111502	-0.114089	-0.954534	0.275405	-0.030404	0.280440	0.959390	-0.993005	0.101082	-0.061017
23	5038679													9.677553	-0.278634	-1.096644	-0.114093	-0.954491	0.275554	-0.030770	0.280627	0.959323	-0.992994	0.100973	-0.061387
24	5038845													9.724659	-0.292587	-1.115007	-0.114162	-0.954521	0.275421	-0.031141	0.280535	0.959338	-0.992974	0.100944	-0.061751
25	5039012													9.710452	-0.284106	-1.114271	-0.114241	-0.954496	0.275475	-0.031455	0.280627	0.959301	-0.992955	0.100926	-0.062083
26	5039179													9.739758	-0.282717	-1.105792	-0.114320	-0.954464	0.275553	-0.031589	0.280724	0.959269	-0.992942	0.100959	-0.062243
27	5039345													9.738499	-0.305337	-1.121638	-0.114381	-0.954476	0.275485	-0.031657	0.280666	0.959283	-0.992932	0.101002	-0.062319
28	5039512													9.732545	-0.303420	-1.102828	-0.114451	-0.954460	0.275511	-0.031794	0.280710	0.959266	-0.992920	0.101029	-0.062474
29	5039679													9.717603	-0.278291	-1.118924	-0.114479	-0.954472	0.275457	-0.032042	0.280684	0.959265	-0.992909	0.100990	-0.062715
30	5039845													9.691107	-0.248974	-1.120518	-0.114509	-0.954502	0.275344	-0.032273	0.280595	0.959283	-0.992898	0.100961	-0.062936
31	5040012													9.687620	-0.243518	-1.114825	-0.114624	-0.954448	0.275483	-0.032429	0.280758	0.959231	-0.992879	0.101018	-0.063133
32	5040179													9.716327	-0.274888	-1.089909	-0.114782	-0.954400	0.275583	-0.032555	0.280881	0.959190	-0.992857	0.101126	-0.063311
33	5040345													9.710773	-0.304678	-1.129054	-0.114952	-0.954370	0.275617	-0.032683	0.280939	0.959169	-0.992833	0.101251	-0.063486
34	5040512													9.725724	-0.298171	-1.146196	-0.115139	-0.954341	0.275638	-0.032893	0.280994	0.959146	-0.992805	0.101368	-0.063745
35	5040679													9.719552	-0.313524	-1.160939	-0.115334	-0.954335	0.275577	-0.033115	0.280968	0.959146	-0.992775	0.101496	-0.064008
36	5040845													9.707277	-0.311581	-1.134431	-0.115575	-0.954373	0.275344	-0.033304	0.280769	0.959197	-0.992740	0.101690	-0.064234
37	5041012													9.708632	-0.299031	-1.142949	-0.115841	-0.954367	0.275254	-0.033474	0.280713	0.959208	-0.992704	0.101902	-0.064464
38	5041179													9.726939	-0.274014	-1.148509	-0.116142	-0.954368	0.275123	-0.033674	0.280622	0.959227	-0.992662	0.102142	-0.064729
39	5041345													9.733130	-0.277981	-1.147412	-0.116419	-0.954348	0.275076	-0.033828	0.280609	0.959226	-0.992624	0.102367	-0.064952
40	5041512													9.715267	-0.274701	-1.154751	-0.116679	-0.954300	0.275133	-0.033980	0.280698	0.959194	-0.992588	0.102569	-0.065178
41	5041679													9.700412	-0.283269	-1.165442	-0.116928	-0.954257	0.275175	-0.034170	0.280777	0.959165	-0.992552	0.102750	-0.065437
42	5041845													9.712205	-0.272150	-1.151138	-0.117184	-0.954183	0.275324	-0.034283	0.280955	0.959108	-0.992518	0.102953	-0.065636
43	5042012													9.722910	-0.294951	-1.162754	-0.117388	-0.954132	0.275411	-0.034289	0.281058	0.959078	-0.992494	0.103141	-0.065709
44	5042179													9.759063	-0.290093	-1.151409	-0.117579	-0.954066	0.275559	-0.034307	0.281221	0.959030	-0.992471	0.103308	-0.065797
45	5042345													9.761287	-0.310186	-1.163673	-0.117645	-0.954053	0.275576	-0.034346	0.281246	0.959021	-0.992462	0.103359	-0.065855
46	5042512													9.733047	-0.298095	-1.168358	-0.117637	-0.954029	0.275662	-0.034421	0.281340	0.958991	-0.992460	0.103324	-0.065935
47	5042679													9.697686	-0.301650	-1.172235	-0.117586	-0.954013	0.275741	-0.034506	0.281425	0.958963	-0.992463	0.103246	-0.066011
48	5042845													9.689909	-0.280479	-1.157508	-0.117546	-0.953967	0.275916	-0.034517	0.281599	0.958911	-0.992467	0.103193	-0.066029
49	5043012													9.716255	-0.297219	-1.156170	-0.117552	-0.953927	0.276051	-0.034466	0.281730	0.958875	-0.992468	0.103203	-0.065996
50	5043179													9.710565	-0.293392	-1.146582	-0.117500	-0.953953	0.275983	-0.034437	0.281655	0.958897	-0.992476	0.103167	-0.065946
51	5043345													9.739710	-0.289276	-1.167263	-0.117454	-0.953910	0.276152	-0.034427	0.281820	0.958849	-0.992481	0.103113	-0.065941
52	5043512													9.709804	-0.288857	-1.166927	-0.117379	-0.953868	0.276331	-0.034451	0.281998	0.958796	-0.992489	0.103023	-0.065962
53	5043679													9.737372	-0.280185	-1.149786	-0.117319	-0.953804	0.276574	-0.034491	0.282243	0.958723	-0.992495	0.102937	-0.066010
54	5043845													9.710754	-0.264035	-1.163973	-0.117280	-0.953794	0.276625	-0.034541	0.282297	0.958705	-0.992498	0.102882	-0.066053
55	5044012													9.705812	-0.273512	-1.166870	-0.117272	-0.953744	0.276802	-0.034603	0.282480	0.958649	-0.992497	0.102844	-0.066130
56	5044179													9.698255	-0.268552	-1.143453	-0.117257	-0.953762	0.276748	-0.034715	0.282436	0.958658	-0.992495	0.102802	-0.066227
57	5044345													9.720295	-0.279613	-1.159095	-0.117238	-0.953748	0.276802	-0.034848	0.282504	0.958633	-0.992492	0.102742	-0.066356
58	5044512													9.707078	-0.282660	-1.149915	-0.117225	-0.953752	0.276794	-0.034977	0.282507	0.958627	-0.992489	0.102693	-0.066476
59	5044679													9.714774	-0.292015	-1.160347	-0.117218	-0.953706	0.276955	-0.035122	0.282684	0.958570	-0.992485	0.102635	-0.066632
60	5044845													9.713963	-0.270812	-1.149533	-0.117241	-0.953721	0.276895	-0.035258	0.282639	0.958578	-0.992477	0.102621	-0.066763
61	5045012													9.716480	-0.281673	-1.146207	-0.117241	-0.953756	0.276775	-0.035428	0.282536	0.958602	-0.992471	0.102582	-0.066915
62	5045179													9.706234	-0.260512	-1.152229	-0.117285	-0.953683	0.277008	-0.035595	0.282791	0.958521	-0.992460	0.102560	-0.067114
63	5045345													9.705285	-0.239230	-1.158827	-0.117329	-0.953652	0.277095	-0.035781	0.282901	0.958482	-0.992448	0.102543	-0.067316
64	5045512													9.709655	-0.255101	-1.145398	-0.117384	-0.953626	0.277163	-0.035971	0.282992	0.958448	-0.992435	0.102537	-0.067521
65	5045679													9.712023	-0.270948	-1.145574	-0.117455	-0.953496	0.277578	-0.036152	0.283433	0.958310	-0.992420	0.102524	-0.067762
66	5045845													9.721919	-0.267360	-1.123972	-0.117482	-0.953480	0.277622	-0.036334	0.283498	0.958284	-0.992410	0.102494	-0.067950
67	5046012													9.706754	-0.256664	-1.160991	-0.117504	-0.953470	0.277645	-0.036481	0.283538	0.958267	-0.992402	0.102471	-0.068100
68	5046179													9.706993	-0.270909	-1.160976	-0.117578	-0.953395	0.277873	-0.036608	0.283785	0.958189	-0.992389	0.102489	-0.068269
69	5046345													9.689704	-0.283021	-1.144683	-0.117676	-0.953368	0.277925	-0.036730	0.283857	0.958163	-0.992373	0.102544	-0.068420
70	5046512													9.703356	-0.294093	-1.145752	-0.117794	-0.953322	0.278031	-0.036868	0.283985	0.958120	-0.992353	0.102610	-0.068599
71	5046679													9.700561	-0.287174	-1.151355	-0.117904	-0.953306	0.278041	-0.037076	0.284025	0.958100	-0.992333	0.102655	-0.068833
72	5046845													9.716105	-0.288114	-1.180868	-0.117979	-0.953322	0.277955	-0.037300	0.283967	0.958108	-0.992315	0.102669	-0.069061
73	5047012													9.732451	-0.272224	-1.151961	-0.118111	-0.953207	0.278291	-0.037440	0.284328	0.957996	-0.992294	0.102731	-0.069270
74	5047179													9.772966	-0.251876	-1.173869	-0.118173	-0.953224	0.278206	-0.037376	0.284241	0.958024	-0.992289	0.102814	-0.069218
75	5047345													9.743349	-0.280382	-1.171258	-0.118163	-0.953157	0.278440	-0.037277	0.284465	0.957962	-0.992294	0.102816	-0.069144
76	5047512													9.743534	-0.289430	-1.154743	-0.118061	-0.953157	0.278485	-0.037298	0.284505	0.957949	-0.992306	0.102710	-0.069140
77	5047679													9.698970	-0.279140	-1.150665	-0.117882	-0.953117	0.278696	-0.037429	0.284718	0.957880	-0.992322	0.102485	-0.069237
78	5047845													9.692254	-0.273553	-1.147179	-0.117673	-0.953135	0.278724	-0.037615	0.284751	0.957863	-0.992340	0.102230	-0.069359
79	5048012													9.685956	-0.262608	-1.152254	-0.117499	-0.953128	0.278819	-0.037765	0.284849	0.957828	-0.992355	0.102014	-0.069464
80	5048179													9.720496	-0.303612	-1.174093	-0.117329	-0.953140	0.278850	-0.037897	0.284882	0.957813	-0.992370	0.101812	-0.069546
81	5048345													9.721455	-0.296547	-1.167019	-0.117175	-0.953073	0.279147	-0.038066	0.285187	0.957716	-0.992382	0.101594	-0.069696
82	5048512													9.729737	-0.309829	-1.155947	-0.117016	-0.953101	0.279118	-0.038268	0.285167	0.957714	-0.992393	0.101386	-0.069842
83	5048679													9.710371	-0.303695	-1.147817	-0.116873	-0.953125	0.279095	-0.038469	0.285154	0.957709	-0.992401	0.101194	-0.069993
84	5048845													9.695455	-0.284761	-1.135101	-0.116767	-0.953139	0.279092	-0.038624	0.285159	0.957702	-0.992408	0.101048	-0.070111
85	5049012													9.701559	-0.289052	-1.146882	-0.116670	-0.953153	0.279083	-0.038763	0.285158	0.957696	-0.992414	0.100916	-0.070217
86	5049179													9.719652	-0.271895	-1.145406	-0.116613	-0.953128	0.279193	-0.038916	0.285281	0.957654	-0.992415	0.100809	-0.070359
87	5049345													9.698953	-0.268856	-1.127693	-0.116525	-0.953056	0.279475	-0.039035	0.285569	0.957563	-0.992420	0.100670	-0.070478
88	5049512													9.734798	-0.299794	-1.146905	-0.116424	-0.953011	0.279671	-0.039235	0.285779	0.957492	-0.992424	0.100502	-0.070663
89	5049679													9.704582	-0.268374	-1.136094	-0.116293	-0.953014	0.279713	-0.039408	0.285830	0.957470	-0.992433	0.100324	-0.070796
90	5049845													9.714449	-0.270958	-1.137041	-0.116123	-0.953010	0.279798	-0.039459	0.285908	0.957444	-0.992451	0.100140	-0.070806
91	5050012													9.711377	-0.298906	-1.122961	-0.116028	-0.953002	0.279866	-0.039493	0.285973	0.957424	-0.992460	0.100035	-0.070818
92	5050179													9.736017	-0.318150	-1.135063	-0.115905	-0.952995	0.279941	-0.039562	0.286046	0.957399	-0.992472	0.099892	-0.070856
93	5050345													9.739099	-0.313592	-1.105749	-0.115709	-0.953011	0.279968	-0.039713	0.286075	0.957384	-0.992489	0.099659	-0.070949
94	5050512													9.713095	-0.294800	-1.129245	-0.115469	-0.953050	0.279935	-0.039900	0.286042	0.957386	-0.992509	0.099379	-0.071056
95	5050679													9.709006	-0.288392	-1.133082	-0.115250	-0.953055	0.280005	-0.040015	0.286109	0.957361	-0.992530	0.099132	-0.071111
96	5050845													9.692492	-0.294783	-1.129901	-0.115047	-0.953113	0.279891	-0.040064	0.285985	0.957396	-0.992552	0.098932	-0.071087
97	5051012													9.711788	-0.281916	-1.109668	-0.114920	-0.953124	0.279909	-0.040070	0.285994	0.957393	-0.992566	0.098808	-0.071058
98	5051179													9.721408	-0.264436	-1.107909	-0.114796	-0.953090	0.280073	-0.040115	0.286155	0.957343	-0.992579	0.098664	-0.071082
99	5051345													9.721150	-0.253900	-1.099129	-0.114647	-0.953072	0.280196	-0.040154	0.286271	0.957307	-0.992594	0.098501	-0.071090
100	5051512													9.729465	-0.245149	-1.110237	-0.114473	-0.953047	0.280352	-0.040143	0.286414	0.957265	-0.992615	0.098327	-0.071045
101	5051679													9.714488	-0.248761	-1.101236	-0.114369	-0.953049	0.280388	-0.040086	0.286438	0.957260	-0.992629	0.098242	-0.070963
102	5051845													9.701124	-0.266856	-1.105960	-0.114297	-0.952949	0.280758	-0.040081	0.286803	0.957151	-0.992638	0.098146	-0.070976
103	5052012													9.695416	-0.295281	-1.093441	-0.114239	-0.952826	0.281198	-0.040125	0.287245	0.957016	-0.992643	0.098046	-0.071046
104	5052179													9.719007	-0.289305	-1.094763	-0.114200	-0.952705	0.281622	-0.040221	0.287678	0.956882	-0.992643	0.097949	-0.071172
105	5052345													9.739228	-0.308488	-1.099429	-0.114176	-0.952628	0.281894	-0.040369	0.287964	0.956790	-0.992640	0.097863	-0.071335
106	5052512													9.736039	-0.318969	-1.103492	-0.114118	-0.952603	0.282001	-0.040468	0.288077	0.956752	-0.992643	0.097771	-0.071425
107	5052679													9.713679	-0.333458	-1.125716	-0.114030	-0.952587	0.282090	-0.040600	0.288173	0.956717	-0.992647	0.097642	-0.071535
108	5052845													9.714692	-0.315498	-1.108901	-0.113953	-0.952667	0.281853	-0.040746	0.287943	0.956780	-0.992650	0.097544	-0.071630
109	5053012													9.716979	-0.281303	-1.126284	-0.113873	-0.952687	0.281817	-0.040904	0.287918	0.956781	-0.992653	0.097424	-0.071754
110	5053179													9.710777	-0.263310	-1.092117	-0.113789	-0.952716	0.281751	-0.041104	0.287865	0.956788	-0.992654	0.097291	-0.071917
111	5053345													9.709082	-0.250022	-1.101189	-0.113762	-0.952714	0.281768	-0.041292	0.287898	0.956770	-0.992650	0.097209	-0.072092
112	5053512													9.716944	-0.244888	-1.092715	-0.113747	-0.952692	0.281850	-0.041489	0.287999	0.956732	-0.992643	0.097132	-0.072285
113	5053679													9.715212	-0.269740	-1.089774	-0.113773	-0.952664	0.281935	-0.041673	0.288103	0.956692	-0.992632	0.097096	-0.072479
114	5053845													9.719851	-0.289316	-1.097739	-0.113803	-0.952633	0.282027	-0.041794	0.288210	0.956655	-0.992624	0.097083	-0.072614
115	5054012													9.733624	-0.280203	-1.105427	-0.113809	-0.952526	0.282386	-0.041888	0.288581	0.956539	-0.992619	0.097034	-0.072743
116	5054179													9.701113	-0.299861	-1.101154	-0.113792	-0.952481	0.282544	-0.041937	0.288742	0.956488	-0.992619	0.096992	-0.072801
117	5054346													9.715783	-0.282338	-1.102083	-0.113831	-0.952434	0.282685	-0.041979	0.288892	0.956441	-0.992613	0.097006	-0.072868
118	5054512													9.719907	-0.303148	-1.116495	-0.113878	-0.952392	0.282809	-0.041972	0.289019	0.956403	-0.992608	0.097043	-0.072887
119	5054679													9.730044	-0.297748	-1.095017	-0.113944	-0.952375	0.282839	-0.042006	0.289057	0.956390	-0.992599	0.097094	-0.072942
120	5054846													9.695985	-0.289101	-1.123165	-0.113932	-0.952344	0.282950	-0.042116	0.289178	0.956348	-0.992595	0.097042	-0.073056
121	5055012													9.740066	-0.289967	-1.116348	-0.113929	-0.952315	0.283047	-0.042268	0.289291	0.956308	-0.992589	0.096987	-0.073211
122	5055179													9.716797	-0.278093	-1.124270	-0.113954	-0.952284	0.283141	-0.042366	0.289396	0.956271	-0.992582	0.096975	-0.073323
123	5055346													9.739150	-0.266470	-1.086391	-0.114011	-0.952252	0.283227	-0.042228	0.289473	0.956254	-0.992582	0.097064	-0.073214
124	5055512													9.718280	-0.307100	-1.101261	-0.114016	-0.952234	0.283286	-0.042037	0.289514	0.956250	-0.992589	0.097120	-0.073038
125	5055679													9.732033	-0.277954	-1.096923	-0.114012	-0.952213	0.283358	-0.041971	0.289580	0.956233	-0.992592	0.097129	-0.072981
126	5055846													9.722034	-0.271620	-1.077497	-0.113954	-0.952187	0.283470	-0.041957	0.289687	0.956202	-0.992600	0.097070	-0.072962
127	5056012													9.691082	-0.248922	-1.126452	-0.113889	-0.952174	0.283539	-0.041989	0.289754	0.956180	-0.992606	0.096992	-0.072981
128	5056179													9.698306	-0.253782	-1.101050	-0.113843	-0.952121	0.283733	-0.041953	0.289942	0.956124	-0.992613	0.096944	-0.072952
129	5056346													9.715579	-0.295692	-1.112040	-0.113811	-0.952022	0.284079	-0.041895	0.290282	0.956024	-0.992619	0.096904	-0.072922
130	5056512													9.727678	-0.315239	-1.100324	-0.113783	-0.951957	0.284310	-0.041926	0.290514	0.955952	-0.992621	0.096851	-0.072967
131	5056679													9.732993	-0.323304	-1.105796	-0.113752	-0.951925	0.284427	-0.042026	0.290639	0.955909	-0.992620	0.096783	-0.073067
132	5056846													9.717330	-0.317556	-1.108123	-0.113717	-0.951918	0.284464	-0.042104	0.290682	0.955893	-0.992621	0.096724	-0.073136
133	5057012													9.700340	-0.311752	-1.127432	-0.113742	-0.951924	0.284435	-0.042162	0.290660	0.955897	-0.992615	0.096733	-0.073196
134	5057179													9.702867	-0.300256	-1.130006	-0.113824	-0.951963	0.284271	-0.042225	0.290508	0.955941	-0.992603	0.096806	-0.073264
135	5057346													9.710800	-0.288185	-1.102772	-0.113917	-0.951959	0.284248	-0.042323	0.290501	0.955938	-0.992588	0.096868	-0.073383
136	5057512													9.742661	-0.286969	-1.114511	-0.113978	-0.951986	0.284134	-0.042372	0.290395	0.955968	-0.992579	0.096920	-0.073436
137	5057679													9.711031	-0.257862	-1.104612	-0.113989	-0.951979	0.284151	-0.042416	0.290418	0.955959	-0.992576	0.096916	-0.073484
138	5057846													9.707369	-0.279133	-1.125613	-0.114004	-0.951979	0.284146	-0.042534	0.290425	0.955952	-0.992569	0.096896	-0.073601
139	5058012													9.700730	-0.252566	-1.141146	-0.114023	-0.951989	0.284105	-0.042586	0.290391	0.955960	-0.992565	0.096903	-0.073652
140	5058179													9.712342	-0.287798	-1.128179	-0.114084	-0.951926	0.284292	-0.042505	0.290575	0.955908	-0.992561	0.096970	-0.073611
141	5058346													9.722795	-0.297383	-1.103478	-0.114209	-0.951865	0.284446	-0.042405	0.290729	0.955865	-0.992551	0.097106	-0.073568
142	5058512													9.739536	-0.305576	-1.112690	-0.114287	-0.951819	0.284569	-0.042335	0.290852	0.955831	-0.992545	0.097191	-0.073536
143	5058679													9.730066	-0.320757	-1.103521	-0.114290	-0.951763	0.284756	-0.042339	0.291040	0.955774	-0.992545	0.097179	-0.073560
144	5058846													9.725939	-0.302483	-1.117293	-0.114263	-0.951719	0.284913	-0.042305	0.291193	0.955728	-0.992549	0.097152	-0.073535
145	5059012													9.720175	-0.293306	-1.135421	-0.114185	-0.951726	0.284920	-0.042232	0.291187	0.955734	-0.992561	0.097098	-0.073442
146	5059179													9.727849	-0.286891	-1.118391	-0.114121	-0.951726	0.284946	-0.042093	0.291194	0.955737	-0.992575	0.097076	-0.073292
147	5059346													9.718512	-0.282088	-1.119936	-0.114035	-0.951737	0.284942	-0.041917	0.291167	0.955754	-0.992592	0.097046	-0.073098
148	5059512													9.712893	-0.283865	-1.142588	-0.113960	-0.951722	0.285022	-0.041789	0.291229	0.955740	-0.992606	0.097006	-0.072960
149	5059679													9.726716	-0.259883	-1.112139	-0.113898	-0.951703	0.285112	-0.041670	0.291304	0.955723	-0.992618	0.096974	-0.072836
150	5059846													9.742189	-0.239917	-1.118273	-0.113841	-0.951653	0.285302	-0.041571	0.291480	0.955673	-0.992629	0.096934	-0.072743
151	5060012													9.732945	-0.238158	-1.092395	-0.113751	-0.951577	0.285590	-0.041492	0.291755	0.955593	-0.992643	0.096850	-0.072670
152	5060179													9.714899	-0.262767	-1.106085	-0.113634	-0.951511	0.285858	-0.041457	0.292012	0.955516	-0.992657	0.096729	-0.072630
153	5060346													9.716578	-0.276754	-1.116820	-0.113551	-0.951467	0.286038	-0.041473	0.292188	0.955461	-0.992666	0.096631	-0.072638
154	5060512													9.721515	-0.283076	-1.123754	-0.113465	-0.951417	0.286237	-0.041451	0.292380	0.955404	-0.992677	0.096540	-0.072612
155	5060679													9.723282	-0.311477	-1.126498	-0.113405	-0.951380	0.286382	-0.041443	0.292520	0.955361	-0.992684	0.096474	-0.072602
156	5060846													9.711670	-0.305551	-1.101733	-0.113324	-0.951364	0.286467	-0.041422	0.292597	0.955338	-0.992694	0.096397	-0.072566
157	5061012													9.700573	-0.293135	-1.085207	-0.113292	-0.951389	0.286400	-0.041429	0.292528	0.955359	-0.992698	0.096369	-0.072556
158	5061179													9.718733	-0.268369	-1.108374	-0.113286	-0.951372	0.286456	-0.041462	0.292587	0.955339	-0.992697	0.096349	-0.072591
159	5061346													9.716872	-0.259346	-1.104195	-0.113329	-0.951396	0.286361	-0.041513	0.292500	0.955364	-0.992690	0.096382	-0.072644
160	5061512													9.716659	-0.244487	-1.107916	-0.113373	-0.951371	0.286426	-0.041524	0.292570	0.955342	-0.992684	0.096416	-0.072675
161	5061679													9.716962	-0.263624	-1.090503	-0.113422	-0.951369	0.286412	-0.041556	0.292562	0.955343	-0.992677	0.096454	-0.072718
162	5061846													9.730170	-0.248872	-1.098128	-0.113476	-0.951346	0.286468	-0.041597	0.292627	0.955321	-0.992670	0.096489	-0.072780
163	5062012													9.710851	-0.260137	-1.113048	-0.113492	-0.951323	0.286539	-0.041588	0.292698	0.955300	-0.992668	0.096502	-0.072783
164	5062179													9.702471	-0.259050	-1.114371	-0.113517	-0.951304	0.286591	-0.041555	0.292749	0.955286	-0.992667	0.096532	-0.072763
165	5062346													9.719681	-0.269217	-1.117175	-0.113555	-0.951267	0.286699	-0.041485	0.292853	0.955257	-0.992665	0.096581	-0.072718
166	5062512													9.722427	-0.274481	-1.079332	-0.113615	-0.951221	0.286829	-0.041365	0.292977	0.955224	-0.992663	0.096664	-0.072634
167	5062679													9.739228	-0.267196	-1.106125	-0.113668	-0.951192	0.286903	-0.041262	0.293045	0.955208	-0.992662	0.096738	-0.072558
168	5062846													9.721616	-0.255009	-1.109940	-0.113701	-0.951139	0.287067	-0.041179	0.293204	0.955163	-0.992661	0.096781	-0.072504
169	5063012													9.703344	-0.259286	-1.119449	-0.113764	-0.951118	0.287110	-0.041108	0.293245	0.955153	-0.992657	0.096859	-0.072459
170	5063179													9.713125	-0.266946	-1.116803	-0.113874	-0.951079	0.287194	-0.041019	0.293329	0.955131	-0.992648	0.096984	-0.072414
171	5063346													9.727456	-0.273197	-1.104662	-0.113949	-0.951046	0.287274	-0.040995	0.293413	0.955107	-0.992640	0.097057	-0.072422
172	5063512													9.715874	-0.278521	-1.119907	-0.113998	-0.951003	0.287397	-0.041050	0.293544	0.955064	-0.992633	0.097078	-0.072502
173	5063679													9.749170	-0.280787	-1.108138	-0.114011	-0.951005	0.287385	-0.041130	0.293542	0.955061	-0.992628	0.097067	-0.072582
174	5063846													9.712485	-0.251661	-1.129073	-0.113991	-0.951019	0.287348	-0.041135	0.293503	0.955073	-0.992630	0.097050	-0.072577
175	5064012													9.727931	-0.250253	-1.107934	-0.113961	-0.951005	0.287407	-0.040921	0.293539	0.955071	-0.992642	0.097080	-0.072368
176	5064179													9.725632	-0.257426	-1.117229	-0.113956	-0.951023	0.287347	-0.040736	0.293461	0.955103	-0.992650	0.097134	-0.072182
177	5064346													9.732059	-0.238293	-1.102956	-0.113894	-0.951069	0.287220	-0.040728	0.293328	0.955144	-0.992658	0.097087	-0.072144
178	5064512													9.728046	-0.229682	-1.108152	-0.113769	-0.951097	0.287179	-0.040785	0.293283	0.955155	-0.992670	0.096954	-0.072157
179	5064679													9.706031	-0.220206	-1.091120	-0.113606	-0.951091	0.287264	-0.040887	0.293366	0.955125	-0.992684	0.096762	-0.072215
180	5064846													9.699711	-0.240099	-1.130185	-0.113441	-0.951100	0.287296	-0.040942	0.293392	0.955115	-0.992701	0.096587	-0.072222
181	5065012													9.725404	-0.293615	-1.116403	-0.113302	-0.951107	0.287331	-0.041000	0.293422	0.955103	-0.992714	0.096435	-0.072240
182	5065179													9.733872	-0.294658	-1.113023	-0.113184	-0.951148	0.287239	-0.041088	0.293330	0.955128	-0.992724	0.096303	-0.072281
183	5065346													9.719823	-0.293968	-1.114163	-0.113029	-0.951165	0.287245	-0.041235	0.293339	0.955119	-0.992736	0.096111	-0.072377
184	5065512													9.716583	-0.279853	-1.119757	-0.112937	-0.951218	0.287104	-0.041375	0.293204	0.955154	-0.992740	0.095994	-0.072471
185	5065679													9.705645	-0.258517	-1.102024	-0.112912	-0.951270	0.286942	-0.041491	0.293051	0.955196	-0.992738	0.095947	-0.072558
186	5065846													9.699523	-0.266788	-1.107744	-0.112931	-0.951296	0.286850	-0.041603	0.292971	0.955216	-0.992731	0.095940	-0.072662
187	5066012													9.716062	-0.272009	-1.097509	-0.112978	-0.951309	0.286789	-0.041711	0.292923	0.955226	-0.992722	0.095958	-0.072774
188	5066179													9.753663	-0.256091	-1.084780	-0.112991	-0.951348	0.286654	-0.041812	0.292799	0.955260	-0.992716	0.095950	-0.072861
189	5066346													9.723387	-0.265552	-1.095772	-0.112950	-0.951363	0.286620	-0.041899	0.292770	0.955265	-0.992717	0.095888	-0.072929
190	5066512													9.703284	-0.279860	-1.105961	-0.112917	-0.951392	0.286535	-0.042041	0.292695	0.955281	-0.992715	0.095822	-0.073048
191	5066679													9.693978	-0.267351	-1.088789	-0.112922	-0.951384	0.286559	-0.042082	0.292725	0.955270	-0.992712	0.095812	-0.073092
192	5066846													9.713453	-0.268126	-1.075759	-0.112928	-0.951354	0.286660	-0.042049	0.292822	0.955242	-0.992713	0.095819	-0.073072
193	5067012													9.740480	-0.282270	-1.076088	-0.112958	-0.951355	0.286643	-0.042001	0.292803	0.955250	-0.992712	0.095864	-0.073032
194	5067179													9.751046	-0.299110	-1.086988	-0.112961	-0.951311	0.286788	-0.041989	0.292948	0.955206	-0.992712	0.095859	-0.073036
195	5067346													9.738800	-0.308731	-1.090352	-0.112909	-0.951300	0.286843	-0.042026	0.293003	0.955187	-0.992716	0.095794	-0.073062
196	5067512													9.711450	-0.292922	-1.083241	-0.112832	-0.951319	0.286813	-0.042050	0.292970	0.955196	-0.992724	0.095716	-0.073060
197	5067679													9.684402	-0.279202	-1.100235	-0.112787	-0.951309	0.286861	-0.041978	0.293008	0.955188	-0.992732	0.095691	-0.072981
198	5068012													9.709400	-0.267540	-1.108245	-0.112787	-0.951333	0.286782	-0.041882	0.292919	0.955220	-0.992736	0.095725	-0.072881
199	5068179													9.716041	-0.284359	-1.083984	-0.112821	-0.951313	0.286836	-0.041763	0.292964	0.955211	-0.992737	0.095789	-0.072782
200	5068346													9.729142	-0.279062	-1.090389	-0.112890	-0.951296	0.286864	-0.041687	0.292990	0.955206	-0.992733	0.095875	-0.072732
201	5068512													9.708949	-0.260155	-1.092996	-0.112986	-0.951267	0.286922	-0.041592	0.293046	0.955193	-0.992726	0.095990	-0.072675
202	5068679													9.716427	-0.239699	-1.079496	-0.113068	-0.951229	0.287016	-0.041489	0.293136	0.955170	-0.992721	0.096091	-0.072610
203	5068846													9.715546	-0.261231	-1.094018	-0.113229	-0.951162	0.287177	-0.041396	0.293301	0.955123	-0.992706	0.096259	-0.072585
204	5069012													9.704711	-0.273293	-1.112954	-0.113404	-0.951055	0.287462	-0.041290	0.293590	0.955039	-0.992691	0.096436	-0.072564
205	5069179													9.717103	-0.276958	-1.112821	-0.113564	-0.951024	0.287502	-0.041239	0.293637	0.955027	-0.992674	0.096601	-0.072566
206	5069346													9.724356	-0.285101	-1.093886	-0.113728	-0.950979	0.287585	-0.041214	0.293729	0.955000	-0.992657	0.096757	-0.072599
207	5069512													9.725156	-0.308883	-1.114346	-0.113881	-0.950917	0.287730	-0.041192	0.293885	0.954953	-0.992640	0.096899	-0.072638
208	5069679													9.718003	-0.306814	-1.109472	-0.114003	-0.950934	0.287625	-0.041169	0.293786	0.954984	-0.992627	0.097030	-0.072641
209	5069846													9.719398	-0.296198	-1.111255	-0.114122	-0.950911	0.287653	-0.041169	0.293823	0.954973	-0.992613	0.097141	-0.072679
210	5070012													9.719494	-0.296534	-1.128214	-0.114245	-0.950943	0.287499	-0.041160	0.293676	0.955018	-0.992600	0.097273	-0.072692
211	5070179													9.725746	-0.274992	-1.130357	-0.114363	-0.950957	0.287406	-0.041136	0.293589	0.955046	-0.992587	0.097399	-0.072695
212	5070346													9.714524	-0.258338	-1.117007	-0.114479	-0.950966	0.287330	-0.041095	0.293517	0.955070	-0.992575	0.097528	-0.072681
213	5070512													9.734229	-0.262143	-1.134351	-0.114570	-0.950987	0.287225	-0.041047	0.293413	0.955104	-0.992567	0.097636	-0.072651
214	5070679													9.742947	-0.258209	-1.127428	-0.114632	-0.950959	0.287290	-0.040992	0.293479	0.955086	-0.992562	0.097707	-0.072623
215	5070846													9.723669	-0.237467	-1.132148	-0.114635	-0.950912	0.287445	-0.040905	0.293626	0.955045	-0.992565	0.097724	-0.072557
216	5071013													9.706481	-0.244044	-1.118191	-0.114683	-0.950872	0.287558	-0.040820	0.293735	0.955015	-0.992563	0.097786	-0.072501
217	5071179													9.707593	-0.268802	-1.127907	-0.114782	-0.950824	0.287679	-0.040719	0.293853	0.954983	-0.992556	0.097901	-0.072446
218	5071346													9.726218	-0.282750	-1.120647	-0.114868	-0.950758	0.287863	-0.040642	0.294036	0.954930	-0.992549	0.097991	-0.072416
219	5071513													9.692992	-0.268820	-1.123297	-0.114951	-0.950706	0.288001	-0.040619	0.294179	0.954887	-0.992540	0.098067	-0.072433
220	5071679													9.721003	-0.297320	-1.152871	-0.115060	-0.950671	0.288072	-0.040616	0.294258	0.954863	-0.992528	0.098166	-0.072470
221	5071846													9.721311	-0.280641	-1.105854	-0.115191	-0.950667	0.288035	-0.040608	0.294229	0.954872	-0.992513	0.098296	-0.072498
222	5072013													9.746706	-0.253217	-1.128923	-0.115333	-0.950641	0.288064	-0.040402	0.294249	0.954875	-0.992505	0.098490	-0.072345
223	5072179													9.760045	-0.285059	-1.136404	-0.115425	-0.950620	0.288094	-0.040139	0.294259	0.954882	-0.992505	0.098653	-0.072121
224	5072346													9.745086	-0.280360	-1.131272	-0.115448	-0.950621	0.288083	-0.039970	0.294233	0.954897	-0.992509	0.098726	-0.071965
225	5072513													9.684332	-0.255195	-1.132738	-0.115408	-0.950607	0.288145	-0.039899	0.294286	0.954884	-0.992517	0.098704	-0.071891
226	5072679													9.691749	-0.258910	-1.131765	-0.115394	-0.950630	0.288073	-0.039951	0.294218	0.954903	-0.992516	0.098681	-0.071929
227	5072846													9.707711	-0.253432	-1.130448	-0.115403	-0.950627	0.288082	-0.039972	0.294229	0.954899	-0.992514	0.098683	-0.071954
228	5073013													9.726365	-0.279080	-1.116188	-0.115420	-0.950608	0.288138	-0.039953	0.294284	0.954882	-0.992513	0.098701	-0.071945
229	5073179													9.738203	-0.280360	-1.137416	-0.115438	-0.950608	0.288130	-0.039919	0.294274	0.954887	-0.992512	0.098728	-0.071918
230	5073346													9.717925	-0.279341	-1.134069	-0.115415	-0.950618	0.288105	-0.039930	0.294249	0.954894	-0.992515	0.098705	-0.071919
231	5073513													9.720529	-0.288085	-1.136966	-0.115400	-0.950638	0.288047	-0.039926	0.294189	0.954913	-0.992516	0.098697	-0.071905
232	5073679													9.705260	-0.269260	-1.123304	-0.115422	-0.950647	0.288007	-0.039925	0.294151	0.954925	-0.992514	0.098721	-0.071906
233	5073846													9.689734	-0.259647	-1.120072	-0.115523	-0.950662	0.287919	-0.039915	0.294068	0.954951	-0.992502	0.098827	-0.071917
234	5074013													9.695257	-0.256557	-1.135442	-0.115669	-0.950675	0.287814	-0.039925	0.293974	0.954979	-0.992485	0.098971	-0.071959
235	5074179													9.711850	-0.255587	-1.126599	-0.115848	-0.950671	0.287758	-0.039937	0.293932	0.954992	-0.992464	0.099141	-0.072019
236	5074346													9.681709	-0.279356	-1.128190	-0.116048	-0.950635	0.287795	-0.039937	0.293984	0.954976	-0.992440	0.099329	-0.072081
237	5074513													9.720800	-0.285351	-1.133742	-0.116271	-0.950620	0.287754	-0.040037	0.293970	0.954976	-0.992410	0.099515	-0.072240
238	5074679													9.695072	-0.258288	-1.158581	-0.116481	-0.950605	0.287720	-0.040016	0.293949	0.954983	-0.992386	0.099724	-0.072279
239	5074846													9.733414	-0.298138	-1.133540	-0.116658	-0.950589	0.287702	-0.039868	0.293928	0.954996	-0.992372	0.099937	-0.072187
240	5075013													9.750182	-0.299958	-1.133339	-0.116820	-0.950553	0.287752	-0.039720	0.293976	0.954987	-0.992358	0.100132	-0.072098
241	5075179													9.741410	-0.303892	-1.148138	-0.116885	-0.950588	0.287611	-0.039656	0.293833	0.955034	-0.992353	0.100223	-0.072041
242	5075346													9.724505	-0.272668	-1.137434	-0.116931	-0.950609	0.287523	-0.039643	0.293746	0.955061	-0.992348	0.100278	-0.072033
243	5075513													9.724660	-0.274420	-1.134348	-0.116944	-0.950633	0.287438	-0.039651	0.293662	0.955086	-0.992347	0.100295	-0.072035
244	5075679													9.703387	-0.256840	-1.172832	-0.116947	-0.950626	0.287461	-0.039552	0.293676	0.955086	-0.992350	0.100324	-0.071944
245	5075846													9.708663	-0.277557	-1.151356	-0.116984	-0.950619	0.287468	-0.039410	0.293671	0.955094	-0.992352	0.100402	-0.071819
246	5076013													9.726773	-0.288282	-1.126209	-0.116996	-0.950638	0.287400	-0.039290	0.293591	0.955123	-0.992355	0.100453	-0.071699
247	5076179													9.737945	-0.277925	-1.159868	-0.116964	-0.950680	0.287274	-0.039189	0.293452	0.955170	-0.992363	0.100462	-0.071580
248	5076346													9.728060	-0.246655	-1.158498	-0.116920	-0.950689	0.287265	-0.039071	0.293428	0.955183	-0.992373	0.100456	-0.071452
249	5076513													9.723526	-0.237431	-1.151038	-0.116891	-0.950672	0.287333	-0.038938	0.293480	0.955172	-0.992381	0.100463	-0.071322
250	5076679													9.697068	-0.229067	-1.153434	-0.116883	-0.950623	0.287497	-0.038811	0.293632	0.955130	-0.992387	0.100480	-0.071215
251	5076846													9.696207	-0.245756	-1.143759	-0.116884	-0.950567	0.287680	-0.038755	0.293810	0.955078	-0.992389	0.100485	-0.071181
252	5077013													9.723974	-0.262331	-1.137111	-0.116956	-0.950514	0.287827	-0.038727	0.293960	0.955033	-0.992382	0.100550	-0.071191
253	5077179													9.730899	-0.288867	-1.155275	-0.117010	-0.950454	0.288005	-0.038730	0.294143	0.954976	-0.992375	0.100587	-0.071229
254	5077346													9.730087	-0.291422	-1.129105	-0.117020	-0.950437	0.288054	-0.038714	0.294192	0.954962	-0.992375	0.100598	-0.071222
255	5077513													9.742205	-0.309328	-1.128783	-0.116996	-0.950467	0.287965	-0.038696	0.294099	0.954991	-0.992378	0.100587	-0.071188
256	5077679													9.728848	-0.284106	-1.134547	-0.116912	-0.950525	0.287807	-0.038689	0.293934	0.955042	-0.992388	0.100521	-0.071139
257	5077846													9.717956	-0.276674	-1.137392	-0.116808	-0.950589	0.287639	-0.038719	0.293760	0.955095	-0.992400	0.100425	-0.071119
258	5078013													9.707438	-0.243566	-1.140076	-0.116697	-0.950653	0.287473	-0.038717	0.293585	0.955148	-0.992413	0.100333	-0.071067
259	5078179													9.720949	-0.257793	-1.140173	-0.116599	-0.950714	0.287310	-0.038738	0.293416	0.955200	-0.992423	0.100246	-0.071041
260	5078346													9.683722	-0.235667	-1.135571	-0.116505	-0.950750	0.287229	-0.038822	0.293337	0.955221	-0.992431	0.100137	-0.071085
261	5078513													9.718511	-0.275314	-1.122837	-0.116412	-0.950768	0.287209	-0.038910	0.293319	0.955223	-0.992439	0.100024	-0.071140
262	5078679													9.699159	-0.277504	-1.123587	-0.116383	-0.950760	0.287247	-0.038964	0.293360	0.955208	-0.992440	0.099977	-0.071188
263	5078846													9.721985	-0.260055	-1.151789	-0.116399	-0.950767	0.287216	-0.038913	0.293325	0.955221	-0.992440	0.100011	-0.071140
264	5079013													9.731958	-0.281408	-1.114936	-0.116404	-0.950745	0.287286	-0.038684	0.293373	0.955215	-0.992448	0.100078	-0.070928
265	5079179													9.726297	-0.297412	-1.127056	-0.116375	-0.950754	0.287269	-0.038503	0.293336	0.955234	-0.992459	0.100105	-0.070744
266	5079346													9.706653	-0.292394	-1.148993	-0.116286	-0.950778	0.287225	-0.038406	0.293275	0.955256	-0.992473	0.100052	-0.070619
267	5079513													9.701645	-0.249648	-1.125926	-0.116175	-0.950800	0.287198	-0.038315	0.293230	0.955274	-0.992489	0.099975	-0.070496
268	5079679													9.702626	-0.254919	-1.116596	-0.116087	-0.950807	0.287210	-0.038210	0.293226	0.955279	-0.992504	0.099922	-0.070370
269	5079846													9.721193	-0.272493	-1.128215	-0.116046	-0.950799	0.287255	-0.038067	0.293254	0.955276	-0.992514	0.099921	-0.070225
270	5080013													9.736414	-0.292555	-1.134462	-0.115964	-0.950816	0.287232	-0.037969	0.293215	0.955292	-0.992527	0.099874	-0.070104
271	5080179													9.735202	-0.290316	-1.136197	-0.115874	-0.950823	0.287244	-0.037934	0.293217	0.955293	-0.992539	0.099797	-0.070045
272	5080346													9.714002	-0.285903	-1.129999	-0.115770	-0.950870	0.287131	-0.037877	0.293091	0.955334	-0.992554	0.099724	-0.069948
273	5080513													9.711637	-0.291389	-1.132917	-0.115671	-0.950913	0.287028	-0.037807	0.292973	0.955373	-0.992568	0.099657	-0.069840
274	5080679													9.701253	-0.286597	-1.120343	-0.115626	-0.950972	0.286849	-0.037714	0.292780	0.955436	-0.992577	0.099656	-0.069718
275	5080846													9.710121	-0.261160	-1.144551	-0.115649	-0.951016	0.286695	-0.037649	0.292621	0.955487	-0.992576	0.099707	-0.069646
276	5081013													9.728386	-0.246401	-1.126027	-0.115643	-0.951070	0.286520	-0.037587	0.292438	0.955545	-0.992579	0.099733	-0.069566
277	5081179													9.734218	-0.268083	-1.120590	-0.115632	-0.951094	0.286442	-0.037558	0.292356	0.955572	-0.992582	0.099737	-0.069527
278	5081346													9.736533	-0.241511	-1.113797	-0.115546	-0.951106	0.286437	-0.037591	0.292349	0.955573	-0.992591	0.099645	-0.069533
279	5081513													9.724684	-0.236387	-1.125876	-0.115444	-0.951110	0.286465	-0.037503	0.292361	0.955572	-0.992606	0.099572	-0.069421
280	5081679													9.711129	-0.257766	-1.146160	-0.115362	-0.951106	0.286513	-0.037341	0.292387	0.955571	-0.992621	0.099538	-0.069246
281	5081846													9.729433	-0.270140	-1.121027	-0.115314	-0.951102	0.286545	-0.037203	0.292402	0.955571	-0.992632	0.099530	-0.069101
282	5082013													9.736547	-0.266406	-1.125071	-0.115192	-0.951092	0.286627	-0.037126	0.292468	0.955554	-0.992649	0.099431	-0.069000
283	5082179													9.731484	-0.275927	-1.116023	-0.115032	-0.951111	0.286627	-0.037120	0.292457	0.955558	-0.992668	0.099280	-0.068947
284	5082346													9.711740	-0.263209	-1.102326	-0.114853	-0.951146	0.286584	-0.037092	0.292398	0.955577	-0.992690	0.099121	-0.068862
285	5082513													9.704919	-0.261249	-1.112476	-0.114702	-0.951191	0.286495	-0.036995	0.292288	0.955615	-0.992711	0.099012	-0.068715
286	5082679													9.699951	-0.264747	-1.104590	-0.114612	-0.951217	0.286443	-0.036883	0.292219	0.955640	-0.992725	0.098963	-0.068576
287	5082846													9.704829	-0.247044	-1.112987	-0.114520	-0.951242	0.286399	-0.036790	0.292159	0.955662	-0.992740	0.098906	-0.068454
288	5083013													9.717989	-0.225237	-1.115691	-0.114443	-0.951255	0.286385	-0.036718	0.292133	0.955673	-0.992751	0.098854	-0.068361
289	5083179													9.730151	-0.215313	-1.111496	-0.114377	-0.951262	0.286389	-0.036622	0.292123	0.955679	-0.992762	0.098819	-0.068250
290	5083346													9.730442	-0.216618	-1.092496	-0.114328	-0.951257	0.286424	-0.036515	0.292144	0.955677	-0.992772	0.098802	-0.068135
291	5083513													9.704861	-0.224586	-1.107187	-0.114306	-0.951241	0.286487	-0.036430	0.292197	0.955664	-0.992777	0.098801	-0.068054
292	5083679													9.697953	-0.250732	-1.107311	-0.114337	-0.951213	0.286569	-0.036421	0.292280	0.955639	-0.992774	0.098828	-0.068063
293	5083846													9.704933	-0.265654	-1.104593	-0.114374	-0.951188	0.286634	-0.036492	0.292356	0.955613	-0.992767	0.098837	-0.068149
294	5084013													9.729768	-0.271714	-1.086623	-0.114441	-0.951155	0.286717	-0.036578	0.292452	0.955580	-0.992756	0.098870	-0.068260
295	5084179													9.734386	-0.304806	-1.121852	-0.114504	-0.951152	0.286702	-0.036644	0.292448	0.955579	-0.992747	0.098911	-0.068340
296	5084346													9.728924	-0.302793	-1.110095	-0.114527	-0.951202	0.286528	-0.036698	0.292280	0.955629	-0.992742	0.098930	-0.068381
297	5084513													9.717338	-0.295313	-1.107106	-0.114537	-0.951266	0.286310	-0.036739	0.292065	0.955692	-0.992739	0.098944	-0.068401
298	5084679													9.695096	-0.253906	-1.115512	-0.114537	-0.951340	0.286065	-0.036803	0.291826	0.955763	-0.992737	0.098943	-0.068437
299	5084846													9.697171	-0.233114	-1.122646	-0.114613	-0.951392	0.285862	-0.036893	0.291637	0.955817	-0.992725	0.099003	-0.068525
300	5085013													9.716814	-0.235282	-1.111055	-0.114750	-0.951408	0.285753	-0.036975	0.291544	0.955842	-0.992706	0.099117	-0.068633
301	5085179													9.702797	-0.260574	-1.122727	-0.114867	-0.951426	0.285647	-0.037084	0.291457	0.955865	-0.992688	0.099204	-0.068761
302	5085346													9.704016	-0.247848	-1.108292	-0.114986	-0.951413	0.285644	-0.037237	0.291477	0.955853	-0.992669	0.099273	-0.068943
303	5085513													9.732989	-0.286391	-1.123573	-0.115108	-0.951400	0.285637	-0.037374	0.291493	0.955843	-0.992650	0.099350	-0.069111
304	5085679													9.713462	-0.287529	-1.142130	-0.115228	-0.951389	0.285624	-0.037416	0.291492	0.955841	-0.992634	0.099452	-0.069186
305	5085846													9.733453	-0.283926	-1.138414	-0.115324	-0.951395	0.285566	-0.037235	0.291423	0.955869	-0.992630	0.099601	-0.069033
306	5086013													9.724860	-0.314105	-1.151506	-0.115404	-0.951399	0.285519	-0.036961	0.291353	0.955901	-0.992631	0.099762	-0.068788
307	5086179													9.729110	-0.313308	-1.112801	-0.115478	-0.951416	0.285433	-0.036746	0.291250	0.955941	-0.992630	0.099902	-0.068594
308	5086346													9.728418	-0.281902	-1.140227	-0.115499	-0.951425	0.285394	-0.036646	0.291203	0.955959	-0.992631	0.099954	-0.068500
309	5086513													9.714963	-0.257051	-1.139987	-0.115456	-0.951448	0.285335	-0.036612	0.291137	0.955981	-0.992638	0.099927	-0.068448
310	5086679													9.711222	-0.250331	-1.132424	-0.115459	-0.951449	0.285330	-0.036546	0.291125	0.955987	-0.992640	0.099950	-0.068384
311	5086846													9.727974	-0.291761	-1.140978	-0.115453	-0.951452	0.285322	-0.036438	0.291107	0.955996	-0.992644	0.099977	-0.068278
312	5087013													9.723382	-0.298842	-1.123727	-0.115413	-0.951478	0.285255	-0.036358	0.291028	0.956024	-0.992652	0.099966	-0.068182
313	5087179													9.733995	-0.289015	-1.124967	-0.115342	-0.951525	0.285124	-0.036349	0.290891	0.956065	-0.992661	0.099910	-0.068139
314	5087346													9.713151	-0.271431	-1.122425	-0.115268	-0.951586	0.284950	-0.036296	0.290705	0.956124	-0.992671	0.099868	-0.068048
315	5087513													9.722009	-0.249762	-1.114775	-0.115228	-0.951637	0.284796	-0.036189	0.290537	0.956179	-0.992680	0.099872	-0.067917
316	5087680													9.725585	-0.265641	-1.132724	-0.115186	-0.951653	0.284761	-0.036057	0.290486	0.956200	-0.992689	0.099874	-0.067773
317	5087846													9.718912	-0.256357	-1.129745	-0.115093	-0.951681	0.284704	-0.035924	0.290409	0.956228	-0.992705	0.099827	-0.067612
318	5088013													9.736664	-0.243157	-1.127324	-0.114951	-0.951706	0.284679	-0.035791	0.290360	0.956248	-0.992726	0.099732	-0.067440
319	5088180													9.729548	-0.259625	-1.134920	-0.114747	-0.951694	0.284803	-0.035632	0.290455	0.956225	-0.992756	0.099576	-0.067240
320	5088346													9.717611	-0.262472	-1.149232	-0.114487	-0.951710	0.284853	-0.035534	0.290478	0.956222	-0.992789	0.099353	-0.067074
321	5088513													9.735230	-0.251559	-1.141979	-0.114223	-0.951715	0.284943	-0.035358	0.290533	0.956212	-0.992826	0.099146	-0.066837
322	5088680													9.717730	-0.260352	-1.182088	-0.113901	-0.951733	0.285009	-0.035170	0.290559	0.956211	-0.992869	0.098889	-0.066567
323	5088846													9.738354	-0.276121	-1.158325	-0.113608	-0.951744	0.285091	-0.034973	0.290602	0.956205	-0.992910	0.098662	-0.066300
324	5089013													9.794747	-0.292533	-1.145498	-0.113186	-0.951797	0.285080	-0.034825	0.290548	0.956227	-0.992963	0.098304	-0.066032
325	5089180													9.781856	-0.275235	-1.164521	-0.112564	-0.951858	0.285123	-0.034609	0.290528	0.956240	-0.993042	0.097771	-0.065646
326	5089346													9.720249	-0.259245	-1.160352	-0.111822	-0.951936	0.285154	-0.034414	0.290491	0.956259	-0.993132	0.097117	-0.065243
327	5089513													9.719903	-0.241484	-1.160236	-0.111099	-0.952035	0.285109	-0.034249	0.290382	0.956298	-0.993219	0.096479	-0.064868
328	5089680													9.766006	-0.246781	-1.159559	-0.110280	-0.952129	0.285110	-0.034041	0.290310	0.956327	-0.993317	0.095758	-0.064427
329	5089846													9.777227	-0.251636	-1.130904	-0.109359	-0.952204	0.285215	-0.033868	0.290339	0.956324	-0.993425	0.094923	-0.064000
330	5090013													9.654336	-0.271746	-1.187685	-0.108402	-0.952309	0.285229	-0.033802	0.290285	0.956343	-0.993532	0.094028	-0.063657
331	5090180													9.588505	-0.269475	-1.166949	-0.107620	-0.952413	0.285180	-0.033757	0.290181	0.956376	-0.993619	0.093299	-0.063380
332	5090346													9.613578	-0.289554	-1.161711	-0.107156	-0.952510	0.285030	-0.033717	0.289997	0.956433	-0.993670	0.092877	-0.063190
333	5090513													9.681539	-0.283465	-1.128234	-0.106916	-0.952579	0.284890	-0.033614	0.289832	0.956487	-0.993700	0.092687	-0.063008
334	5090680													9.753940	-0.187189	-1.127602	-0.106617	-0.952673	0.284688	-0.033440	0.289594	0.956565	-0.993738	0.092467	-0.062733
335	5090846													9.870544	-0.101674	-1.136622	-0.106135	-0.952671	0.284874	-0.033262	0.289733	0.956529	-0.993795	0.092046	-0.062439
336	5091013													9.950551	-0.118048	-1.128139	-0.105080	-0.952610	0.285468	-0.033207	0.290258	0.956372	-0.993909	0.091016	-0.062134
337	5091180													10.014317	-0.119929	-1.160731	-0.103354	-0.952514	0.286418	-0.033346	0.291117	0.956106	-0.994085	0.089266	-0.061851
338	5091346													10.131075	-0.185007	-1.181179	-0.100757	-0.952398	0.287726	-0.033812	0.292308	0.955726	-0.994336	0.086568	-0.061655
339	5091513													10.234070	-0.235550	-1.199754	-0.096956	-0.952353	0.289178	-0.034585	0.293595	0.955304	-0.994688	0.082621	-0.061403
340	5091680													10.300248	-0.187587	-1.146071	-0.091796	-0.952397	0.290713	-0.035806	0.294913	0.954853	-0.995134	0.077242	-0.061174
341	5091846													10.445223	-0.200884	-1.132669	-0.084916	-0.952469	0.292562	-0.037649	0.296480	0.954297	-0.995677	0.070020	-0.061035
342	5092013													10.377656	-0.216793	-1.148281	-0.076093	-0.952604	0.294542	-0.039915	0.298071	0.953709	-0.996301	0.060814	-0.060704
343	5092180													10.354919	-0.244902	-1.098694	-0.065775	-0.952711	0.296674	-0.042313	0.299714	0.953090	-0.996937	0.050136	-0.060026
344	5092346													10.373137	-0.410622	-1.005392	-0.053783	-0.952824	0.298719	-0.044633	0.301147	0.952533	-0.997555	0.037898	-0.058724
345	5092513													10.429796	-0.566059	-0.896675	-0.040023	-0.952982	0.300373	-0.046789	0.302072	0.952136	-0.998103	0.024054	-0.056679
346	5092680													10.382809	-0.653771	-0.808041	-0.024353	-0.953188	0.301396	-0.048663	0.302258	0.951983	-0.998518	0.008517	-0.053746
347	5092846													10.310542	-0.673576	-0.697097	-0.006880	-0.953383	0.301684	-0.050288	0.301639	0.952095	-0.998711	-0.008621	-0.050019
348	5093013													10.176995	-0.628789	-0.588674	0.012296	-0.953458	0.301275	-0.051512	0.300294	0.952455	-0.998597	-0.027230	-0.045422
349	5093180													10.339989	-0.537844	-0.370502	0.032824	-0.953297	0.300246	-0.052428	0.298352	0.953015	-0.998085	-0.047023	-0.040186
350	5093346													10.329205	-0.344347	-0.103570	0.055167	-0.952706	0.298844	-0.052886	0.296092	0.953694	-0.997076	-0.068417	-0.034051
351	5093513													10.187366	-0.217719	0.139905	0.079172	-0.951416	0.297554	-0.052893	0.294061	0.954322	-0.995457	-0.091294	-0.027041
352	5093680													9.855771	-0.252393	0.334838	0.104271	-0.949318	0.296519	-0.052763	0.292444	0.954826	-0.993148	-0.115205	-0.019596
353	5093846													9.423119	-0.267328	0.536573	0.129457	-0.946476	0.295676	-0.052805	0.291182	0.955209	-0.990178	-0.139272	-0.012283
354	5094013													9.271658	-0.282814	0.842788	0.153849	-0.943004	0.295083	-0.053124	0.290312	0.955456	-0.986665	-0.162672	-0.005432
355	5094180													9.376891	-0.330505	1.196314	0.177288	-0.939005	0.294684	-0.053583	0.289773	0.955594	-0.982699	-0.185205	0.001058
356	5094346													9.533222	-0.389650	1.607065	0.199977	-0.934526	0.294399	-0.054103	0.289478	0.955654	-0.978306	-0.207036	0.007329
357	5094513													9.448524	-0.402134	1.842627	0.222472	-0.929544	0.294030	-0.054480	0.289264	0.955698	-0.973416	-0.228635	0.013711
358	5094680													8.998007	-0.408804	2.125143	0.244157	-0.924218	0.293613	-0.054721	0.289163	0.955715	-0.968191	-0.249411	0.020027
359	5094846													8.961635	-0.494217	2.422585	0.264133	-0.918843	0.293192	-0.055017	0.289139	0.955705	-0.962916	-0.268564	0.025819
360	5095013													9.119341	-0.524936	2.680310	0.282730	-0.913506	0.292525	-0.055454	0.288891	0.955755	-0.957595	-0.286442	0.031020
361	5095180													9.249311	-0.511011	2.956334	0.300539	-0.908060	0.291725	-0.055945	0.288555	0.955827	-0.952127	-0.303584	0.035921
362	5095346													9.421721	-0.527928	3.186220	0.318205	-0.902336	0.290749	-0.056403	0.288127	0.955930	-0.946343	-0.320581	0.040789
363	5095513													9.556245	-0.536304	3.327965	0.336259	-0.896166	0.289510	-0.056970	0.287491	0.956087	-0.940045	-0.337987	0.045618
364	5095680													9.537604	-0.509325	3.384610	0.355284	-0.889278	0.288025	-0.057546	0.286736	0.956280	-0.932985	-0.356326	0.050698
365	5095846													9.374572	-0.587995	3.399016	0.375474	-0.881528	0.286231	-0.058128	0.285822	0.956518	-0.925008	-0.375785	0.056077
366	5096013													9.216210	-0.545914	3.498164	0.396434	-0.873005	0.284081	-0.058535	0.284770	0.956807	-0.916195	-0.395940	0.061792
367	5096180													9.161158	-0.615218	3.624452	0.418092	-0.863672	0.281549	-0.058691	0.283609	0.957142	-0.906507	-0.416698	0.067885
368	5096346													9.021556	-0.632150	3.747597	0.440369	-0.853536	0.278480	-0.058610	0.282184	0.957568	-0.895902	-0.438005	0.074240
369	5096513													8.873729	-0.613118	3.891595	0.463078	-0.842615	0.274879	-0.058157	0.280580	0.958067	-0.884408	-0.459646	0.080926
370	5096680													8.620301	-0.572413	4.098784	0.485808	-0.831024	0.270906	-0.057317	0.278983	0.958584	-0.872184	-0.481215	0.087900
371	5096846													8.451397	-0.543985	4.350964	0.508131	-0.818964	0.266647	-0.056203	0.277405	0.959108	-0.859444	-0.502339	0.094931
372	5097013													8.320567	-0.477302	4.668456	0.529806	-0.806568	0.262209	-0.054858	0.275928	0.959612	-0.846343	-0.522792	0.101942
373	5097180													8.233602	-0.458938	4.961618	0.550787	-0.793843	0.257775	-0.053313	0.274751	0.960036	-0.832942	-0.542518	0.109008
374	5097346													7.917884	-0.479476	5.191806	0.570936	-0.780930	0.253340	-0.051657	0.273795	0.960400	-0.819368	-0.561413	0.115979
375	5097513													7.656147	-0.494386	5.449132	0.589508	-0.768441	0.248956	-0.049884	0.272983	0.960725	-0.806221	-0.578774	0.122592
376	5097680													7.720755	-0.487840	5.698887	0.606547	-0.756453	0.244703	-0.047936	0.272428	0.960981	-0.793601	-0.594611	0.128979
377	5097846													7.773762	-0.394730	5.961186	0.622684	-0.744599	0.240492	-0.045774	0.272158	0.961163	-0.781133	-0.609509	0.135385
378	5098013													7.564383	-0.365023	6.143948	0.638254	-0.732610	0.236464	-0.043484	0.272366	0.961211	-0.768597	-0.623779	0.141981
379	5098180													7.395283	-0.423314	6.317753	0.653049	-0.720705	0.232620	-0.041144	0.272945	0.961149	-0.756197	-0.637248	0.148594
380	5098346													7.191655	-0.404834	6.565856	0.667112	-0.708993	0.228669	-0.038466	0.273763	0.961028	-0.743963	-0.649910	0.155359
381	5098513													7.001196	-0.429897	6.850827	0.680291	-0.697636	0.224740	-0.035362	0.275030	0.960785	-0.732088	-0.661561	0.162431
382	5098680													6.725741	-0.366177	7.164039	0.692349	-0.686967	0.220749	-0.031898	0.276493	0.960486	-0.720857	-0.672033	0.169517
383	5098846													6.403033	-0.280512	7.429359	0.702812	-0.677495	0.216923	-0.028203	0.278159	0.960121	-0.710816	-0.680903	0.176386
384	5099013													6.308488	-0.129273	7.708922	0.711242	-0.669778	0.213382	-0.024364	0.279883	0.959725	-0.702524	-0.687796	0.182746
385	5099180													6.437713	-0.035913	7.878015	0.717994	-0.663469	0.210461	-0.020934	0.281645	0.959290	-0.695734	-0.693171	0.188330
386	5099346													6.450596	-0.055956	7.990957	0.723664	-0.658069	0.207980	-0.018273	0.282979	0.958952	-0.689910	-0.697760	0.192757
387	5099513													6.303901	0.046694	8.062498	0.728452	-0.653452	0.205813	-0.016199	0.283902	0.958716	-0.684905	-0.701713	0.196224
388	5099680													6.232631	0.125649	8.100091	0.732216	-0.649763	0.204126	-0.014621	0.284648	0.958521	-0.680915	-0.704829	0.198923
389	5099846													6.175028	0.119417	8.085898	0.735050	-0.646948	0.202878	-0.013482	0.285218	0.958368	-0.677879	-0.707183	0.200928
390	5100013													6.235982	0.071571	8.067711	0.737052	-0.644960	0.201944	-0.012703	0.285532	0.958285	-0.675717	-0.708871	0.202259
391	5100180													6.286607	0.031156	8.018314	0.738476	-0.643589	0.201111	-0.012111	0.285552	0.958287	-0.674171	-0.710108	0.203079
392	5100346													6.249761	-0.026148	7.960533	0.739385	-0.642821	0.200228	-0.011431	0.285362	0.958352	-0.673186	-0.710880	0.203644
393	5100513													6.334791	-0.004880	7.931433	0.739750	-0.642671	0.199359	-0.010784	0.284916	0.958492	-0.672795	-0.711194	0.203836
394	5100680													6.342773	0.085064	7.868434	0.739727	-0.642927	0.198619	-0.010066	0.284560	0.958606	-0.672832	-0.711106	0.204025
395	5100846													6.345594	0.138364	7.841510	0.739186	-0.643652	0.198280	-0.009437	0.284474	0.958637	-0.673435	-0.710483	0.204205
396	5101013													6.452243	0.079279	7.840914	0.737978	-0.644995	0.198418	-0.009015	0.284581	0.958610	-0.674764	-0.709222	0.204200
397	5101180													6.577885	0.052012	7.773647	0.736328	-0.646747	0.198844	-0.008700	0.284803	0.958547	-0.676569	-0.707535	0.204082
398	5101346													6.466830	0.087864	7.666168	0.734069	-0.649099	0.199531	-0.008332	0.285197	0.958433	-0.679024	-0.705218	0.203946
399	5101513													6.558962	0.083339	7.573255	0.730858	-0.652348	0.200723	-0.008033	0.285845	0.958242	-0.682483	-0.701951	0.203672
400	5101680													6.712464	0.119539	7.530518	0.726827	-0.656344	0.202322	-0.007897	0.286572	0.958026	-0.686775	-0.697918	0.203105
401	5101846													6.712574	0.158671	7.481994	0.721931	-0.661037	0.204563	-0.008142	0.287491	0.957749	-0.691917	-0.693094	0.202166
402	5102013													6.581257	0.110358	7.355635	0.716078	-0.666492	0.207416	-0.008707	0.288597	0.957411	-0.697966	-0.687387	0.200855
403	5102180													6.350550	0.132702	7.346200	0.708553	-0.673337	0.211117	-0.009484	0.290065	0.956960	-0.705594	-0.680059	0.199141
404	5102346													6.706725	0.037925	7.427772	0.698930	-0.681839	0.215854	-0.010724	0.291788	0.956423	-0.715110	-0.670787	0.196627
405	5102513													7.318372	-0.043168	7.360741	0.688529	-0.690795	0.220747	-0.012394	0.293137	0.955990	-0.725102	-0.660963	0.193272
406	5102680													7.013923	0.070250	7.113170	0.677991	-0.699597	0.225594	-0.014118	0.294450	0.955563	-0.734935	-0.651047	0.189757
407	5102846													6.843575	0.026516	6.897296	0.666276	-0.709079	0.230833	-0.015915	0.295958	0.955068	-0.745535	-0.640013	0.185905
408	5103013													7.052363	-0.037894	6.730217	0.653444	-0.719184	0.236188	-0.017780	0.297348	0.954604	-0.756766	-0.627980	0.181513
409	5103180													7.291345	-0.069991	6.612016	0.639746	-0.729637	0.241568	-0.019709	0.298625	0.954167	-0.768334	-0.615186	0.176664
410	5103346													7.684185	-0.123718	6.503695	0.625648	-0.740038	0.246797	-0.021698	0.299732	0.953777	-0.779804	-0.602083	0.171469
411	5103513													7.863471	-0.101194	6.267578	0.611902	-0.749817	0.251695	-0.023541	0.300818	0.953391	-0.790583	-0.589307	0.166420
412	5103680													7.776671	-0.130052	6.023846	0.598499	-0.759015	0.256310	-0.025153	0.301977	0.952983	-0.800729	-0.576807	0.161642
413	5103846													7.809626	-0.155113	5.844707	0.584839	-0.768087	0.260779	-0.026639	0.303133	0.952576	-0.810712	-0.564050	0.156822
414	5104013													8.076140	-0.222609	5.702059	0.571047	-0.776965	0.265011	-0.028017	0.304189	0.952199	-0.820439	-0.551176	0.151939
415	5104180													8.292623	-0.226961	5.524218	0.557459	-0.785449	0.268903	-0.029233	0.305128	0.951863	-0.829690	-0.538485	0.147135
416	5104347													8.325787	-0.209385	5.366895	0.544138	-0.793506	0.272513	-0.030199	0.306074	0.951529	-0.838452	-0.525992	0.142583
417	5104513													8.352599	-0.180415	5.267319	0.530847	-0.801267	0.275993	-0.031071	0.307047	0.951187	-0.846898	-0.513511	0.138099
418	5104680													8.315330	-0.187090	5.106501	0.517149	-0.808964	0.279525	-0.032084	0.308036	0.950834	-0.855294	-0.500691	0.133346
419	5104847													8.427088	-0.155766	4.946690	0.502806	-0.816723	0.283106	-0.033177	0.309042	0.950469	-0.863762	-0.487295	0.128292
420	5105013													8.660580	-0.167390	4.786440	0.488143	-0.824293	0.286806	-0.034397	0.310194	0.950051	-0.872085	-0.473626	0.123066
421	5105180													8.712214	-0.201067	4.620497	0.473431	-0.831540	0.290525	-0.035671	0.311460	0.949589	-0.880109	-0.459928	0.117793
422	5105347													8.731193	-0.252577	4.483451	0.458407	-0.838629	0.294220	-0.036971	0.312771	0.949109	-0.887973	-0.445955	0.112371
423	5105513													8.764961	-0.297727	4.277829	0.442922	-0.845650	0.297821	-0.038353	0.314006	0.948646	-0.895739	-0.431598	0.106647
424	5105680													8.903771	-0.344425	4.075218	0.427146	-0.852534	0.301218	-0.039829	0.315074	0.948231	-0.903305	-0.417030	0.100627
425	5105847													9.013986	-0.349778	3.902694	0.411288	-0.859182	0.304381	-0.041304	0.316022	0.947852	-0.910569	-0.402413	0.094489
426	5106013													9.007118	-0.335825	3.780975	0.395412	-0.865578	0.307285	-0.042713	0.316859	0.947510	-0.917510	-0.387782	0.088319
427	5106180													9.005920	-0.398338	3.700262	0.379175	-0.871873	0.309941	-0.043992	0.317589	0.947207	-0.924279	-0.372792	0.082067
428	5106347													9.114697	-0.442787	3.532377	0.362612	-0.878059	0.312291	-0.045166	0.318147	0.946965	-0.930845	-0.357486	0.075705
429	5106513													9.167322	-0.446632	3.340130	0.346051	-0.884015	0.314269	-0.046218	0.318496	0.946797	-0.937076	-0.342165	0.069358
430	5106680													9.217257	-0.464396	3.159299	0.329662	-0.889678	0.315903	-0.047072	0.318703	0.946685	-0.942925	-0.326956	0.063186
431	5106847													9.174289	-0.485587	3.037901	0.313186	-0.895158	0.317185	-0.047784	0.318711	0.946647	-0.948489	-0.311633	0.057042
432	5107013													9.236739	-0.486973	2.911834	0.296498	-0.900481	0.318154	-0.048329	0.318560	0.946670	-0.953810	-0.296062	0.050933
433	5107180													9.543473	-0.521068	2.750573	0.279924	-0.905533	0.318829	-0.048781	0.318261	0.946747	-0.958782	-0.280570	0.044916
434	5107347													9.491834	-0.569110	2.554040	0.263955	-0.910204	0.319149	-0.049125	0.317768	0.946895	-0.963283	-0.265616	0.039163
435	5107513													9.294166	-0.588423	2.377975	0.248147	-0.914683	0.319027	-0.049392	0.316953	0.947154	-0.967462	-0.250791	0.033473
436	5107680													9.375069	-0.549446	2.126436	0.231650	-0.919144	0.318611	-0.049568	0.315942	0.947483	-0.971535	-0.235278	0.027628
437	5107847													9.490673	-0.485653	1.936001	0.214769	-0.923465	0.317941	-0.049627	0.314798	0.947860	-0.975403	-0.219349	0.021780
438	5108013													9.655671	-0.420930	1.743837	0.197777	-0.927522	0.317156	-0.049553	0.313673	0.948237	-0.978994	-0.203255	0.016075
439	5108180													9.565058	-0.433794	1.534995	0.180977	-0.931215	0.316362	-0.049454	0.312650	0.948580	-0.982243	-0.187317	0.010530
440	5108347													9.576073	-0.410223	1.383819	0.163485	-0.934701	0.315604	-0.049469	0.311739	0.948879	-0.985305	-0.170740	0.004726
441	5108513													9.887719	-0.381253	1.192762	0.145804	-0.937846	0.314939	-0.049615	0.311008	0.949111	-0.988069	-0.154010	-0.001185
442	5108680													9.861785	-0.350417	1.017846	0.128597	-0.940539	0.314402	-0.049783	0.310512	0.949265	-0.990447	-0.137725	-0.006892
443	5108847													9.776531	-0.272562	0.797486	0.111561	-0.942791	0.314166	-0.049994	0.310414	0.949286	-0.992499	-0.121610	-0.012503
444	5109013													9.884964	-0.085423	0.658072	0.094651	-0.944533	0.314483	-0.050302	0.310960	0.949091	-0.994239	-0.105651	-0.018079
445	5109180													9.970666	0.053771	0.512785	0.078051	-0.945553	0.315972	-0.050794	0.312756	0.948475	-0.995655	-0.090079	-0.023617
446	5109347													10.065989	0.002166	0.348861	0.062088	-0.945767	0.318856	-0.051669	0.315998	0.947352	-0.996732	-0.075294	-0.029247
447	5109513													10.093633	-0.125297	0.210264	0.046976	-0.945257	0.322929	-0.053365	0.320449	0.945761	-0.997470	-0.061661	-0.035390
448	5109680													9.773823	-0.147386	0.016881	0.032792	-0.944129	0.327939	-0.056237	0.325853	0.943746	-0.997879	-0.049389	-0.042410
449	5109847													9.375469	-0.045764	-0.070600	0.018072	-0.942449	0.333861	-0.060673	0.332266	0.941232	-0.997994	-0.037266	-0.051177
450	5110013													9.700367	-0.095059	-0.096558	0.001833	-0.940134	0.340800	-0.066127	0.339940	0.938119	-0.997810	-0.024256	-0.061545
451	5110180													10.226688	-0.316949	-0.165806	-0.014033	-0.937251	0.348373	-0.071677	0.348454	0.934581	-0.997329	-0.011856	-0.072069
452	5110347													10.167650	-0.743660	-0.410091	-0.028312	-0.934009	0.356127	-0.076943	0.357249	0.930835	-0.996633	-0.001048	-0.081979
453	5110513													9.850355	-1.080441	-0.534642	-0.041661	-0.930837	0.363051	-0.082063	0.365327	0.927255	-0.995756	0.008838	-0.091607
454	5110680													9.909663	-1.213589	-0.631433	-0.054624	-0.927919	0.368757	-0.086717	0.372322	0.924044	-0.994734	0.018498	-0.100804
455	5110847													10.087397	-1.290417	-0.719092	-0.066647	-0.925408	0.373066	-0.090653	0.377967	0.921370	-0.993650	0.027587	-0.109081
456	5111013													10.215735	-1.313084	-0.788414	-0.077306	-0.923387	0.376007	-0.093474	0.382187	0.919345	-0.992616	0.035924	-0.115858
457	5111180													10.250175	-1.349613	-0.892705	-0.086276	-0.921935	0.377614	-0.095055	0.384915	0.918044	-0.991726	0.043311	-0.120844
458	5111347													10.200863	-1.321821	-0.970892	-0.093535	-0.921068	0.378001	-0.095531	0.386217	0.917448	-0.991022	0.049702	-0.124115
459	5111513													10.047923	-1.276857	-1.018121	-0.099392	-0.920744	0.377295	-0.095273	0.386236	0.917466	-0.990477	0.055243	-0.126111
460	5111680													9.943625	-1.145179	-1.059802	-0.104169	-0.920870	0.375695	-0.094418	0.385200	0.917990	-0.990068	0.060154	-0.127072
461	5111847													9.907381	-0.997232	-1.105515	-0.108174	-0.921328	0.373435	-0.092969	0.383368	0.918905	-0.989775	0.064683	-0.127126
462	5112013													9.904693	-0.899168	-1.130704	-0.111564	-0.921969	0.370846	-0.090828	0.381074	0.920072	-0.989598	0.068964	-0.126255
463	5112180													9.905744	-0.864897	-1.173472	-0.114456	-0.922708	0.368118	-0.088073	0.378518	0.921394	-0.989517	0.073038	-0.124589
464	5112347													9.896022	-0.860378	-1.175677	-0.117030	-0.923505	0.365297	-0.084939	0.375785	0.922806	-0.989489	0.076968	-0.122419
465	5112513													9.814251	-0.799750	-1.215375	-0.119185	-0.924378	0.362382	-0.081721	0.372879	0.924274	-0.989503	0.080546	-0.119983
466	5112680													9.716695	-0.747430	-1.211024	-0.121247	-0.925279	0.359384	-0.078612	0.369869	0.925752	-0.989505	0.083993	-0.117584
467	5112847													9.677882	-0.682183	-1.234516	-0.123283	-0.926178	0.356363	-0.075650	0.366829	0.927207	-0.989484	0.087350	-0.115289
468	5113013													9.672797	-0.611736	-1.247997	-0.125388	-0.927047	0.353359	-0.072953	0.363821	0.928607	-0.989422	0.090657	-0.113250
469	5113180													9.682620	-0.553985	-1.258961	-0.127528	-0.927864	0.350435	-0.070531	0.360909	0.929930	-0.989324	0.093875	-0.111469
470	5113347													9.702694	-0.523308	-1.308877	-0.129631	-0.928596	0.347715	-0.068363	0.358209	0.931135	-0.989203	0.096934	-0.109917
471	5113513													9.695126	-0.526956	-1.281978	-0.131649	-0.929258	0.345178	-0.066574	0.355711	0.932222	-0.989058	0.099746	-0.108693
472	5113680													9.735218	-0.525392	-1.344958	-0.133527	-0.929860	0.342826	-0.065226	0.353420	0.933188	-0.988896	0.102245	-0.107842
473	5113847													9.824691	-0.523975	-1.379730	-0.135183	-0.930391	0.340731	-0.064346	0.351405	0.934009	-0.988729	0.104337	-0.107371
474	5114013													9.848812	-0.521289	-1.408557	-0.136372	-0.930906	0.338847	-0.063855	0.349591	0.934724	-0.988598	0.105833	-0.107117
475	5114180													9.871450	-0.511161	-1.458707	-0.137088	-0.931398	0.337202	-0.063733	0.348004	0.935324	-0.988506	0.106731	-0.107068
476	5114347													9.926469	-0.532515	-1.499090	-0.137262	-0.931879	0.335799	-0.063933	0.346636	0.935819	-0.988469	0.106983	-0.107157
477	5114513													9.954673	-0.494977	-1.515219	-0.136795	-0.932387	0.334578	-0.064445	0.345414	0.936235	-0.988501	0.106511	-0.107339
478	5114680													9.910213	-0.504558	-1.526309	-0.135628	-0.932904	0.333608	-0.065077	0.344380	0.936572	-0.988620	0.105316	-0.107419
479	5114847													9.879725	-0.554627	-1.548113	-0.133927	-0.933418	0.332858	-0.065759	0.343515	0.936842	-0.988807	0.103580	-0.107386
480	5115013													9.790621	-0.610441	-1.542878	-0.131685	-0.933965	0.332218	-0.066494	0.342704	0.937087	-0.989059	0.101309	-0.107232
481	5115180													9.790377	-0.662030	-1.574546	-0.129079	-0.934554	0.331583	-0.067257	0.341861	0.937341	-0.989351	0.098690	-0.106982
482	5115347													9.692547	-0.721254	-1.649555	-0.126055	-0.935245	0.330796	-0.068002	0.340818	0.937667	-0.989690	0.095703	-0.106560
483	5115513													9.744370	-0.676507	-1.692661	-0.122720	-0.936042	0.329796	-0.068490	0.339503	0.938108	-0.990075	0.092537	-0.105773
484	5115680													10.006950	-0.680815	-1.705260	-0.118846	-0.936927	0.328699	-0.068960	0.338035	0.938604	-0.990515	0.088882	-0.104785
485	5115847													10.184206	-0.693121	-1.671155	-0.113780	-0.937985	0.327472	-0.069716	0.336338	0.939157	-0.991057	0.084028	-0.103661
486	5116013													10.077768	-0.733316	-1.680404	-0.107196	-0.939241	0.326092	-0.070885	0.334368	0.939773	-0.991708	0.077625	-0.102421
487	5116180													9.810961	-0.747728	-1.742666	-0.099413	-0.940654	0.324480	-0.072827	0.332099	0.940429	-0.992378	0.069860	-0.101520
488	5116347													9.934538	-0.572186	-1.735929	-0.091083	-0.942116	0.322679	-0.075700	0.329638	0.941068	-0.992962	0.061288	-0.101343
489	5116513													10.218802	-0.460951	-1.654192	-0.081693	-0.943524	0.321074	-0.079080	0.327271	0.941616	-0.993515	0.051533	-0.101349
490	5116680													10.376449	-0.448937	-1.480869	-0.070768	-0.944795	0.319928	-0.082628	0.325182	0.942035	-0.994065	0.040231	-0.101079
491	5116847													10.366140	-0.582660	-1.319417	-0.057814	-0.945898	0.319273	-0.086154	0.323342	0.942352	-0.994603	0.026975	-0.100187
492	5117013													10.223900	-0.768929	-1.126749	-0.042951	-0.946880	0.318705	-0.089486	0.321363	0.942718	-0.995061	0.011971	-0.098536
493	5117180													10.147884	-0.908763	-0.911542	-0.026436	-0.947715	0.318021	-0.092356	0.319087	0.943215	-0.995375	-0.004436	-0.095962
494	5117347													10.094860	-0.953242	-0.694445	-0.008367	-0.948396	0.316978	-0.094422	0.316322	0.943941	-0.995497	-0.022032	-0.092196
495	5117513													10.026535	-0.969910	-0.519154	0.011018	-0.948827	0.315606	-0.095537	0.313182	0.944876	-0.995365	-0.040563	-0.087197
496	5117680													10.073621	-0.987473	-0.336461	0.031686	-0.948898	0.313989	-0.095819	0.309816	0.945956	-0.994894	-0.060060	-0.081106
497	5117847													10.222665	-1.031669	-0.089731	0.053941	-0.948555	0.311982	-0.095442	0.306109	0.947200	-0.993972	-0.080870	-0.074020
498	5118013													10.547029	-0.922070	0.174163	0.078394	-0.947642	0.309562	-0.094566	0.302048	0.948591	-0.992427	-0.103638	-0.065935
499	5118180													10.585292	-0.828092	0.343132	0.105866	-0.945826	0.306929	-0.093210	0.297865	0.950046	-0.990002	-0.129186	-0.056626
500	5118347													10.384883	-0.826366	0.659205	0.136122	-0.942872	0.304078	-0.091476	0.293661	0.951523	-0.986460	-0.157339	-0.046277
501	5118513													10.378081	-0.751326	1.070884	0.167367	-0.938814	0.301027	-0.089281	0.289646	0.952961	-0.981844	-0.186370	-0.035341
502	5118680													10.459456	-0.859748	1.448663	0.202588	-0.932932	0.297652	-0.086505	0.285717	0.954402	-0.975436	-0.219099	-0.022820
503	5118847													9.624875	-0.744968	1.790072	0.238858	-0.925490	0.293965	-0.083006	0.282160	0.955770	-0.967500	-0.252694	-0.009425
504	5119013													9.304036	-0.754664	1.998053	0.275248	-0.916580	0.290032	-0.079079	0.279077	0.957007	-0.958115	-0.286350	0.004333
505	5119180													8.166930	-0.726808	2.306619	0.310672	-0.906546	0.285758	-0.074573	0.276462	0.958127	-0.947587	-0.318973	0.018285
506	5119347													7.659310	-0.715784	2.855204	0.341907	-0.896624	0.281363	-0.069623	0.274415	0.959088	-0.937151	-0.347508	0.031399
507	5119513													7.786848	-0.651266	3.486083	0.368372	-0.887483	0.276906	-0.064455	0.272754	0.959922	-0.927441	-0.371456	0.043272
508	5119680													8.013772	-0.521435	3.988676	0.391153	-0.879029	0.272594	-0.059427	0.271451	0.960616	-0.918405	-0.391947	0.053941
509	5119847													8.213818	-0.486247	4.391840	0.411487	-0.870926	0.268638	-0.054916	0.270521	0.961147	-0.909760	-0.410251	0.063488
510	5120013													8.112980	-0.420806	4.669120	0.430255	-0.862962	0.264909	-0.051150	0.269683	0.961590	-0.901257	-0.427279	0.071892
511	5120180													8.271122	-0.308938	4.791538	0.447168	-0.855367	0.261512	-0.048183	0.268912	0.961959	-0.893151	-0.442758	0.079035
512	5120347													8.426987	-0.211133	4.877002	0.463278	-0.847695	0.258432	-0.045787	0.268330	0.962238	-0.885029	-0.457617	0.085498
513	5120513													8.547727	-0.172321	4.959628	0.479084	-0.839684	0.255751	-0.043979	0.268037	0.962404	-0.876667	-0.472320	0.091484
514	5120680													8.658290	-0.182610	5.045173	0.495135	-0.831093	0.253232	-0.042627	0.267879	0.962509	-0.867770	-0.487366	0.097209
515	5120847													8.667800	-0.233080	5.114421	0.511852	-0.821663	0.250753	-0.041634	0.267819	0.962569	-0.858064	-0.503133	0.102875
516	5121014													8.649934	-0.326651	5.174775	0.529347	-0.811325	0.248079	-0.040998	0.267602	0.962657	-0.847414	-0.519751	0.108392
517	5121180													8.587887	-0.361761	5.259295	0.547758	-0.799973	0.244955	-0.040567	0.267045	0.962830	-0.835652	-0.537335	0.113824
518	5121347													8.459826	-0.386109	5.347928	0.567042	-0.787563	0.241264	-0.040172	0.266116	0.963104	-0.822708	-0.555813	0.119261
519	5121514													8.136073	-0.426713	5.390230	0.586872	-0.774269	0.236831	-0.039610	0.264695	0.963518	-0.808710	-0.574843	0.124673
520	5121680													7.744087	-0.318004	5.517372	0.606421	-0.760587	0.231866	-0.038803	0.262948	0.964029	-0.794196	-0.593605	0.129944
521	5121847													7.566727	-0.257645	5.705503	0.625153	-0.746825	0.226798	-0.037775	0.261288	0.964522	-0.779588	-0.611541	0.135133
522	5122014													7.515205	-0.282442	5.956182	0.642920	-0.733130	0.221750	-0.036753	0.259654	0.965002	-0.765051	-0.628570	0.139992
523	5122180													7.447412	-0.203892	6.203744	0.659889	-0.719431	0.216716	-0.035726	0.258061	0.965468	-0.750514	-0.644844	0.144589
524	5122347													7.194016	-0.169701	6.432853	0.675971	-0.705772	0.212011	-0.034716	0.256879	0.965820	-0.736110	-0.660227	0.149141
525	5122514													7.006236	-0.183625	6.733477	0.690774	-0.692583	0.207751	-0.033692	0.256176	0.966043	-0.722285	-0.674317	0.153625
526	5122680													7.012016	-0.252079	7.034779	0.704407	-0.679882	0.203892	-0.032685	0.255880	0.966156	-0.709043	-0.687231	0.158022
527	5122847													6.793748	-0.308049	7.259514	0.717050	-0.667645	0.200224	-0.031667	0.255756	0.966223	-0.696302	-0.699171	0.162247
528	5123014													6.534765	-0.288237	7.500865	0.728401	-0.656284	0.196780	-0.030500	0.255864	0.966232	-0.684471	-0.709806	0.166355
529	5123180													6.281675	-0.381238	7.626491	0.738420	-0.645886	0.193824	-0.029270	0.256458	0.966112	-0.673706	-0.719070	0.170469
530	5123347													6.048492	-0.440034	7.808467	0.746881	-0.636791	0.191483	-0.027951	0.257644	0.965836	-0.664370	-0.726716	0.174631
531	5123514													6.198258	-0.470523	7.996428	0.753912	-0.628912	0.189963	-0.026467	0.259839	0.965289	-0.656442	-0.732771	0.179250
532	5123680													6.218533	-0.439368	8.118477	0.760038	-0.621776	0.189039	-0.024698	0.263037	0.964469	-0.649409	-0.737703	0.184562
533	5123847													6.059870	-0.334061	8.197340	0.765410	-0.615299	0.188560	-0.022470	0.267272	0.963359	-0.643151	-0.741601	0.190747
534	5124014													6.011948	-0.214851	8.214346	0.770056	-0.609468	0.188582	-0.019961	0.272432	0.961968	-0.637664	-0.744533	0.197622
535	5124180													5.886793	-0.150317	8.200146	0.774113	-0.604182	0.188978	-0.017580	0.277888	0.960452	-0.632803	-0.746821	0.204496
536	5124347													5.833481	-0.075720	8.197637	0.777585	-0.599486	0.189679	-0.015493	0.283305	0.958905	-0.628587	-0.748568	0.211006
537	5124514													5.910428	-0.013982	8.248237	0.780541	-0.595337	0.190602	-0.013687	0.288564	0.957363	-0.624954	-0.749870	0.217088
538	5124680													5.859773	0.022480	8.244983	0.783124	-0.591611	0.191608	-0.012178	0.293468	0.955891	-0.621747	-0.750914	0.222617
539	5124847													5.929265	-0.024410	8.294753	0.785272	-0.588446	0.192559	-0.010898	0.297820	0.954560	-0.619054	-0.751688	0.227457
540	5125014													5.867062	-0.059735	8.299723	0.787059	-0.585849	0.193180	-0.009749	0.301306	0.953478	-0.616800	-0.752327	0.231434
541	5125180													5.767050	-0.083667	8.291650	0.788185	-0.584221	0.193523	-0.008815	0.303698	0.952727	-0.615376	-0.752631	0.234220
542	5125347													5.961174	-0.076127	8.310399	0.788625	-0.583631	0.193507	-0.008050	0.304883	0.952356	-0.614822	-0.752609	0.235741
543	5125514													6.038839	0.060341	8.279751	0.788720	-0.583639	0.193095	-0.007262	0.305235	0.952249	-0.614710	-0.752460	0.236507
544	5125680													5.950727	0.079732	8.166922	0.788535	-0.584034	0.192658	-0.006667	0.305133	0.952286	-0.614954	-0.752195	0.236714
545	5125847													6.135811	0.090332	8.109569	0.787913	-0.584983	0.192323	-0.006287	0.304662	0.952440	-0.615755	-0.751649	0.236369
546	5126014													6.097394	0.068735	7.963628	0.787162	-0.586096	0.192011	-0.005941	0.304110	0.952619	-0.616718	-0.751006	0.235902
547	5126180													6.277387	0.070684	7.912307	0.786190	-0.587470	0.191794	-0.005597	0.303571	0.952792	-0.617960	-0.750149	0.235376
548	5126347													6.397364	0.068717	7.845342	0.785290	-0.588727	0.191627	-0.005281	0.303130	0.952935	-0.619106	-0.749342	0.234936
549	5126514													6.415064	0.099702	7.781112	0.784438	-0.589862	0.191623	-0.004974	0.302974	0.952986	-0.620187	-0.748512	0.234731
550	5126680													6.451546	0.110605	7.822938	0.783555	-0.590937	0.191924	-0.004737	0.303204	0.952914	-0.621304	-0.747569	0.234778
551	5126847													6.586516	0.018633	7.841653	0.782753	-0.591861	0.192352	-0.004509	0.303681	0.952763	-0.622317	-0.746645	0.235038
552	5127014													6.422174	0.037297	7.762248	0.782058	-0.592662	0.192711	-0.004106	0.304318	0.952562	-0.623192	-0.745750	0.235561
553	5127180													6.438831	-0.008008	7.801354	0.781163	-0.593698	0.193148	-0.003553	0.305138	0.952302	-0.624317	-0.744589	0.236253
554	5127347													6.550690	-0.245653	7.862452	0.780368	-0.594719	0.193223	-0.002505	0.306022	0.952021	-0.625316	-0.743411	0.237320
555	5127514													6.430872	-0.491644	8.021060	0.779727	-0.595947	0.192022	-0.000026	0.306656	0.951820	-0.626119	-0.742165	0.239093
556	5127680													6.112714	-0.372548	8.238337	0.778745	-0.597994	0.189630	0.003983	0.306982	0.951707	-0.627329	-0.740381	0.241442
557	5127847													5.731201	-0.110240	8.387429	0.776794	-0.601365	0.186950	0.009108	0.307560	0.951485	-0.629688	-0.737406	0.244388
558	5128014													5.402765	0.202225	8.515329	0.773016	-0.606767	0.185152	0.014427	0.308598	0.951083	-0.634223	-0.732531	0.247305
559	5128180													5.330068	0.528457	8.536593	0.767119	-0.614339	0.184707	0.018926	0.309475	0.950719	-0.641226	-0.725819	0.249031
560	5128347													5.260009	0.936083	8.483867	0.758911	-0.623986	0.186266	0.021752	0.310168	0.950433	-0.650831	-0.717242	0.248963
561	5128514													5.297443	1.107037	8.430510	0.748159	-0.635642	0.190312	0.022701	0.311174	0.950082	-0.663131	-0.706492	0.247237
562	5128680													5.433770	1.094488	8.268419	0.734859	-0.649009	0.196899	0.021814	0.312785	0.949573	-0.677869	-0.693508	0.244010
563	5128847													5.715188	0.967415	8.014133	0.719022	-0.663879	0.205604	0.019282	0.314780	0.948969	-0.694720	-0.678364	0.239135
564	5129014													6.149285	0.820375	7.733627	0.701029	-0.679663	0.215910	0.015264	0.316994	0.948305	-0.712970	-0.661493	0.232596
565	5129180													6.495846	0.594065	7.386196	0.681527	-0.695630	0.227199	0.010220	0.319486	0.947536	-0.731721	-0.643450	0.224848
566	5129347													6.791146	0.344410	6.997338	0.660766	-0.711535	0.238969	0.004464	0.322094	0.946697	-0.750579	-0.624479	0.216005
567	5129514													7.041959	0.151970	6.616346	0.639100	-0.727157	0.250586	-0.001570	0.324573	0.945859	-0.769122	-0.604892	0.206293
568	5129680													7.440759	0.002954	6.253476	0.616830	-0.742293	0.261766	-0.007376	0.327106	0.944959	-0.787062	-0.584810	0.196294
569	5129847													7.769701	-0.101077	5.926392	0.594529	-0.756599	0.272202	-0.012584	0.329732	0.943991	-0.803976	-0.564655	0.186514
570	5130014													7.976678	-0.274613	5.593446	0.572504	-0.769982	0.281723	-0.017067	0.332339	0.943005	-0.819724	-0.544682	0.177124
571	5130180													8.151608	-0.394530	5.242143	0.550644	-0.782665	0.290218	-0.020921	0.334625	0.942119	-0.834478	-0.524844	0.167885
572	5130347													8.393156	-0.456569	4.950225	0.529341	-0.794544	0.297484	-0.024140	0.336391	0.941413	-0.848065	-0.505510	0.158886
573	5130514													8.603504	-0.446719	4.739238	0.508609	-0.805695	0.303598	-0.026795	0.337630	0.940897	-0.860581	-0.486684	0.150133
574	5130680													8.765860	-0.410222	4.551844	0.488444	-0.816148	0.308747	-0.028920	0.338490	0.940525	-0.872116	-0.468323	0.141730
575	5130847													8.864451	-0.380024	4.313936	0.468850	-0.825919	0.313109	-0.030544	0.339114	0.940249	-0.882750	-0.450399	0.133767
576	5131014													8.903123	-0.353089	4.149428	0.449659	-0.835110	0.316857	-0.031692	0.339603	0.940035	-0.892638	-0.432737	0.126239
577	5131180													9.042072	-0.388504	3.975488	0.430760	-0.843806	0.320058	-0.032566	0.339883	0.939904	-0.901879	-0.415296	0.118929
578	5131347													8.950486	-0.388339	3.790717	0.412003	-0.852109	0.322745	-0.033346	0.339867	0.939882	-0.910572	-0.397997	0.111612
579	5131514													8.958733	-0.368066	3.610149	0.392911	-0.860231	0.324998	-0.034113	0.339544	0.939971	-0.918943	-0.380412	0.104066
580	5131680													8.969957	-0.292856	3.371087	0.373437	-0.868168	0.326847	-0.034795	0.338980	0.940150	-0.927003	-0.362460	0.096380
581	5131847													9.054003	-0.243677	3.238428	0.353458	-0.875868	0.328515	-0.035511	0.338368	0.940344	-0.934776	-0.344038	0.088496
582	5132014													9.111850	-0.243255	3.056224	0.332918	-0.883299	0.330074	-0.036279	0.337784	0.940524	-0.942258	-0.325092	0.080410
583	5132180													9.181768	-0.242393	2.869658	0.312091	-0.890343	0.331493	-0.037121	0.337227	0.940691	-0.949327	-0.305887	0.072196
584	5132347													9.205248	-0.276484	2.659923	0.291081	-0.896988	0.332694	-0.038143	0.336594	0.940877	-0.955938	-0.286561	0.063762
585	5132514													9.133695	-0.225260	2.428363	0.269749	-0.903276	0.333660	-0.039325	0.335881	0.941083	-0.962127	-0.266977	0.055082
586	5132680													9.226708	-0.239507	2.173105	0.247771	-0.909203	0.334602	-0.040626	0.335317	0.941229	-0.967967	-0.246803	0.046144
587	5132847													9.542788	-0.582727	1.902538	0.225208	-0.914746	0.335441	-0.042204	0.334803	0.941342	-0.973396	-0.226155	0.036794
588	5133014													9.510321	-0.924800	1.630173	0.202673	-0.920145	0.335048	-0.043716	0.333306	0.941805	-0.978270	-0.205525	0.027328
589	5133180													9.284440	-0.714224	1.438200	0.179571	-0.925595	0.333208	-0.044781	0.330672	0.942683	-0.982725	-0.184200	0.017930
590	5133347													9.555814	-0.619475	1.201208	0.155796	-0.930847	0.330533	-0.045079	0.327570	0.943751	-0.986760	-0.161933	0.009072
591	5133514													9.939462	-0.573867	0.988674	0.132349	-0.935637	0.327211	-0.044555	0.324166	0.944950	-0.990201	-0.139642	0.001216
592	5133680													10.122519	-0.472522	0.753750	0.110170	-0.939834	0.323380	-0.043608	0.320476	0.946252	-0.992956	-0.118351	-0.005677
593	5133847													10.083221	-0.369704	0.523422	0.089531	-0.943375	0.319417	-0.042493	0.316795	0.947542	-0.995077	-0.098407	-0.011724
594	5134014													9.995975	-0.235203	0.380464	0.069939	-0.946300	0.315633	-0.041629	0.313364	0.948720	-0.996682	-0.079492	-0.017477
595	5134180													10.145610	-0.203070	0.180419	0.051198	-0.948590	0.312340	-0.041136	0.310481	0.949689	-0.997841	-0.061471	-0.023125
596	5134347													10.332379	-0.202410	0.036612	0.033817	-0.950266	0.309598	-0.040914	0.308199	0.950442	-0.998590	-0.044808	-0.028457
597	5134514													10.354685	-0.308568	-0.039164	0.018042	-0.951423	0.307358	-0.041071	0.306444	0.951002	-0.998993	-0.029781	-0.033547
598	5134680													10.253054	-0.591938	-0.194858	0.003756	-0.952226	0.305370	-0.041760	0.304957	0.951450	-0.999121	-0.016325	-0.038619
599	5134847													10.148405	-0.682675	-0.322555	-0.009352	-0.953023	0.302754	-0.043033	0.302870	0.952060	-0.999030	-0.004125	-0.043844
600	5135014													10.009335	-0.612559	-0.432778	-0.021387	-0.953842	0.299546	-0.044471	0.300225	0.952831	-0.998782	0.007057	-0.048839
601	5135180													9.875891	-0.565080	-0.555292	-0.032749	-0.954669	0.295864	-0.045807	0.297145	0.953733	-0.998413	0.017681	-0.053462
602	5135347													9.665874	-0.528900	-0.593803	-0.043699	-0.955463	0.291857	-0.046836	0.293774	0.954727	-0.997946	0.028051	-0.057588
603	5135514													9.514432	-0.546585	-0.687988	-0.054896	-0.956177	0.287598	-0.047718	0.290215	0.955771	-0.997351	0.038744	-0.061558
604	5135680													9.416811	-0.525702	-0.761374	-0.066688	-0.956800	0.282996	-0.048612	0.286406	0.956874	-0.996589	0.050055	-0.065612
605	5135847													9.317497	-0.492722	-0.905106	-0.079042	-0.957265	0.278200	-0.049633	0.282506	0.957981	-0.995635	0.061913	-0.069842
606	5136014													9.251399	-0.407260	-1.059432	-0.092227	-0.957509	0.273260	-0.050924	0.278606	0.959054	-0.994435	0.074535	-0.074455
607	5136180													9.378303	-0.282692	-1.227337	-0.106398	-0.957401	0.268444	-0.052375	0.274998	0.960017	-0.992943	0.088084	-0.079403
608	5136347													9.686655	-0.153851	-1.345913	-0.121210	-0.956853	0.264085	-0.053694	0.271978	0.960804	-0.991174	0.102279	-0.084344
609	5136514													10.021732	-0.164272	-1.399220	-0.135813	-0.955886	0.260455	-0.054780	0.269734	0.961376	-0.989219	0.116300	-0.088997
610	5136680													10.256989	-0.279200	-1.490690	-0.149351	-0.954634	0.257621	-0.055910	0.268280	0.961717	-0.987202	0.129230	-0.093442
611	5136847													10.372590	-0.327563	-1.576489	-0.161355	-0.953256	0.255475	-0.057368	0.267489	0.961852	-0.985228	0.140544	-0.097847
612	5137014													10.389023	-0.335220	-1.639187	-0.171495	-0.951883	0.253984	-0.059068	0.267274	0.961808	-0.983413	0.149943	-0.102062
613	5137180													10.318701	-0.309567	-1.707158	-0.179816	-0.950549	0.253223	-0.060601	0.267635	0.961613	-0.981832	0.157568	-0.105729
614	5137347													10.312937	-0.378917	-1.771868	-0.186459	-0.949276	0.253195	-0.061724	0.268524	0.961293	-0.980522	0.163614	-0.108662
615	5137514													10.268004	-0.489425	-1.803130	-0.191457	-0.948128	0.253765	-0.062469	0.269795	0.960889	-0.979511	0.168116	-0.110883
616	5137681													10.192502	-0.523939	-1.865454	-0.194893	-0.947177	0.254699	-0.062973	0.271227	0.960453	-0.978801	0.171146	-0.112507
617	5137847													10.065838	-0.539137	-1.929013	-0.196833	-0.946423	0.256009	-0.063191	0.272821	0.959987	-0.978398	0.172780	-0.113505
618	5138014													9.878577	-0.601187	-1.977585	-0.197545	-0.945856	0.257549	-0.063094	0.274450	0.959529	-0.978261	0.173300	-0.113893
619	5138181													9.734221	-0.616645	-2.042371	-0.197515	-0.945419	0.259174	-0.062756	0.276034	0.959097	-0.978289	0.173171	-0.113852
620	5138347													9.614631	-0.628887	-2.073725	-0.197084	-0.945063	0.260796	-0.062212	0.277533	0.958700	-0.978411	0.172720	-0.113492
621	5138514													9.536054	-0.646811	-2.139981	-0.196473	-0.944761	0.262345	-0.061712	0.278944	0.958322	-0.978565	0.172095	-0.113109
622	5138681													9.503709	-0.630852	-2.169715	-0.195860	-0.944480	0.263812	-0.061423	0.280310	0.957942	-0.978706	0.171418	-0.112915
623	5138847													9.595482	-0.607501	-2.189849	-0.195399	-0.944204	0.265137	-0.061414	0.281598	0.957565	-0.978799	0.170824	-0.113012
624	5139014													9.708314	-0.572781	-2.177503	-0.194802	-0.943977	0.266383	-0.061435	0.282796	0.957211	-0.978917	0.170102	-0.113082
625	5139181													9.689975	-0.576927	-2.160211	-0.193935	-0.943811	0.267599	-0.061396	0.283920	0.956880	-0.979091	0.169143	-0.113009
626	5139347													9.617356	-0.624987	-2.156571	-0.192853	-0.943708	0.268744	-0.061235	0.284927	0.956591	-0.979315	0.168025	-0.112737
627	5139514													9.587874	-0.633963	-2.154085	-0.191549	-0.943673	0.269799	-0.060977	0.285800	0.956347	-0.979587	0.166735	-0.112287
628	5139681													9.767004	-0.658575	-2.161958	-0.189876	-0.943741	0.270741	-0.060735	0.286519	0.956147	-0.979928	0.165106	-0.111721
629	5139847													9.992338	-0.608790	-2.148433	-0.187299	-0.944029	0.271530	-0.060543	0.286990	0.956018	-0.980435	0.162623	-0.110907
630	5140014													10.137349	-0.526463	-2.107594	-0.183384	-0.944549	0.272391	-0.060068	0.287339	0.955944	-0.981204	0.158943	-0.109431
631	5140181													10.125563	-0.513098	-2.107943	-0.177830	-0.945301	0.273463	-0.058971	0.287630	0.955924	-0.982293	0.153866	-0.106895
632	5140347													10.303810	-0.509881	-2.087047	-0.170610	-0.946284	0.274660	-0.057192	0.287787	0.955985	-0.983677	0.147393	-0.103219
633	5140514													10.616722	-0.529969	-2.065260	-0.161212	-0.947544	0.275991	-0.054717	0.287800	0.956126	-0.985402	0.139038	-0.098244
634	5140681													10.770555	-0.573173	-2.009758	-0.149107	-0.949136	0.277322	-0.051846	0.287575	0.956354	-0.987461	0.128221	-0.092088
635	5140847													10.723927	-0.512122	-1.873403	-0.134087	-0.951011	0.278567	-0.049116	0.287138	0.956629	-0.989752	0.114589	-0.085212
636	5141014													10.461113	-0.397211	-1.725416	-0.116364	-0.952981	0.279798	-0.046740	0.286654	0.956893	-0.992106	0.098270	-0.077899
637	5141181													10.102811	-0.352697	-1.575367	-0.096699	-0.954826	0.280993	-0.044881	0.286212	0.957115	-0.994301	0.079941	-0.070530
638	5141347													9.812849	-0.318610	-1.421947	-0.075913	-0.956343	0.282215	-0.043439	0.285934	0.957264	-0.996168	0.060410	-0.063249
639	5141514													9.521650	-0.345337	-1.335319	-0.054638	-0.957457	0.283357	-0.042387	0.285750	0.957366	-0.997606	0.040298	-0.056197
640	5141681													9.229551	-0.375197	-1.202932	-0.033761	-0.958155	0.284254	-0.041581	0.285516	0.957471	-0.998565	0.020506	-0.049480
641	5141847													9.050113	-0.418869	-0.984595	-0.014079	-0.958485	0.284795	-0.040740	0.285136	0.957621	-0.999071	0.001880	-0.043063
642	5142014													9.123474	-0.469960	-0.633990	0.003951	-0.958527	0.284975	-0.040090	0.284597	0.957809	-0.999188	-0.015209	-0.037303
643	5142181													9.524284	-0.453813	-0.282475	0.020751	-0.958358	0.284816	-0.039790	0.283860	0.958040	-0.998993	-0.031213	-0.032243
644	5142347													9.759593	-0.393082	-0.041869	0.037348	-0.957962	0.284454	-0.039724	0.283004	0.958296	-0.998512	-0.047090	-0.027484
645	5142514													9.696196	-0.411127	0.149763	0.054054	-0.957307	0.283976	-0.039873	0.282095	0.958557	-0.997742	-0.063137	-0.022923
646	5142681													10.008543	-0.390336	0.408894	0.071014	-0.956380	0.283363	-0.040220	0.281104	0.958834	-0.996664	-0.079487	-0.018503
647	5142847													10.164359	-0.378825	0.607904	0.089231	-0.955060	0.282663	-0.040508	0.280080	0.959122	-0.995187	-0.097034	-0.013696
648	5143014													10.198833	-0.338800	0.806818	0.108984	-0.953239	0.281883	-0.040633	0.279063	0.959413	-0.993213	-0.116014	-0.008320
649	5143181													10.133866	-0.338981	0.979027	0.130313	-0.950788	0.281108	-0.040505	0.278183	0.959674	-0.990645	-0.136444	-0.002261
650	5143347													10.103180	-0.347937	1.219046	0.152941	-0.947671	0.280231	-0.040218	0.277364	0.959923	-0.987417	-0.158082	0.004307
651	5143514													10.056912	-0.348948	1.409527	0.177161	-0.943761	0.279157	-0.039664	0.276566	0.960176	-0.983382	-0.181179	0.011563
652	5143681													9.698834	-0.255645	1.521659	0.202826	-0.938984	0.277797	-0.038562	0.275814	0.960437	-0.978455	-0.205515	0.019733
653	5143847													9.352874	-0.081771	1.732978	0.229318	-0.933314	0.276295	-0.036260	0.275471	0.960625	-0.972676	-0.230307	0.029328
654	5144014													9.737436	0.067294	2.263424	0.256157	-0.926679	0.275044	-0.032461	0.276131	0.960572	-0.966090	-0.254985	0.040652
655	5144181													9.942994	-0.053808	2.658054	0.284127	-0.918737	0.274216	-0.027576	0.278054	0.960169	-0.958390	-0.280371	0.053668
656	5144347													9.349552	-0.341236	2.826354	0.313118	-0.909574	0.273191	-0.022073	0.280608	0.959569	-0.949458	-0.306488	0.067786
657	5144514													8.414935	-0.517542	2.987650	0.341279	-0.899964	0.271279	-0.016537	0.282813	0.959032	-0.939816	-0.331784	0.081636
658	5144681													8.102806	-0.481383	3.327460	0.366698	-0.890788	0.268384	-0.011602	0.284079	0.958731	-0.930268	-0.354678	0.093836
659	5144847													8.388986	-0.189918	3.723089	0.389592	-0.882092	0.264826	-0.007824	0.284366	0.958684	-0.920955	-0.375567	0.103885
660	5145014													8.563088	0.145931	3.966366	0.410736	-0.873529	0.261234	-0.005437	0.284167	0.958759	-0.911738	-0.395218	0.111969
661	5145181													8.831584	0.299178	4.208735	0.430993	-0.864662	0.258078	-0.004372	0.284001	0.958814	-0.902345	-0.414371	0.118622
662	5145347													8.905482	0.235054	4.332574	0.451311	-0.855083	0.255249	-0.004340	0.283929	0.958835	-0.892356	-0.433841	0.124430
663	5145514													8.878974	0.119017	4.468760	0.471875	-0.844728	0.252523	-0.005057	0.283818	0.958865	-0.881651	-0.453741	0.129655
664	5145681													8.850390	-0.023376	4.565130	0.492853	-0.833547	0.249592	-0.006356	0.283394	0.958982	-0.870090	-0.474223	0.134374
665	5145847													8.764309	-0.159270	4.666335	0.514246	-0.821561	0.246147	-0.008045	0.282370	0.959272	-0.857605	-0.495282	0.138598
666	5146014													8.664464	-0.220837	4.761681	0.536120	-0.808731	0.241927	-0.009758	0.280639	0.959764	-0.844085	-0.516909	0.142565
667	5146181													8.360943	-0.279299	4.814346	0.558249	-0.795114	0.236962	-0.011291	0.278302	0.960427	-0.829596	-0.538833	0.146384
668	5146347													7.996726	-0.249109	4.878378	0.580035	-0.781069	0.231282	-0.012600	0.275287	0.961280	-0.814494	-0.560490	0.149834
669	5146514													7.887184	-0.316748	4.972764	0.601048	-0.766863	0.225084	-0.013732	0.271681	0.962289	-0.799095	-0.581473	0.152763
670	5146681													7.872594	-0.436542	5.077505	0.621416	-0.752536	0.218017	-0.014742	0.266987	0.963587	-0.783342	-0.602003	0.154816
671	5146847													7.858631	-0.256392	5.320429	0.641164	-0.738138	0.209907	-0.015388	0.261108	0.965187	-0.767249	-0.622073	0.156055
672	5147014													7.864396	-0.002401	5.602929	0.660490	-0.723331	0.201361	-0.015668	0.254846	0.966855	-0.750672	-0.641752	0.156990
673	5147181													7.616302	0.087924	5.910934	0.679624	-0.707771	0.192799	-0.015790	0.248651	0.968464	-0.733390	-0.661236	0.157814
674	5147347													7.390437	0.156531	6.283586	0.698406	-0.691529	0.184436	-0.015853	0.242689	0.969975	-0.715526	-0.680360	0.158532
675	5147514													6.990592	0.160284	6.711217	0.716805	-0.674560	0.176524	-0.015891	0.237294	0.971308	-0.697093	-0.699043	0.159374
676	5147681													6.546865	0.111955	7.290266	0.734287	-0.657400	0.169254	-0.016038	0.232459	0.972474	-0.678649	-0.716790	0.160148
677	5147847													6.090963	0.131231	7.872293	0.750332	-0.640696	0.162822	-0.016285	0.228314	0.973451	-0.660860	-0.733064	0.160877
678	5148014													5.550807	0.101799	8.411874	0.764300	-0.625335	0.157486	-0.016676	0.224969	0.974223	-0.644646	-0.747225	0.161515
679	5148181													5.143889	0.028531	8.825327	0.775653	-0.612233	0.153408	-0.017301	0.222342	0.974815	-0.630923	-0.758772	0.161868
680	5148347													4.966849	-0.082996	9.082205	0.784301	-0.601869	0.150419	-0.018001	0.220283	0.975270	-0.620120	-0.767613	0.161934
681	5148514													4.979303	-0.141631	9.218734	0.790737	-0.593938	0.148234	-0.018491	0.218865	0.975580	-0.611877	-0.774168	0.162082
682	5148681													4.993962	-0.262986	9.221404	0.795556	-0.587853	0.146697	-0.018733	0.218140	0.975738	-0.605591	-0.779002	0.162530
683	5148847													4.944323	-0.287895	9.187746	0.799116	-0.583326	0.145412	-0.018623	0.217743	0.975828	-0.600889	-0.782508	0.163139
684	5149014													4.983570	-0.115482	9.157620	0.801648	-0.580098	0.144385	-0.018187	0.217750	0.975835	-0.597520	-0.784902	0.164008
685	5149181													4.989273	-0.066760	9.086832	0.803334	-0.577860	0.143987	-0.017861	0.218294	0.975720	-0.595260	-0.786401	0.165042
686	5149347													4.994688	-0.071403	8.997142	0.804211	-0.576593	0.144171	-0.017778	0.219126	0.975535	-0.594079	-0.787098	0.165973
687	5149514													5.167599	-0.063178	8.910257	0.804426	-0.576138	0.144785	-0.017877	0.220136	0.975305	-0.593783	-0.787150	0.166783
688	5149681													5.257019	-0.058330	8.814191	0.804173	-0.576240	0.145785	-0.018062	0.221463	0.975001	-0.594121	-0.786703	0.167687
689	5149847													5.432666	-0.253852	8.727563	0.803463	-0.576939	0.146935	-0.018352	0.222684	0.974718	-0.595072	-0.785846	0.168330
690	5150014													5.552960	-0.255725	8.617877	0.802488	-0.578051	0.147882	-0.018580	0.223516	0.974523	-0.596378	-0.784791	0.168629
691	5150181													5.592071	-0.265230	8.493210	0.801147	-0.579683	0.148768	-0.018694	0.224220	0.974359	-0.598176	-0.783386	0.168796
692	5150347													5.754037	-0.294315	8.373086	0.799441	-0.581838	0.149529	-0.018624	0.224782	0.974231	-0.600456	-0.781625	0.168864
693	5150514													5.873055	-0.256400	8.224756	0.797407	-0.584441	0.150234	-0.018417	0.225275	0.974121	-0.603161	-0.779538	0.168872
694	5150681													6.022463	-0.274076	8.083481	0.795032	-0.587469	0.151012	-0.018133	0.225831	0.973998	-0.606297	-0.777097	0.168890
695	5150847													6.278338	-0.312719	7.973614	0.792450	-0.590743	0.151808	-0.017817	0.226364	0.973880	-0.609676	-0.774456	0.168857
696	5151014													6.465344	-0.260857	7.899768	0.789907	-0.593968	0.152476	-0.017397	0.226840	0.973777	-0.612979	-0.771846	0.168849
697	5151181													6.387765	-0.235259	7.770407	0.787384	-0.597140	0.153136	-0.016777	0.227561	0.973619	-0.616235	-0.769181	0.169160
698	5151347													6.312776	-0.204910	7.718444	0.784536	-0.600698	0.153836	-0.015781	0.228667	0.973377	-0.619883	-0.766077	0.169918
699	5151514													6.346413	-0.172883	7.751659	0.781118	-0.604889	0.154806	-0.014088	0.230797	0.972900	-0.624225	-0.762130	0.171758
700	5151681													6.538831	-0.261046	7.779232	0.777161	-0.609616	0.156172	-0.011945	0.233831	0.972204	-0.629189	-0.757424	0.174442
701	5151847													6.652310	-0.182029	7.780295	0.773016	-0.614485	0.157655	-0.010020	0.236658	0.971541	-0.634308	-0.752596	0.176783
702	5152014													6.522488	0.015985	7.747340	0.768563	-0.619588	0.159442	-0.008746	0.239017	0.970976	-0.639714	-0.747651	0.178281
703	5152181													6.285709	0.238045	7.660643	0.763564	-0.625117	0.161859	-0.008013	0.241467	0.970376	-0.645682	-0.742241	0.179366
704	5152347													6.127620	0.399918	7.644084	0.757651	-0.631371	0.165336	-0.007894	0.244443	0.969632	-0.652613	-0.735947	0.180218
705	5152514													6.152147	0.472988	7.751893	0.750411	-0.638681	0.170209	-0.008923	0.247701	0.968796	-0.660912	-0.728513	0.180178
706	5152681													6.389712	0.441517	7.752572	0.742047	-0.646739	0.176338	-0.011280	0.250970	0.967929	-0.670253	-0.720238	0.178936
707	5152847													6.223725	0.355282	7.665751	0.732868	-0.655192	0.183380	-0.014519	0.254407	0.966988	-0.680216	-0.711337	0.176934
708	5153014													6.113746	0.180410	7.623258	0.722216	-0.664726	0.191161	-0.018040	0.258180	0.965928	-0.691432	-0.701058	0.174471
709	5153181													6.410981	-0.053220	7.596381	0.709919	-0.675461	0.199417	-0.021691	0.262045	0.964812	-0.703949	-0.689264	0.171380
710	5153347													6.784007	-0.238579	7.519285	0.696742	-0.686684	0.207401	-0.025206	0.265517	0.963777	-0.716879	-0.676732	0.167688
711	5153514													6.895329	-0.292410	7.378059	0.682999	-0.698126	0.214785	-0.028204	0.268630	0.962830	-0.729875	-0.663670	0.163784
712	5153681													7.237566	-0.475904	7.121962	0.668976	-0.709500	0.221543	-0.030447	0.271652	0.961914	-0.742660	-0.650243	0.160126
713	5153847													7.141127	-0.542466	6.844554	0.655068	-0.720578	0.227273	-0.031845	0.274199	0.961146	-0.754898	-0.636853	0.156672
714	5154014													7.044676	-0.508959	6.639087	0.640549	-0.731952	0.232257	-0.032603	0.276255	0.960531	-0.767225	-0.622840	0.153091
715	5154181													7.452156	-0.467206	6.493567	0.625155	-0.743785	0.236569	-0.032898	0.277719	0.960099	-0.779807	-0.607993	0.149148
716	5154348													7.728029	-0.375425	6.305954	0.609635	-0.755396	0.240253	-0.032778	0.278807	0.959788	-0.792004	-0.592995	0.145210
717	5154514													7.885371	-0.352073	6.112023	0.593958	-0.766736	0.243578	-0.032345	0.279767	0.959523	-0.803846	-0.577795	0.141370
718	5154681													7.999697	-0.311703	5.891241	0.578300	-0.777706	0.246459	-0.031988	0.280251	0.959394	-0.815197	-0.562701	0.137192
719	5154848													7.871768	-0.234403	5.662863	0.562236	-0.788579	0.249067	-0.031875	0.280289	0.959386	-0.826362	-0.547341	0.132452
720	5155014													8.080031	-0.204316	5.497110	0.545268	-0.799599	0.251643	-0.031860	0.280211	0.959410	-0.837656	-0.531152	0.127315
721	5155181													8.406096	-0.214119	5.302628	0.527793	-0.810419	0.254275	-0.031940	0.280219	0.959405	-0.848772	-0.514489	0.122012
722	5155348													8.536762	-0.245356	5.110659	0.510292	-0.820753	0.256841	-0.032307	0.280147	0.959413	-0.859394	-0.497879	0.116440
723	5155514													8.516989	-0.257844	4.846518	0.492620	-0.830708	0.259326	-0.033021	0.279934	0.959451	-0.869618	-0.481208	0.110470
724	5155681													8.569575	-0.282793	4.593933	0.474590	-0.840387	0.261751	-0.033922	0.279691	0.959491	-0.879553	-0.464243	0.104231
725	5155848													8.738715	-0.274434	4.420563	0.456252	-0.849746	0.264131	-0.034981	0.279470	0.959517	-0.889163	-0.447021	0.097784
726	5156014													8.847670	-0.286914	4.250604	0.437985	-0.858599	0.266416	-0.036123	0.279305	0.959523	-0.898256	-0.429880	0.091316
727	5156181													8.893111	-0.323967	4.070167	0.419812	-0.866948	0.268625	-0.037456	0.279168	0.959511	-0.906838	-0.412876	0.084726
728	5156348													8.966228	-0.330373	3.880773	0.401689	-0.874833	0.270766	-0.039056	0.279033	0.959487	-0.914943	-0.395990	0.077917
729	5156514													9.082675	-0.357205	3.678573	0.383754	-0.882231	0.272767	-0.040793	0.278899	0.959454	-0.922534	-0.379321	0.071039
730	5156681													9.180704	-0.335537	3.443782	0.366277	-0.889008	0.274784	-0.042558	0.278992	0.959350	-0.929532	-0.363082	0.064354
731	5156848													9.371538	-0.365765	3.234904	0.349523	-0.895128	0.276729	-0.044343	0.279222	0.959202	-0.935878	-0.347534	0.057902
732	5157014													9.623948	-0.402904	3.099993	0.333805	-0.900526	0.278617	-0.046290	0.279554	0.959014	-0.941505	-0.333021	0.051631
733	5157181													9.648120	-0.459874	2.939339	0.319556	-0.905170	0.280271	-0.048298	0.279836	0.958832	-0.946336	-0.319937	0.045705
734	5157348													9.650545	-0.480597	2.808954	0.306357	-0.909286	0.281680	-0.050444	0.279985	0.958678	-0.950579	-0.307907	0.039908
735	5157514													9.687490	-0.484214	2.742217	0.294018	-0.913001	0.282811	-0.052635	0.279974	0.958564	-0.954349	-0.296721	0.034262
736	5157681													9.756016	-0.447847	2.692669	0.282559	-0.916313	0.283781	-0.054902	0.279903	0.958457	-0.957677	-0.286401	0.028782
737	5157848													9.535832	-0.474039	2.607320	0.271825	-0.919283	0.284659	-0.057227	0.279832	0.958342	-0.960644	-0.276792	0.023458
738	5158014													9.377580	-0.508939	2.514638	0.261077	-0.922156	0.285425	-0.059581	0.279722	0.958230	-0.963478	-0.267178	0.018086
739	5158181													9.360166	-0.565371	2.480052	0.249854	-0.925073	0.286031	-0.061988	0.279513	0.958139	-0.966297	-0.257125	0.012494
740	5158348													9.393525	-0.579502	2.358371	0.238139	-0.928023	0.286466	-0.064274	0.279247	0.958066	-0.969102	-0.246566	0.006851
741	5158514													9.335721	-0.617719	2.188058	0.225882	-0.930989	0.286770	-0.066374	0.278985	0.957999	-0.971891	-0.235429	0.001224
742	5158681													9.288845	-0.636972	1.999292	0.212821	-0.933995	0.286984	-0.068308	0.278772	0.957925	-0.974701	-0.223470	-0.004471
743	5158848													9.418309	-0.670695	1.868130	0.198917	-0.937036	0.287046	-0.070173	0.278529	0.957861	-0.977501	-0.210678	-0.010350
744	5159014													9.416192	-0.663178	1.704544	0.184522	-0.939998	0.286977	-0.071922	0.278294	0.957800	-0.980193	-0.197375	-0.016255
745	5159181													9.190522	-0.664077	1.521036	0.169195	-0.942912	0.286864	-0.073563	0.278166	0.957712	-0.982833	-0.183142	-0.022299
746	5159348													9.285359	-0.633471	1.351112	0.152358	-0.945801	0.286789	-0.075363	0.278214	0.957558	-0.985448	-0.167505	-0.028890
747	5159514													9.636163	-0.634725	1.171783	0.134603	-0.948491	0.286787	-0.077342	0.278481	0.957323	-0.987877	-0.151039	-0.035874
748	5159681													9.817063	-0.671631	0.949555	0.117000	-0.950799	0.286868	-0.079374	0.278975	0.957012	-0.989955	-0.134740	-0.042829
749	5159848													9.846566	-0.714176	0.736005	0.099927	-0.952715	0.286964	-0.081347	0.279619	0.956659	-0.991664	-0.118940	-0.049559
750	5160014													9.915742	-0.772979	0.580017	0.083261	-0.954282	0.287076	-0.083293	0.280404	0.956261	-0.993041	-0.103531	-0.056138
751	5160181													10.074743	-0.833750	0.455550	0.067324	-0.955516	0.287152	-0.085132	0.281254	0.955850	-0.994093	-0.088798	-0.062410
752	5160348													10.195575	-0.852431	0.287726	0.052660	-0.956440	0.287140	-0.086771	0.282069	0.955462	-0.994836	-0.075230	-0.068138
753	5160514													10.163057	-0.926278	0.172601	0.039379	-0.957117	0.287014	-0.088166	0.282788	0.955122	-0.995327	-0.062917	-0.073249
754	5160681													10.081161	-0.964667	0.037658	0.027286	-0.957622	0.286731	-0.089352	0.283354	0.954844	-0.995626	-0.051674	-0.077834
755	5160848													10.054168	-0.995356	-0.087616	0.016100	-0.958034	0.286204	-0.090330	0.283677	0.954656	-0.995782	-0.041223	-0.081973
756	5161014													10.085131	-0.918894	-0.156270	0.005810	-0.958385	0.285421	-0.090951	0.283736	0.954579	-0.995838	-0.031505	-0.085518
757	5161181													10.109726	-0.848361	-0.227961	-0.003542	-0.958625	0.284648	-0.090862	0.283781	0.954574	-0.995857	-0.022482	-0.088108
758	5161348													10.134128	-0.841607	-0.277068	-0.011920	-0.958742	0.284028	-0.090025	0.283923	0.954611	-0.995868	-0.014191	-0.089695
759	5161514													10.121440	-0.877554	-0.301463	-0.019374	-0.958793	0.283444	-0.088640	0.284028	0.954710	-0.995875	-0.006628	-0.090490
760	5161681													10.216925	-0.870261	-0.291268	-0.025767	-0.958802	0.282903	-0.087004	0.284074	0.954847	-0.995875	-0.000011	-0.090740
761	5161848													10.146436	-0.837064	-0.340469	-0.030905	-0.958783	0.282453	-0.085247	0.284086	0.955002	-0.995880	0.005436	-0.090513
762	5162014													10.011307	-0.781326	-0.404330	-0.035129	-0.958745	0.282089	-0.083357	0.284091	0.955167	-0.995900	0.010040	-0.089898
763	5162181													9.915181	-0.728846	-0.489761	-0.038717	-0.958676	0.281854	-0.081308	0.284152	0.955325	-0.995937	0.014070	-0.088950
764	5162348													9.901718	-0.729466	-0.561158	-0.041850	-0.958582	0.281724	-0.079251	0.284267	0.955464	-0.995976	0.017659	-0.087865
765	5162514													9.924715	-0.730764	-0.574550	-0.044532	-0.958465	0.281712	-0.077316	0.284452	0.955567	-0.996012	0.020772	-0.086772
766	5162681													10.065429	-0.751194	-0.523613	-0.046714	-0.958361	0.281713	-0.075803	0.284609	0.955642	-0.996028	0.023288	-0.085942
767	5162848													10.116816	-0.735129	-0.459007	-0.048064	-0.958287	0.281739	-0.074843	0.284727	0.955683	-0.996036	0.024848	-0.085406
768	5163014													9.949920	-0.697677	-0.437469	-0.048692	-0.958224	0.281844	-0.074180	0.284869	0.955692	-0.996055	0.025627	-0.084952
769	5163181													9.792239	-0.670059	-0.465749	-0.049151	-0.958126	0.282096	-0.073615	0.285145	0.955653	-0.996075	0.026205	-0.084547
770	5163348													9.679579	-0.696817	-0.504409	-0.049780	-0.958011	0.282376	-0.073052	0.285462	0.955602	-0.996085	0.026942	-0.084195
771	5163514													9.604273	-0.705266	-0.512802	-0.050814	-0.957876	0.282652	-0.072540	0.285810	0.955537	-0.996070	0.028051	-0.084007
772	5163681													9.658329	-0.725514	-0.515894	-0.052245	-0.957743	0.282840	-0.072192	0.286108	0.955474	-0.996021	0.029500	-0.084089
773	5163848													9.748380	-0.695478	-0.514070	-0.053901	-0.957614	0.282966	-0.071975	0.286367	0.955413	-0.995949	0.031132	-0.084360
774	5164014													9.848285	-0.693900	-0.520227	-0.055560	-0.957488	0.283073	-0.071882	0.286611	0.955347	-0.995865	0.032731	-0.084750
775	5164181													9.903595	-0.691875	-0.547247	-0.056961	-0.957383	0.283148	-0.071967	0.286808	0.955281	-0.995779	0.034036	-0.085237
776	5164348													9.931732	-0.727838	-0.561604	-0.057987	-0.957300	0.283223	-0.072316	0.286982	0.955202	-0.995695	0.034908	-0.085869
777	5164514													9.935531	-0.722072	-0.577392	-0.058556	-0.957279	0.283176	-0.072887	0.287005	0.955152	-0.995620	0.035290	-0.086579
778	5164681													9.927010	-0.722235	-0.566968	-0.058616	-0.957308	0.283063	-0.073575	0.286922	0.955124	-0.995566	0.035159	-0.087252
779	5164848													9.920642	-0.735474	-0.568147	-0.058218	-0.957382	0.282896	-0.074241	0.286744	0.955126	-0.995540	0.034603	-0.087771
780	5165014													9.842329	-0.726439	-0.539620	-0.057528	-0.957478	0.282712	-0.074780	0.286518	0.955152	-0.995539	0.033807	-0.088083
781	5165181													9.761383	-0.738577	-0.546908	-0.056766	-0.957589	0.282490	-0.075360	0.286249	0.955187	-0.995539	0.032934	-0.088413
782	5165348													9.684600	-0.722606	-0.532450	-0.056192	-0.957697	0.282240	-0.076105	0.285972	0.955211	-0.995515	0.032196	-0.088955
783	5165514													9.667529	-0.673013	-0.504931	-0.055973	-0.957791	0.281965	-0.077002	0.285708	0.955218	-0.995459	0.031755	-0.089743
784	5165681													9.705866	-0.668567	-0.481529	-0.056037	-0.957854	0.281737	-0.077997	0.285518	0.955194	-0.995377	0.031552	-0.090709
785	5165848													9.720214	-0.658281	-0.491443	-0.056320	-0.957865	0.281644	-0.078964	0.285481	0.955126	-0.995285	0.031553	-0.091715
786	5166014													9.759238	-0.699475	-0.472726	-0.056729	-0.957827	0.281690	-0.079895	0.285595	0.955014	-0.995188	0.031671	-0.092727
787	5166181													9.788561	-0.737730	-0.480319	-0.057126	-0.957764	0.281824	-0.080762	0.285794	0.954882	-0.995095	0.031788	-0.093677
788	5166348													9.809332	-0.753135	-0.471734	-0.057372	-0.957691	0.282022	-0.081536	0.286038	0.954743	-0.995018	0.031780	-0.094497
789	5166514													9.831280	-0.777560	-0.501779	-0.057460	-0.957610	0.282279	-0.082194	0.286324	0.954601	-0.994959	0.031650	-0.095162
790	5166681													9.839370	-0.807182	-0.508978	-0.057323	-0.957511	0.282641	-0.082659	0.286687	0.954452	-0.994928	0.031349	-0.095581
791	5166848													9.810817	-0.827545	-0.492146	-0.056993	-0.957429	0.282987	-0.082916	0.287008	0.954333	-0.994926	0.030926	-0.095743
792	5167014													9.783146	-0.841816	-0.486823	-0.056571	-0.957361	0.283300	-0.082962	0.287280	0.954247	-0.994946	0.030480	-0.095676
793	5167181													9.737617	-0.844632	-0.463922	-0.056230	-0.957309	0.283544	-0.082908	0.287489	0.954189	-0.994970	0.030146	-0.095534
794	5167348													9.708421	-0.836430	-0.481216	-0.056005	-0.957270	0.283721	-0.082734	0.287639	0.954159	-0.994997	0.029964	-0.095308
795	5167514													9.718475	-0.831353	-0.459865	-0.055945	-0.957245	0.283818	-0.082532	0.287724	0.954151	-0.995017	0.029956	-0.095100
796	5167681													9.678089	-0.815447	-0.464921	-0.055993	-0.957228	0.283865	-0.082325	0.287769	0.954155	-0.995031	0.030057	-0.094917
797	5167848													9.663321	-0.787997	-0.470982	-0.056346	-0.957208	0.283864	-0.082119	0.287795	0.954165	-0.995028	0.030453	-0.094821
798	5168014													9.684028	-0.796224	-0.441588	-0.057018	-0.957170	0.283855	-0.081996	0.287847	0.954160	-0.995000	0.031130	-0.094897
799	5168181													9.686995	-0.784222	-0.422370	-0.057928	-0.957110	0.283874	-0.082030	0.287954	0.954125	-0.994945	0.031985	-0.095192
800	5168348													9.674940	-0.804664	-0.401536	-0.059084	-0.957046	0.283852	-0.082235	0.288049	0.954078	-0.994860	0.033028	-0.095722
801	5168514													9.747458	-0.827376	-0.428091	-0.060419	-0.956967	0.283836	-0.082593	0.288173	0.954010	-0.994750	0.034197	-0.096450
802	5168681													9.780744	-0.781452	-0.457928	-0.061769	-0.956893	0.283797	-0.082959	0.288279	0.953946	-0.994637	0.035380	-0.097190
803	5168848													9.788593	-0.768922	-0.504727	-0.063105	-0.956809	0.283785	-0.083151	0.288403	0.953892	-0.994537	0.036598	-0.097760
804	5169014													9.811702	-0.826527	-0.534894	-0.064401	-0.956714	0.283814	-0.083223	0.288563	0.953837	-0.994448	0.037808	-0.098204
805	5169181													9.812918	-0.844442	-0.569909	-0.065596	-0.956621	0.283856	-0.083213	0.288722	0.953790	-0.994371	0.038944	-0.098542
806	5169348													9.841728	-0.841707	-0.578907	-0.066558	-0.956549	0.283873	-0.083204	0.288834	0.953757	-0.994307	0.039861	-0.098813
807	5169514													9.837980	-0.828561	-0.603846	-0.067270	-0.956492	0.283897	-0.083162	0.288926	0.953733	-0.994263	0.040548	-0.098980
808	5169681													9.873037	-0.829086	-0.619937	-0.067724	-0.956454	0.283919	-0.083053	0.288989	0.953723	-0.994241	0.041009	-0.099008
809	5169848													9.878585	-0.822402	-0.622578	-0.067870	-0.956433	0.283953	-0.082887	0.289031	0.953725	-0.994245	0.041193	-0.098892
810	5170014													9.877810	-0.822781	-0.648077	-0.067689	-0.956436	0.283987	-0.082756	0.289042	0.953733	-0.994268	0.041055	-0.098716
811	5170181													9.911763	-0.802065	-0.638655	-0.067184	-0.956474	0.283979	-0.082597	0.288977	0.953766	-0.994316	0.040622	-0.098416
812	5170348													9.836415	-0.796041	-0.651443	-0.066358	-0.956525	0.284001	-0.082434	0.288911	0.953800	-0.994385	0.039881	-0.098022
813	5170514													9.704288	-0.772789	-0.642290	-0.065465	-0.956584	0.284009	-0.082251	0.288824	0.953843	-0.994459	0.039083	-0.097588
814	5170681													9.662007	-0.769438	-0.607234	-0.064823	-0.956623	0.284027	-0.082062	0.288771	0.953875	-0.994517	0.038525	-0.097221
815	5170848													9.673862	-0.747839	-0.576788	-0.064505	-0.956647	0.284016	-0.081847	0.288722	0.953908	-0.994555	0.038286	-0.096923
816	5171015													9.702847	-0.767200	-0.531904	-0.064414	-0.956658	0.284001	-0.081591	0.288688	0.953940	-0.994582	0.038276	-0.096651
817	5171181													9.748967	-0.818207	-0.502357	-0.064478	-0.956673	0.283934	-0.081368	0.288619	0.953980	-0.994596	0.038407	-0.096452
818	5171348													9.740999	-0.780164	-0.508208	-0.064576	-0.956722	0.283750	-0.081048	0.288432	0.954064	-0.994616	0.038612	-0.096166
819	5171515													9.774873	-0.760924	-0.503598	-0.064704	-0.956757	0.283601	-0.080522	0.288275	0.954156	-0.994650	0.038902	-0.095693
820	5171681													9.753510	-0.757090	-0.529221	-0.064836	-0.956777	0.283504	-0.079998	0.288171	0.954232	-0.994684	0.039189	-0.095224
821	5171848													9.714676	-0.744151	-0.541251	-0.065049	-0.956794	0.283396	-0.079527	0.288065	0.954303	-0.994708	0.039539	-0.094829
822	5172015													9.682434	-0.719367	-0.519906	-0.065456	-0.956783	0.283339	-0.079099	0.288030	0.954349	-0.994715	0.040056	-0.094534
823	5172181													9.738594	-0.744452	-0.546429	-0.066026	-0.956744	0.283341	-0.078700	0.288069	0.954370	-0.994709	0.040715	-0.094316
824	5172348													9.768807	-0.735094	-0.544905	-0.066596	-0.956704	0.283341	-0.078296	0.288106	0.954392	-0.994703	0.041374	-0.094093
825	5172515													9.827736	-0.726344	-0.544385	-0.067108	-0.956668	0.283343	-0.077873	0.288139	0.954417	-0.994702	0.041984	-0.093835
826	5172681													9.833595	-0.714577	-0.552919	-0.067469	-0.956628	0.283392	-0.077429	0.288203	0.954434	-0.994712	0.042452	-0.093516
827	5172848													9.834109	-0.709364	-0.563820	-0.067628	-0.956604	0.283433	-0.077036	0.288242	0.954454	-0.994732	0.042713	-0.093187
828	5173015													9.822282	-0.695733	-0.590822	-0.067626	-0.956586	0.283497	-0.076700	0.288292	0.954466	-0.994758	0.042802	-0.092866
829	5173181													9.819804	-0.692597	-0.610960	-0.067529	-0.956554	0.283627	-0.076385	0.288398	0.954459	-0.994789	0.042789	-0.092542
830	5173348													9.777809	-0.706002	-0.607039	-0.067340	-0.956520	0.283786	-0.076149	0.288529	0.954438	-0.994820	0.042662	-0.092268
831	5173515													9.781424	-0.715008	-0.595148	-0.067191	-0.956485	0.283939	-0.076011	0.288662	0.954409	-0.994841	0.042545	-0.092099
832	5173681													9.772562	-0.705074	-0.617622	-0.067019	-0.956470	0.284032	-0.075935	0.288736	0.954393	-0.994858	0.042395	-0.091981
833	5173848													9.713416	-0.740712	-0.584590	-0.066852	-0.956467	0.284081	-0.075908	0.288768	0.954385	-0.994871	0.042238	-0.091908
834	5174015													9.688411	-0.708068	-0.571356	-0.066869	-0.956484	0.284020	-0.075871	0.288708	0.954406	-0.994873	0.042271	-0.091875
835	5174181													9.702157	-0.745669	-0.589677	-0.067137	-0.956485	0.283952	-0.075758	0.288660	0.954430	-0.994863	0.042566	-0.091842
836	5174348													9.690319	-0.741086	-0.575572	-0.067627	-0.956496	0.283798	-0.075689	0.288548	0.954469	-0.994836	0.043068	-0.091910
837	5174515													9.725982	-0.741770	-0.590394	-0.068298	-0.956520	0.283556	-0.075672	0.288368	0.954525	-0.994791	0.043735	-0.092077
838	5174681													9.735610	-0.739860	-0.603418	-0.069060	-0.956553	0.283260	-0.075689	0.288144	0.954591	-0.994737	0.044485	-0.092300
839	5174848													9.740591	-0.696768	-0.608616	-0.069936	-0.956582	0.282947	-0.075721	0.287914	0.954658	-0.994673	0.045340	-0.092569
840	5175015													9.779695	-0.710676	-0.600133	-0.070788	-0.956598	0.282682	-0.075714	0.287728	0.954715	-0.994614	0.046179	-0.092796
841	5175181													9.768243	-0.714065	-0.628882	-0.071588	-0.956605	0.282457	-0.075653	0.287575	0.954765	-0.994561	0.046982	-0.092957
842	5175348													9.776031	-0.711842	-0.631159	-0.072336	-0.956608	0.282257	-0.075662	0.287446	0.954804	-0.994506	0.047711	-0.093172
843	5175515													9.807313	-0.750338	-0.664724	-0.072990	-0.956616	0.282062	-0.075764	0.287318	0.954834	-0.994451	0.048324	-0.093449
844	5175681													9.831676	-0.730731	-0.676034	-0.073557	-0.956630	0.281867	-0.075931	0.287185	0.954861	-0.994396	0.048834	-0.093763
845	5175848													9.858492	-0.715548	-0.675293	-0.073949	-0.956647	0.281704	-0.075988	0.287062	0.954893	-0.994363	0.049207	-0.093921
846	5176015													9.856981	-0.749634	-0.642104	-0.074117	-0.956664	0.281603	-0.075945	0.286974	0.954923	-0.994354	0.049390	-0.093924
847	5176181													9.802421	-0.754501	-0.660654	-0.074082	-0.956707	0.281467	-0.075940	0.286835	0.954965	-0.994357	0.049371	-0.093902
848	5176348													9.745321	-0.750322	-0.685914	-0.073896	-0.956782	0.281261	-0.076016	0.286616	0.955025	-0.994365	0.049192	-0.093911
849	5176515													9.694789	-0.738894	-0.670199	-0.073718	-0.956865	0.281024	-0.076122	0.286367	0.955091	-0.994370	0.049015	-0.093949
850	5176681													9.708402	-0.733753	-0.684573	-0.073689	-0.956945	0.280760	-0.076218	0.286106	0.955162	-0.994365	0.048986	-0.094019
851	5176848													9.747519	-0.733524	-0.667043	-0.073741	-0.957030	0.280455	-0.076318	0.285812	0.955242	-0.994353	0.049036	-0.094115
852	5177015													9.774796	-0.720740	-0.683488	-0.073846	-0.957111	0.280153	-0.076464	0.285527	0.955316	-0.994334	0.049124	-0.094269
853	5177181													9.765136	-0.722837	-0.661855	-0.073931	-0.957198	0.279831	-0.076655	0.285224	0.955391	-0.994313	0.049182	-0.094461
854	5177348													9.741071	-0.734496	-0.681062	-0.074055	-0.957274	0.279540	-0.076894	0.284957	0.955451	-0.994285	0.049261	-0.094711
855	5177515													9.724211	-0.731744	-0.684263	-0.074276	-0.957336	0.279269	-0.077144	0.284720	0.955502	-0.994249	0.049426	-0.095001
856	5177681													9.740135	-0.755652	-0.698789	-0.074581	-0.957392	0.278995	-0.077415	0.284488	0.955549	-0.994205	0.049668	-0.095334
857	5177848													9.770460	-0.781592	-0.699717	-0.074924	-0.957456	0.278685	-0.077711	0.284227	0.955603	-0.994157	0.049941	-0.095700
858	5178015													9.750591	-0.794858	-0.681110	-0.075212	-0.957528	0.278357	-0.077981	0.283941	0.955666	-0.994114	0.050170	-0.096025
859	5178181													9.791250	-0.839824	-0.677757	-0.075474	-0.957616	0.277985	-0.078319	0.283611	0.955736	-0.994067	0.050361	-0.096405
860	5178348													9.801506	-0.786741	-0.680769	-0.075598	-0.957742	0.277517	-0.078645	0.283173	0.955839	-0.994032	0.050434	-0.096728
861	5178515													9.815072	-0.772620	-0.686477	-0.075579	-0.957852	0.277141	-0.078789	0.282804	0.955936	-0.994022	0.050413	-0.096843
862	5178681													9.785438	-0.770549	-0.639203	-0.075455	-0.957963	0.276791	-0.078820	0.282444	0.956040	-0.994029	0.050321	-0.096818
863	5178848													9.746339	-0.770258	-0.633078	-0.075319	-0.958061	0.276489	-0.078830	0.282129	0.956132	-0.994039	0.050220	-0.096774
864	5179015													9.729061	-0.760599	-0.628018	-0.075221	-0.958128	0.276284	-0.078793	0.281914	0.956199	-0.994049	0.050157	-0.096700
