// Start Time: Unknown
// Update Rate: 60.0Hz
//Filter Profile: human (46.1)
// Option Flags: AHS Disabled ICC Disabled
// Firmware Version: 4.0.2
0	sampleTimeFine	Year	Month	Day	Second	UTC_Nano	UTC_Year	UTC_Month	UTC_Day	UTC_Hour	UTC_Minute	UTC_Second	UTC_Valid	Acc_X	Acc_Y	Acc_Z	Mat[1][1]	Mat[2][1]	Mat[3][1]	Mat[1][2]	Mat[2][2]	Mat[3][2]	Mat[1][3]	Mat[2][3]	Mat[3][3]
0	3826006													-0.375207	-0.428597	-0.267858	0.009882	-0.999852	0.014069	-0.026148	0.013806	0.999563	-0.999609	-0.010245	-0.026008
1	3826173													9.871276	-0.280961	0.132900	0.010958	-0.999845	0.013783	-0.026590	0.013487	0.999555	-0.999586	-0.011320	-0.026438
2	3826339													9.834303	-0.267532	0.125865	0.011824	-0.999821	0.014795	-0.027176	0.014469	0.999526	-0.999561	-0.012220	-0.027000
3	3826506													9.842540	-0.246000	0.113194	0.012378	-0.999818	0.014484	-0.027533	0.014138	0.999521	-0.999544	-0.012770	-0.027353
4	3826673													9.826159	-0.247120	0.140488	0.012534	-0.999814	0.014667	-0.027521	0.014318	0.999519	-0.999543	-0.012932	-0.027337
5	3826839													9.841612	-0.242199	0.157679	0.012759	-0.999811	0.014676	-0.027423	0.014322	0.999521	-0.999542	-0.013155	-0.027235
6	3827006													9.838334	-0.242453	0.139286	0.013036	-0.999811	0.014432	-0.027289	0.014072	0.999529	-0.999543	-0.013423	-0.027100
7	3827173													9.847835	-0.237896	0.124674	0.013218	-0.999810	0.014350	-0.027163	0.013987	0.999533	-0.999544	-0.013601	-0.026973
8	3827339													9.876448	-0.250993	0.140963	0.013330	-0.999808	0.014388	-0.027051	0.014024	0.999536	-0.999545	-0.013713	-0.026859
9	3827506													9.887268	-0.243880	0.149571	0.013494	-0.999807	0.014295	-0.026978	0.013927	0.999539	-0.999545	-0.013874	-0.026784
10	3827673													9.886178	-0.259536	0.171179	0.013730	-0.999803	0.014354	-0.026948	0.013980	0.999539	-0.999543	-0.014110	-0.026751
11	3827839													9.881853	-0.256080	0.165228	0.014039	-0.999794	0.014672	-0.026988	0.014290	0.999534	-0.999537	-0.014428	-0.026782
12	3828006													9.867665	-0.267957	0.145896	0.014388	-0.999786	0.014834	-0.027041	0.014441	0.999530	-0.999531	-0.014782	-0.026828
13	3828173													9.839383	-0.236616	0.166484	0.014660	-0.999785	0.014684	-0.027151	0.014282	0.999529	-0.999524	-0.015052	-0.026935
14	3828339													9.834439	-0.257429	0.160750	0.014887	-0.999781	0.014742	-0.027298	0.014331	0.999525	-0.999516	-0.015282	-0.027078
15	3828506													9.822944	-0.262825	0.158799	0.015030	-0.999779	0.014691	-0.027464	0.014274	0.999521	-0.999510	-0.015427	-0.027244
16	3828673													9.831141	-0.243934	0.140357	0.015076	-0.999778	0.014722	-0.027682	0.014301	0.999514	-0.999503	-0.015476	-0.027460
17	3828839													9.852452	-0.250000	0.154986	0.015079	-0.999779	0.014663	-0.027878	0.014239	0.999510	-0.999498	-0.015481	-0.027657
18	3829006													9.885749	-0.245071	0.171747	0.015069	-0.999780	0.014606	-0.028067	0.014179	0.999505	-0.999492	-0.015471	-0.027847
19	3829173													9.886388	-0.253846	0.158048	0.015119	-0.999777	0.014713	-0.028291	0.014281	0.999498	-0.999485	-0.015527	-0.028069
20	3829339													9.881636	-0.248200	0.157156	0.015218	-0.999777	0.014662	-0.028516	0.014224	0.999492	-0.999477	-0.015629	-0.028293
21	3829506													9.876041	-0.252236	0.171388	0.015357	-0.999777	0.014483	-0.028709	0.014038	0.999489	-0.999470	-0.015765	-0.028487
22	3829673													9.832047	-0.277369	0.164942	0.015481	-0.999775	0.014477	-0.028953	0.014024	0.999482	-0.999461	-0.015892	-0.028729
23	3829839													9.832542	-0.276277	0.172089	0.015561	-0.999776	0.014332	-0.029199	0.013873	0.999477	-0.999452	-0.015971	-0.028977
24	3830006													9.862458	-0.264781	0.162873	0.015626	-0.999778	0.014167	-0.029445	0.013702	0.999472	-0.999444	-0.016035	-0.029224
25	3830173													9.824545	-0.291556	0.185092	0.015660	-0.999779	0.014060	-0.029689	0.013590	0.999467	-0.999437	-0.016069	-0.029469
26	3830339													9.810433	-0.271048	0.154117	0.015623	-0.999780	0.013994	-0.029920	0.013522	0.999461	-0.999430	-0.016033	-0.029702
27	3830506													9.801689	-0.247964	0.165302	0.015516	-0.999783	0.013880	-0.030098	0.013408	0.999457	-0.999427	-0.015926	-0.029883
28	3830673													9.854751	-0.265274	0.136663	0.015358	-0.999787	0.013758	-0.030252	0.013289	0.999454	-0.999424	-0.015766	-0.030041
29	3830839													9.872881	-0.272090	0.126671	0.015208	-0.999789	0.013777	-0.030448	0.013309	0.999448	-0.999421	-0.015619	-0.030239
30	3831006													9.893208	-0.227009	0.162575	0.015071	-0.999792	0.013772	-0.030607	0.013306	0.999443	-0.999418	-0.015484	-0.030400
31	3831173													9.901881	-0.236712	0.148995	0.014994	-0.999791	0.013878	-0.030648	0.013414	0.999440	-0.999418	-0.015411	-0.030441
32	3831339													9.900166	-0.264836	0.155178	0.015029	-0.999788	0.014071	-0.030732	0.013604	0.999435	-0.999415	-0.015453	-0.030521
33	3831506													9.876483	-0.295159	0.154396	0.015100	-0.999787	0.014103	-0.030884	0.013632	0.999430	-0.999409	-0.015527	-0.030672
34	3831673													9.842634	-0.272153	0.140695	0.015191	-0.999785	0.014083	-0.031024	0.013606	0.999426	-0.999403	-0.015619	-0.030811
35	3831839													9.826251	-0.270665	0.185047	0.015281	-0.999785	0.014018	-0.031101	0.013537	0.999425	-0.999399	-0.015708	-0.030888
36	3832006													9.820028	-0.282903	0.154543	0.015337	-0.999784	0.014032	-0.031157	0.013549	0.999423	-0.999397	-0.015765	-0.030943
37	3832173													9.827235	-0.285138	0.205253	0.015356	-0.999785	0.013903	-0.031295	0.013418	0.999420	-0.999392	-0.015782	-0.031082
38	3832339													9.830243	-0.264468	0.184300	0.015335	-0.999787	0.013837	-0.031446	0.013350	0.999416	-0.999388	-0.015761	-0.031235
39	3832506													9.857694	-0.249798	0.172320	0.015277	-0.999789	0.013758	-0.031611	0.013270	0.999412	-0.999384	-0.015703	-0.031401
40	3832673													9.862883	-0.246741	0.150268	0.015178	-0.999792	0.013632	-0.031818	0.013143	0.999407	-0.999378	-0.015602	-0.031612
41	3832839													9.877716	-0.254722	0.164463	0.015071	-0.999794	0.013598	-0.032023	0.013110	0.999401	-0.999373	-0.015498	-0.031819
42	3833006													9.873994	-0.258767	0.151239	0.014962	-0.999795	0.013612	-0.032228	0.013125	0.999394	-0.999369	-0.015392	-0.032025
43	3833173													9.842485	-0.266657	0.151895	0.014846	-0.999799	0.013481	-0.032429	0.012994	0.999390	-0.999364	-0.015274	-0.032230
44	3833339													9.825035	-0.297956	0.124016	0.014661	-0.999801	0.013507	-0.032666	0.013022	0.999381	-0.999359	-0.015093	-0.032469
45	3833506													9.862482	-0.299012	0.117797	0.014473	-0.999806	0.013349	-0.032967	0.012866	0.999374	-0.999352	-0.014904	-0.032775
46	3833673													9.844529	-0.261268	0.112818	0.014269	-0.999811	0.013234	-0.033188	0.012754	0.999368	-0.999347	-0.014699	-0.032999
47	3833839													9.846100	-0.269360	0.116345	0.014087	-0.999815	0.013065	-0.033263	0.012590	0.999367	-0.999347	-0.014513	-0.033079
48	3834006													9.863702	-0.282721	0.109761	0.013934	-0.999818	0.013067	-0.033323	0.012597	0.999365	-0.999347	-0.014361	-0.033142
49	3834173													9.887633	-0.285625	0.123744	0.013873	-0.999819	0.012998	-0.033446	0.012528	0.999362	-0.999344	-0.014299	-0.033267
50	3834339													9.877721	-0.279749	0.133346	0.013875	-0.999820	0.012919	-0.033603	0.012446	0.999358	-0.999339	-0.014301	-0.033424
51	3834506													9.874827	-0.270537	0.095681	0.013920	-0.999820	0.012857	-0.033667	0.012382	0.999356	-0.999336	-0.014344	-0.033489
52	3834673													9.887286	-0.277067	0.105255	0.014031	-0.999818	0.012892	-0.033704	0.012413	0.999355	-0.999333	-0.014456	-0.033524
53	3834840													9.848599	-0.270097	0.118955	0.014165	-0.999815	0.012986	-0.033725	0.012502	0.999353	-0.999331	-0.014594	-0.033542
54	3835006													9.856485	-0.281437	0.116026	0.014317	-0.999814	0.012944	-0.033759	0.012455	0.999352	-0.999327	-0.014745	-0.033575
55	3835173													9.864996	-0.271802	0.119481	0.014472	-0.999811	0.012945	-0.033774	0.012450	0.999352	-0.999325	-0.014899	-0.033588
56	3835340													9.848260	-0.265047	0.141471	0.014612	-0.999811	0.012829	-0.033782	0.012330	0.999353	-0.999322	-0.015036	-0.033595
57	3835506													9.850821	-0.264110	0.134648	0.014740	-0.999810	0.012759	-0.033827	0.012255	0.999353	-0.999319	-0.015162	-0.033640
58	3835673													9.866074	-0.253389	0.126051	0.014852	-0.999808	0.012778	-0.033862	0.012269	0.999351	-0.999316	-0.015275	-0.033673
59	3835840													9.862182	-0.247735	0.139368	0.014960	-0.999807	0.012759	-0.033930	0.012246	0.999349	-0.999312	-0.015384	-0.033740
60	3836006													9.867886	-0.244470	0.167881	0.015110	-0.999804	0.012819	-0.034015	0.012299	0.999346	-0.999307	-0.015537	-0.033822
61	3836173													9.883265	-0.250054	0.157765	0.015281	-0.999801	0.012787	-0.034135	0.012259	0.999342	-0.999300	-0.015708	-0.033941
62	3836340													9.884676	-0.260383	0.140897	0.015477	-0.999800	0.012690	-0.034253	0.012154	0.999339	-0.999293	-0.015902	-0.034058
63	3836506													9.855938	-0.262879	0.168089	0.015687	-0.999796	0.012716	-0.034389	0.012171	0.999334	-0.999285	-0.016114	-0.034191
64	3836673													9.867681	-0.242339	0.157000	0.015924	-0.999793	0.012641	-0.034531	0.012085	0.999331	-0.999277	-0.016349	-0.034331
65	3836840													9.857834	-0.261483	0.165572	0.016152	-0.999792	0.012447	-0.034664	0.011881	0.999328	-0.999269	-0.016572	-0.034465
66	3837006													9.842620	-0.277166	0.169192	0.016362	-0.999789	0.012414	-0.034814	0.011838	0.999324	-0.999260	-0.016783	-0.034613
67	3837173													9.849394	-0.270313	0.183212	0.016524	-0.999788	0.012316	-0.034969	0.011732	0.999320	-0.999252	-0.016944	-0.034768
68	3837340													9.830901	-0.257305	0.186821	0.016617	-0.999788	0.012172	-0.035121	0.011583	0.999316	-0.999245	-0.017034	-0.034921
69	3837506													9.836604	-0.250299	0.178489	0.016654	-0.999789	0.012030	-0.035256	0.011437	0.999313	-0.999240	-0.017067	-0.035058
70	3837840													9.850631	-0.253421	0.185412	0.016649	-0.999789	0.011994	-0.035381	0.011399	0.999309	-0.999235	-0.017062	-0.035184
71	3838006													9.862608	-0.248021	0.175470	0.016636	-0.999790	0.011959	-0.035489	0.011363	0.999305	-0.999232	-0.017049	-0.035293
72	3838173													9.877438	-0.239012	0.181421	0.016635	-0.999790	0.011943	-0.035606	0.011345	0.999302	-0.999227	-0.017048	-0.035410
73	3838340													9.865093	-0.253353	0.206136	0.016628	-0.999791	0.011920	-0.035741	0.011320	0.999297	-0.999223	-0.017042	-0.035545
74	3838506													9.834760	-0.262844	0.193537	0.016617	-0.999791	0.011909	-0.035875	0.011307	0.999292	-0.999218	-0.017033	-0.035679
75	3838673													9.856943	-0.264726	0.170678	0.016555	-0.999792	0.011897	-0.036049	0.011294	0.999286	-0.999213	-0.016972	-0.035855
76	3838840													9.849430	-0.299594	0.164547	0.016477	-0.999793	0.011904	-0.036222	0.011301	0.999280	-0.999208	-0.016896	-0.036028
77	3839006													9.859487	-0.294735	0.179721	0.016383	-0.999795	0.011879	-0.036420	0.011276	0.999273	-0.999202	-0.016804	-0.036228
78	3839173													9.822740	-0.271639	0.190053	0.016261	-0.999799	0.011733	-0.036574	0.011132	0.999269	-0.999199	-0.016678	-0.036386
79	3839340													9.828565	-0.265770	0.154447	0.016114	-0.999804	0.011476	-0.036694	0.010879	0.999267	-0.999197	-0.016523	-0.036512
80	3839506													9.859113	-0.276680	0.148377	0.015890	-0.999809	0.011336	-0.036863	0.010744	0.999263	-0.999194	-0.016296	-0.036685
81	3839673													9.883501	-0.242685	0.147667	0.015649	-0.999814	0.011268	-0.037019	0.010682	0.999257	-0.999192	-0.016055	-0.036845
82	3839840													9.893496	-0.232539	0.165561	0.015461	-0.999818	0.011179	-0.037064	0.010599	0.999257	-0.999193	-0.015864	-0.036893
83	3840006													9.888660	-0.246057	0.157164	0.015349	-0.999820	0.011182	-0.037079	0.010607	0.999256	-0.999194	-0.015752	-0.036909
84	3840173													9.890165	-0.267811	0.144042	0.015307	-0.999820	0.011249	-0.037193	0.010673	0.999251	-0.999191	-0.015714	-0.037023
85	3840340													9.872281	-0.274947	0.151664	0.015314	-0.999819	0.011266	-0.037394	0.010687	0.999243	-0.999183	-0.015723	-0.037223
86	3840506													9.863515	-0.276982	0.155325	0.015380	-0.999818	0.011321	-0.037541	0.010737	0.999237	-0.999177	-0.015793	-0.037369
87	3840673													9.861481	-0.292269	0.158894	0.015507	-0.999815	0.011389	-0.037615	0.010799	0.999234	-0.999172	-0.015924	-0.037441
88	3840840													9.842871	-0.292677	0.186338	0.015682	-0.999812	0.011425	-0.037640	0.010828	0.999233	-0.999168	-0.016100	-0.037464
89	3841006													9.833609	-0.291944	0.161366	0.015804	-0.999811	0.011291	-0.037709	0.010689	0.999232	-0.999164	-0.016217	-0.037533
90	3841173													9.853206	-0.273580	0.162592	0.015888	-0.999811	0.011209	-0.037793	0.010602	0.999229	-0.999159	-0.016299	-0.037617
91	3841340													9.864907	-0.249154	0.145716	0.015914	-0.999811	0.011142	-0.037864	0.010533	0.999227	-0.999156	-0.016324	-0.037689
92	3841506													9.864800	-0.238372	0.154646	0.015889	-0.999812	0.011110	-0.037952	0.010500	0.999224	-0.999153	-0.016298	-0.037779
93	3841673													9.856803	-0.256793	0.161695	0.015849	-0.999813	0.011088	-0.038007	0.010478	0.999223	-0.999152	-0.016259	-0.037834
94	3841840													9.901277	-0.254150	0.164438	0.015804	-0.999814	0.011089	-0.038079	0.010480	0.999220	-0.999150	-0.016214	-0.037907
95	3842006													9.833501	-0.262444	0.166108	0.015771	-0.999814	0.011097	-0.038124	0.010489	0.999218	-0.999149	-0.016181	-0.037951
96	3842173													9.857458	-0.293861	0.159774	0.015720	-0.999816	0.011031	-0.038228	0.010424	0.999215	-0.999145	-0.016129	-0.038057
97	3842340													9.823221	-0.281315	0.135102	0.015633	-0.999818	0.010980	-0.038343	0.010373	0.999211	-0.999142	-0.016041	-0.038173
98	3842506													9.840878	-0.270937	0.132023	0.015474	-0.999821	0.010907	-0.038365	0.010306	0.999211	-0.999144	-0.015880	-0.038198
99	3842673													9.858377	-0.270140	0.132602	0.015305	-0.999824	0.010859	-0.038347	0.010266	0.999212	-0.999147	-0.015709	-0.038183
100	3842840													9.877263	-0.282824	0.123104	0.015161	-0.999826	0.010849	-0.038384	0.010260	0.999210	-0.999148	-0.015565	-0.038222
101	3843006													9.882967	-0.274156	0.112093	0.015078	-0.999828	0.010839	-0.038449	0.010253	0.999208	-0.999147	-0.015483	-0.038287
102	3843173													9.886404	-0.258703	0.131562	0.015051	-0.999828	0.010852	-0.038478	0.010266	0.999207	-0.999146	-0.015456	-0.038317
103	3843340													9.880077	-0.246765	0.128815	0.015109	-0.999828	0.010768	-0.038482	0.010179	0.999207	-0.999145	-0.015511	-0.038322
104	3843506													9.889736	-0.263910	0.124853	0.015237	-0.999826	0.010755	-0.038458	0.010163	0.999209	-0.999144	-0.015639	-0.038296
105	3843673													9.859428	-0.261049	0.136286	0.015426	-0.999824	0.010638	-0.038423	0.010039	0.999211	-0.999142	-0.015822	-0.038261
106	3843840													9.841775	-0.238569	0.134287	0.015617	-0.999821	0.010669	-0.038370	0.010063	0.999213	-0.999142	-0.016015	-0.038206
107	3844006													9.827164	-0.231420	0.138986	0.015748	-0.999819	0.010635	-0.038322	0.010025	0.999215	-0.999141	-0.016143	-0.038157
108	3844173													9.824997	-0.234728	0.163136	0.015831	-0.999818	0.010642	-0.038275	0.010030	0.999217	-0.999142	-0.016226	-0.038109
109	3844340													9.811368	-0.232879	0.142244	0.015856	-0.999816	0.010789	-0.038287	0.010176	0.999215	-0.999141	-0.016257	-0.038119
110	3844506													9.817408	-0.223899	0.142552	0.015774	-0.999816	0.010884	-0.038318	0.010273	0.999213	-0.999141	-0.016178	-0.038148
111	3844673													9.831237	-0.233572	0.161293	0.015652	-0.999816	0.011094	-0.038340	0.010487	0.999210	-0.999142	-0.016065	-0.038169
112	3844840													9.846963	-0.258258	0.180764	0.015484	-0.999816	0.011313	-0.038316	0.010713	0.999208	-0.999146	-0.015906	-0.038143
113	3845006													9.867758	-0.292784	0.157643	0.015319	-0.999817	0.011418	-0.038263	0.010825	0.999209	-0.999150	-0.015743	-0.038090
114	3845173													9.892962	-0.285928	0.160472	0.015137	-0.999821	0.011342	-0.038187	0.010757	0.999213	-0.999156	-0.015558	-0.038017
115	3845340													9.912557	-0.273161	0.150165	0.015004	-0.999824	0.011247	-0.038125	0.010668	0.999216	-0.999160	-0.015421	-0.037958
116	3845506													9.888510	-0.254597	0.173088	0.014929	-0.999826	0.011156	-0.038064	0.010581	0.999219	-0.999164	-0.015342	-0.037900
117	3845673													9.862443	-0.232182	0.167692	0.014903	-0.999829	0.010939	-0.038032	0.010365	0.999223	-0.999165	-0.015307	-0.037871
118	3845840													9.883532	-0.211229	0.171898	0.014938	-0.999830	0.010790	-0.038002	0.010216	0.999225	-0.999166	-0.015336	-0.037843
119	3846006													9.842587	-0.218045	0.156116	0.015008	-0.999830	0.010669	-0.038033	0.010092	0.999226	-0.999164	-0.015402	-0.037876
120	3846173													9.832596	-0.227443	0.138217	0.015043	-0.999831	0.010585	-0.038099	0.010005	0.999224	-0.999161	-0.015435	-0.037942
121	3846340													9.833419	-0.226585	0.143839	0.015071	-0.999831	0.010538	-0.038193	0.009956	0.999221	-0.999157	-0.015462	-0.038036
122	3846506													9.842785	-0.234710	0.153323	0.015062	-0.999832	0.010486	-0.038298	0.009902	0.999217	-0.999153	-0.015452	-0.038142
123	3846673													9.867203	-0.250839	0.142666	0.015041	-0.999833	0.010422	-0.038391	0.009838	0.999214	-0.999150	-0.015429	-0.038236
124	3846840													9.860539	-0.226978	0.137766	0.014985	-0.999834	0.010406	-0.038475	0.009823	0.999211	-0.999147	-0.015374	-0.038321
125	3847006													9.852683	-0.226234	0.127442	0.014902	-0.999835	0.010367	-0.038543	0.009786	0.999209	-0.999146	-0.015289	-0.038390
126	3847173													9.867090	-0.206340	0.158059	0.014799	-0.999836	0.010461	-0.038658	0.009882	0.999204	-0.999143	-0.015192	-0.038505
127	3847340													9.826011	-0.212118	0.141138	0.014701	-0.999836	0.010551	-0.038803	0.009974	0.999197	-0.999139	-0.015098	-0.038650
128	3847506													9.833317	-0.227639	0.132831	0.014516	-0.999839	0.010569	-0.038954	0.009997	0.999191	-0.999136	-0.014916	-0.038803
129	3847673													9.845047	-0.252983	0.139986	0.014314	-0.999840	0.010687	-0.039119	0.010120	0.999183	-0.999132	-0.014720	-0.038968
130	3847840													9.857952	-0.284900	0.115816	0.014121	-0.999843	0.010720	-0.039317	0.010158	0.999175	-0.999127	-0.014531	-0.039167
131	3848006													9.811441	-0.265980	0.127109	0.013912	-0.999846	0.010718	-0.039429	0.010162	0.999171	-0.999126	-0.014323	-0.039281
132	3848173													9.829823	-0.279267	0.096716	0.013744	-0.999849	0.010633	-0.039508	0.010083	0.999168	-0.999125	-0.014152	-0.039363
133	3848340													9.878481	-0.269530	0.080723	0.013552	-0.999853	0.010509	-0.039613	0.009965	0.999165	-0.999123	-0.013957	-0.039472
134	3848506													9.918514	-0.239662	0.089065	0.013396	-0.999856	0.010426	-0.039719	0.009886	0.999162	-0.999121	-0.013799	-0.039581
135	3848673													9.933131	-0.209562	0.090882	0.013340	-0.999856	0.010479	-0.039693	0.009943	0.999162	-0.999123	-0.013745	-0.039554
136	3848840													9.901341	-0.225065	0.093039	0.013389	-0.999855	0.010517	-0.039649	0.009979	0.999164	-0.999124	-0.013795	-0.039509
137	3849006													9.881468	-0.251545	0.118111	0.013526	-0.999852	0.010678	-0.039728	0.010134	0.999159	-0.999119	-0.013939	-0.039585
138	3849173													9.873526	-0.252402	0.119168	0.013736	-0.999848	0.010772	-0.039808	0.010217	0.999155	-0.999113	-0.014153	-0.039662
139	3849340													9.839900	-0.256556	0.129964	0.014009	-0.999843	0.010847	-0.039840	0.010282	0.999153	-0.999108	-0.014429	-0.039689
140	3849506													9.817786	-0.266485	0.117550	0.014306	-0.999837	0.010977	-0.039761	0.010401	0.999155	-0.999107	-0.014730	-0.039606
141	3849673													9.824356	-0.257908	0.098261	0.014610	-0.999832	0.011079	-0.039709	0.010491	0.999156	-0.999104	-0.015038	-0.039550
142	3849840													9.856533	-0.252533	0.107944	0.014943	-0.999825	0.011232	-0.039672	0.010631	0.999156	-0.999101	-0.015376	-0.039506
143	3850006													9.887930	-0.251160	0.143944	0.015332	-0.999819	0.011248	-0.039661	0.010632	0.999157	-0.999096	-0.015766	-0.039491
144	3850173													9.915396	-0.250632	0.141691	0.015789	-0.999812	0.011269	-0.039648	0.010636	0.999157	-0.999089	-0.016223	-0.039473
145	3850340													9.903893	-0.256669	0.159863	0.016326	-0.999802	0.011367	-0.039636	0.010712	0.999157	-0.999081	-0.016762	-0.039453
146	3850506													9.915094	-0.256469	0.163251	0.016945	-0.999790	0.011499	-0.039608	0.010821	0.999157	-0.999072	-0.017386	-0.039416
147	3850673													9.877810	-0.248515	0.164347	0.017627	-0.999777	0.011608	-0.039530	0.010904	0.999159	-0.999063	-0.018071	-0.039329
148	3850840													9.760950	-0.266232	0.164264	0.018306	-0.999764	0.011666	-0.039523	0.010935	0.999159	-0.999051	-0.018751	-0.039313
149	3851006													9.809675	-0.267652	0.154271	0.018849	-0.999752	0.011825	-0.039590	0.011072	0.999155	-0.999038	-0.019301	-0.039371
150	3851173													9.782521	-0.237383	0.167754	0.019303	-0.999744	0.011793	-0.039636	0.011021	0.999153	-0.999028	-0.019754	-0.039413
151	3851340													9.824160	-0.226563	0.157659	0.019664	-0.999736	0.011912	-0.039550	0.011127	0.999156	-0.999024	-0.020119	-0.039320
152	3851507													9.878626	-0.241454	0.164403	0.020018	-0.999727	0.012017	-0.039517	0.011219	0.999156	-0.999018	-0.020476	-0.039282
153	3851673													9.879515	-0.272542	0.182489	0.020423	-0.999718	0.012152	-0.039508	0.011339	0.999155	-0.999011	-0.020885	-0.039265
154	3851840													9.910258	-0.247857	0.163566	0.020933	-0.999706	0.012263	-0.039520	0.011429	0.999153	-0.998999	-0.021400	-0.039269
155	3852007													9.903530	-0.253310	0.186583	0.021516	-0.999692	0.012392	-0.039467	0.011536	0.999154	-0.998989	-0.021987	-0.039207
156	3852173													9.878725	-0.262201	0.155064	0.022197	-0.999674	0.012602	-0.039339	0.011722	0.999157	-0.998979	-0.022674	-0.039066
157	3852340													9.879859	-0.257836	0.182181	0.022959	-0.999654	0.012801	-0.039229	0.011894	0.999159	-0.998966	-0.023442	-0.038942
158	3852507													9.877222	-0.250029	0.182459	0.023782	-0.999633	0.012993	-0.039066	0.012058	0.999164	-0.998954	-0.024270	-0.038765
159	3852673													9.878634	-0.252865	0.159587	0.024722	-0.999607	0.013202	-0.038855	0.012236	0.999170	-0.998939	-0.025214	-0.038538
160	3852840													9.928091	-0.242400	0.176891	0.025841	-0.999576	0.013453	-0.038595	0.012450	0.999177	-0.998921	-0.026338	-0.038257
161	3853007													9.901335	-0.232725	0.211875	0.027148	-0.999538	0.013659	-0.038275	0.012615	0.999188	-0.998898	-0.027648	-0.037915
162	3853173													9.902362	-0.255824	0.214138	0.028592	-0.999495	0.013863	-0.037947	0.012774	0.999198	-0.998871	-0.029095	-0.037563
163	3853340													9.884151	-0.228284	0.247019	0.030140	-0.999446	0.014135	-0.037569	0.012998	0.999210	-0.998839	-0.030648	-0.037156
164	3853507													9.897242	-0.233738	0.270004	0.031788	-0.999390	0.014450	-0.037163	0.013266	0.999221	-0.998803	-0.032300	-0.036719
165	3853673													9.898940	-0.221629	0.315269	0.033510	-0.999329	0.014791	-0.036773	0.013557	0.999232	-0.998762	-0.034029	-0.036294
166	3853840													9.866544	-0.223148	0.329508	0.035318	-0.999262	0.015085	-0.036371	0.013799	0.999243	-0.998714	-0.035840	-0.035857
167	3854007													9.869304	-0.224384	0.344248	0.037139	-0.999192	0.015361	-0.035982	0.014025	0.999254	-0.998662	-0.037664	-0.035432
168	3854173													9.842320	-0.213596	0.373090	0.038962	-0.999119	0.015567	-0.035614	0.014181	0.999265	-0.998606	-0.039487	-0.035030
169	3854340													9.842583	-0.214653	0.414155	0.040755	-0.999045	0.015760	-0.035262	0.014325	0.999275	-0.998547	-0.041282	-0.034644
170	3854507													9.841157	-0.216695	0.426086	0.042538	-0.998967	0.015958	-0.034940	0.014475	0.999285	-0.998484	-0.043066	-0.034289
171	3854673													9.828905	-0.194632	0.446446	0.044253	-0.998891	0.016076	-0.034583	0.014550	0.999296	-0.998422	-0.044778	-0.033901
172	3854840													9.815530	-0.176981	0.465308	0.045922	-0.998814	0.016164	-0.034260	0.014597	0.999306	-0.998357	-0.046444	-0.033549
173	3855007													9.836550	-0.169538	0.497942	0.047523	-0.998737	0.016291	-0.033946	0.014686	0.999316	-0.998293	-0.048043	-0.033206
174	3855173													9.844562	-0.171166	0.497495	0.049073	-0.998661	0.016368	-0.033660	0.014725	0.999325	-0.998228	-0.049591	-0.032893
175	3855340													9.870061	-0.160146	0.509144	0.050600	-0.998583	0.016490	-0.033415	0.014809	0.999332	-0.998160	-0.051117	-0.032618
176	3855507													9.849740	-0.149735	0.510794	0.052123	-0.998502	0.016659	-0.033218	0.014939	0.999336	-0.998088	-0.052641	-0.032389
177	3855673													9.852782	-0.155682	0.514054	0.053659	-0.998417	0.016868	-0.033003	0.015110	0.999341	-0.998014	-0.054181	-0.032140
178	3855840													9.839458	-0.172575	0.540961	0.055173	-0.998332	0.017018	-0.032807	0.015222	0.999346	-0.997938	-0.055695	-0.031913
179	3856007													9.877580	-0.177465	0.542451	0.056726	-0.998241	0.017233	-0.032629	0.015398	0.999349	-0.997856	-0.057252	-0.031698
180	3856173													9.868328	-0.206333	0.558058	0.058347	-0.998144	0.017432	-0.032394	0.015560	0.999354	-0.997771	-0.058874	-0.031426
181	3856340													9.859273	-0.194255	0.579105	0.060022	-0.998043	0.017521	-0.032172	0.015609	0.999360	-0.997678	-0.060547	-0.031173
182	3856507													9.838477	-0.163041	0.583649	0.061744	-0.997937	0.017610	-0.031889	0.015662	0.999369	-0.997582	-0.062267	-0.030856
183	3856673													9.854759	-0.155551	0.579717	0.063478	-0.997825	0.017755	-0.031550	0.015776	0.999378	-0.997484	-0.063998	-0.030480
184	3856840													9.875525	-0.157699	0.596409	0.065273	-0.997707	0.017900	-0.031248	0.015886	0.999385	-0.997378	-0.065792	-0.030140
185	3857007													9.907003	-0.146708	0.619174	0.067132	-0.997581	0.018037	-0.030942	0.015988	0.999393	-0.997264	-0.067649	-0.029794
186	3857173													9.917711	-0.117301	0.652740	0.069086	-0.997444	0.018253	-0.030562	0.016172	0.999402	-0.997142	-0.069603	-0.029367
187	3857340													9.920318	-0.140194	0.696591	0.071184	-0.997291	0.018560	-0.030146	0.016448	0.999410	-0.997008	-0.071701	-0.028893
188	3857507													9.905783	-0.151623	0.707233	0.073400	-0.997123	0.018913	-0.029746	0.016766	0.999417	-0.996859	-0.073920	-0.028429
189	3857673													9.856444	-0.166628	0.707514	0.075709	-0.996945	0.019210	-0.029399	0.017026	0.999423	-0.996696	-0.076230	-0.028020
190	3857840													9.831708	-0.146335	0.738634	0.078058	-0.996758	0.019491	-0.029048	0.017269	0.999429	-0.996526	-0.078579	-0.027606
191	3858007													9.797337	-0.166648	0.763758	0.080414	-0.996566	0.019746	-0.028635	0.017493	0.999437	-0.996350	-0.080934	-0.027130
192	3858173													9.827972	-0.165488	0.780321	0.082752	-0.996370	0.019997	-0.028186	0.017718	0.999446	-0.996172	-0.083270	-0.026618
193	3858340													9.828632	-0.166116	0.797294	0.085090	-0.996168	0.020203	-0.027730	0.017901	0.999455	-0.995987	-0.085604	-0.026100
194	3858507													9.835131	-0.138429	0.836891	0.087402	-0.995965	0.020379	-0.027320	0.018053	0.999464	-0.995798	-0.087912	-0.025631
195	3858673													9.847073	-0.133472	0.856328	0.089718	-0.995755	0.020578	-0.026931	0.018228	0.999471	-0.995603	-0.090225	-0.025181
196	3858840													9.852380	-0.110690	0.893864	0.092003	-0.995543	0.020749	-0.026514	0.018381	0.999479	-0.995406	-0.092505	-0.024705
197	3859007													9.850274	-0.128553	0.881632	0.094296	-0.995324	0.020946	-0.026091	0.018562	0.999487	-0.995202	-0.094794	-0.024218
198	3859173													9.875796	-0.104894	0.910353	0.096618	-0.995097	0.021153	-0.025665	0.018755	0.999495	-0.994991	-0.097112	-0.023727
199	3859340													9.806437	-0.131476	0.919830	0.098976	-0.994860	0.021363	-0.025266	0.018948	0.999501	-0.994769	-0.099467	-0.023261
200	3859507													9.847878	-0.141476	0.941463	0.101335	-0.994619	0.021551	-0.024944	0.019115	0.999506	-0.994540	-0.101823	-0.022873
201	3859673													9.830518	-0.113937	0.979094	0.103759	-0.994365	0.021745	-0.024605	0.019290	0.999511	-0.994298	-0.104243	-0.022465
202	3859840													9.845286	-0.104215	0.967856	0.106205	-0.994102	0.021964	-0.024114	0.019507	0.999519	-0.994052	-0.106683	-0.021900
203	3860007													9.851045	-0.129784	1.006666	0.108746	-0.993821	0.022218	-0.023585	0.019765	0.999526	-0.993790	-0.109219	-0.021290
204	3860173													9.874144	-0.121547	1.017512	0.111374	-0.993524	0.022476	-0.023030	0.020030	0.999534	-0.993512	-0.111840	-0.020650
205	3860340													9.884871	-0.093242	1.043058	0.114175	-0.993200	0.022752	-0.022488	0.020312	0.999541	-0.993206	-0.114634	-0.020016
206	3860507													9.891061	-0.081868	1.091776	0.117151	-0.992847	0.023039	-0.021947	0.020605	0.999547	-0.992872	-0.117604	-0.019376
207	3860673													9.867702	-0.083788	1.109675	0.120287	-0.992464	0.023371	-0.021332	0.020953	0.999553	-0.992510	-0.120732	-0.018651
208	3860840													9.846219	-0.080733	1.134640	0.123549	-0.992055	0.023721	-0.020691	0.021323	0.999559	-0.992123	-0.123985	-0.017892
209	3861007													9.817457	-0.077974	1.172238	0.126876	-0.991626	0.024086	-0.020018	0.021718	0.999564	-0.991717	-0.127303	-0.017095
210	3861173													9.814658	-0.063879	1.235068	0.130245	-0.991180	0.024467	-0.019301	0.022138	0.999569	-0.991294	-0.130661	-0.016248
211	3861340													9.791998	-0.068634	1.239361	0.133653	-0.990718	0.024803	-0.018569	0.022519	0.999574	-0.990854	-0.134056	-0.015387
212	3861507													9.799711	-0.053994	1.277761	0.137096	-0.990238	0.025149	-0.017836	0.022917	0.999578	-0.990397	-0.137487	-0.014520
213	3861673													9.801826	-0.041861	1.337505	0.140549	-0.989745	0.025518	-0.017076	0.023347	0.999582	-0.989926	-0.140926	-0.013619
214	3861840													9.800499	-0.037434	1.366487	0.144011	-0.989238	0.025879	-0.016300	0.023776	0.999584	-0.989442	-0.144373	-0.012700
215	3862007													9.789464	-0.015169	1.416563	0.147496	-0.988715	0.026230	-0.015512	0.024205	0.999587	-0.988941	-0.147842	-0.011767
216	3862173													9.786462	-0.022787	1.430167	0.150982	-0.988178	0.026605	-0.014706	0.024665	0.999588	-0.988427	-0.151311	-0.010808
217	3862340													9.810836	0.002397	1.457505	0.154519	-0.987621	0.026982	-0.013901	0.025134	0.999587	-0.987892	-0.154831	-0.009845
218	3862507													9.792503	-0.003430	1.500341	0.158132	-0.987038	0.027396	-0.013113	0.025644	0.999585	-0.987331	-0.158426	-0.008888
219	3862673													9.798633	0.014316	1.561117	0.161805	-0.986430	0.027837	-0.012327	0.026186	0.999581	-0.986746	-0.162081	-0.007923
220	3862840													9.792938	0.016499	1.555260	0.165550	-0.985797	0.028256	-0.011554	0.026710	0.999576	-0.986134	-0.165806	-0.006968
221	3863007													9.775311	0.008394	1.598992	0.169368	-0.985136	0.028677	-0.010772	0.027245	0.999571	-0.985494	-0.169604	-0.005997
222	3863173													9.799310	0.013229	1.640522	0.173270	-0.984444	0.029109	-0.009955	0.027803	0.999564	-0.984824	-0.173484	-0.004983
223	3863340													9.789439	0.009184	1.672802	0.177298	-0.983715	0.029511	-0.009108	0.028345	0.999557	-0.984115	-0.177488	-0.003934
224	3863507													9.783771	0.031682	1.737079	0.181424	-0.982950	0.029896	-0.008250	0.028878	0.999549	-0.983370	-0.181589	-0.002870
225	3863673													9.774056	0.054911	1.742733	0.185656	-0.982148	0.030292	-0.007359	0.029437	0.999540	-0.982587	-0.185794	-0.001762
226	3863840													9.794653	0.059002	1.777999	0.190040	-0.981296	0.030710	-0.006432	0.030035	0.999528	-0.981755	-0.190148	-0.000604
227	3864007													9.804999	0.070453	1.808260	0.194646	-0.980377	0.031195	-0.005444	0.030723	0.999513	-0.980859	-0.194721	0.000643
228	3864173													9.815750	0.108569	1.856895	0.199518	-0.979379	0.031764	-0.004457	0.031509	0.999494	-0.979884	-0.199558	0.001921
229	3864340													9.784174	0.087883	1.930376	0.204617	-0.978306	0.032405	-0.003475	0.032379	0.999470	-0.978836	-0.204621	0.003225
230	3864507													9.727066	0.075475	1.954139	0.209905	-0.977163	0.033038	-0.002470	0.033261	0.999444	-0.977719	-0.209870	0.004568
231	3864673													9.712578	0.083424	2.007044	0.215285	-0.975971	0.033650	-0.001443	0.034140	0.999416	-0.976550	-0.215208	0.005941
232	3864840													9.711917	0.088918	2.080544	0.220761	-0.974726	0.034255	-0.000384	0.035035	0.999386	-0.975328	-0.220638	0.007360
233	3865007													9.680044	0.074463	2.143590	0.226305	-0.973435	0.034791	0.000688	0.035877	0.999356	-0.974056	-0.226135	0.008789
234	3865173													9.614461	0.103261	2.201994	0.231855	-0.972113	0.035208	0.001809	0.036625	0.999327	-0.972749	-0.231635	0.010250
235	3865340													9.582289	0.127022	2.265719	0.237327	-0.970778	0.035575	0.002921	0.037334	0.999299	-0.971425	-0.237057	0.011696
236	3865507													9.611001	0.126163	2.352623	0.242680	-0.969443	0.035866	0.003989	0.037968	0.999271	-0.970098	-0.242360	0.013081
237	3865673													9.591574	0.168905	2.418201	0.247926	-0.968106	0.036094	0.005042	0.038546	0.999244	-0.968766	-0.247556	0.014438
238	3865840													9.604974	0.211856	2.490602	0.253034	-0.966775	0.036323	0.006126	0.039145	0.999215	-0.967438	-0.252612	0.015828
239	3866007													9.557657	0.195219	2.565059	0.258030	-0.965445	0.036563	0.007158	0.039754	0.999184	-0.966110	-0.257558	0.017169
240	3866173													9.525162	0.195815	2.624460	0.262892	-0.964125	0.036745	0.008140	0.040300	0.999154	-0.964791	-0.262370	0.018442
241	3866340													9.542127	0.227182	2.665579	0.267620	-0.962818	0.036887	0.009053	0.040794	0.999127	-0.963482	-0.267052	0.019634
242	3866507													9.524793	0.275539	2.731386	0.272314	-0.961495	0.037048	0.009913	0.041305	0.999097	-0.962157	-0.271701	0.020779
243	3866673													9.492787	0.320647	2.765898	0.276997	-0.960143	0.037384	0.010698	0.041986	0.999061	-0.960811	-0.276337	0.021902
244	3866840													9.474130	0.308081	2.819689	0.281644	-0.958773	0.037830	0.011491	0.042793	0.999018	-0.959450	-0.280933	0.023069
245	3867007													9.496731	0.289203	2.856081	0.286304	-0.957370	0.038379	0.012253	0.043711	0.998969	-0.958061	-0.285539	0.024245
246	3867173													9.487992	0.260737	2.874888	0.291015	-0.955924	0.038978	0.013004	0.044690	0.998916	-0.956630	-0.290193	0.025436
247	3867340													9.495810	0.267881	2.916096	0.295797	-0.954431	0.039567	0.013775	0.045678	0.998861	-0.955151	-0.294915	0.026658
248	3867507													9.504492	0.265050	2.935133	0.300712	-0.952869	0.040172	0.014553	0.046701	0.998803	-0.953604	-0.299767	0.027911
249	3867673													9.519571	0.277900	2.979731	0.305778	-0.951230	0.040751	0.015417	0.047742	0.998741	-0.951978	-0.304765	0.029263
250	3867840													9.541633	0.269117	2.987432	0.311105	-0.949477	0.041310	0.016329	0.048801	0.998675	-0.950235	-0.310019	0.030686
251	3868007													9.517564	0.270942	3.049374	0.316743	-0.947588	0.041848	0.017303	0.049884	0.998605	-0.948354	-0.315577	0.032196
252	3868174													9.488929	0.292952	3.042338	0.322604	-0.945586	0.042360	0.018290	0.050972	0.998533	-0.946357	-0.321356	0.033739
253	3868340													9.392951	0.315757	3.092155	0.328660	-0.943474	0.042881	0.019223	0.052076	0.998458	-0.944253	-0.327329	0.035252
254	3868507													9.350822	0.336894	3.145538	0.334702	-0.941322	0.043440	0.020133	0.053232	0.998379	-0.942109	-0.333285	0.036769
255	3868674													9.357007	0.355031	3.236394	0.340739	-0.939125	0.044055	0.021076	0.054477	0.998293	-0.939922	-0.339229	0.038355
256	3868840													9.368546	0.341459	3.306076	0.346803	-0.936872	0.044705	0.022026	0.055785	0.998200	-0.937679	-0.345194	0.039982
257	3869007													9.389960	0.368910	3.376090	0.352982	-0.934529	0.045384	0.022960	0.057143	0.998102	-0.935348	-0.351270	0.041627
258	3869174													9.374250	0.376075	3.407783	0.359332	-0.932071	0.046081	0.023860	0.058539	0.998000	-0.932905	-0.357514	0.043275
259	3869340													9.340018	0.385066	3.467718	0.365886	-0.929482	0.046800	0.024802	0.060008	0.997890	-0.930329	-0.363953	0.045009
260	3869507													9.272474	0.384497	3.523354	0.372584	-0.926778	0.047581	0.025748	0.061577	0.997770	-0.927641	-0.370528	0.046806
261	3869674													9.235518	0.416167	3.613722	0.379390	-0.923969	0.048429	0.026685	0.063248	0.997641	-0.924852	-0.377202	0.048652
262	3869840													9.165637	0.440642	3.709897	0.386240	-0.921079	0.049325	0.027555	0.064973	0.997507	-0.921987	-0.383918	0.050475
263	3870007													9.050664	0.457559	3.796505	0.392911	-0.918199	0.050321	0.028318	0.066777	0.997366	-0.919141	-0.390451	0.052239
264	3870174													8.942942	0.441871	3.901499	0.399154	-0.915443	0.051383	0.028834	0.068546	0.997231	-0.916430	-0.396567	0.053756
265	3870340													8.943136	0.419518	3.981840	0.404868	-0.912868	0.052475	0.029095	0.070222	0.997107	-0.913912	-0.402170	0.054991
266	3870507													9.014763	0.402067	4.063092	0.410200	-0.910423	0.053534	0.029162	0.071764	0.996995	-0.911529	-0.407407	0.055987
267	3870674													9.090283	0.373410	4.142671	0.415388	-0.908013	0.054446	0.029150	0.073111	0.996898	-0.909177	-0.412512	0.056838
268	3870840													9.099753	0.347373	4.155636	0.420562	-0.905583	0.055205	0.029115	0.074287	0.996812	-0.906796	-0.417614	0.057608
269	3871007													9.055846	0.323873	4.206540	0.425755	-0.903121	0.055735	0.029062	0.075213	0.996744	-0.904372	-0.422749	0.058269
270	3871174													8.990295	0.317756	4.281178	0.430955	-0.900630	0.056065	0.028999	0.075921	0.996692	-0.901907	-0.427904	0.058836
271	3871340													8.953259	0.330889	4.359777	0.436064	-0.898158	0.056220	0.028968	0.076449	0.996653	-0.899449	-0.432976	0.059354
272	3871507													8.878742	0.325885	4.379092	0.441048	-0.895722	0.056210	0.028955	0.076799	0.996626	-0.897016	-0.437932	0.059808
273	3871674													8.857829	0.337191	4.451842	0.445902	-0.893326	0.056040	0.028991	0.076990	0.996610	-0.894612	-0.442766	0.060229
274	3871840													8.863926	0.346054	4.494369	0.450680	-0.890943	0.055751	0.029094	0.077079	0.996600	-0.892211	-0.447526	0.060659
275	3872007													8.866888	0.366863	4.529144	0.455501	-0.888509	0.055414	0.029290	0.077170	0.996588	-0.889753	-0.452323	0.061175
276	3872174													8.838199	0.393262	4.578844	0.460346	-0.886029	0.055082	0.029603	0.077334	0.996566	-0.887246	-0.457135	0.061829
277	3872340													8.805361	0.406999	4.639924	0.465196	-0.883511	0.054789	0.029932	0.077559	0.996538	-0.884702	-0.461945	0.062525
278	3872507													8.782187	0.420730	4.688663	0.469969	-0.880995	0.054563	0.030253	0.077856	0.996505	-0.882164	-0.466676	0.063243
279	3872674													8.773465	0.428341	4.727995	0.474667	-0.878481	0.054422	0.030569	0.078248	0.996465	-0.879635	-0.471325	0.063996
280	3872840													8.755275	0.438032	4.782275	0.479380	-0.875921	0.054381	0.030856	0.078749	0.996417	-0.877065	-0.475984	0.064778
281	3873007													8.720336	0.433225	4.812040	0.484056	-0.873344	0.054409	0.031155	0.079341	0.996361	-0.874482	-0.480599	0.065615
282	3873174													8.691185	0.425007	4.838518	0.488695	-0.870751	0.054502	0.031444	0.080008	0.996298	-0.871888	-0.485172	0.066479
283	3873340													8.690394	0.436025	4.886069	0.493349	-0.868113	0.054653	0.031756	0.080765	0.996227	-0.869252	-0.489752	0.067413
284	3873507													8.702540	0.410932	4.905765	0.498085	-0.865391	0.054858	0.032078	0.081610	0.996148	-0.866534	-0.494407	0.068409
285	3873674													8.724614	0.415936	4.944650	0.502992	-0.862535	0.055061	0.032423	0.082493	0.996064	-0.863683	-0.499227	0.069459
286	3873840													8.607913	0.412892	4.968876	0.508068	-0.859541	0.055285	0.032818	0.083458	0.995971	-0.860692	-0.504206	0.070611
287	3874007													8.576667	0.422227	5.035874	0.513118	-0.856519	0.055542	0.033186	0.084460	0.995874	-0.857676	-0.509158	0.071763
288	3874174													8.538658	0.418570	5.099939	0.518166	-0.853455	0.055835	0.033626	0.085561	0.995765	-0.854619	-0.514095	0.073033
289	3874340													8.490087	0.460146	5.123396	0.523181	-0.850367	0.056193	0.034161	0.086810	0.995639	-0.851536	-0.518980	0.074467
290	3874507													8.492119	0.449519	5.183817	0.528108	-0.847286	0.056640	0.034747	0.088205	0.995496	-0.848466	-0.523761	0.076022
291	3874674													8.498869	0.464034	5.256206	0.532947	-0.844219	0.057117	0.035307	0.089630	0.995349	-0.845412	-0.528452	0.077575
292	3874840													8.486778	0.471007	5.324495	0.537729	-0.841143	0.057670	0.035870	0.091163	0.995190	-0.842354	-0.533074	0.079193
293	3875007													8.477328	0.476671	5.399367	0.542533	-0.838011	0.058268	0.036488	0.092808	0.995015	-0.839242	-0.537702	0.080929
294	3875174													8.407139	0.486635	5.425846	0.547356	-0.834822	0.058942	0.037074	0.094547	0.994830	-0.836078	-0.542341	0.082701
295	3875340													8.306476	0.484381	5.486267	0.552078	-0.831659	0.059617	0.037672	0.096308	0.994638	-0.832941	-0.546872	0.084499
296	3875507													8.243258	0.480972	5.514622	0.556665	-0.828545	0.060314	0.038236	0.098079	0.994444	-0.829857	-0.551266	0.086278
297	3875674													8.228052	0.485904	5.534385	0.561142	-0.825467	0.061026	0.038788	0.099871	0.994244	-0.826810	-0.555545	0.088060
298	3875840													8.246749	0.470297	5.564149	0.565604	-0.822366	0.061695	0.039343	0.101633	0.994044	-0.823738	-0.559808	0.089839
299	3876007													8.263364	0.485704	5.563674	0.570200	-0.819141	0.062289	0.039924	0.103365	0.993842	-0.820535	-0.564202	0.091643
300	3876174													8.259731	0.470765	5.632032	0.575019	-0.815728	0.062779	0.040515	0.105031	0.993643	-0.817137	-0.568820	0.093444
301	3876340													8.236425	0.481347	5.669742	0.580020	-0.812149	0.063175	0.041152	0.106667	0.993443	-0.813562	-0.573617	0.095290
302	3876507													8.210108	0.496878	5.746414	0.585223	-0.808387	0.063446	0.041848	0.108250	0.993243	-0.809792	-0.578613	0.097180
303	3876674													8.155043	0.487913	5.788842	0.590581	-0.804469	0.063593	0.042632	0.109797	0.993039	-0.805851	-0.583759	0.099140
304	3876840													8.076829	0.495360	5.815876	0.596021	-0.800442	0.063656	0.043493	0.111341	0.992830	-0.801790	-0.588979	0.101175
305	3877007													8.044343	0.505306	5.884576	0.601526	-0.796316	0.063616	0.044400	0.112838	0.992621	-0.797618	-0.594263	0.103231
306	3877174													7.971398	0.513393	5.908202	0.607127	-0.792062	0.063519	0.045295	0.114305	0.992413	-0.793313	-0.599644	0.105274
307	3877340													7.943460	0.543339	5.941927	0.612773	-0.787719	0.063310	0.046215	0.115697	0.992209	-0.788906	-0.605073	0.107301
308	3877507													7.874186	0.577742	6.001117	0.618492	-0.783254	0.063097	0.047159	0.117152	0.991994	-0.784375	-0.610565	0.109395
309	3877674													7.868351	0.602026	6.065952	0.624279	-0.778662	0.062940	0.048133	0.118755	0.991756	-0.779717	-0.616103	0.111616
310	3877840													7.852491	0.612840	6.202775	0.630126	-0.773948	0.062825	0.049145	0.120497	0.991496	-0.774936	-0.621680	0.113964
311	3878007													7.798926	0.618339	6.339622	0.635980	-0.769146	0.062801	0.050098	0.122358	0.991221	-0.770077	-0.627251	0.116350
312	3878174													7.696316	0.636214	6.472964	0.641707	-0.764373	0.062823	0.050993	0.124254	0.990939	-0.765253	-0.632689	0.118712
313	3878340													7.584374	0.654535	6.549675	0.647172	-0.759743	0.062919	0.051839	0.126199	0.990650	-0.760580	-0.637859	0.121057
314	3878507													7.480605	0.667915	6.629380	0.652252	-0.755372	0.063094	0.052647	0.128181	0.990352	-0.756172	-0.642637	0.123374
315	3878674													7.425810	0.673303	6.681061	0.656908	-0.751307	0.063329	0.053372	0.130120	0.990061	-0.752080	-0.646999	0.125575
316	3878840													7.421108	0.667302	6.717805	0.661162	-0.747544	0.063591	0.054040	0.131992	0.989777	-0.748295	-0.650966	0.127665
317	3879007													7.455441	0.676003	6.741696	0.665156	-0.743969	0.063860	0.054651	0.133797	0.989501	-0.744702	-0.654682	0.129654
318	3879174													7.441757	0.674499	6.789198	0.669015	-0.740478	0.064126	0.055193	0.135535	0.989234	-0.741197	-0.658273	0.131544
319	3879340													7.432859	0.672819	6.786529	0.672816	-0.737009	0.064308	0.055682	0.137127	0.988987	-0.737711	-0.661826	0.133300
320	3879507													7.380290	0.666234	6.833670	0.676604	-0.733523	0.064425	0.056146	0.138631	0.988751	-0.734203	-0.665376	0.134983
321	3879674													7.308778	0.687266	6.842740	0.680327	-0.730069	0.064453	0.056615	0.140028	0.988528	-0.730719	-0.668873	0.136597
322	3879840													7.280140	0.678791	6.882017	0.683995	-0.726641	0.064370	0.057067	0.141269	0.988325	-0.727251	-0.672336	0.138095
323	3880007													7.263617	0.676775	6.914612	0.687584	-0.723261	0.064205	0.057500	0.142382	0.988140	-0.723825	-0.675738	0.139487
324	3880174													7.245171	0.670886	6.930899	0.691167	-0.719864	0.063911	0.057960	0.143364	0.987971	-0.720367	-0.679149	0.140812
325	3880340													7.187808	0.691729	6.923090	0.694764	-0.716424	0.063561	0.058406	0.144278	0.987812	-0.716863	-0.682584	0.142082
326	3880507													7.154400	0.701606	6.942701	0.698360	-0.712956	0.063143	0.058845	0.145112	0.987664	-0.713323	-0.686030	0.143294
327	3880674													7.146703	0.714674	6.979969	0.701998	-0.709412	0.062711	0.059228	0.145905	0.987524	-0.709712	-0.689526	0.144442
328	3880840													7.155813	0.732130	7.031555	0.705713	-0.705757	0.062256	0.059607	0.146702	0.987383	-0.705986	-0.693099	0.145598
329	3881007													7.108606	0.712732	7.052606	0.709535	-0.701956	0.061778	0.059978	0.147511	0.987240	-0.702113	-0.696777	0.146767
330	3881174													7.022422	0.700822	7.050473	0.713379	-0.698093	0.061285	0.060321	0.148299	0.987101	-0.698177	-0.700480	0.147904
331	3881340													6.906284	0.710298	7.081485	0.717120	-0.694288	0.060846	0.060591	0.149079	0.986967	-0.694311	-0.704087	0.148976
332	3881507													6.848869	0.676592	7.116991	0.720668	-0.690634	0.060512	0.060800	0.149908	0.986829	-0.690609	-0.707497	0.150024
333	3881674													6.873571	0.673084	7.164826	0.724058	-0.687099	0.060292	0.060964	0.150822	0.986679	-0.687040	-0.710737	0.151092
334	3881840													6.906673	0.685659	7.216135	0.727392	-0.683577	0.060204	0.061195	0.152000	0.986484	-0.683489	-0.713876	0.152395
335	3882007													6.895978	0.751979	7.293462	0.730756	-0.679966	0.060344	0.061571	0.153691	0.986199	-0.679856	-0.716955	0.154177
336	3882174													6.898521	0.794440	7.327250	0.734139	-0.676276	0.060752	0.061980	0.155843	0.985835	-0.676164	-0.719975	0.156326
337	3882340													6.873425	0.785004	7.386256	0.737545	-0.672503	0.061376	0.062335	0.158298	0.985422	-0.672414	-0.722967	0.158673
338	3882507													6.822805	0.790642	7.438375	0.740934	-0.668695	0.062164	0.062546	0.160871	0.984992	-0.668659	-0.725926	0.161019
339	3882674													6.778193	0.780595	7.463254	0.744257	-0.664916	0.062995	0.062612	0.163363	0.984577	-0.664952	-0.728834	0.163216
340	3882840													6.729712	0.757823	7.515125	0.747486	-0.661208	0.063792	0.062490	0.165599	0.984211	-0.661332	-0.731698	0.165102
341	3883007													6.644884	0.717456	7.562126	0.750547	-0.657671	0.064404	0.062331	0.167485	0.983902	-0.657871	-0.734451	0.166698
342	3883174													6.642474	0.670243	7.605840	0.753433	-0.654325	0.064785	0.062140	0.168945	0.983665	-0.654581	-0.737100	0.167948
343	3883340													6.599131	0.634634	7.648717	0.756162	-0.651163	0.064854	0.062023	0.169978	0.983494	-0.651439	-0.739658	0.168918
344	3883507													6.573483	0.629567	7.678908	0.758742	-0.648185	0.064540	0.062076	0.170580	0.983387	-0.648426	-0.742131	0.169663
345	3883674													6.545352	0.626566	7.726924	0.761222	-0.645334	0.063916	0.062345	0.170932	0.983308	-0.645487	-0.744531	0.170350
346	3883840													6.498454	0.636093	7.762106	0.763633	-0.642568	0.063016	0.062781	0.171036	0.983263	-0.642591	-0.746896	0.170950
347	3884007													6.423598	0.648169	7.782842	0.765925	-0.639939	0.061941	0.063325	0.170962	0.983241	-0.639804	-0.749166	0.171468
348	3884174													6.325907	0.712710	7.812863	0.768053	-0.637495	0.060778	0.063970	0.170810	0.983225	-0.637183	-0.751282	0.171971
349	3884340													6.287477	0.753396	7.819087	0.769981	-0.635265	0.059721	0.064648	0.170786	0.983185	-0.634783	-0.753173	0.172571
350	3884507													6.263603	0.800250	7.831985	0.771756	-0.633184	0.058911	0.065283	0.171037	0.983099	-0.632558	-0.754867	0.173335
351	3884674													6.277760	0.832615	7.864677	0.773419	-0.631200	0.058391	0.065783	0.171538	0.982979	-0.630472	-0.756413	0.174193
352	3884841													6.251789	0.865546	7.843543	0.775002	-0.629270	0.058236	0.066034	0.172282	0.982832	-0.628499	-0.757851	0.175072
353	3885007													6.228294	0.864619	7.884167	0.776481	-0.627420	0.058496	0.065990	0.173283	0.982659	-0.626676	-0.759155	0.175954
354	3885174													6.236349	0.844069	7.878957	0.777864	-0.625635	0.059233	0.065669	0.174662	0.982436	-0.624992	-0.760312	0.176948
355	3885341													6.231567	0.820634	7.898278	0.779147	-0.623928	0.060373	0.065118	0.176355	0.982170	-0.623450	-0.761323	0.178035
356	3885507													6.206600	0.751669	7.892092	0.780321	-0.622317	0.061814	0.064394	0.178272	0.981872	-0.622055	-0.762195	0.179183
357	3885674													6.246972	0.708373	7.908375	0.781364	-0.620848	0.063389	0.063601	0.180262	0.981560	-0.620827	-0.762924	0.180337
358	3885841													6.273465	0.613997	7.881574	0.782319	-0.619484	0.064941	0.062880	0.182272	0.981235	-0.619696	-0.763555	0.181548
359	3886007													6.252263	0.574485	7.906724	0.783197	-0.618232	0.066267	0.062316	0.184088	0.980932	-0.618643	-0.764134	0.182703
360	3886174													6.253296	0.586277	7.909680	0.783990	-0.617119	0.067259	0.062024	0.185676	0.980652	-0.617667	-0.764649	0.183844
361	3886341													6.242864	0.618779	7.910805	0.784718	-0.616114	0.067982	0.062003	0.187145	0.980374	-0.616744	-0.765102	0.185057
362	3886507													6.262091	0.617125	7.869370	0.785384	-0.615220	0.068386	0.062243	0.188407	0.980117	-0.615872	-0.765511	0.186265
363	3886674													6.277268	0.630228	7.874244	0.786029	-0.614383	0.068505	0.062688	0.189461	0.979885	-0.615004	-0.765923	0.187436
364	3886841													6.268700	0.657786	7.875206	0.786690	-0.613552	0.068363	0.063252	0.190260	0.979694	-0.614100	-0.766391	0.188484
365	3887007													6.249348	0.729640	7.872240	0.787350	-0.612737	0.068071	0.063856	0.190872	0.979536	-0.613190	-0.766891	0.189410
366	3887174													6.224629	0.779253	7.863353	0.788003	-0.611937	0.067709	0.064443	0.191354	0.979403	-0.612289	-0.767410	0.190222
367	3887341													6.203221	0.822377	7.850737	0.788627	-0.611170	0.067365	0.064975	0.191781	0.979285	-0.611429	-0.767913	0.190954
368	3887507													6.233115	0.835380	7.834237	0.789276	-0.610365	0.067067	0.065381	0.192140	0.979187	-0.610548	-0.768464	0.191558
369	3887674													6.240586	0.842127	7.846658	0.789975	-0.609482	0.066866	0.065668	0.192530	0.979091	-0.609613	-0.769067	0.192117
370	3887841													6.232929	0.813314	7.860042	0.790736	-0.608506	0.066756	0.065833	0.192949	0.978998	-0.608607	-0.769735	0.192631
371	3888007													6.225607	0.810880	7.834778	0.791546	-0.607461	0.066680	0.065877	0.193295	0.978926	-0.607549	-0.770473	0.193020
372	3888174													6.225828	0.796743	7.874531	0.792428	-0.606313	0.066654	0.065807	0.193618	0.978868	-0.606406	-0.771295	0.193328
373	3888341													6.224857	0.799739	7.899746	0.793369	-0.605085	0.066615	0.065715	0.193923	0.978813	-0.605183	-0.772183	0.193616
374	3888507													6.197406	0.787618	7.904978	0.794371	-0.603774	0.066572	0.065592	0.194216	0.978763	-0.603882	-0.773134	0.193882
375	3888674													6.170512	0.760579	7.899590	0.795400	-0.602426	0.066503	0.065465	0.194478	0.978720	-0.602539	-0.774120	0.194126
376	3888841													6.139853	0.766418	7.940616	0.796445	-0.601061	0.066345	0.065333	0.194600	0.978705	-0.601172	-0.775149	0.194257
377	3889007													6.113325	0.774222	7.960155	0.797463	-0.599733	0.066131	0.065193	0.194607	0.978712	-0.599836	-0.776175	0.194290
378	3889174													6.079267	0.751958	8.003279	0.798463	-0.598432	0.065841	0.065035	0.194459	0.978752	-0.598520	-0.777216	0.194187
379	3889341													6.060817	0.746853	8.042699	0.799393	-0.597226	0.065508	0.064883	0.194210	0.978812	-0.597294	-0.778206	0.194000
380	3889507													6.032338	0.755523	8.108464	0.800287	-0.596074	0.065096	0.064767	0.193858	0.978889	-0.596109	-0.779176	0.193748
381	3889674													6.020974	0.755551	8.146517	0.801110	-0.595018	0.064624	0.064658	0.193379	0.978991	-0.595015	-0.780101	0.193390
382	3889841													5.970495	0.761789	8.172968	0.801818	-0.594115	0.064150	0.064542	0.192826	0.979108	-0.594072	-0.780926	0.192956
383	3890007													5.929023	0.764155	8.203751	0.802359	-0.593427	0.063750	0.064401	0.192270	0.979227	-0.593357	-0.781586	0.192487
384	3890174													5.920067	0.772376	8.234374	0.802696	-0.593006	0.063427	0.064244	0.191710	0.979347	-0.592918	-0.782043	0.191982
385	3890341													5.901912	0.753988	8.263271	0.802837	-0.592843	0.063164	0.064094	0.191152	0.979466	-0.592744	-0.782303	0.191461
386	3890507													5.904756	0.755185	8.261346	0.802763	-0.592962	0.062990	0.063909	0.190582	0.979589	-0.592863	-0.782352	0.190888
387	3890674													5.904081	0.733345	8.295367	0.802487	-0.593345	0.062899	0.063687	0.189992	0.979718	-0.593261	-0.782205	0.190255
388	3890841													5.889770	0.675303	8.301144	0.802010	-0.593998	0.062820	0.063435	0.189280	0.979872	-0.593932	-0.781882	0.189485
389	3891007													5.877783	0.623168	8.296601	0.801282	-0.594987	0.062745	0.063211	0.188480	0.980041	-0.594938	-0.781323	0.188636
390	3891174													5.805706	0.594945	8.269763	0.800256	-0.596373	0.062683	0.063183	0.187807	0.980172	-0.596320	-0.780428	0.187974
391	3891341													5.732679	0.602543	8.214489	0.798841	-0.598257	0.062781	0.063344	0.187447	0.980230	-0.598198	-0.779071	0.187637
392	3891507													5.906795	0.606991	8.179386	0.797097	-0.600560	0.062970	0.063752	0.187392	0.980214	-0.600477	-0.777311	0.187657
393	3891674													5.993471	0.669140	8.122761	0.795228	-0.603004	0.063232	0.064297	0.187574	0.980144	-0.602891	-0.775373	0.187935
394	3891841													6.053370	0.752428	8.099858	0.793317	-0.605475	0.063624	0.064812	0.187904	0.980047	-0.605349	-0.773364	0.188309
395	3892007													6.110301	0.779629	8.031604	0.791408	-0.607913	0.064151	0.065192	0.188280	0.979949	-0.607802	-0.771357	0.188637
396	3892174													6.126934	0.783390	8.005764	0.789512	-0.610309	0.064755	0.065393	0.188561	0.979882	-0.610241	-0.769394	0.188781
397	3892341													6.163214	0.815835	7.984749	0.787603	-0.612700	0.065417	0.065354	0.188629	0.979871	-0.612707	-0.767475	0.188607
398	3892507													6.188349	0.783523	7.947518	0.785660	-0.615115	0.066116	0.065135	0.188519	0.979907	-0.615220	-0.765567	0.188177
399	3892674													6.210935	0.759822	7.929080	0.783645	-0.617613	0.066748	0.064748	0.188069	0.980019	-0.617826	-0.763665	0.187368
400	3892841													6.247429	0.709499	7.917480	0.781590	-0.620160	0.067222	0.064244	0.187217	0.980216	-0.620476	-0.761808	0.186168
401	3893007													6.248740	0.652734	7.865098	0.779439	-0.622833	0.067479	0.063792	0.186058	0.980466	-0.623221	-0.759909	0.184753
402	3893174													6.283710	0.650996	7.844033	0.777168	-0.625659	0.067534	0.063447	0.184675	0.980750	-0.626086	-0.757923	0.183219
403	3893341													6.307057	0.643382	7.804530	0.774785	-0.628619	0.067420	0.063270	0.183199	0.981038	-0.629051	-0.755828	0.181713
404	3893507													6.353341	0.664242	7.773978	0.772293	-0.631703	0.067189	0.063222	0.181669	0.981325	-0.632112	-0.753623	0.180239
405	3893674													6.387139	0.677335	7.760137	0.769691	-0.634897	0.066945	0.063217	0.180141	0.981607	-0.635279	-0.751303	0.178789
406	3893841													6.399487	0.707992	7.749314	0.766922	-0.638253	0.066809	0.063194	0.178711	0.981870	-0.638621	-0.748796	0.177392
407	3894007													6.415811	0.746346	7.749459	0.763933	-0.641822	0.066862	0.063116	0.177437	0.982106	-0.642201	-0.746044	0.176059
408	3894174													6.427662	0.762102	7.754517	0.760628	-0.645701	0.067193	0.062952	0.176378	0.982307	-0.646128	-0.742941	0.174806
409	3894341													6.474653	0.749388	7.738430	0.757009	-0.649878	0.067792	0.062689	0.175511	0.982479	-0.650390	-0.739496	0.173604
410	3894507													6.554981	0.740420	7.701876	0.753146	-0.654266	0.068605	0.062329	0.174786	0.982632	-0.654894	-0.735789	0.172419
411	3894674													6.525231	0.709485	7.659681	0.749050	-0.658845	0.069622	0.061884	0.174208	0.982762	-0.659617	-0.731829	0.171262
412	3894841													6.480481	0.645766	7.614477	0.744569	-0.663775	0.070850	0.061354	0.173733	0.982880	-0.664720	-0.727475	0.170082
413	3895007													6.481734	0.606304	7.592130	0.739541	-0.669223	0.072246	0.060867	0.173380	0.982972	-0.670353	-0.722551	0.168955
414	3895174													6.612707	0.604801	7.543786	0.734007	-0.675127	0.073735	0.060575	0.173220	0.983019	-0.676435	-0.717076	0.168040
415	3895341													6.729510	0.601884	7.489292	0.728110	-0.681313	0.075290	0.060484	0.173268	0.983016	-0.682787	-0.711190	0.167366
416	3895507													6.850207	0.576483	7.385159	0.722035	-0.687582	0.076789	0.060545	0.173359	0.982996	-0.689203	-0.705108	0.166801
417	3895674													6.938514	0.594816	7.255998	0.715902	-0.693808	0.078201	0.060715	0.173442	0.982971	-0.695556	-0.698962	0.166292
418	3895841													6.966609	0.619527	7.155961	0.709758	-0.699942	0.079527	0.060968	0.173504	0.982944	-0.701803	-0.692804	0.165820
419	3896007													7.052079	0.643504	7.068504	0.703658	-0.705929	0.080802	0.061245	0.173555	0.982918	-0.707894	-0.686689	0.165358
420	3896174													7.133251	0.654939	6.967931	0.697677	-0.711701	0.082028	0.061515	0.173588	0.982895	-0.713767	-0.680697	0.164888
421	3896341													7.203557	0.672365	6.889048	0.691854	-0.717234	0.083148	0.061764	0.173524	0.982891	-0.719391	-0.674881	0.164353
422	3896507													7.273831	0.682258	6.830379	0.686198	-0.722524	0.084214	0.061906	0.173358	0.982911	-0.724776	-0.669258	0.163686
423	3896674													7.325300	0.658667	6.765759	0.680692	-0.727600	0.085178	0.061945	0.173025	0.982968	-0.729946	-0.663822	0.162848
424	3896841													7.383719	0.669191	6.729024	0.675319	-0.732490	0.086038	0.061908	0.172545	0.983054	-0.734923	-0.658549	0.161870
425	3897007													7.436734	0.662872	6.653546	0.670099	-0.737183	0.086766	0.061832	0.171923	0.983168	-0.739692	-0.653455	0.160787
426	3897174													7.464313	0.641694	6.642525	0.664968	-0.741749	0.087329	0.061694	0.171078	0.983324	-0.744319	-0.648491	0.159523
427	3897341													7.530724	0.622062	6.575285	0.659919	-0.746197	0.087731	0.061505	0.170027	0.983518	-0.748815	-0.643647	0.158099
428	3897507													7.567554	0.637609	6.548993	0.654931	-0.750550	0.087974	0.061266	0.168768	0.983750	-0.753201	-0.638899	0.156515
429	3897674													7.594748	0.649972	6.506081	0.649971	-0.754832	0.088127	0.060985	0.167396	0.984002	-0.757508	-0.634198	0.154836
430	3897841													7.635696	0.640685	6.481892	0.645001	-0.759076	0.088190	0.060700	0.165932	0.984267	-0.761767	-0.629500	0.153102
431	3898007													7.641898	0.622906	6.462028	0.639958	-0.763332	0.088189	0.060415	0.164397	0.984542	-0.766031	-0.624738	0.151324
432	3898174													7.644629	0.634062	6.385567	0.634744	-0.767677	0.088158	0.060121	0.162805	0.984825	-0.770380	-0.619812	0.149493
433	3898341													7.694911	0.632093	6.345506	0.629338	-0.772123	0.088095	0.059838	0.161169	0.985111	-0.774825	-0.614696	0.147632
434	3898507													7.754544	0.591004	6.307140	0.623773	-0.776637	0.087989	0.059566	0.159483	0.985402	-0.779332	-0.609426	0.145742
435	3898674													7.769983	0.612365	6.237585	0.618029	-0.781231	0.087853	0.059314	0.157769	0.985693	-0.783915	-0.603976	0.143843
436	3898841													7.785209	0.608564	6.179261	0.612070	-0.785923	0.087721	0.059083	0.156064	0.985978	-0.788593	-0.598305	0.141957
437	3899007													7.815226	0.613811	6.112963	0.605766	-0.790804	0.087616	0.058846	0.154348	0.986263	-0.793464	-0.592288	0.140034
438	3899174													7.880849	0.626124	6.049876	0.599168	-0.795823	0.087541	0.058592	0.152633	0.986544	-0.798476	-0.585977	0.138082
439	3899341													7.947393	0.618864	5.997490	0.592363	-0.800904	0.087514	0.058275	0.150931	0.986825	-0.803561	-0.579459	0.136078
440	3899507													8.034517	0.604228	5.936758	0.585414	-0.806001	0.087479	0.057885	0.149180	0.987114	-0.808666	-0.572807	0.133987
441	3899674													8.077711	0.624472	5.873393	0.578377	-0.811072	0.087422	0.057482	0.147418	0.987403	-0.813742	-0.566066	0.131885
442	3899841													8.111152	0.610174	5.794210	0.571273	-0.816097	0.087369	0.057058	0.145679	0.987685	-0.818775	-0.559253	0.129787
443	3900007													8.154577	0.603384	5.721786	0.564100	-0.821073	0.087353	0.056593	0.143989	0.987960	-0.823765	-0.552364	0.127691
444	3900174													8.191052	0.612765	5.639571	0.556882	-0.825986	0.087346	0.056073	0.142308	0.988233	-0.828697	-0.545431	0.125565
445	3900341													8.234295	0.587401	5.559725	0.549655	-0.830813	0.087346	0.055516	0.140653	0.988501	-0.833545	-0.538485	0.123434
446	3900507													8.276929	0.591705	5.492523	0.542413	-0.835561	0.087325	0.054926	0.138992	0.988769	-0.838315	-0.531525	0.121285
447	3900674													8.283179	0.602065	5.408341	0.535123	-0.840249	0.087326	0.054361	0.137408	0.989022	-0.843024	-0.524501	0.119207
448	3900841													8.341819	0.575651	5.313570	0.527757	-0.844893	0.087347	0.053757	0.135852	0.989270	-0.847693	-0.517398	0.117116
449	3901007													8.397218	0.560750	5.257818	0.520299	-0.849507	0.087329	0.053112	0.134252	0.989523	-0.852331	-0.510209	0.114970
450	3901174													8.440879	0.577433	5.218846	0.512734	-0.854095	0.087319	0.052465	0.132686	0.989769	-0.856943	-0.502907	0.112843
451	3901341													8.513657	0.574107	5.180836	0.505104	-0.858633	0.087291	0.051890	0.131171	0.990001	-0.861497	-0.495524	0.110810
452	3901508													8.542885	0.546251	5.091721	0.497357	-0.863149	0.087236	0.051281	0.129629	0.990236	-0.866029	-0.488027	0.108735
453	3901674													8.576487	0.532317	4.994466	0.489479	-0.867650	0.087145	0.050585	0.128019	0.990481	-0.870546	-0.480412	0.106552
454	3901841													8.633706	0.546242	4.907210	0.481514	-0.872107	0.087028	0.049851	0.126389	0.990727	-0.875019	-0.472711	0.104334
455	3902008													8.697325	0.536580	4.817838	0.473538	-0.876471	0.086950	0.049036	0.124801	0.990969	-0.879408	-0.464998	0.102076
456	3902174													8.740156	0.531365	4.742743	0.465600	-0.880724	0.086842	0.048239	0.123237	0.991204	-0.883679	-0.457316	0.099865
457	3902341													8.737967	0.510150	4.657813	0.457616	-0.884906	0.086768	0.047381	0.121715	0.991434	-0.887887	-0.449585	0.097626
458	3902508													8.758821	0.474295	4.567384	0.449460	-0.889087	0.086657	0.046482	0.120154	0.991666	-0.892090	-0.441686	0.095331
459	3902674													8.849982	0.482024	4.477732	0.441137	-0.893258	0.086540	0.045497	0.118566	0.991903	-0.896286	-0.433627	0.092944
460	3902841													8.914504	0.477377	4.380064	0.432744	-0.897367	0.086405	0.044524	0.117001	0.992133	-0.900417	-0.425493	0.090585
461	3903008													8.978207	0.464737	4.286219	0.424334	-0.901388	0.086256	0.043569	0.115471	0.992355	-0.904457	-0.417331	0.088271
462	3903174													8.980376	0.450471	4.212018	0.415890	-0.905333	0.086065	0.042591	0.113924	0.992576	-0.908417	-0.409137	0.085939
463	3903341													8.956951	0.427757	4.141933	0.407314	-0.909247	0.085823	0.041606	0.112347	0.992798	-0.912340	-0.400810	0.083591
464	3903508													8.925170	0.404643	4.029203	0.398437	-0.913196	0.085563	0.040566	0.110742	0.993021	-0.916298	-0.392186	0.081168
465	3903674													8.986497	0.388598	3.938840	0.389192	-0.917204	0.085247	0.039444	0.109052	0.993253	-0.920312	-0.383204	0.078621
466	3903841													9.075073	0.401085	3.855513	0.379703	-0.921208	0.084863	0.038301	0.107308	0.993488	-0.924315	-0.373980	0.076029
467	3904008													9.202303	0.410282	3.718881	0.370226	-0.925097	0.084432	0.037236	0.105596	0.993712	-0.928195	-0.364754	0.073541
468	3904174													9.258059	0.360154	3.627719	0.360815	-0.928845	0.084016	0.036188	0.103959	0.993923	-0.931935	-0.355582	0.071123
469	3904341													9.316294	0.337782	3.493965	0.351618	-0.932412	0.083507	0.035157	0.102293	0.994133	-0.935483	-0.346619	0.068749
470	3904508													9.361358	0.352248	3.409536	0.342686	-0.935780	0.082960	0.034137	0.100653	0.994336	-0.938830	-0.337913	0.066437
471	3904674													9.381258	0.337805	3.322151	0.334055	-0.938944	0.082407	0.033163	0.099084	0.994526	-0.941970	-0.329494	0.064238
472	3904841													9.445480	0.335707	3.242465	0.325752	-0.941905	0.081856	0.032284	0.097610	0.994701	-0.944904	-0.321384	0.062205
473	3905008													9.461264	0.365232	3.163383	0.317825	-0.944654	0.081345	0.031459	0.096252	0.994860	-0.947627	-0.313632	0.060309
474	3905174													9.520523	0.367055	3.061410	0.310268	-0.947198	0.080935	0.030691	0.095072	0.994997	-0.950154	-0.306232	0.058568
475	3905341													9.542504	0.352287	2.936913	0.303161	-0.949523	0.080621	0.029934	0.094050	0.995117	-0.952469	-0.299268	0.056936
476	3905508													9.606201	0.303201	2.859753	0.296568	-0.951623	0.080381	0.029115	0.093137	0.995227	-0.954568	-0.292812	0.055328
477	3905674													9.612070	0.293781	2.808654	0.290472	-0.953522	0.080136	0.028230	0.092249	0.995336	-0.956467	-0.286855	0.053714
478	3905841													9.587788	0.279154	2.737282	0.284806	-0.955247	0.079932	0.027311	0.091438	0.995436	-0.958196	-0.281323	0.052131
479	3906008													9.542061	0.276424	2.715929	0.279359	-0.956867	0.079782	0.026367	0.090703	0.995529	-0.959825	-0.276006	0.050568
480	3906174													9.520445	0.266731	2.680786	0.273993	-0.958428	0.079649	0.025458	0.090017	0.995615	-0.961395	-0.270764	0.049063
481	3906341													9.526587	0.223781	2.635170	0.268619	-0.959955	0.079567	0.024547	0.089398	0.995693	-0.962934	-0.265509	0.047578
482	3906508													9.533250	0.208741	2.643413	0.263170	-0.961473	0.079439	0.023661	0.088750	0.995773	-0.964459	-0.260178	0.046106
483	3906674													9.551222	0.196144	2.585873	0.257622	-0.962989	0.079265	0.022776	0.088063	0.995854	-0.965977	-0.254749	0.044620
484	3906841													9.575030	0.167221	2.564624	0.251997	-0.964497	0.079009	0.021888	0.087304	0.995941	-0.967480	-0.249245	0.043111
485	3907008													9.596962	0.138328	2.498610	0.246375	-0.965980	0.078632	0.020967	0.086426	0.996038	-0.968948	-0.243750	0.041547
486	3907174													9.615156	0.155566	2.427603	0.240723	-0.967442	0.078150	0.020095	0.085468	0.996138	-0.970386	-0.238223	0.040015
487	3907341													9.596634	0.142881	2.401751	0.235042	-0.968881	0.077617	0.019283	0.084487	0.996238	-0.971794	-0.232661	0.038541
488	3907508													9.595973	0.141591	2.350249	0.229338	-0.970295	0.077019	0.018503	0.083460	0.996339	-0.973171	-0.227074	0.037094
489	3907674													9.603339	0.138284	2.300072	0.223592	-0.971686	0.076373	0.017736	0.082400	0.996442	-0.974521	-0.221442	0.035658
490	3907841													9.620284	0.132183	2.228433	0.217806	-0.973051	0.075705	0.016985	0.081335	0.996542	-0.975844	-0.215767	0.034242
491	3908008													9.661615	0.140559	2.186246	0.212070	-0.974370	0.075035	0.016244	0.080286	0.996640	-0.977120	-0.210138	0.032854
492	3908174													9.718439	0.130614	2.126009	0.206460	-0.975629	0.074310	0.015510	0.079200	0.996738	-0.978332	-0.204634	0.031484
493	3908341													9.728635	0.119520	2.044028	0.201061	-0.976809	0.073616	0.014785	0.078168	0.996831	-0.979467	-0.199335	0.030159
494	3908508													9.727914	0.123566	1.989123	0.195838	-0.977920	0.072942	0.014058	0.077175	0.996918	-0.980536	-0.194209	0.028861
495	3908674													9.760044	0.096924	1.969968	0.190858	-0.978953	0.072285	0.013386	0.076228	0.997001	-0.981526	-0.189318	0.027653
496	3908841													9.753386	0.074809	1.905987	0.186109	-0.979913	0.071652	0.012754	0.075329	0.997077	-0.982446	-0.184651	0.026517
497	3909008													9.743394	0.102398	1.873720	0.181558	-0.980812	0.071019	0.012211	0.074462	0.997149	-0.983304	-0.180173	0.025496
498	3909174													9.746506	0.106569	1.830396	0.177207	-0.981648	0.070463	0.011789	0.073708	0.997210	-0.984103	-0.175882	0.024635
499	3909341													9.798734	0.108114	1.816149	0.173032	-0.982426	0.069994	0.011451	0.073068	0.997261	-0.984850	-0.171756	0.023893
500	3909508													9.775083	0.081996	1.787495	0.169005	-0.983156	0.069582	0.011171	0.072504	0.997306	-0.985552	-0.167772	0.023237
501	3909674													9.722369	0.112689	1.724704	0.164993	-0.983863	0.069217	0.010965	0.072004	0.997344	-0.986234	-0.163796	0.022668
502	3909841													9.711595	0.117522	1.713332	0.160844	-0.984569	0.068947	0.010876	0.071620	0.997373	-0.986920	-0.159672	0.022228
503	3910008													9.756642	0.084957	1.689156	0.156610	-0.985260	0.068813	0.010794	0.071376	0.997391	-0.987602	-0.155459	0.021813
504	3910174													9.764707	0.059356	1.653454	0.152349	-0.985936	0.068699	0.010671	0.071148	0.997409	-0.988269	-0.151221	0.021361
505	3910341													9.769167	0.068490	1.587968	0.148055	-0.986596	0.068621	0.010587	0.070963	0.997423	-0.988922	-0.146947	0.020951
506	3910508													9.731392	0.096561	1.528518	0.143752	-0.987233	0.068603	0.010573	0.070851	0.997431	-0.989557	-0.142657	0.020623
507	3910674													9.726864	0.113656	1.523830	0.139452	-0.987843	0.068691	0.010680	0.070866	0.997429	-0.990171	-0.138360	0.020432
508	3910841													9.688263	0.098491	1.471858	0.134976	-0.988427	0.069229	0.010993	0.071358	0.997390	-0.990788	-0.133863	0.020497
509	3911008													9.712501	0.086107	1.400904	0.130261	-0.989015	0.069865	0.011394	0.071954	0.997343	-0.991414	-0.129119	0.020642
510	3911174													9.719120	0.080900	1.342443	0.125364	-0.989603	0.070501	0.011831	0.072548	0.997295	-0.992040	-0.124191	0.020803
511	3911341													9.742562	0.089466	1.275794	0.120311	-0.990183	0.071152	0.012276	0.073151	0.997245	-0.992660	-0.119106	0.020956
512	3911508													9.782492	0.088319	1.194139	0.115159	-0.990748	0.071815	0.012742	0.073763	0.997194	-0.993265	-0.113921	0.021119
513	3911674													9.886242	0.095734	1.114079	0.110097	-0.991274	0.072485	0.013206	0.074380	0.997142	-0.993833	-0.108825	0.021280
514	3911841													9.934651	0.120041	1.029763	0.105380	-0.991737	0.073166	0.013685	0.075015	0.997088	-0.994338	-0.104072	0.021477
515	3912008													9.924521	0.082889	0.958966	0.101065	-0.992136	0.073842	0.014080	0.075641	0.997036	-0.994780	-0.099725	0.021613
516	3912174													9.981878	0.072425	0.952505	0.097210	-0.992476	0.074444	0.014390	0.076191	0.996989	-0.995160	-0.095846	0.021688
517	3912341													9.871176	0.102927	0.938218	0.093685	-0.992774	0.074981	0.014650	0.076679	0.996948	-0.995494	-0.092300	0.021728
518	3912508													9.844749	0.133175	0.902095	0.090294	-0.993045	0.075561	0.014954	0.077215	0.996902	-0.995803	-0.088884	0.021822
519	3912674													9.860120	0.125168	0.833947	0.086950	-0.993297	0.076158	0.015274	0.077767	0.996855	-0.996096	-0.085513	0.021934
520	3912841													9.895590	0.103407	0.814541	0.083722	-0.993529	0.076746	0.015591	0.078313	0.996807	-0.996367	-0.082258	0.022047
521	3913008													9.935139	0.116928	0.779052	0.080742	-0.993732	0.077308	0.015834	0.078830	0.996762	-0.996609	-0.079257	0.022100
522	3913174													9.947186	0.114688	0.753338	0.078062	-0.993906	0.077829	0.016049	0.079310	0.996721	-0.996819	-0.076557	0.022143
523	3913341													9.888782	0.121794	0.758611	0.075620	-0.994055	0.078331	0.016213	0.079772	0.996681	-0.997005	-0.074099	0.022149
524	3913508													9.824615	0.123512	0.778746	0.073183	-0.994208	0.078706	0.016335	0.080101	0.996653	-0.997185	-0.071652	0.022102
525	3913674													9.791009	0.128683	0.776904	0.070640	-0.994362	0.079080	0.016491	0.080431	0.996624	-0.997366	-0.069097	0.022079
526	3913841													9.791082	0.140823	0.754168	0.067920	-0.994520	0.079477	0.016662	0.080781	0.996593	-0.997552	-0.066364	0.022057
527	3914008													9.796979	0.142149	0.726163	0.065045	-0.994679	0.079897	0.016838	0.081149	0.996560	-0.997740	-0.063476	0.022027
528	3914174													9.817619	0.131067	0.693473	0.062055	-0.994838	0.080286	0.017004	0.081483	0.996530	-0.997928	-0.060474	0.021973
529	3914341													9.862335	0.125426	0.640792	0.059085	-0.994993	0.080610	0.017212	0.081754	0.996504	-0.998105	-0.057491	0.021956
530	3914508													9.906300	0.151793	0.609356	0.056230	-0.995127	0.080992	0.017476	0.082089	0.996472	-0.998265	-0.054617	0.022007
531	3914674													9.937676	0.176675	0.551000	0.053576	-0.995236	0.081458	0.017864	0.082517	0.996430	-0.998404	-0.051929	0.022200
532	3914841													9.958846	0.173140	0.504450	0.051230	-0.995314	0.082010	0.018329	0.083041	0.996378	-0.998519	-0.049542	0.022497
533	3915008													9.973879	0.184651	0.468413	0.049239	-0.995360	0.082667	0.018816	0.083677	0.996315	-0.998610	-0.047502	0.022849
534	3915174													10.004780	0.173662	0.473744	0.047735	-0.995377	0.083337	0.019285	0.084335	0.996251	-0.998674	-0.045949	0.023222
535	3915341													9.984647	0.160604	0.492082	0.046722	-0.995370	0.084002	0.019729	0.084997	0.996186	-0.998713	-0.044886	0.023608
536	3915508													9.923110	0.154152	0.508823	0.046020	-0.995352	0.084602	0.020097	0.085597	0.996127	-0.998738	-0.044141	0.023943
537	3915674													9.860296	0.150101	0.493933	0.045437	-0.995337	0.085091	0.020354	0.086084	0.996080	-0.998760	-0.043527	0.024170
538	3915841													9.837416	0.137265	0.514146	0.044831	-0.995335	0.085432	0.020497	0.086417	0.996048	-0.998784	-0.042903	0.024275
539	3916008													9.811573	0.137982	0.502358	0.044161	-0.995346	0.085647	0.020536	0.086617	0.996030	-0.998813	-0.042227	0.024266
540	3916174													9.831288	0.136687	0.498155	0.043387	-0.995377	0.085691	0.020508	0.086641	0.996029	-0.998848	-0.041458	0.024172
541	3916341													9.862379	0.149778	0.499428	0.042575	-0.995420	0.085596	0.020376	0.086521	0.996042	-0.998885	-0.040662	0.023966
542	3916508													9.878880	0.165807	0.502122	0.041794	-0.995471	0.085390	0.020189	0.086288	0.996066	-0.998922	-0.039905	0.023704
543	3916674													9.884995	0.166190	0.503343	0.041066	-0.995524	0.085122	0.019947	0.085994	0.996096	-0.998957	-0.039208	0.023389
544	3916841													9.886480	0.196830	0.465291	0.040440	-0.995575	0.084818	0.019652	0.085663	0.996130	-0.998989	-0.038617	0.023029
545	3917008													9.861332	0.198860	0.472227	0.039878	-0.995622	0.084538	0.019316	0.085357	0.996163	-0.999018	-0.038092	0.022636
546	3917174													9.847473	0.190868	0.454062	0.039401	-0.995658	0.084334	0.019007	0.085131	0.996188	-0.999043	-0.037647	0.022279
547	3917341													9.868334	0.193342	0.439359	0.038955	-0.995690	0.084162	0.018670	0.084937	0.996211	-0.999067	-0.037236	0.021899
548	3917508													9.872271	0.166329	0.431717	0.038640	-0.995707	0.084116	0.018381	0.084873	0.996222	-0.999084	-0.036948	0.021581
549	3917674													9.898107	0.160062	0.399821	0.038417	-0.995720	0.084064	0.018118	0.084806	0.996233	-0.999098	-0.036750	0.021298
550	3917841													9.830216	0.173077	0.404923	0.038247	-0.995726	0.084069	0.017917	0.084800	0.996237	-0.999108	-0.036596	0.021084
551	3918008													9.816922	0.158386	0.407404	0.038108	-0.995724	0.084152	0.017823	0.084877	0.996232	-0.999115	-0.036464	0.020981
552	3918175													9.849147	0.134677	0.421247	0.037889	-0.995726	0.084228	0.017701	0.084944	0.996228	-0.999125	-0.036255	0.020844
553	3918341													9.863623	0.136076	0.405800	0.037654	-0.995727	0.084325	0.017572	0.085032	0.996223	-0.999136	-0.036030	0.020698
554	3918508													9.895924	0.171417	0.427954	0.037426	-0.995726	0.084432	0.017475	0.085131	0.996217	-0.999147	-0.035809	0.020586
555	3918675													9.908090	0.142172	0.417506	0.037303	-0.995720	0.084560	0.017397	0.085253	0.996207	-0.999153	-0.035690	0.020503
556	3918841													9.927877	0.117192	0.427494	0.037331	-0.995712	0.084635	0.017206	0.085322	0.996205	-0.999155	-0.035733	0.020318
557	3919008													9.915154	0.120563	0.445352	0.037570	-0.995702	0.084655	0.016955	0.085337	0.996208	-0.999150	-0.035992	0.020088
558	3919175													9.902037	0.124124	0.466303	0.037971	-0.995688	0.084642	0.016685	0.085323	0.996214	-0.999140	-0.036415	0.019853
559	3919341													9.877120	0.127521	0.486210	0.038562	-0.995667	0.084619	0.016424	0.085302	0.996220	-0.999121	-0.037027	0.019642
560	3919508													9.842386	0.121015	0.519101	0.039240	-0.995641	0.084610	0.016191	0.085298	0.996224	-0.999099	-0.037722	0.019468
561	3919675													9.787391	0.101565	0.518781	0.039861	-0.995621	0.084558	0.015951	0.085248	0.996232	-0.999078	-0.038362	0.019279
562	3919841													9.775472	0.092518	0.539523	0.040327	-0.995607	0.084499	0.015716	0.085189	0.996241	-0.999063	-0.038848	0.019082
563	3920008													9.810434	0.115684	0.544208	0.040620	-0.995602	0.084418	0.015455	0.085104	0.996252	-0.999055	-0.039163	0.018844
564	3920175													9.840002	0.121592	0.558213	0.040787	-0.995599	0.084369	0.015228	0.085049	0.996260	-0.999052	-0.039350	0.018630
565	3920341													9.851108	0.118942	0.578243	0.040837	-0.995594	0.084415	0.015034	0.085088	0.996260	-0.999053	-0.039415	0.018442
566	3920508													9.859607	0.088038	0.573574	0.040784	-0.995587	0.084512	0.014826	0.085176	0.996256	-0.999058	-0.039378	0.018234
567	3920675													9.806650	0.079995	0.555027	0.040664	-0.995581	0.084640	0.014611	0.085294	0.996249	-0.999066	-0.039275	0.018015
568	3920841													9.846530	0.067991	0.547889	0.040464	-0.995580	0.084756	0.014351	0.085395	0.996244	-0.999078	-0.039096	0.017743
569	3921008													9.854691	0.070893	0.520801	0.040284	-0.995577	0.084870	0.014121	0.085497	0.996238	-0.999088	-0.038934	0.017503
570	3921175													9.827274	0.076037	0.514705	0.040130	-0.995573	0.085000	0.013972	0.085619	0.996230	-0.999097	-0.038791	0.017346
571	3921341													9.867531	0.072875	0.490141	0.040036	-0.995563	0.085158	0.013924	0.085774	0.996217	-0.999101	-0.038699	0.017297
572	3921508													9.885553	0.051058	0.492551	0.040018	-0.995549	0.085328	0.013861	0.085941	0.996204	-0.999103	-0.038683	0.017238
573	3921675													9.909589	0.048378	0.470972	0.040167	-0.995534	0.085434	0.013769	0.086046	0.996196	-0.999098	-0.038838	0.017163
574	3921841													9.884927	0.046330	0.489362	0.040442	-0.995520	0.085471	0.013690	0.086085	0.996194	-0.999088	-0.039118	0.017110
575	3922008													9.883078	0.065148	0.466154	0.040786	-0.995504	0.085494	0.013618	0.086111	0.996192	-0.999075	-0.039467	0.017069
576	3922175													9.878694	0.075232	0.473286	0.041238	-0.995482	0.085534	0.013632	0.086159	0.996188	-0.999056	-0.039915	0.017124
577	3922341													9.885895	0.062981	0.444948	0.041773	-0.995459	0.085539	0.013610	0.086172	0.996187	-0.999034	-0.040449	0.017148
578	3922508													9.882565	0.068346	0.428963	0.042432	-0.995432	0.085521	0.013615	0.086166	0.996188	-0.999007	-0.041106	0.017209
579	3922675													9.879391	0.069999	0.431910	0.043176	-0.995404	0.085473	0.013609	0.086131	0.996191	-0.998975	-0.041849	0.017265
580	3922841													9.868596	0.073236	0.440700	0.044027	-0.995378	0.085351	0.013598	0.086023	0.996200	-0.998938	-0.042699	0.017322
581	3923008													9.859397	0.090754	0.430349	0.044979	-0.995346	0.085230	0.013545	0.085916	0.996210	-0.998896	-0.043654	0.017346
582	3923175													9.855793	0.086347	0.408418	0.045993	-0.995310	0.085101	0.013447	0.085801	0.996222	-0.998851	-0.044675	0.017331
583	3923341													9.811918	0.070056	0.430406	0.046999	-0.995277	0.084940	0.013257	0.085648	0.996237	-0.998807	-0.045696	0.017220
584	3923508													9.800187	0.091241	0.434264	0.047940	-0.995254	0.084687	0.012938	0.085396	0.996263	-0.998766	-0.046665	0.016971
585	3923675													9.783496	0.080775	0.423418	0.048802	-0.995241	0.084338	0.012522	0.085041	0.996299	-0.998730	-0.047566	0.016613
586	3923841													9.801062	0.043797	0.483742	0.049531	-0.995241	0.083916	0.012010	0.084606	0.996342	-0.998700	-0.048342	0.016143
587	3924008													9.849652	0.058554	0.537126	0.050209	-0.995263	0.083251	0.011405	0.083922	0.996407	-0.998674	-0.049079	0.015565
588	3924175													9.854856	0.032022	0.577537	0.050889	-0.995301	0.082383	0.010701	0.083028	0.996490	-0.998647	-0.049828	0.014876
589	3924341													9.858350	0.023573	0.594109	0.051531	-0.995354	0.081328	0.009965	0.081944	0.996587	-0.998622	-0.050544	0.014142
590	3924508													9.914997	0.024906	0.620614	0.052164	-0.995414	0.080190	0.009184	0.080774	0.996690	-0.998596	-0.051255	0.013356
591	3924675													9.930587	0.034897	0.612030	0.052911	-0.995471	0.078978	0.008419	0.079530	0.996797	-0.998564	-0.052077	0.012589
592	3924841													9.928810	0.056373	0.598706	0.053819	-0.995517	0.077779	0.007727	0.078305	0.996900	-0.998521	-0.053052	0.011906
593	3925008													9.961031	0.065884	0.629476	0.054917	-0.995542	0.076684	0.007166	0.077191	0.996991	-0.998465	-0.054202	0.011373
594	3925175													9.976592	0.088684	0.625629	0.056361	-0.995531	0.075772	0.006766	0.076272	0.997064	-0.998388	-0.055683	0.011035
595	3925341													9.975801	0.080765	0.633492	0.058176	-0.995481	0.075055	0.006553	0.075562	0.997120	-0.998285	-0.057517	0.010920
596	3925508													9.985524	0.083656	0.647592	0.060449	-0.995378	0.074619	0.006428	0.075142	0.997152	-0.998151	-0.059797	0.010941
597	3925675													9.995050	0.085847	0.651860	0.063231	-0.995221	0.074406	0.006449	0.074961	0.997166	-0.997978	-0.062572	0.011158
598	3925841													10.009146	0.077809	0.699732	0.066552	-0.995004	0.074413	0.006565	0.075013	0.997161	-0.997761	-0.065875	0.011525
599	3926008													10.017253	0.055797	0.743033	0.070456	-0.994725	0.074555	0.006727	0.075213	0.997145	-0.997492	-0.069753	0.011990
600	3926175													10.035413	0.038668	0.753941	0.074990	-0.994376	0.074782	0.006937	0.075512	0.997121	-0.997160	-0.074255	0.012561
601	3926341													10.012907	0.021349	0.765408	0.080091	-0.993955	0.075095	0.007176	0.075910	0.997089	-0.996762	-0.079319	0.013212
602	3926508													10.063363	-0.002959	0.810361	0.085819	-0.993452	0.075417	0.007460	0.076335	0.997054	-0.996283	-0.085003	0.013962
603	3926675													10.069950	-0.009056	0.816292	0.092231	-0.992859	0.075660	0.007738	0.076696	0.997024	-0.995708	-0.091371	0.014757
604	3926841													9.959802	0.008774	0.895739	0.099263	-0.992169	0.075813	0.008020	0.076985	0.997000	-0.995029	-0.098357	0.015598
605	3927008													9.837469	0.017931	0.984315	0.106673	-0.991389	0.075947	0.008323	0.077271	0.996975	-0.994259	-0.105718	0.016494
606	3927175													9.829933	-0.001708	1.047053	0.114214	-0.990539	0.076074	0.008615	0.077560	0.996950	-0.993419	-0.113210	0.017392
607	3927341													9.870741	0.009443	1.123660	0.121892	-0.989615	0.076183	0.008915	0.077844	0.996926	-0.992503	-0.120838	0.018311
608	3927508													9.874065	0.053318	1.298338	0.129710	-0.988607	0.076363	0.009328	0.078227	0.996892	-0.991508	-0.128594	0.019369
609	3927675													9.804667	0.074486	1.390310	0.137651	-0.987512	0.076637	0.009768	0.078723	0.996849	-0.990433	-0.136469	0.020483
610	3927841													9.745808	0.053382	1.484464	0.145510	-0.986363	0.076903	0.010162	0.079217	0.996806	-0.989305	-0.144263	0.021550
611	3928008													9.669862	0.058782	1.579698	0.153115	-0.985190	0.077177	0.010545	0.079723	0.996761	-0.988152	-0.151805	0.022596
612	3928175													9.621756	0.049914	1.649176	0.160340	-0.984008	0.077589	0.010905	0.080367	0.996706	-0.987002	-0.158965	0.023617
613	3928341													9.590709	0.048289	1.711871	0.167209	-0.982828	0.078042	0.011291	0.081060	0.996645	-0.985857	-0.165767	0.024651
614	3928508													9.647285	0.025287	1.795721	0.173743	-0.981654	0.078538	0.011718	0.081806	0.996579	-0.984721	-0.172228	0.025717
615	3928675													9.677789	0.020073	1.843928	0.180121	-0.980465	0.079029	0.012278	0.082578	0.996509	-0.983568	-0.178522	0.026912
616	3928841													9.688538	0.020135	1.888232	0.186397	-0.979252	0.079504	0.012951	0.083364	0.996435	-0.982389	-0.184703	0.028221
617	3929008													9.712630	0.035363	1.951146	0.192654	-0.978003	0.079967	0.013720	0.084171	0.996357	-0.981171	-0.190855	0.029634
618	3929175													9.686391	0.054550	2.002052	0.198913	-0.976713	0.080405	0.014563	0.084981	0.996276	-0.979909	-0.197001	0.031127
619	3929341													9.696491	0.087487	2.034457	0.205297	-0.975352	0.080875	0.015448	0.085855	0.996188	-0.978578	-0.203265	0.032693
620	3929508													9.680239	0.088708	2.073740	0.211772	-0.973926	0.081371	0.016410	0.086791	0.996091	-0.977181	-0.209609	0.034362
621	3929675													9.654716	0.102987	2.164925	0.218379	-0.972424	0.081871	0.017382	0.087759	0.995990	-0.975709	-0.216081	0.036067
622	3929841													9.578816	0.082283	2.236346	0.225056	-0.970859	0.082360	0.018251	0.088714	0.995890	-0.974175	-0.222628	0.037685
623	3930008													9.605006	0.100969	2.304155	0.231733	-0.969246	0.082832	0.019064	0.089659	0.995790	-0.972593	-0.229179	0.039254
624	3930175													9.533855	0.131310	2.389257	0.238382	-0.967595	0.083269	0.019869	0.090582	0.995691	-0.970968	-0.235700	0.040818
625	3930341													9.593756	0.154178	2.469530	0.245006	-0.965902	0.083703	0.020701	0.091526	0.995588	-0.969301	-0.242192	0.042419
626	3930508													9.589140	0.143589	2.522516	0.251663	-0.964153	0.084115	0.021526	0.092467	0.995483	-0.967576	-0.248715	0.044025
627	3930675													9.585254	0.154253	2.634243	0.258326	-0.962360	0.084442	0.022324	0.093333	0.995385	-0.965800	-0.255249	0.045594
628	3930841													9.564948	0.133526	2.706143	0.265033	-0.960513	0.084693	0.023071	0.094125	0.995293	-0.963963	-0.261831	0.047106
629	3931008													9.524145	0.157732	2.784580	0.271732	-0.958625	0.084853	0.023807	0.094840	0.995208	-0.962079	-0.268410	0.048593
630	3931175													9.486495	0.182875	2.857123	0.278371	-0.956707	0.084973	0.024532	0.095523	0.995125	-0.960160	-0.274930	0.050061
631	3931341													9.443751	0.177082	2.925548	0.284847	-0.954796	0.085015	0.025233	0.096127	0.995049	-0.958241	-0.281291	0.051474
632	3931508													9.448199	0.203315	2.992338	0.291182	-0.952886	0.084982	0.025901	0.096651	0.994981	-0.956317	-0.287519	0.052824
633	3931675													9.412082	0.207222	3.052069	0.297360	-0.950985	0.084885	0.026550	0.097109	0.994920	-0.954396	-0.293595	0.054124
634	3931841													9.391365	0.223286	3.108392	0.303393	-0.949087	0.084769	0.027155	0.097538	0.994861	-0.952478	-0.299532	0.055365
635	3932008													9.375625	0.227098	3.137617	0.309270	-0.947204	0.084601	0.027759	0.097916	0.994807	-0.950569	-0.305316	0.056576
636	3932175													9.354233	0.249904	3.205221	0.314962	-0.945341	0.084437	0.028362	0.098300	0.994753	-0.948681	-0.310914	0.057772
637	3932341													9.317472	0.267628	3.229468	0.320437	-0.943510	0.084314	0.028954	0.098721	0.994694	-0.946827	-0.316295	0.058952
638	3932508													9.312655	0.300214	3.283527	0.325718	-0.941704	0.084272	0.029535	0.099223	0.994627	-0.945005	-0.321479	0.060132
639	3932675													9.335887	0.290182	3.292957	0.330901	-0.939895	0.084276	0.030125	0.099782	0.994553	-0.943185	-0.326559	0.061332
640	3932841													9.369008	0.266888	3.328096	0.336147	-0.938028	0.084316	0.030651	0.100374	0.994478	-0.941311	-0.331706	0.062492
641	3933008													9.422371	0.247144	3.367110	0.341604	-0.936055	0.084304	0.031186	0.100940	0.994404	-0.939327	-0.337063	0.063673
642	3933175													9.425845	0.246459	3.432317	0.347362	-0.933942	0.084216	0.031718	0.101459	0.994334	-0.937195	-0.342722	0.064866
643	3933341													9.364546	0.278352	3.527976	0.353419	-0.931683	0.084036	0.032265	0.101920	0.994269	-0.934909	-0.348682	0.066081
644	3933508													9.306550	0.281553	3.603393	0.359622	-0.929328	0.083794	0.032775	0.102327	0.994211	-0.932522	-0.354794	0.067258
645	3933675													9.314086	0.293434	3.654705	0.365976	-0.926873	0.083470	0.033216	0.102645	0.994163	-0.930031	-0.361068	0.068353
646	3933841													9.255395	0.277082	3.720984	0.372470	-0.924318	0.083086	0.033644	0.102918	0.994121	-0.927434	-0.367485	0.069431
647	3934008													9.139746	0.281155	3.781996	0.379001	-0.921703	0.082594	0.034102	0.103103	0.994086	-0.924768	-0.373943	0.070508
648	3934175													9.071304	0.302853	3.872744	0.385421	-0.919087	0.082041	0.034561	0.103227	0.994057	-0.922094	-0.380295	0.071551
649	3934341													9.112823	0.312063	3.970387	0.391644	-0.916511	0.081386	0.035044	0.103245	0.994038	-0.919449	-0.386457	0.072553
650	3934508													9.103253	0.331963	4.057878	0.397798	-0.913923	0.080628	0.035573	0.103178	0.994027	-0.916783	-0.392554	0.073555
651	3934675													9.112854	0.340800	4.147553	0.403937	-0.911303	0.079766	0.036124	0.103019	0.994023	-0.914073	-0.398641	0.074533
652	3934842													9.128126	0.345910	4.201731	0.410081	-0.908636	0.078834	0.036688	0.102801	0.994025	-0.911311	-0.404738	0.075493
653	3935008													9.047483	0.355156	4.267712	0.416214	-0.905929	0.077833	0.037258	0.102520	0.994033	-0.908503	-0.410830	0.076423
654	3935175													8.939161	0.370293	4.359751	0.422161	-0.903263	0.076782	0.037779	0.102156	0.994051	-0.905733	-0.416749	0.077251
655	3935342													8.856154	0.379437	4.415670	0.427766	-0.900711	0.075739	0.038188	0.101727	0.994079	-0.903082	-0.422341	0.077912
656	3935508													8.794386	0.386106	4.445097	0.432921	-0.898334	0.074664	0.038469	0.101164	0.994126	-0.900611	-0.427506	0.078354
657	3935675													8.746218	0.410425	4.512615	0.437632	-0.896134	0.073640	0.038677	0.100584	0.994176	-0.898322	-0.432235	0.078679
658	3935842													8.784098	0.391601	4.532038	0.441954	-0.894087	0.072696	0.038903	0.100067	0.994220	-0.896194	-0.436571	0.079008
659	3936008													8.788588	0.398264	4.564026	0.445944	-0.892172	0.071860	0.039087	0.099620	0.994258	-0.894207	-0.440574	0.079297
660	3936175													8.818324	0.387917	4.576161	0.449723	-0.890331	0.071131	0.039249	0.099261	0.994287	-0.892305	-0.444362	0.079585
661	3936342													8.811861	0.418401	4.646031	0.453360	-0.888534	0.070517	0.039437	0.099033	0.994302	-0.890455	-0.447996	0.079939
662	3936508													8.813676	0.407469	4.675164	0.456919	-0.886745	0.070066	0.039674	0.099008	0.994295	-0.888623	-0.451532	0.080420
663	3936675													8.801118	0.382484	4.692158	0.460457	-0.884939	0.069726	0.039922	0.099113	0.994275	-0.886784	-0.455037	0.080966
664	3936842													8.784776	0.393845	4.700540	0.464003	-0.883102	0.069509	0.040151	0.099353	0.994242	-0.884923	-0.458541	0.081558
665	3937008													8.760734	0.388379	4.708502	0.467612	-0.881204	0.069412	0.040356	0.099727	0.994196	-0.883012	-0.462097	0.082196
666	3937175													8.745977	0.401112	4.731000	0.471309	-0.879233	0.069407	0.040593	0.100237	0.994135	-0.881033	-0.465728	0.082933
667	3937342													8.730507	0.383098	4.782109	0.475053	-0.877209	0.069489	0.040867	0.100877	0.994059	-0.879008	-0.469391	0.083771
668	3937508													8.769904	0.379893	4.816207	0.478921	-0.875093	0.069617	0.041160	0.101600	0.993973	-0.876893	-0.473169	0.084677
669	3937675													8.785783	0.374712	4.871032	0.482963	-0.872857	0.069767	0.041457	0.102379	0.993881	-0.874659	-0.477115	0.085631
670	3937842													8.754494	0.387084	4.899282	0.487151	-0.870520	0.069857	0.041781	0.103131	0.993790	-0.872318	-0.481207	0.086612
671	3938008													8.749867	0.364641	4.913180	0.491449	-0.868096	0.069908	0.042101	0.103857	0.993701	-0.869888	-0.485410	0.087588
672	3938175													8.716381	0.352255	4.939670	0.495833	-0.865601	0.069894	0.042443	0.104543	0.993614	-0.867380	-0.489700	0.088574
673	3938342													8.646492	0.331979	4.985956	0.500265	-0.863059	0.069740	0.042852	0.105122	0.993536	-0.864811	-0.494042	0.089573
674	3938508													8.608365	0.313255	5.022699	0.504665	-0.860520	0.069410	0.043320	0.105539	0.993471	-0.862228	-0.498364	0.090539
675	3938675													8.577382	0.324316	5.082318	0.508991	-0.858013	0.068862	0.043839	0.105736	0.993427	-0.859655	-0.502627	0.091433
676	3938842													8.525053	0.345462	5.107629	0.513188	-0.855566	0.068146	0.044347	0.105725	0.993406	-0.857130	-0.506782	0.092199
677	3939008													8.494173	0.392567	5.154661	0.517222	-0.853198	0.067342	0.044883	0.105616	0.993394	-0.854673	-0.510783	0.092921
678	3939175													8.480289	0.430819	5.179799	0.521097	-0.850903	0.066501	0.045441	0.105464	0.993384	-0.852287	-0.514627	0.093623
679	3939342													8.482921	0.431194	5.204218	0.524875	-0.848641	0.065686	0.046019	0.105350	0.993370	-0.849935	-0.518372	0.094350
680	3939508													8.501692	0.430327	5.257663	0.528655	-0.846352	0.064900	0.046566	0.105259	0.993354	-0.847559	-0.522119	0.095057
681	3939675													8.473672	0.451172	5.316471	0.532471	-0.844016	0.064115	0.047047	0.105140	0.993344	-0.845140	-0.525910	0.095692
682	3939842													8.416003	0.465052	5.348894	0.536283	-0.841652	0.063426	0.047398	0.105057	0.993336	-0.842706	-0.529703	0.096233
683	3940008													8.380672	0.485257	5.397256	0.540031	-0.839294	0.062866	0.047618	0.105043	0.993327	-0.840297	-0.533434	0.096692
684	3940175													8.369341	0.479634	5.407788	0.543757	-0.836917	0.062433	0.047745	0.105121	0.993313	-0.837883	-0.537140	0.097119
685	3940342													8.356631	0.461750	5.444162	0.547478	-0.834514	0.062084	0.047818	0.105267	0.993294	-0.835453	-0.540837	0.097536
686	3940508													8.342549	0.448967	5.437182	0.551277	-0.832030	0.061808	0.047841	0.105484	0.993270	-0.832950	-0.544609	0.097956
687	3940675													8.310728	0.423355	5.480084	0.555177	-0.829452	0.061544	0.047854	0.105727	0.993243	-0.830354	-0.548481	0.098390
688	3940842													8.304665	0.426747	5.526782	0.559195	-0.826768	0.061288	0.047892	0.106019	0.993210	-0.827652	-0.552463	0.098881
689	3941008													8.255266	0.452063	5.592727	0.563266	-0.824017	0.061055	0.047943	0.106360	0.993171	-0.824884	-0.556492	0.099415
690	3941175													8.246051	0.462343	5.640507	0.567332	-0.821236	0.060878	0.048036	0.106804	0.993119	-0.822087	-0.560504	0.100042
691	3941342													8.209792	0.433768	5.692925	0.571415	-0.818411	0.060733	0.048139	0.107304	0.993060	-0.819248	-0.564526	0.100713
692	3941508													8.157160	0.463695	5.771280	0.575506	-0.815549	0.060600	0.048261	0.107842	0.992996	-0.816373	-0.568550	0.101423
693	3941675													8.140536	0.438641	5.796711	0.579558	-0.812683	0.060491	0.048379	0.108409	0.992929	-0.813493	-0.572533	0.102146
694	3941842													8.125781	0.451614	5.827439	0.583594	-0.809798	0.060380	0.048491	0.108975	0.992861	-0.810596	-0.576500	0.102865
695	3942008													8.094572	0.444361	5.844261	0.587647	-0.806869	0.060278	0.048599	0.109563	0.992791	-0.807657	-0.580481	0.103597
696	3942175													8.100303	0.430127	5.895974	0.591767	-0.803864	0.060128	0.048729	0.110127	0.992722	-0.804635	-0.584530	0.104341
697	3942342													8.079288	0.451145	5.938851	0.595990	-0.800750	0.059954	0.048895	0.110714	0.992649	-0.801502	-0.588678	0.105137
698	3942508													8.058329	0.466458	6.005933	0.600338	-0.797510	0.059758	0.049100	0.111335	0.992569	-0.798237	-0.592943	0.105997
699	3942675													8.005931	0.489527	6.075833	0.604762	-0.794178	0.059538	0.049371	0.112000	0.992481	-0.794875	-0.597275	0.106942
700	3942842													7.937404	0.483792	6.127525	0.609170	-0.790820	0.059301	0.049619	0.112638	0.992396	-0.791486	-0.601595	0.107855
701	3943008													7.851235	0.473113	6.173035	0.613428	-0.787539	0.059061	0.049806	0.113214	0.992321	-0.788178	-0.605777	0.108673
702	3943175													7.789955	0.489512	6.213583	0.617465	-0.784396	0.058824	0.049923	0.113710	0.992259	-0.785012	-0.609749	0.109372
703	3943342													7.779604	0.493767	6.227873	0.621284	-0.781390	0.058613	0.049990	0.114174	0.992202	-0.781989	-0.613510	0.109996
704	3943508													7.789964	0.490499	6.260943	0.625000	-0.778437	0.058405	0.050039	0.114616	0.992149	-0.779020	-0.617170	0.110587
705	3943675													7.791408	0.473849	6.287490	0.628698	-0.775471	0.058167	0.050093	0.115027	0.992099	-0.776035	-0.620816	0.111163
706	3943842													7.746675	0.480951	6.332589	0.632394	-0.772478	0.057931	0.050115	0.115425	0.992051	-0.773024	-0.624464	0.111707
707	3944008													7.706820	0.488348	6.368534	0.636112	-0.769441	0.057638	0.050140	0.115762	0.992011	-0.769966	-0.628140	0.112218
708	3944175													7.702334	0.503282	6.410597	0.639833	-0.766371	0.057351	0.050150	0.116103	0.991970	-0.766876	-0.631819	0.112721
709	3944342													7.680334	0.475877	6.485622	0.643566	-0.763262	0.057038	0.050186	0.116442	0.991929	-0.763743	-0.635509	0.113243
710	3944508													7.619501	0.492885	6.515259	0.647317	-0.760109	0.056701	0.050222	0.116760	0.991890	-0.760565	-0.639219	0.113755
711	3944675													7.637416	0.463101	6.536584	0.651114	-0.756888	0.056313	0.050271	0.117040	0.991854	-0.757313	-0.642979	0.114256
712	3944842													7.551685	0.480800	6.551062	0.654987	-0.753571	0.055874	0.050336	0.117290	0.991821	-0.753962	-0.646818	0.114755
713	3945008													7.532177	0.463691	6.602048	0.658842	-0.750239	0.055396	0.050418	0.117508	0.991791	-0.750590	-0.650641	0.115245
714	3945175													7.559452	0.446669	6.645228	0.662685	-0.746888	0.054831	0.050517	0.117630	0.991772	-0.747192	-0.654463	0.115682
715	3945342													7.563910	0.457042	6.725710	0.666606	-0.743441	0.054151	0.050678	0.117679	0.991758	-0.743686	-0.658367	0.116122
716	3945508													7.491687	0.457598	6.795635	0.670557	-0.739939	0.053336	0.050970	0.117677	0.991743	-0.740105	-0.662301	0.116624
717	3945675													7.404493	0.449270	6.831192	0.674474	-0.736436	0.052413	0.051318	0.117584	0.991736	-0.736513	-0.666210	0.117100
718	3945842													7.349373	0.444711	6.878231	0.678271	-0.733014	0.051368	0.051742	0.117377	0.991739	-0.732988	-0.670010	0.117541
719	3946008													7.292636	0.438409	6.912680	0.681958	-0.729664	0.050235	0.052230	0.117093	0.991747	-0.729524	-0.673706	0.117963
720	3946175													7.203743	0.424107	6.969771	0.685475	-0.726446	0.048994	0.052732	0.116647	0.991773	-0.726184	-0.677252	0.118266
721	3946342													7.160725	0.394714	7.009183	0.688793	-0.723394	0.047588	0.053280	0.115978	0.991822	-0.722997	-0.680625	0.118427
722	3946508													7.131697	0.392211	7.041645	0.691852	-0.720577	0.045931	0.053876	0.114955	0.991909	-0.720027	-0.683779	0.118354
723	3946675													7.079073	0.467081	7.113764	0.694594	-0.718052	0.044043	0.054631	0.113693	0.992013	-0.717325	-0.686640	0.118198
724	3946842													7.048073	0.521352	7.135727	0.696991	-0.715846	0.042051	0.055486	0.112305	0.992123	-0.714930	-0.689167	0.117995
725	3947008													7.033991	0.575626	7.145175	0.699073	-0.713928	0.040050	0.056431	0.110918	0.992226	-0.712820	-0.691378	0.117828
726	3947175													7.041245	0.629300	7.160651	0.700903	-0.712233	0.038201	0.057355	0.109666	0.992312	-0.710947	-0.693324	0.117715
727	3947342													7.056219	0.654021	7.154041	0.702519	-0.710721	0.036637	0.058142	0.108627	0.992381	-0.709286	-0.695036	0.117635
728	3947508													7.064146	0.673624	7.139024	0.704043	-0.709275	0.035383	0.058756	0.107832	0.992431	-0.707722	-0.696636	0.117592
729	3947675													7.081951	0.688692	7.118621	0.705523	-0.707845	0.034531	0.059149	0.107370	0.992458	-0.706214	-0.698160	0.117620
730	3947842													7.075073	0.667753	7.086274	0.707033	-0.706360	0.034066	0.059322	0.107242	0.992462	-0.704688	-0.699682	0.117726
731	3948008													7.086617	0.642391	7.050941	0.708661	-0.704733	0.033921	0.059327	0.107427	0.992441	-0.703050	-0.701292	0.117939
732	3948175													7.096956	0.623703	7.029971	0.710442	-0.702931	0.034055	0.059259	0.107971	0.992386	-0.701257	-0.703015	0.118362
733	3948342													7.133428	0.602415	7.026260	0.712413	-0.700919	0.034367	0.059239	0.108864	0.992290	-0.699256	-0.704884	0.119078
734	3948508													7.123229	0.590566	7.033745	0.714631	-0.698636	0.034793	0.059283	0.110051	0.992156	-0.696985	-0.706963	0.120063
735	3948675													7.096005	0.554780	7.030525	0.717064	-0.696112	0.035299	0.059328	0.111417	0.992001	-0.694477	-0.709235	0.121192
736	3948842													7.064809	0.538324	7.032928	0.719676	-0.693386	0.035801	0.059416	0.112879	0.991831	-0.691763	-0.711670	0.122434
737	3949008													7.028060	0.570219	7.085408	0.722440	-0.690481	0.036283	0.059463	0.114324	0.991662	-0.688872	-0.714259	0.123651
738	3949175													6.998255	0.569483	7.108165	0.725302	-0.687448	0.036780	0.059463	0.115785	0.991493	-0.685858	-0.716944	0.124857
739	3949342													6.958868	0.563499	7.173722	0.728241	-0.684308	0.037242	0.059455	0.117223	0.991324	-0.682737	-0.719709	0.126052
740	3949508													6.916418	0.554705	7.212979	0.731193	-0.681130	0.037658	0.059398	0.118564	0.991168	-0.679580	-0.722498	0.127151
741	3949675													6.900378	0.558442	7.289379	0.734125	-0.677951	0.037994	0.059342	0.119799	0.991023	-0.676416	-0.725280	0.128179
742	3949842													6.869317	0.546977	7.336448	0.737052	-0.674752	0.038261	0.059256	0.120914	0.990893	-0.673233	-0.728073	0.129103
743	3950008													6.818208	0.534388	7.356259	0.739969	-0.671543	0.038421	0.059184	0.121901	0.990776	-0.670032	-0.730869	0.129947
744	3950175													6.795769	0.545185	7.400709	0.742886	-0.668314	0.038435	0.059163	0.122739	0.990674	-0.666799	-0.733684	0.130720
745	3950342													6.780657	0.550413	7.408810	0.745803	-0.665059	0.038398	0.059132	0.123504	0.990581	-0.663537	-0.736507	0.131436
746	3950508													6.733992	0.550621	7.425273	0.748739	-0.661759	0.038275	0.059147	0.124209	0.990492	-0.660221	-0.739356	0.132141
747	3950675													6.679405	0.550180	7.483061	0.751695	-0.658411	0.038065	0.059142	0.124780	0.990420	-0.656853	-0.742243	0.132736
748	3950842													6.649264	0.549132	7.513516	0.754664	-0.655024	0.037758	0.059156	0.125243	0.990361	-0.653439	-0.745156	0.133266
749	3951008													6.595728	0.563380	7.561665	0.757619	-0.651624	0.037417	0.059101	0.125580	0.990322	-0.650016	-0.748075	0.133653
750	3951175													6.562845	0.574243	7.614616	0.760566	-0.648205	0.037001	0.059029	0.125789	0.990299	-0.646571	-0.751004	0.133934
751	3951342													6.529261	0.557018	7.682796	0.763487	-0.644787	0.036556	0.058960	0.125957	0.990282	-0.643126	-0.753912	0.134183
752	3951509													6.468441	0.559194	7.752301	0.766361	-0.641396	0.036073	0.058905	0.126075	0.990270	-0.639703	-0.756780	0.134401
753	3951675													6.422343	0.548640	7.759801	0.769155	-0.638072	0.035554	0.058913	0.126194	0.990255	-0.636341	-0.759565	0.134653
754	3951842													6.350222	0.527040	7.799098	0.771816	-0.634881	0.035027	0.058954	0.126301	0.990239	-0.633108	-0.762217	0.134910
755	3952009													6.315890	0.551998	7.833193	0.774349	-0.631817	0.034517	0.058999	0.126406	0.990223	-0.630003	-0.764741	0.135159
756	3952175													6.286353	0.556641	7.859748	0.776755	-0.628883	0.034022	0.059074	0.126534	0.990202	-0.627026	-0.767134	0.135436
757	3952342													6.239573	0.571660	7.857047	0.779052	-0.626060	0.033563	0.059168	0.126710	0.990174	-0.624161	-0.769411	0.135756
758	3952509													6.221602	0.561275	7.893798	0.781265	-0.623318	0.033169	0.059203	0.126894	0.990148	-0.621386	-0.771604	0.136040
759	3952675													6.232892	0.568406	7.900502	0.783476	-0.620554	0.032831	0.059214	0.127142	0.990115	-0.618594	-0.773788	0.136358
760	3952842													6.223436	0.568247	7.928350	0.785723	-0.617723	0.032512	0.059210	0.127423	0.990080	-0.615738	-0.776004	0.136694
761	3953009													6.197594	0.569846	7.950359	0.787986	-0.614851	0.032190	0.059226	0.127735	0.990038	-0.612838	-0.778230	0.137069
762	3953175													6.158827	0.554422	7.966967	0.790284	-0.611912	0.031871	0.059245	0.128077	0.989993	-0.609870	-0.780487	0.137470
763	3953342													6.149096	0.544149	7.986960	0.792574	-0.608962	0.031494	0.059287	0.128360	0.989954	-0.606887	-0.782745	0.137838
764	3953509													6.115783	0.551853	8.044786	0.794830	-0.606038	0.031047	0.059385	0.128597	0.989917	-0.603920	-0.784972	0.138202
765	3953675													6.054580	0.557550	8.068890	0.797038	-0.603155	0.030578	0.059506	0.128818	0.989881	-0.600991	-0.787153	0.138564
766	3953842													6.015809	0.546809	8.103976	0.799108	-0.600433	0.030106	0.059638	0.129003	0.989849	-0.598222	-0.789201	0.138896
767	3954009													5.947954	0.571002	8.126165	0.801034	-0.597886	0.029613	0.059869	0.129235	0.989805	-0.595618	-0.791094	0.139317
768	3954175													5.939642	0.564524	8.141053	0.802782	-0.595561	0.029125	0.060175	0.129515	0.989750	-0.593229	-0.792800	0.139810
769	3954342													5.955067	0.566106	8.164366	0.804361	-0.593451	0.028619	0.060550	0.129797	0.989690	-0.591047	-0.794336	0.140337
770	3954509													5.917949	0.592164	8.171590	0.805801	-0.591518	0.028123	0.060958	0.130092	0.989626	-0.589041	-0.795727	0.140887
771	3954675													5.935071	0.617718	8.210784	0.807150	-0.589695	0.027723	0.061386	0.130543	0.989540	-0.587146	-0.797006	0.141567
772	3954842													5.941933	0.646689	8.226350	0.808468	-0.587900	0.027428	0.061816	0.131170	0.989431	-0.585284	-0.798228	0.142388
773	3955009													5.894965	0.630503	8.205907	0.809766	-0.586121	0.027223	0.062182	0.131858	0.989316	-0.583449	-0.799422	0.143220
774	3955175													5.838922	0.643296	8.224589	0.810985	-0.584437	0.027133	0.062452	0.132585	0.989202	-0.581724	-0.800534	0.144024
775	3955342													5.820463	0.648898	8.215148	0.812104	-0.582881	0.027132	0.062659	0.133341	0.989088	-0.580138	-0.801542	0.144809
776	3955509													5.805642	0.635404	8.220078	0.813149	-0.581420	0.027207	0.062827	0.134144	0.988968	-0.578655	-0.802469	0.145607
777	3955675													5.815483	0.634427	8.240856	0.814139	-0.580029	0.027273	0.062959	0.134867	0.988861	-0.577246	-0.803354	0.146319
778	3955842													5.823319	0.615628	8.281758	0.815133	-0.578629	0.027332	0.063078	0.135564	0.988759	-0.575830	-0.804245	0.147001
779	3956009													5.808288	0.606877	8.259220	0.816083	-0.577288	0.027332	0.063184	0.136131	0.988674	-0.574470	-0.805113	0.147569
780	3956175													5.788596	0.612347	8.288239	0.816945	-0.576071	0.027240	0.063329	0.136557	0.988606	-0.573227	-0.805912	0.148041
781	3956342													5.768867	0.623401	8.310286	0.817702	-0.575002	0.027125	0.063451	0.136866	0.988555	-0.572133	-0.806623	0.148400
782	3956509													5.779500	0.662533	8.326122	0.818373	-0.574054	0.026988	0.063568	0.137095	0.988516	-0.571161	-0.807259	0.148687
783	3956675													5.752345	0.656886	8.340583	0.818955	-0.573227	0.026896	0.063643	0.137307	0.988482	-0.570318	-0.807810	0.148930
784	3956842													5.755164	0.643304	8.308482	0.819444	-0.572528	0.026888	0.063638	0.137504	0.988455	-0.569615	-0.808273	0.149111
785	3957009													5.706615	0.598936	8.263344	0.819819	-0.571989	0.026935	0.063562	0.137648	0.988440	-0.569084	-0.808630	0.149203
786	3957175													5.707268	0.593026	8.258163	0.820094	-0.571592	0.027011	0.063471	0.137774	0.988428	-0.568699	-0.808889	0.149267
787	3957342													5.776462	0.602193	8.222394	0.820370	-0.571190	0.027116	0.063400	0.137980	0.988404	-0.568308	-0.809137	0.149409
788	3957509													5.845136	0.569946	8.227134	0.820758	-0.570627	0.027232	0.063368	0.138312	0.988359	-0.567751	-0.809478	0.149680
789	3957675													5.880098	0.514144	8.200036	0.821358	-0.569759	0.027303	0.063371	0.138716	0.988303	-0.566882	-0.810020	0.150041
790	3957842													5.889813	0.450793	8.144361	0.822221	-0.568518	0.027193	0.063461	0.139051	0.988250	-0.565619	-0.810834	0.150409
791	3958009													5.867483	0.434671	8.081002	0.823370	-0.566873	0.026782	0.063788	0.139338	0.988188	-0.563909	-0.811936	0.150887
792	3958175													5.781810	0.499276	8.035986	0.824726	-0.564930	0.026111	0.064441	0.139746	0.988088	-0.561849	-0.813219	0.151657
793	3958342													5.755773	0.583329	8.049479	0.826222	-0.562774	0.025339	0.065361	0.140439	0.987930	-0.559540	-0.814593	0.152817
794	3958509													5.729072	0.646461	8.064429	0.827780	-0.560514	0.024582	0.066406	0.141387	0.987725	-0.557109	-0.815987	0.154259
795	3958675													5.673981	0.698679	8.143343	0.829309	-0.558278	0.023908	0.067362	0.142354	0.987521	-0.554715	-0.817350	0.155662
796	3958842													5.665241	0.772840	8.281113	0.830723	-0.556194	0.023419	0.068015	0.143160	0.987360	-0.552516	-0.818629	0.156756
797	3959009													5.623216	0.832662	8.380293	0.832016	-0.554267	0.023165	0.068281	0.143758	0.987254	-0.550533	-0.819830	0.157455
798	3959175													5.598058	0.871862	8.485533	0.833089	-0.552651	0.023206	0.068165	0.144208	0.987197	-0.548922	-0.820841	0.157809
799	3959342													5.541601	0.846371	8.572420	0.833900	-0.551411	0.023587	0.067674	0.144571	0.987178	-0.547751	-0.821611	0.157874
800	3959509													5.537240	0.774421	8.619809	0.834473	-0.550518	0.024192	0.066913	0.144807	0.987195	-0.546971	-0.822169	0.157674
801	3959675													5.545425	0.694737	8.626158	0.834842	-0.549927	0.024887	0.066009	0.144886	0.987244	-0.546518	-0.822550	0.157257
802	3959842													5.504944	0.613732	8.643985	0.835019	-0.549628	0.025544	0.065142	0.144851	0.987307	-0.546351	-0.822756	0.156758
803	3960009													5.492937	0.543579	8.616273	0.835026	-0.549593	0.026046	0.064452	0.144719	0.987371	-0.546422	-0.822803	0.156267
804	3960175													5.441789	0.522202	8.557343	0.834854	-0.549843	0.026283	0.064042	0.144439	0.987439	-0.546733	-0.822685	0.155798
805	3960342													5.461600	0.512091	8.470506	0.834552	-0.550300	0.026328	0.063890	0.144137	0.987493	-0.547212	-0.822432	0.155449
806	3960509													5.481859	0.539870	8.451099	0.834185	-0.550864	0.026176	0.063992	0.143830	0.987531	-0.547760	-0.822108	0.155231
807	3960675													5.493841	0.578740	8.428750	0.833759	-0.551520	0.025902	0.064282	0.143558	0.987552	-0.548373	-0.821716	0.155145
808	3960842													5.537533	0.638438	8.462322	0.833327	-0.552188	0.025587	0.064621	0.143283	0.987570	-0.548990	-0.821315	0.155084
809	3961009													5.557122	0.712347	8.510126	0.832889	-0.552858	0.025390	0.064882	0.143100	0.987579	-0.549624	-0.820896	0.155057
810	3961175													5.457868	0.773528	8.562766	0.832358	-0.553658	0.025363	0.065020	0.142990	0.987586	-0.550411	-0.820376	0.155017
811	3961342													5.449179	0.798775	8.626968	0.831569	-0.554830	0.025616	0.064958	0.142954	0.987595	-0.551610	-0.819590	0.154916
812	3961509													5.397499	0.749132	8.710224	0.830455	-0.556471	0.026167	0.064629	0.142892	0.987626	-0.553324	-0.818488	0.154630
813	3961675													5.395051	0.689086	8.722508	0.828955	-0.558668	0.026898	0.064087	0.142647	0.987697	-0.555632	-0.817032	0.154051
814	3961842													5.456221	0.632006	8.693841	0.827096	-0.561381	0.027646	0.063488	0.142186	0.987802	-0.558464	-0.815252	0.153242
815	3962009													5.482418	0.581761	8.609260	0.824966	-0.564473	0.028327	0.062993	0.141640	0.987912	-0.561661	-0.813209	0.152406
816	3962175													5.540398	0.570703	8.512323	0.822614	-0.567866	0.028867	0.062699	0.141051	0.988015	-0.565132	-0.810945	0.151635
817	3962342													5.475832	0.573481	8.416134	0.820051	-0.571539	0.029310	0.062577	0.140459	0.988107	-0.568859	-0.808464	0.150949
818	3962509													5.565544	0.577716	8.341846	0.817249	-0.575518	0.029732	0.062522	0.139834	0.988199	-0.572884	-0.805745	0.150262
819	3962675													5.688234	0.592121	8.296568	0.814292	-0.579670	0.030178	0.062486	0.139229	0.988287	-0.577082	-0.802869	0.149595
820	3962842													5.747657	0.605018	8.244624	0.811207	-0.583955	0.030650	0.062465	0.138650	0.988370	-0.581413	-0.799858	0.148950
821	3963009													5.827976	0.661923	8.236190	0.808025	-0.588320	0.031236	0.062406	0.138191	0.988438	-0.585834	-0.796733	0.148376
822	3963175													5.883022	0.675384	8.182272	0.804786	-0.592705	0.031958	0.062326	0.137925	0.988480	-0.590284	-0.793523	0.147941
823	3963342													5.926062	0.658688	8.145242	0.801434	-0.597180	0.032860	0.062156	0.137808	0.988507	-0.594845	-0.790180	0.147562
824	3963509													5.962925	0.660054	8.078987	0.797888	-0.601851	0.033910	0.061849	0.137692	0.988542	-0.599624	-0.786649	0.147087
825	3963675													6.038745	0.664088	8.045803	0.794180	-0.606669	0.035099	0.061401	0.137574	0.988586	-0.604573	-0.782960	0.146509
826	3963842													6.084694	0.647317	8.017181	0.790324	-0.611604	0.036441	0.060838	0.137521	0.988629	-0.609661	-0.779120	0.145895
827	3964009													6.141291	0.621708	8.014262	0.786299	-0.616682	0.037907	0.060180	0.137505	0.988671	-0.614909	-0.775110	0.145232
828	3964175													6.206471	0.593965	7.936011	0.782116	-0.621885	0.039412	0.059432	0.137406	0.988730	-0.620292	-0.770960	0.144427
829	3964342													6.250278	0.562260	7.902583	0.777779	-0.627204	0.040942	0.058620	0.137240	0.988802	-0.625799	-0.766669	0.143509
830	3964509													6.281355	0.540012	7.840626	0.773257	-0.632673	0.042403	0.057809	0.136933	0.988892	-0.631452	-0.762217	0.142458
831	3964675													6.346310	0.506527	7.805521	0.768585	-0.638247	0.043796	0.057015	0.136522	0.988995	-0.637203	-0.757629	0.141318
832	3964842													6.376211	0.508991	7.761009	0.763697	-0.643999	0.045085	0.056326	0.136040	0.989101	-0.643113	-0.752834	0.140167
833	3965009													6.429358	0.514038	7.732248	0.758603	-0.649903	0.046343	0.055682	0.135533	0.989207	-0.649169	-0.747835	0.139004
834	3965175													6.561777	0.511971	7.694575	0.753365	-0.655880	0.047564	0.055082	0.135013	0.989312	-0.655292	-0.742693	0.137842
835	3965342													6.574088	0.504429	7.624762	0.747948	-0.661966	0.048742	0.054497	0.134429	0.989424	-0.661517	-0.737381	0.136621
836	3965509													6.628797	0.504626	7.565390	0.742353	-0.668148	0.049903	0.053887	0.133779	0.989545	-0.667838	-0.731903	0.135316
837	3965675													6.687984	0.499211	7.513007	0.736572	-0.674430	0.051045	0.053315	0.133131	0.989663	-0.674255	-0.726237	0.134017
838	3965842													6.757127	0.481012	7.385984	0.730610	-0.680797	0.052198	0.052802	0.132552	0.989769	-0.680751	-0.720378	0.132791
839	3966009													6.802481	0.473584	7.344781	0.724450	-0.687260	0.053347	0.052343	0.132011	0.989865	-0.687337	-0.714315	0.131608
840	3966175													6.862443	0.447205	7.281033	0.718111	-0.693796	0.054449	0.051943	0.131456	0.989960	-0.693988	-0.708073	0.130438
841	3966342													6.932031	0.456639	7.217750	0.711612	-0.700377	0.055497	0.051559	0.130837	0.990062	-0.700678	-0.701679	0.129216
842	3966509													6.989289	0.466648	7.157226	0.704975	-0.706976	0.056521	0.051219	0.130235	0.990159	-0.707380	-0.695143	0.128023
843	3966675													7.018732	0.480436	7.071371	0.698148	-0.713639	0.057527	0.050938	0.129658	0.990250	-0.714139	-0.688410	0.126872
844	3966842													7.101005	0.484331	7.029312	0.691128	-0.720359	0.058532	0.050634	0.129049	0.990345	-0.720957	-0.681491	0.125664
845	3967009													7.149848	0.474451	6.939740	0.683917	-0.727126	0.059542	0.050266	0.128383	0.990450	-0.727826	-0.674393	0.124353
846	3967175													7.230727	0.481433	6.866528	0.676533	-0.733915	0.060595	0.049802	0.127693	0.990563	-0.734726	-0.667131	0.122939
847	3967342													7.322149	0.476489	6.808350	0.669014	-0.740691	0.061620	0.049330	0.126974	0.990679	-0.741611	-0.659738	0.121485
848	3967509													7.386500	0.466705	6.739753	0.661411	-0.747404	0.062634	0.048806	0.126221	0.990801	-0.748434	-0.652270	0.119962
849	3967675													7.478218	0.435857	6.666319	0.653730	-0.754047	0.063641	0.048264	0.125475	0.990922	-0.755187	-0.644724	0.118420
850	3967842													7.544593	0.455980	6.566175	0.646011	-0.760588	0.064620	0.047768	0.124771	0.991035	-0.761832	-0.637133	0.116935
851	3968009													7.582999	0.461253	6.482729	0.638194	-0.767075	0.065606	0.047310	0.124130	0.991137	-0.768420	-0.629434	0.115510
852	3968176													7.626935	0.449142	6.392822	0.630261	-0.773523	0.066585	0.046858	0.123505	0.991237	-0.774968	-0.621618	0.114087
853	3968342													7.682002	0.455245	6.327772	0.622165	-0.779964	0.067574	0.046397	0.122897	0.991334	-0.781510	-0.613638	0.112651
854	3968509													7.755892	0.443201	6.219668	0.613883	-0.786414	0.068563	0.045899	0.122267	0.991435	-0.788062	-0.605478	0.111153
855	3968676													7.872693	0.440105	6.095123	0.605529	-0.792781	0.069521	0.045331	0.121576	0.991546	-0.794531	-0.597258	0.109555
856	3968842													7.980337	0.416835	5.996152	0.597192	-0.799003	0.070405	0.044725	0.120810	0.991668	-0.800851	-0.589067	0.107882
857	3969009													8.079436	0.412148	5.904982	0.588984	-0.804999	0.071236	0.044030	0.119982	0.991799	-0.806944	-0.581017	0.106111
858	3969176													8.079335	0.413548	5.820813	0.580905	-0.810784	0.071969	0.043309	0.119079	0.991940	-0.812819	-0.573105	0.104287
859	3969342													8.120781	0.416300	5.707811	0.572866	-0.816424	0.072644	0.042616	0.118176	0.992078	-0.818541	-0.565232	0.102492
860	3969509													8.173996	0.411775	5.641611	0.564806	-0.821962	0.073303	0.041913	0.117287	0.992213	-0.824159	-0.557335	0.100695
861	3969676													8.201262	0.406413	5.580225	0.556691	-0.827419	0.073979	0.041152	0.116413	0.992348	-0.829700	-0.549387	0.098856
862	3969842													8.256438	0.416843	5.504074	0.548472	-0.832828	0.074672	0.040315	0.115538	0.992485	-0.835197	-0.541339	0.096945
863	3970009													8.346687	0.396499	5.403858	0.540201	-0.838155	0.075358	0.039458	0.114676	0.992619	-0.840611	-0.533240	0.095020
864	3970176													8.420922	0.385179	5.303131	0.531966	-0.843345	0.076033	0.038574	0.113835	0.992751	-0.845887	-0.525176	0.093087
865	3970342													8.448298	0.385969	5.226667	0.523746	-0.848417	0.076673	0.037650	0.112970	0.992885	-0.851042	-0.517132	0.091110
866	3970509													8.433416	0.372032	5.150754	0.515411	-0.853446	0.077341	0.036629	0.112110	0.993020	-0.856160	-0.508981	0.089044
867	3970676													8.545029	0.346981	5.048857	0.506972	-0.858427	0.077991	0.035563	0.111234	0.993158	-0.861228	-0.500730	0.086921
868	3970842													8.574903	0.349132	4.961313	0.498481	-0.863331	0.078589	0.034512	0.110346	0.993294	-0.866214	-0.492425	0.084801
869	3971009													8.649080	0.307805	4.852876	0.489948	-0.868151	0.079158	0.033469	0.109469	0.993427	-0.871109	-0.484078	0.082690
870	3971176													8.724834	0.279777	4.748526	0.481447	-0.872849	0.079645	0.032416	0.108540	0.993563	-0.875876	-0.475766	0.080551
871	3971342													8.761720	0.281852	4.654621	0.472989	-0.877422	0.080080	0.031349	0.107592	0.993701	-0.880511	-0.467499	0.078396
872	3971509													8.812182	0.271089	4.606676	0.464572	-0.881872	0.080463	0.030394	0.106689	0.993828	-0.885014	-0.459259	0.076369
873	3971676													8.863873	0.254175	4.530819	0.456260	-0.886168	0.080826	0.029488	0.105839	0.993946	-0.889358	-0.451115	0.074422
874	3971842													8.863209	0.280677	4.451646	0.448027	-0.890322	0.081229	0.028606	0.105088	0.994051	-0.893562	-0.443038	0.072550
875	3972009													8.889768	0.303970	4.362506	0.439811	-0.894362	0.081744	0.027725	0.104497	0.994139	-0.897662	-0.434967	0.070755
876	3972176													8.928144	0.286579	4.263950	0.431665	-0.898262	0.082402	0.026782	0.104074	0.994209	-0.901636	-0.426959	0.068982
877	3972342													8.937122	0.268571	4.163983	0.423602	-0.902021	0.083183	0.025813	0.103811	0.994262	-0.905481	-0.419024	0.067259
878	3972509													8.957664	0.287138	4.122471	0.415550	-0.905673	0.084118	0.024771	0.103715	0.994299	-0.909233	-0.411097	0.065533
879	3972676													9.017252	0.276905	4.052079	0.407484	-0.909228	0.085208	0.023684	0.103796	0.994317	-0.912905	-0.403150	0.063830
880	3972842													9.102451	0.259539	4.017107	0.399397	-0.912694	0.086442	0.022570	0.104049	0.994316	-0.916500	-0.395176	0.062156
