// General information: 
//  MT Manager version: 2022.2.0 
//  XDA version: 2022.2.0 build 7381 rev 124627 built on 2023-07-19
// Device information: 
//  DeviceId: 00B4D204
//  ProductCode: MTW2-3A7G6
//  Firmware Version: 4.6.0
//  Hardware Version: 2.0.0
// Device settings: 
//  Filter Profile: human(46.1)
//  Option Flags: Orientation Smoother Disabled, Position/Velocity Smoother Disabled, Continuous Zero Rotation Update Disabled, AHS Disabled, ICC Disabled
// Coordinate system: ENU
PacketCounter	Acc_X	Acc_Y	Acc_Z	VelInc_X	VelInc_Y	VelInc_Z	OriInc_q0	OriInc_q1	OriInc_q2	OriInc_q3	Quat_q0	Quat_q1	Quat_q2	Quat_q3	Roll	Pitch	Yaw	Mat[1][1]	Mat[2][1]	Mat[3][1]	Mat[1][2]	Mat[2][2]	Mat[3][2]	Mat[1][3]	Mat[2][3]	Mat[3][3]
16442	0.045271	0.090235	-9.882175	0.000455	0.000901	-0.098822	1.000000	-0.000012	-0.000026	0.000008	0.005471	0.835142	-0.549999	-0.003037	179.284967	-0.054197	-66.734962	0.394985	-0.918687	0.000946	-0.918621	-0.394943	0.012479	-0.011091	-0.005798	-0.999922
16443	0.054411	0.099677	-9.914014	0.000548	0.000995	-0.099140	1.000000	-0.000018	-0.000035	0.000016	0.005472	0.835138	-0.550004	-0.003057	179.283706	-0.052325	-66.735776	0.394972	-0.918693	0.000913	-0.918626	-0.394931	0.012501	-0.011124	-0.005777	-0.999921
16444	0.030147	0.143030	-9.890141	0.000305	0.001429	-0.098901	1.000000	-0.000012	-0.000033	0.000007	0.005468	0.835137	-0.550006	-0.003072	179.283040	-0.050639	-66.736008	0.394968	-0.918694	0.000884	-0.918627	-0.394927	0.012513	-0.011147	-0.005754	-0.999921
16445	0.029424	0.143031	-9.890143	0.000298	0.001432	-0.098901	1.000000	0.000012	-0.000040	0.000008	0.005441	0.835138	-0.550005	-0.003080	179.285214	-0.048160	-66.735888	0.394970	-0.918694	0.000841	-0.918627	-0.394930	0.012475	-0.011129	-0.005699	-0.999922
16446	0.027531	0.166725	-9.883719	0.000279	0.001664	-0.098837	1.000000	-0.000029	-0.000042	0.000002	0.005447	0.835138	-0.550004	-0.003111	179.282665	-0.045598	-66.735830	0.394971	-0.918693	0.000796	-0.918625	-0.394931	0.012520	-0.011187	-0.005676	-0.999921
16447	-0.056304	0.259599	-9.957455	-0.000560	0.002593	-0.099575	1.000000	-0.000029	-0.000034	0.000003	0.005457	0.835141	-0.549999	-0.003136	179.280113	-0.043825	-66.735163	0.394982	-0.918689	0.000765	-0.918620	-0.394942	0.012564	-0.011240	-0.005665	-0.999921
16448	-0.093729	0.175925	-9.842935	-0.000934	0.001762	-0.098429	1.000000	0.000033	-0.000037	-0.000005	0.005414	0.835146	-0.549992	-0.003129	179.284687	-0.041761	-66.734174	0.394998	-0.918682	0.000729	-0.918614	-0.394958	0.012484	-0.011181	-0.005601	-0.999922
16449	-0.058835	0.094318	-9.911516	-0.000586	0.000946	-0.099115	1.000000	0.000032	-0.000022	-0.000003	0.005379	0.835153	-0.549982	-0.003110	179.289163	-0.041373	-66.732808	0.395019	-0.918672	0.000722	-0.918606	-0.394981	0.012406	-0.011112	-0.005564	-0.999923
16450	-0.066667	0.037722	-9.892521	-0.000666	0.000378	-0.098925	1.000000	0.000008	-0.000007	-0.000003	0.005374	0.835158	-0.549975	-0.003094	179.290737	-0.042616	-66.731780	0.395036	-0.918665	0.000744	-0.918599	-0.394997	0.012379	-0.011078	-0.005573	-0.999923
16451	0.001464	-0.011621	-9.885819	0.000016	-0.000117	-0.098858	1.000000	-0.000007	-0.000016	-0.000000	0.005375	0.835163	-0.549967	-0.003092	179.290706	-0.042848	-66.730711	0.395053	-0.918658	0.000748	-0.918592	-0.395014	0.012379	-0.011077	-0.005577	-0.999923
16452	0.020425	0.039689	-9.884007	0.000205	0.000395	-0.098840	1.000000	-0.000018	-0.000011	0.000019	0.005390	0.835153	-0.549982	-0.003092	179.289282	-0.043776	-66.732806	0.395019	-0.918672	0.000764	-0.918606	-0.394980	0.012404	-0.011093	-0.005602	-0.999923
16453	0.037394	0.105674	-9.934841	0.000376	0.001052	-0.099348	1.000000	-0.000046	-0.000019	0.000001	0.005423	0.835157	-0.549976	-0.003114	179.284763	-0.043734	-66.731927	0.395034	-0.918666	0.000763	-0.918599	-0.394994	0.012483	-0.011166	-0.005632	-0.999922
16454	0.023056	0.191411	-9.877280	0.000232	0.001911	-0.098773	1.000000	-0.000032	-0.000010	-0.000001	0.005449	0.835158	-0.549974	-0.003119	179.281885	-0.044882	-66.731717	0.395037	-0.918665	0.000783	-0.918597	-0.394997	0.012533	-0.011204	-0.005671	-0.999921
16455	0.066696	0.176084	-9.905779	0.000669	0.001762	-0.099058	1.000000	0.000012	-0.000017	0.000011	0.005435	0.835157	-0.549976	-0.003108	179.283998	-0.045088	-66.731923	0.395034	-0.918666	0.000787	-0.918599	-0.394994	0.012496	-0.011169	-0.005659	-0.999922
16456	0.047063	0.124813	-9.907603	0.000473	0.001249	-0.099076	1.000000	0.000010	-0.000024	0.000002	0.005418	0.835158	-0.549974	-0.003103	179.285843	-0.044494	-66.731646	0.395038	-0.918664	0.000777	-0.918597	-0.394999	0.012464	-0.011144	-0.005637	-0.999922
16457	0.004935	0.093235	-9.891956	0.000051	0.000932	-0.098920	1.000000	-0.000005	-0.000017	0.000007	0.005418	0.835160	-0.549972	-0.003101	179.286030	-0.044642	-66.731421	0.395042	-0.918663	0.000779	-0.918596	-0.395002	0.012461	-0.011140	-0.005638	-0.999922
16458	0.004592	0.093412	-9.891954	0.000048	0.000933	-0.098920	1.000000	-0.000013	-0.000018	0.000009	0.005423	0.835158	-0.549974	-0.003104	179.285347	-0.044710	-66.731707	0.395037	-0.918665	0.000780	-0.918598	-0.394998	0.012473	-0.011150	-0.005644	-0.999922
16459	-0.009614	0.145956	-9.899898	-0.000094	0.001457	-0.098999	1.000000	-0.000022	-0.000018	0.000003	0.005436	0.835161	-0.549970	-0.003112	179.283608	-0.044799	-66.731051	0.395048	-0.918660	0.000782	-0.918593	-0.395008	0.012503	-0.011177	-0.005658	-0.999922
16460	0.001669	0.141095	-9.879089	0.000019	0.001410	-0.098791	1.000000	-0.000007	-0.000024	-0.000001	0.005433	0.835164	-0.549965	-0.003116	179.283597	-0.044197	-66.730408	0.395058	-0.918656	0.000771	-0.918588	-0.395018	0.012503	-0.011181	-0.005648	-0.999922
16461	-0.042378	0.123965	-9.916084	-0.000423	0.001239	-0.099161	1.000000	-0.000003	-0.000010	0.000015	0.005435	0.835161	-0.549970	-0.003107	179.283983	-0.045153	-66.731135	0.395046	-0.918661	0.000788	-0.918593	-0.395006	0.012497	-0.011169	-0.005661	-0.999922
16462	0.002085	0.117700	-9.885517	0.000023	0.001177	-0.098855	1.000000	0.000001	-0.000023	-0.000003	0.005426	0.835166	-0.549962	-0.003108	179.284823	-0.044569	-66.730071	0.395063	-0.918654	0.000778	-0.918586	-0.395024	0.012482	-0.011159	-0.005646	-0.999922
16463	0.002683	0.094291	-9.891946	0.000029	0.000942	-0.098919	1.000000	-0.000012	-0.000026	0.000008	0.005427	0.835167	-0.549961	-0.003117	179.284177	-0.043749	-66.729944	0.395065	-0.918653	0.000764	-0.918585	-0.395026	0.012493	-0.011175	-0.005637	-0.999922
16464	0.023678	0.098319	-9.902990	0.000238	0.000984	-0.099030	1.000000	0.000010	-0.000016	0.000003	0.005415	0.835168	-0.549959	-0.003105	179.286072	-0.044043	-66.729617	0.395071	-0.918650	0.000769	-0.918583	-0.395031	0.012460	-0.011143	-0.005629	-0.999922
16465	0.032031	0.131248	-9.928403	0.000321	0.001309	-0.099284	1.000000	-0.000035	-0.000012	0.000015	0.005442	0.835165	-0.549964	-0.003116	179.282824	-0.044796	-66.730328	0.395059	-0.918655	0.000782	-0.918588	-0.395019	0.012517	-0.011190	-0.005663	-0.999921
16466	0.022119	0.122499	-9.896553	0.000222	0.001224	-0.098966	1.000000	-0.000005	-0.000009	0.000008	0.005447	0.835161	-0.549970	-0.003107	179.282882	-0.045946	-66.731136	0.395046	-0.918661	0.000802	-0.918593	-0.395006	0.012516	-0.011181	-0.005681	-0.999921
16467	0.010172	0.127959	-9.917350	0.000103	0.001277	-0.099174	1.000000	-0.000026	-0.000016	-0.000011	0.005464	0.835172	-0.549953	-0.003115	179.280706	-0.046205	-66.728793	0.395084	-0.918645	0.000806	-0.918577	-0.395043	0.012554	-0.011214	-0.005701	-0.999921
16468	0.022613	0.099476	-9.902981	0.000228	0.000995	-0.099030	1.000000	0.000006	-0.000018	0.000020	0.005454	0.835164	-0.549965	-0.003108	179.282210	-0.046296	-66.730454	0.395057	-0.918656	0.000808	-0.918588	-0.395017	0.012527	-0.011189	-0.005691	-0.999921
16469	0.010562	0.104693	-9.923781	0.000107	0.001046	-0.099238	1.000000	-0.000013	-0.000018	0.000009	0.005459	0.835164	-0.549965	-0.003110	179.281543	-0.046371	-66.730436	0.395057	-0.918656	0.000809	-0.918588	-0.395017	0.012539	-0.011199	-0.005697	-0.999921
16470	-0.001784	0.142785	-9.879065	-0.000015	0.001427	-0.098791	1.000000	-0.000007	-0.000032	-0.000002	0.005452	0.835167	-0.549960	-0.003121	179.281552	-0.044909	-66.729811	0.395067	-0.918652	0.000784	-0.918584	-0.395027	0.012539	-0.011209	-0.005674	-0.999921
16471	0.020216	0.123304	-9.896547	0.000204	0.001233	-0.098965	1.000000	0.000002	-0.000016	0.000005	0.005445	0.835169	-0.549957	-0.003114	179.282593	-0.045128	-66.729379	0.395074	-0.918649	0.000788	-0.918581	-0.395034	0.012521	-0.011191	-0.005670	-0.999921
16472	-0.000367	0.095881	-9.891931	-0.000003	0.000958	-0.098919	1.000000	-0.000013	-0.000010	0.000010	0.005454	0.835168	-0.549959	-0.003109	179.282045	-0.046142	-66.729637	0.395070	-0.918651	0.000805	-0.918583	-0.395030	0.012530	-0.011193	-0.005690	-0.999921
16473	0.020854	0.100173	-9.902978	0.000209	0.001000	-0.099030	1.000000	-0.000017	-0.000008	-0.000005	0.005468	0.835175	-0.549948	-0.003106	179.280921	-0.047282	-66.728040	0.395096	-0.918640	0.000825	-0.918572	-0.395055	0.012550	-0.011203	-0.005716	-0.999921
16474	-0.003045	0.143567	-9.879053	-0.000028	0.001434	-0.098791	1.000000	-0.000018	-0.000027	0.000017	0.005472	0.835170	-0.549956	-0.003120	179.279667	-0.046289	-66.729137	0.395078	-0.918647	0.000808	-0.918579	-0.395038	0.012572	-0.011230	-0.005709	-0.999921
16475	0.010550	0.091465	-9.871127	0.000105	0.000915	-0.098711	1.000000	0.000007	0.000001	-0.000002	0.005471	0.835176	-0.549947	-0.003096	179.281302	-0.048455	-66.727872	0.395099	-0.918638	0.000846	-0.918571	-0.395058	0.012543	-0.011189	-0.005733	-0.999921
16476	-0.014112	0.125500	-9.906282	-0.000139	0.001252	-0.099063	1.000000	-0.000028	-0.000019	0.000012	0.005487	0.835174	-0.549950	-0.003108	179.278973	-0.048348	-66.728317	0.395091	-0.918641	0.000844	-0.918573	-0.395051	0.012584	-0.011227	-0.005747	-0.999920
16477	0.029196	0.143055	-9.869299	0.000294	0.001430	-0.098693	1.000000	-0.000007	-0.000024	-0.000001	0.005484	0.835180	-0.549941	-0.003113	179.278961	-0.047685	-66.727139	0.395110	-0.918633	0.000832	-0.918565	-0.395070	0.012584	-0.011231	-0.005737	-0.999920
16478	0.018159	0.124806	-9.896532	0.000183	0.001248	-0.098965	1.000000	-0.000005	-0.000017	0.000007	0.005484	0.835178	-0.549944	-0.003110	179.279137	-0.047895	-66.727474	0.395105	-0.918636	0.000836	-0.918567	-0.395064	0.012581	-0.011227	-0.005739	-0.999921
16479	0.006110	0.130047	-9.917326	0.000063	0.001300	-0.099173	1.000000	-0.000003	-0.000018	0.000014	0.005481	0.835175	-0.549948	-0.003108	179.279543	-0.047956	-66.728093	0.395095	-0.918640	0.000837	-0.918572	-0.395054	0.012574	-0.011220	-0.005737	-0.999921
16480	0.004698	0.153490	-9.910890	0.000049	0.001536	-0.099109	1.000000	0.000012	-0.000017	0.000011	0.005466	0.835172	-0.549953	-0.003095	179.281830	-0.048306	-66.728787	0.395084	-0.918645	0.000843	-0.918577	-0.395043	0.012534	-0.011181	-0.005726	-0.999921
16481	0.027828	0.110280	-9.934823	0.000281	0.001103	-0.099348	1.000000	0.000004	-0.000025	0.000012	0.005453	0.835171	-0.549955	-0.003094	179.283110	-0.047545	-66.729090	0.395079	-0.918647	0.000830	-0.918579	-0.395039	0.012512	-0.011166	-0.005705	-0.999921
16482	0.028353	0.119481	-9.875743	0.000285	0.001194	-0.098757	1.000000	-0.000003	-0.000018	0.000014	0.005450	0.835167	-0.549961	-0.003092	179.283542	-0.047590	-66.729879	0.395066	-0.918652	0.000831	-0.918585	-0.395026	0.012504	-0.011159	-0.005703	-0.999921
16483	0.025905	0.133950	-9.928385	0.000262	0.001338	-0.099284	1.000000	-0.000012	-0.000026	0.000008	0.005451	0.835167	-0.549960	-0.003101	179.282896	-0.046770	-66.729753	0.395068	-0.918651	0.000816	-0.918584	-0.395028	0.012516	-0.011175	-0.005694	-0.999921
16484	0.005951	0.115882	-9.864683	0.000063	0.001158	-0.098647	1.000000	-0.000012	-0.000033	0.000007	0.005447	0.835168	-0.549959	-0.003116	179.282325	-0.045021	-66.729564	0.395071	-0.918650	0.000786	-0.918582	-0.395032	0.012525	-0.011196	-0.005670	-0.999921
16485	0.015146	0.125138	-9.896533	0.000153	0.001252	-0.098965	1.000000	0.000002	-0.000016	0.000005	0.005440	0.835170	-0.549956	-0.003110	179.283366	-0.045240	-66.729132	0.395078	-0.918647	0.000790	-0.918579	-0.395038	0.012507	-0.011178	-0.005667	-0.999921
16486	-0.006649	0.121186	-9.885473	-0.000064	0.001211	-0.098855	1.000000	-0.000007	-0.000024	-0.000001	0.005438	0.835172	-0.549952	-0.003114	179.283256	-0.044644	-66.728699	0.395085	-0.918644	0.000779	-0.918576	-0.395046	0.012509	-0.011184	-0.005658	-0.999921
16487	0.002548	0.130369	-9.917324	0.000028	0.001304	-0.099173	1.000000	0.000004	-0.000025	0.000012	0.005425	0.835171	-0.549955	-0.003114	179.284535	-0.043882	-66.729002	0.395080	-0.918646	0.000766	-0.918579	-0.395041	0.012487	-0.011168	-0.005637	-0.999922
16488	0.002114	0.130599	-9.917321	0.000023	0.001303	-0.099173	1.000000	-0.000028	-0.000019	0.000012	0.005443	0.835166	-0.549962	-0.003126	179.282039	-0.043845	-66.730079	0.395063	-0.918654	0.000765	-0.918586	-0.395023	0.012530	-0.011209	-0.005653	-0.999921
16489	0.013556	0.125691	-9.896528	0.000136	0.001257	-0.098965	1.000000	0.000002	-0.000009	0.000006	0.005441	0.835167	-0.549960	-0.003113	179.283059	-0.044959	-66.729756	0.395068	-0.918651	0.000785	-0.918584	-0.395029	0.012513	-0.011185	-0.005664	-0.999921
16490	0.004535	0.093035	-9.871117	0.000049	0.000930	-0.098711	1.000000	-0.000005	-0.000033	0.000005	0.005432	0.835167	-0.549961	-0.003123	179.283374	-0.043450	-66.729942	0.395065	-0.918653	0.000758	-0.918585	-0.395026	0.012507	-0.011190	-0.005638	-0.999921
16491	0.024471	0.120622	-9.875740	0.000245	0.001206	-0.098757	1.000000	-0.000002	-0.000007	-0.000008	0.005433	0.835176	-0.549947	-0.003110	179.283957	-0.044735	-66.727931	0.395098	-0.918639	0.000781	-0.918571	-0.395058	0.012497	-0.011172	-0.005655	-0.999922
16492	0.013500	0.102492	-9.902967	0.000138	0.001023	-0.099030	1.000000	-0.000022	-0.000025	0.000002	0.005442	0.835178	-0.549944	-0.003124	179.282240	-0.043958	-66.727564	0.395103	-0.918636	0.000767	-0.918568	-0.395064	0.012527	-0.011205	-0.005654	-0.999921
16493	0.004453	0.102784	-9.812031	0.000046	0.001028	-0.098120	1.000000	-0.000003	-0.000010	0.000015	0.005444	0.835174	-0.549949	-0.003116	179.282626	-0.044914	-66.728292	0.395092	-0.918641	0.000784	-0.918573	-0.395052	0.012520	-0.011192	-0.005667	-0.999921
16494	0.012903	0.102607	-9.902967	0.000131	0.001028	-0.099030	1.000000	0.000017	-0.000015	0.000002	0.005426	0.835175	-0.549948	-0.003098	179.285495	-0.045437	-66.728113	0.395095	-0.918640	0.000793	-0.918573	-0.395055	0.012470	-0.011142	-0.005655	-0.999922
16495	-0.009965	0.122328	-9.885456	-0.000097	0.001220	-0.098855	1.000000	-0.000037	-0.000027	0.000006	0.005446	0.835177	-0.549946	-0.003121	179.282068	-0.044487	-66.727764	0.395100	-0.918638	0.000776	-0.918570	-0.395060	0.012530	-0.011204	-0.005664	-0.999921
16496	-0.003592	0.136958	-10.029026	-0.000036	0.001370	-0.100290	1.000000	0.000002	-0.000001	0.000007	0.005448	0.835178	-0.549944	-0.003101	179.283187	-0.046488	-66.727565	0.395103	-0.918636	0.000811	-0.918569	-0.395063	0.012510	-0.011172	-0.005688	-0.999921
16497	-0.020160	0.146359	-9.788072	-0.000200	0.001462	-0.097881	1.000000	-0.000015	-0.000017	0.000002	0.005455	0.835182	-0.549938	-0.003104	179.282302	-0.046648	-66.726704	0.395117	-0.918630	0.000814	-0.918563	-0.395077	0.012526	-0.011185	-0.005697	-0.999921
16498	8.973544	1.355900	-10.059628	0.089762	0.013611	-0.100566	0.999999	0.000903	-0.000204	-0.000429	0.004591	0.835425	-0.549579	-0.002760	179.386654	-0.024910	-66.677215	0.395911	-0.918289	0.000435	-0.918238	-0.395884	0.010705	-0.009658	-0.004637	-0.999943
16499	0.503846	-1.961480	-10.368393	0.005216	-0.019950	-0.103611	0.999992	-0.003320	-0.001384	0.001704	0.006613	0.834468	-0.550987	-0.005713	179.006837	0.128791	-66.873572	0.392760	-0.919638	-0.002248	-0.919487	-0.392738	0.017333	-0.016823	-0.004741	-0.999847
16500	-6.906976	-2.665951	-11.612173	-0.069384	-0.026316	-0.116013	0.999981	-0.000587	0.001350	-0.005944	0.007818	0.837736	-0.545998	-0.004932	178.940865	-0.015734	-66.188815	0.403724	-0.914881	0.000275	-0.914727	-0.403650	0.018484	-0.016800	-0.007714	-0.999829
16501	-4.304243	1.239093	-8.857079	-0.043418	0.011788	-0.088469	0.999972	-0.004544	0.003615	0.004628	0.013625	0.835173	-0.549802	-0.004329	178.423017	-0.444110	-66.708422	0.395399	-0.918477	0.007751	-0.918241	-0.395065	0.027519	-0.022214	-0.017998	-0.999591
16502	0.996145	3.154119	-9.243811	0.009584	0.030886	-0.092698	0.999951	-0.007701	0.002090	0.005925	0.021235	0.831782	-0.554656	-0.006718	177.548055	-0.709367	-67.377768	0.384624	-0.922990	0.012380	-0.922420	-0.383812	0.042778	-0.034732	-0.027874	-0.999008
16503	0.346254	1.861929	-10.248654	0.003144	0.018003	-0.102606	0.999956	-0.006222	0.001904	0.006785	0.027515	0.827868	-0.560185	-0.008422	176.847058	-0.967383	-68.142618	0.372244	-0.927981	0.016883	-0.927054	-0.370872	0.054994	-0.044772	-0.036123	-0.998344
16504	0.586022	2.208536	-10.186651	0.005476	0.021471	-0.102018	0.999940	-0.006500	0.001928	0.008655	0.034052	0.822813	-0.567199	-0.010210	176.121832	-1.250608	-69.117893	0.356361	-0.934093	0.021825	-0.932703	-0.354251	0.067619	-0.055431	-0.044453	-0.997472
16505	-0.429425	0.895054	-9.949942	-0.004514	0.008237	-0.099550	0.999943	-0.006805	0.001521	0.008116	0.040600	0.817952	-0.573716	-0.012523	175.364630	-1.495500	-70.031547	0.341386	-0.939561	0.026098	-0.937527	-0.338403	0.080787	-0.067072	-0.052047	-0.996390
16506	-0.250769	-2.273905	-11.046663	-0.002642	-0.023259	-0.110355	0.999984	-0.004646	0.001772	0.002670	0.045452	0.816247	-0.575751	-0.013615	174.841034	-1.725500	-70.317738	0.336651	-0.941148	0.030111	-0.938673	-0.332890	0.089879	-0.074565	-0.058522	-0.995497
16507	-1.720645	1.927424	-11.042004	-0.017731	0.018878	-0.110405	0.999982	-0.003639	0.004801	-0.000296	0.051187	0.816308	-0.575223	-0.011786	174.421770	-2.272114	-70.231237	0.337959	-0.940325	0.039645	-0.937912	-0.332997	0.097128	-0.078130	-0.070009	-0.994482
16508	-0.925060	0.140992	-11.376949	-0.010074	0.001320	-0.113700	0.999972	-0.000939	0.007259	-0.001708	0.056106	0.817315	-0.573416	-0.006472	174.302411	-3.081966	-69.952398	0.342305	-0.938049	0.053765	-0.936597	-0.336093	0.099134	-0.074923	-0.084290	-0.993621
16509	2.500415	0.501067	-14.069660	0.024107	0.005580	-0.140830	0.999967	0.004424	0.006454	-0.002184	0.056180	0.818836	-0.571270	0.001236	174.790859	-3.796400	-69.631202	0.347298	-0.935415	0.066211	-0.935692	-0.340989	0.090592	-0.062164	-0.093416	-0.993685
16510	9.032230	-1.060438	-18.539691	0.090681	-0.009074	-0.185301	0.999968	0.005638	-0.001660	0.005359	0.050604	0.816079	-0.575710	0.003412	175.478954	-3.659956	-70.258259	0.337092	-0.939305	0.063835	-0.939996	-0.331994	0.078665	-0.052697	-0.086522	-0.994855
16511	6.693583	-1.417396	-20.100537	0.068880	-0.011027	-0.200534	0.999814	0.011341	-0.008917	0.012766	0.036167	0.809188	-0.586426	0.003328	176.864844	-2.740033	-71.787354	0.312187	-0.948817	0.047804	-0.949299	-0.309593	0.054629	-0.037033	-0.062435	-0.997362
16512	2.981817	-0.366013	-19.411114	0.031594	0.000584	-0.193846	0.999630	0.019151	-0.009080	0.017058	0.015277	0.799619	-0.600263	0.007842	179.139186	-1.769681	-73.776810	0.279246	-0.959723	0.030882	-0.960202	-0.278903	0.015016	-0.005798	-0.033846	-0.999410
16513	1.741166	-1.782511	-19.094245	0.019774	-0.013260	-0.191061	0.999482	0.021793	-0.010732	0.021101	-0.008760	0.786961	-0.616810	0.012679	-178.313559	-0.524262	-76.185507	0.238769	-0.971033	0.009150	-0.970589	-0.238937	-0.029428	0.030762	-0.001854	-0.999525
16514	0.600946	-3.220156	-19.632432	0.010137	-0.026856	-0.196919	0.999184	0.026021	-0.017238	0.025640	-0.040182	0.770507	-0.635988	0.014947	-175.355890	1.608888	-79.008307	0.190592	-0.981268	-0.028077	-0.978865	-0.187809	-0.080934	0.074145	0.042909	-0.996324
16515	-0.425168	-4.437418	-19.803734	0.002072	-0.038282	-0.199273	0.998772	0.030619	-0.025873	0.029129	-0.080609	0.750197	-0.656147	0.013316	-172.014000	4.922252	-82.004236	0.138587	-0.986626	-0.085804	-0.982333	-0.125946	-0.138419	0.125761	0.103471	-0.986650
16516	-1.750828	-4.688166	-19.984634	-0.009087	-0.040157	-0.201762	0.998249	0.035292	-0.035091	0.031965	-0.130390	0.725561	-0.675650	0.007562	-168.333850	9.510138	-84.946187	0.086881	-0.982422	-0.165222	-0.978478	-0.052992	-0.199430	0.187169	0.178993	-0.965883
16517	-0.813043	-5.571632	-22.585908	0.003200	-0.046834	-0.227835	0.997779	0.039135	-0.042563	0.033073	-0.187496	0.696829	-0.692296	-0.001189	-164.395164	15.144952	-87.538918	0.041449	-0.964378	-0.261262	-0.965269	0.028857	-0.259658	0.257948	0.262951	-0.929688
16518	2.128081	-4.856794	-25.486806	0.033647	-0.036974	-0.255293	0.997715	0.041884	-0.043569	0.030216	-0.246372	0.666419	-0.703647	-0.008195	-160.166813	20.955366	-89.409291	0.009628	-0.933810	-0.357641	-0.941885	0.111637	-0.316842	0.335796	0.339907	-0.878467
16519	4.223155	-3.415887	-26.557499	0.052936	-0.020987	-0.264842	0.997968	0.045189	-0.038050	0.023864	-0.302557	0.636833	-0.709116	-0.007598	-155.364093	26.025588	-90.370146	-0.005805	-0.898579	-0.438772	-0.907774	0.188771	-0.374581	0.419418	0.396132	-0.816803
16520	2.486396	-3.481753	-25.678909	0.033386	-0.021463	-0.257123	0.998114	0.049855	-0.031382	0.017272	-0.355848	0.608069	-0.709660	0.002580	-149.696163	30.127414	-90.480216	-0.007249	-0.864881	-0.501925	-0.861209	0.260491	-0.436422	0.508200	0.429098	-0.746731
16521	0.596583	-2.025154	-23.818053	0.012642	-0.007119	-0.238522	0.998036	0.054365	-0.027246	0.015037	-0.407572	0.576932	-0.707575	0.019257	-143.280814	33.680198	-90.142345	-0.002067	-0.832143	-0.554557	-0.800749	0.333556	-0.497535	0.598996	0.443032	-0.667028
16522	-1.183410	-1.113421	-19.579653	-0.006368	0.000181	-0.196232	0.997738	0.058415	-0.027498	0.018727	-0.460157	0.539105	-0.704448	0.037070	-136.296066	37.469899	-89.656509	0.004758	-0.793659	-0.608345	-0.725427	0.415983	-0.548374	0.688283	0.443919	-0.573762
16523	-2.153975	1.918284	-16.695515	-0.017331	0.028559	-0.165995	0.997554	0.058992	-0.028923	0.023877	-0.512085	0.494895	-0.700104	0.051975	-129.045206	41.727002	-88.901740	0.014305	-0.746187	-0.665582	-0.639726	0.504755	-0.579632	0.768470	0.434081	-0.470135
16524	-4.525978	2.711939	-12.450832	-0.043034	0.032793	-0.123881	0.997869	0.054770	-0.024340	0.025792	-0.556466	0.449008	-0.696071	0.064975	-122.241461	45.752442	-88.149928	0.022527	-0.697396	-0.716332	-0.552771	0.588340	-0.590170	0.833029	0.409262	-0.372247
16525	-7.230411	3.405615	-6.988709	-0.072015	0.035752	-0.069329	0.998485	0.047740	-0.015557	0.022524	-0.589341	0.407096	-0.693377	0.078606	-116.453954	48.874440	-87.725726	0.026100	-0.657193	-0.753270	-0.471890	0.656188	-0.588844	0.881271	0.370829	-0.292996
16526	-9.316734	6.395660	-0.818431	-0.093959	0.062983	-0.006386	0.999159	0.038239	-0.006658	0.013238	-0.610054	0.375568	-0.691261	0.094561	-111.985581	50.568527	-87.614762	0.026434	-0.634605	-0.772385	-0.403857	0.700014	-0.588965	0.914440	0.327501	-0.237785
16527	-11.743198	2.759761	0.326893	-0.117523	0.027099	0.004024	0.999470	0.032373	-0.001084	0.003202	-0.622930	0.353509	-0.688382	0.114545	-108.288310	50.954096	-87.632702	0.026020	-0.629405	-0.776642	-0.343990	0.723822	-0.598124	0.938613	0.282720	-0.197675
16528	-13.567639	6.642809	3.670676	-0.135489	0.065785	0.038498	0.999671	0.025516	0.000786	-0.002388	-0.630915	0.339056	-0.684887	0.133855	-105.374795	50.664024	-87.646881	0.026025	-0.633332	-0.773442	-0.295528	0.734248	-0.611182	0.954980	0.244480	-0.168058
16529	-12.205564	7.598698	3.688870	-0.121612	0.075832	0.038617	0.999757	0.021340	0.000894	-0.005396	-0.636651	0.329085	-0.680606	0.152162	-102.868340	50.037879	-87.568940	0.027244	-0.641703	-0.766469	-0.254206	0.737100	-0.626150	0.966766	0.211900	-0.143043
16530	-11.838917	9.742912	4.351380	-0.117586	0.097599	0.045260	0.999804	0.017983	-0.000068	-0.008261	-0.641219	0.323206	-0.674984	0.169625	-100.574893	49.110857	-87.263914	0.031248	-0.653851	-0.755978	-0.218786	0.733530	-0.643480	0.975273	0.185504	-0.120132
16531	-11.593639	10.431660	5.321047	-0.114506	0.105059	0.054808	0.999817	0.013940	0.001184	-0.013035	-0.642585	0.322804	-0.669050	0.187760	-98.845671	47.614309	-87.088883	0.034236	-0.673248	-0.738624	-0.190641	0.721087	-0.666100	0.981063	0.163617	-0.103661
16532	-12.169289	11.898853	5.548821	-0.119402	0.120442	0.057269	0.999774	0.011533	0.003307	-0.017530	-0.640644	0.326427	-0.663210	0.207780	-97.618253	45.570604	-87.219391	0.033960	-0.699206	-0.714114	-0.166753	0.700546	-0.693851	0.985414	0.142644	-0.092804
16533	-13.988779	13.587893	7.553389	-0.136724	0.137885	0.077622	0.999720	0.010775	0.004422	-0.020577	-0.636762	0.332158	-0.656909	0.229510	-96.590981	43.166647	-87.517603	0.031591	-0.728683	-0.684123	-0.144108	0.673992	-0.724546	0.989058	0.121477	-0.083717
16534	-16.149835	15.047182	10.972377	-0.157387	0.153512	0.111429	0.999676	0.007102	0.003914	-0.024107	-0.630798	0.342461	-0.649562	0.250766	-95.908091	40.370676	-87.715383	0.030371	-0.761264	-0.647730	-0.128535	0.639674	-0.757823	0.991240	0.106272	-0.078422
16535	-18.151642	17.125709	12.806257	-0.176457	0.176107	0.128491	0.999612	0.000814	0.001609	-0.027805	-0.622802	0.359469	-0.640606	0.269304	-95.703962	37.180518	-87.539817	0.034200	-0.796001	-0.604328	-0.125109	0.596516	-0.792791	0.991553	0.102721	-0.079186
16536	-19.766081	19.279878	12.574042	-0.192121	0.199189	0.124260	0.999552	-0.005581	-0.001961	-0.029346	-0.613859	0.382101	-0.630062	0.283192	-95.941421	33.857042	-86.848937	0.045648	-0.829175	-0.557123	-0.133815	0.547602	-0.825969	0.989954	0.112255	-0.085959
16537	-20.882527	19.546558	10.221341	-0.203699	0.202388	0.098891	0.999517	-0.010327	-0.006109	-0.028667	-0.605336	0.408044	-0.617984	0.291828	-96.462159	30.665095	-85.608552	0.065863	-0.857638	-0.510019	-0.151021	0.496673	-0.854698	0.986334	0.133316	-0.096809
16538	-19.976827	18.330157	5.318888	-0.194762	0.189887	0.048116	0.999383	-0.016144	-0.010391	-0.029419	-0.596204	0.438763	-0.604032	0.295251	-97.429483	27.462128	-83.792562	0.095944	-0.882113	-0.461162	-0.177994	0.440628	-0.879867	0.979343	0.166502	-0.114735
16539	-17.407167	17.757834	-0.814208	-0.168121	0.182750	-0.014342	0.999162	-0.021960	-0.013058	-0.031971	-0.584506	0.474651	-0.588202	0.295089	-98.980481	24.047052	-81.569708	0.133882	-0.903344	-0.407487	-0.213419	0.375258	-0.902017	0.967744	0.207729	-0.142550
16540	-14.986585	16.452295	-5.072172	-0.143001	0.168293	-0.057384	0.998846	-0.028003	-0.013635	-0.036567	-0.567766	0.515986	-0.570474	0.293189	-101.266664	20.195734	-79.116741	0.177200	-0.921638	-0.345228	-0.255787	0.295597	-0.920432	0.950354	0.251406	-0.183364
16541	-11.423265	16.194579	-9.247343	-0.106058	0.163381	-0.099232	0.998539	-0.031518	-0.014876	-0.041282	-0.547047	0.561035	-0.549138	0.290561	-104.001032	15.948817	-76.280306	0.228043	-0.934073	-0.274779	-0.298270	0.201627	-0.932942	0.926840	0.294709	-0.232627
16542	-8.097886	15.496658	-12.467394	-0.071960	0.154114	-0.130942	0.998365	-0.032195	-0.017232	-0.043979	-0.524775	0.606870	-0.523510	0.286806	-106.897458	11.615458	-72.940270	0.287361	-0.936421	-0.201342	-0.334388	0.098902	-0.937232	0.897557	0.336650	-0.284707
16543	-6.315667	13.327321	-14.913261	-0.053961	0.131154	-0.154399	0.998209	-0.031427	-0.019587	-0.046993	-0.501531	0.652490	-0.492790	0.282633	-109.868088	7.207824	-69.060778	0.354553	-0.926580	-0.125469	-0.359582	-0.011249	-0.933046	0.863129	0.375931	-0.337170
16544	-3.541044	11.757979	-17.794630	-0.025441	0.113681	-0.182015	0.997985	-0.029738	-0.022421	-0.051379	-0.477647	0.697730	-0.455449	0.278555	-112.888513	2.658085	-64.506350	0.429948	-0.901662	-0.046376	-0.369458	-0.128839	-0.920272	0.823799	0.412803	-0.388521
16545	-0.252345	10.351848	-20.414801	0.008262	0.097591	-0.206770	0.997644	-0.027438	-0.024261	-0.058013	-0.452261	0.742368	-0.409953	0.276204	-116.019708	-2.251044	-59.223215	0.511300	-0.858504	0.039278	-0.358838	-0.254796	-0.897950	0.780902	0.445027	-0.438342
16546	1.117920	7.412417	-22.997902	0.020992	0.067346	-0.231270	0.997236	-0.024207	-0.022361	-0.066598	-0.423819	0.784729	-0.355969	0.279042	-119.313547	-7.828680	-53.387299	0.590844	-0.795204	0.136211	-0.322151	-0.387327	-0.863827	0.739677	0.466506	-0.485026
16547	3.316167	6.097017	-25.070775	0.042515	0.052729	-0.251061	0.996639	-0.020752	-0.020267	-0.076609	-0.391944	0.823808	-0.291855	0.287302	-122.970300	-14.157115	-46.735053	0.664557	-0.706076	0.244582	-0.255652	-0.522402	-0.813473	0.702144	0.478071	-0.527676
16548	6.980742	7.961748	-25.568015	0.080929	0.068483	-0.255465	0.995897	-0.017242	-0.018901	-0.086799	-0.356720	0.857940	-0.216711	0.299544	-127.341966	-21.061643	-38.864111	0.726619	-0.585557	0.359372	-0.158143	-0.651575	-0.741917	0.668592	0.482259	-0.566049
16549	9.495447	13.204918	-24.433985	0.110777	0.118544	-0.244309	0.995238	-0.014118	-0.016757	-0.094977	-0.318089	0.884486	-0.132442	0.314583	-132.871194	-28.179253	-29.526831	0.766993	-0.434418	0.472232	-0.034156	-0.762556	-0.646019	0.640746	0.479363	-0.599713
16550	15.026623	20.208864	-21.101725	0.171638	0.183782	-0.210827	0.995231	-0.011956	-0.014950	-0.095653	-0.277898	0.901437	-0.046222	0.328704	-139.827891	-34.535919	-18.840635	0.779634	-0.266026	0.566923	0.099360	-0.841272	-0.531403	0.618303	0.470629	-0.629452
16551	25.467941	25.781703	-18.082040	0.277837	0.233927	-0.178159	0.996384	-0.008250	-0.017222	-0.082796	-0.243040	0.909950	0.030660	0.334638	-147.335490	-38.602332	-7.859323	0.774154	-0.106863	0.623911	0.218459	-0.879983	-0.421788	0.594105	0.462828	-0.657898
16552	36.430736	27.160759	-14.991503	0.382856	0.248116	-0.143217	0.997941	-0.005388	-0.021422	-0.060214	-0.216842	0.914705	0.088789	0.329258	-153.858523	-39.855566	1.465896	0.767411	0.019638	0.640854	0.305226	-0.890192	-0.338224	0.563841	0.455162	-0.689137
16553	46.323459	23.553100	-15.941169	0.474391	0.218740	-0.149706	0.999153	-0.001468	-0.021310	-0.035181	-0.201845	0.918133	0.125039	0.317264	-157.894969	-39.276056	7.536355	0.767418	0.101528	0.633057	0.357680	-0.887248	-0.291300	0.532104	0.449981	-0.717205
16554	49.533975	17.176821	-17.383544	0.500483	0.165368	-0.164942	0.999759	0.002429	-0.017014	-0.013647	-0.197578	0.921108	0.141747	0.304024	-159.349120	-38.031168	10.311329	0.774955	0.140991	0.616090	0.381265	-0.881742	-0.277792	0.504066	0.450169	-0.737065
16555	44.331838	13.070354	-18.664008	0.445513	0.131575	-0.180670	0.999912	0.006513	-0.011501	-0.000714	-0.201718	0.923128	0.146651	0.292640	-159.019224	-36.830706	10.997725	0.785711	0.152694	0.599453	0.388817	-0.875607	-0.286591	0.481124	0.458255	-0.747344
16556	37.821570	14.944983	-17.357695	0.378137	0.152419	-0.171135	0.999959	0.006642	-0.003799	0.004831	-0.208703	0.923564	0.144902	0.287186	-157.994253	-36.224581	10.555602	0.793055	0.147780	0.590952	0.387526	-0.870893	-0.302273	0.469986	0.468728	-0.747935
16557	32.822581	17.130909	-9.946261	0.326729	0.173692	-0.100239	0.999971	0.001483	0.003158	0.006828	-0.212491	0.923302	0.138365	0.288471	-157.192214	-36.263183	9.487820	0.795279	0.132910	0.591495	0.378101	-0.871405	-0.312558	0.473890	0.472215	-0.743264
16558	32.471727	16.699076	-5.464649	0.323321	0.168906	-0.056957	0.999960	-0.002414	0.005880	0.006335	-0.212895	0.922951	0.130574	0.292896	-156.781386	-36.602055	8.330687	0.794325	0.116314	0.596254	0.365738	-0.875252	-0.316495	0.485060	0.469473	-0.737775
16559	29.221288	14.224381	-4.754278	0.291742	0.142234	-0.050351	0.999958	-0.006288	0.006555	0.001030	-0.208247	0.922457	0.126387	0.299553	-157.198879	-37.249659	7.827611	0.788589	0.108410	0.605289	0.357935	-0.881319	-0.308479	0.500011	0.459917	-0.733802
16560	31.495706	13.006293	-9.279007	0.314474	0.128127	-0.096987	0.999901	-0.010241	0.009146	-0.003040	-0.199021	0.921365	0.124219	0.309913	-158.315813	-38.354878	7.735005	0.777047	0.105544	0.620530	0.352261	-0.889920	-0.289748	0.521641	0.443736	-0.728689
16561	35.367617	10.983728	-13.718296	0.351797	0.108228	-0.143117	0.999840	-0.012256	0.013053	0.000342	-0.189430	0.919646	0.117495	0.323362	-159.251119	-39.737486	6.991293	0.763264	0.093599	0.639271	0.338617	-0.900623	-0.272429	0.550243	0.424403	-0.719107
16562	35.791520	9.959883	-16.444814	0.354496	0.100314	-0.171221	0.999774	-0.012103	0.015637	0.007762	-0.182596	0.917575	0.103472	0.337653	-159.392080	-41.104153	5.069094	0.750569	0.066578	0.657430	0.313194	-0.911905	-0.265216	0.581856	0.404966	-0.705299
16563	34.579159	8.906761	-18.994360	0.340669	0.092054	-0.197542	0.999634	-0.011481	0.019136	0.015261	-0.179133	0.914445	0.082067	0.353507	-158.542509	-42.526200	1.822863	0.736595	0.023443	0.675927	0.276741	-0.922353	-0.269591	0.617124	0.385636	-0.685888
16564	34.771780	8.592429	-22.882190	0.340117	0.092301	-0.237472	0.999391	-0.009032	0.022861	0.024786	-0.181391	0.909444	0.052085	0.370535	-156.170101	-43.856708	-3.155030	0.719982	-0.039686	0.692857	0.229160	-0.928769	-0.291331	0.655066	0.368528	-0.659602
16565	30.616105	6.670891	-25.848024	0.296987	0.075499	-0.266496	0.999069	-0.005886	0.025279	0.034455	-0.189956	0.902084	0.013942	0.387255	-152.138701	-44.746409	-9.888449	0.699678	-0.121968	0.703970	0.172277	-0.927445	-0.331914	0.693376	0.353511	-0.627901
16566	26.408853	5.751596	-28.551117	0.253335	0.067071	-0.292922	0.998761	-0.003392	0.027980	0.041001	-0.202912	0.891333	-0.029664	0.404316	-146.856995	-45.131132	-17.910731	0.671296	-0.216962	0.708723	0.111201	-0.915894	-0.385711	0.732800	0.337737	-0.590710
16567	21.752490	5.731800	-30.551154	0.204652	0.066786	-0.312244	0.998426	-0.000501	0.032043	0.046019	-0.219804	0.875703	-0.077333	0.422907	-140.465215	-44.965856	-27.013007	0.630339	-0.321354	0.706685	0.050471	-0.891412	-0.450375	0.774677	0.319556	-0.545673
16568	15.146145	6.410966	-32.541583	0.136064	0.071900	-0.330387	0.998078	0.002083	0.036194	0.050262	-0.239642	0.854356	-0.128242	0.442947	-133.288891	-44.059431	-36.895153	0.574705	-0.431425	0.695404	-0.006831	-0.852252	-0.523087	0.818332	0.295870	-0.492741
16569	9.610690	8.603682	-34.224570	0.077343	0.093241	-0.344903	0.997548	0.006942	0.039288	0.057491	-0.265412	0.825814	-0.183379	0.462558	-125.343822	-41.807646	-47.369737	0.504824	-0.548411	0.666632	-0.057337	-0.791857	-0.608009	0.861316	0.268715	-0.431193
16570	7.149076	11.651683	-34.806107	0.049060	0.124782	-0.348806	0.996806	0.012705	0.040567	0.067614	-0.298867	0.788635	-0.243484	0.479008	-117.220378	-37.588545	-57.776346	0.422534	-0.670359	0.609987	-0.097721	-0.702789	-0.704655	0.901064	0.238132	-0.362460
16571	4.841325	16.683199	-36.572076	0.020045	0.176113	-0.363610	0.995844	0.018966	0.039851	0.079668	-0.341037	0.741194	-0.308121	0.489272	-109.677706	-31.006099	-67.257604	0.331350	-0.790474	0.515129	-0.123036	-0.577511	-0.807059	0.935452	0.204040	-0.288615
16572	0.818574	23.814330	-37.430753	-0.028136	0.246509	-0.367215	0.994716	0.026555	0.037424	0.091843	-0.392291	0.681621	-0.374299	0.491326	-103.062212	-22.094019	-75.180161	0.236998	-0.895746	0.376128	-0.124774	-0.412016	-0.902593	0.963464	0.166982	-0.209413
16573	-6.136103	31.026877	-37.432623	-0.104879	0.313556	-0.360747	0.993862	0.033712	0.033187	0.100002	-0.449567	0.610467	-0.436619	0.484338	-97.422764	-11.464855	-81.222018	0.149561	-0.968568	0.198767	-0.097598	-0.214508	-0.971834	0.983924	0.125949	-0.126612
16574	-17.620198	31.143874	-36.419156	-0.216488	0.305835	-0.345847	0.994131	0.039570	0.030084	0.096089	-0.504453	0.532596	-0.487044	0.473979	-92.392575	-0.773400	-85.625824	0.076263	-0.996996	0.013498	-0.040596	-0.016631	-0.999037	0.996261	0.075641	-0.041742
16575	-28.817017	28.190727	-30.644917	-0.318229	0.270252	-0.285707	0.995711	0.041363	0.030348	0.076995	-0.546023	0.457554	-0.521668	0.469432	-87.857610	8.053837	-89.132406	0.014992	-0.990023	-0.140104	0.035259	0.140556	-0.989445	0.999266	0.009894	0.037014
16576	-38.103679	27.768527	-18.336612	-0.401092	0.259563	-0.165291	0.997587	0.027152	0.027481	0.057681	-0.569832	0.398668	-0.549046	0.463577	-85.298924	14.838883	-91.939244	-0.032711	-0.966096	-0.256102	0.090548	0.252321	-0.963398	0.995355	-0.054703	0.079224
16577	-41.218392	24.099889	-1.921830	-0.420925	0.225759	-0.002802	0.998582	0.031275	0.021970	0.037048	-0.586593	0.349748	-0.561062	0.467754	-82.340473	19.331811	-94.081995	-0.067170	-0.941224	-0.331038	0.156302	0.317765	-0.935198	0.985423	-0.114560	0.125771
16578	-38.034910	24.668525	8.049738	-0.386196	0.233607	0.090433	0.999265	0.021485	0.012541	0.029151	-0.600242	0.314693	-0.568151	0.466778	-80.232156	22.847079	-95.064755	-0.081355	-0.917946	-0.388273	0.202774	0.366173	-0.908185	0.975840	-0.152618	0.156346
16579	-35.228764	21.257002	14.485833	-0.357290	0.201053	0.148796	0.999539	0.010416	0.005068	0.028056	-0.613448	0.289982	-0.574903	0.457251	-79.034976	26.113896	-95.059260	-0.079184	-0.894423	-0.440157	0.227576	0.413664	-0.881528	0.970536	-0.169972	0.170793
16580	-32.153017	17.025586	13.452644	-0.325738	0.162766	0.133578	0.999736	0.010267	-0.008154	0.018851	-0.629546	0.276512	-0.570526	0.449125	-77.165027	28.032191	-93.535140	-0.054427	-0.881004	-0.469968	0.249975	0.443655	-0.860629	0.966721	-0.164322	0.196083
16581	-30.916254	17.061030	13.850571	-0.312131	0.166860	0.136368	0.999869	0.008034	-0.011211	0.008513	-0.641892	0.271588	-0.562145	0.445205	-75.446390	28.675434	-91.856917	-0.028429	-0.876891	-0.479847	0.266204	0.456064	-0.849200	0.963497	-0.151879	0.220466
16582	-29.337313	18.185712	16.285780	-0.294617	0.182572	0.159772	0.999960	-0.005193	-0.007270	0.000409	-0.644708	0.277918	-0.559886	0.440047	-75.596662	28.511255	-90.927749	-0.014228	-0.878608	-0.477331	0.256200	0.458240	-0.851104	0.966519	-0.134401	0.218579
16583	-25.397187	16.624544	20.188142	-0.252650	0.172352	0.198346	0.999801	-0.015892	-0.003273	-0.011597	-0.636880	0.296034	-0.561441	0.437644	-77.389671	27.130915	-90.868888	-0.013496	-0.889865	-0.456025	0.225043	0.441663	-0.868499	0.974255	-0.114346	0.194297
16584	-25.084810	14.675090	22.191679	-0.248471	0.156899	0.217508	0.999521	-0.021358	-0.004527	-0.021937	-0.623184	0.323779	-0.561148	0.438088	-79.831974	24.564029	-90.857880	-0.013617	-0.909395	-0.415710	0.182642	0.406492	-0.895213	0.983085	-0.088116	0.160559
16585	-22.535549	15.001482	17.549010	-0.222874	0.160235	0.169378	0.999288	-0.026896	-0.008455	-0.025060	-0.607786	0.358069	-0.559155	0.435578	-82.693491	21.577444	-90.293594	-0.004765	-0.929909	-0.367758	0.129045	0.364116	-0.922370	0.991627	-0.051852	0.118265
16586	-19.769893	13.028713	13.351634	-0.196449	0.139283	0.125886	0.999032	-0.033825	-0.015323	-0.023603	-0.593375	0.398127	-0.555587	0.425115	-86.026314	18.713967	-88.717441	0.021200	-0.946895	-0.320844	0.062117	0.321543	-0.944855	0.997844	0.000101	0.065635
16587	-17.674343	12.384246	7.412260	-0.175455	0.130373	0.065164	0.998733	-0.039796	-0.021895	-0.021682	-0.579716	0.442584	-0.550181	0.406631	-89.830673	16.138521	-86.185617	0.063903	-0.958465	-0.277961	-0.015542	0.277540	-0.960588	0.997835	0.065704	0.002839
16588	-15.199934	11.676516	3.356531	-0.150177	0.121142	0.024520	0.998482	-0.044774	-0.024399	-0.020829	-0.563988	0.489217	-0.544195	0.382669	-94.191424	13.852521	-83.207614	0.114832	-0.964101	-0.239424	-0.100817	0.228463	-0.968318	0.988256	0.135332	-0.070963
16589	-13.705933	11.562140	-0.055479	-0.134217	0.118292	-0.010438	0.997969	-0.053203	-0.026826	-0.022547	-0.542776	0.540758	-0.537293	0.352550	-99.533247	11.652219	-79.763441	0.174050	-0.963802	-0.201971	-0.198381	0.166578	-0.965866	0.964547	0.208176	-0.162207
16590	-11.976649	10.529326	-2.393457	-0.116500	0.106286	-0.033196	0.997684	-0.058302	-0.026128	-0.023363	-0.515817	0.592881	-0.529795	0.318972	-105.557624	9.690731	-76.198841	0.235149	-0.957272	-0.168330	-0.299148	0.093499	-0.949615	0.924778	0.273657	-0.264380
16591	-10.754448	8.952785	-4.734259	-0.104092	0.088928	-0.055263	0.997531	-0.061396	-0.023157	-0.025005	-0.482427	0.643716	-0.521303	0.284845	-112.071229	7.831643	-72.723463	0.294214	-0.945976	-0.136263	-0.396308	0.008985	-0.918074	0.869700	0.324112	-0.372254
16592	-9.617619	7.950561	-4.912425	-0.092604	0.079085	-0.055984	0.997398	-0.061709	-0.020910	-0.030854	-0.443593	0.693821	-0.507584	0.253369	-118.711936	5.666369	-69.018031	0.356324	-0.929131	-0.098736	-0.479560	-0.091167	-0.872761	0.801907	0.358336	-0.478059
16593	-10.052446	7.669162	-5.702085	-0.096678	0.076381	-0.063547	0.997367	-0.060647	-0.019167	-0.034831	-0.401243	0.741430	-0.488945	0.224092	-125.353426	3.444154	-65.026878	0.421431	-0.904869	-0.060076	-0.545207	-0.199872	-0.814125	0.724669	0.375851	-0.577573
16594	-8.836719	8.184444	-6.445179	-0.083826	0.080673	-0.071433	0.997121	-0.062386	-0.022413	-0.036818	-0.356581	0.787327	-0.465236	0.191105	-132.297376	1.768677	-60.376156	0.494068	-0.868875	-0.030864	-0.596298	-0.312811	-0.739310	0.632713	0.383674	-0.672658
16595	-7.762646	8.154233	-9.504878	-0.072015	0.077797	-0.102170	0.996786	-0.065557	-0.026074	-0.037950	-0.308693	0.830810	-0.437091	0.153016	-139.701199	0.893820	-55.169949	0.571075	-0.820750	-0.015599	-0.631810	-0.427319	-0.646695	0.524109	0.379167	-0.762589
16596	-2.464719	11.208263	-15.437835	-0.015876	0.101889	-0.162138	0.996406	-0.068621	-0.027629	-0.041268	-0.256379	0.871256	-0.403213	0.112260	-147.499560	0.638118	-49.482933	0.649634	-0.760165	-0.011137	-0.645041	-0.543378	-0.537273	0.402365	0.356215	-0.843335
16597	5.226699	12.815628	-24.406490	0.061118	0.108426	-0.251116	0.996627	-0.070028	-0.017452	-0.039069	-0.197151	0.903983	-0.371197	0.078478	-155.499114	0.256630	-44.592778	0.712107	-0.702056	-0.004479	-0.640169	-0.646688	-0.414703	0.288248	0.298181	-0.909946
16598	9.401923	14.941693	-31.312437	0.100026	0.123643	-0.321962	0.996890	-0.068989	-0.003063	-0.037959	-0.132372	0.929097	-0.340542	0.057340	-163.437297	-0.939256	-40.395473	0.761487	-0.647973	0.016392	-0.617612	-0.733018	-0.285026	0.196705	0.206920	-0.958380
16599	10.787398	14.213060	-34.762673	0.110923	0.116415	-0.355781	0.997448	-0.061534	0.004113	-0.035977	-0.071399	0.946888	-0.310313	0.044843	-170.608487	-2.327467	-36.481107	0.803390	-0.594067	0.040611	-0.581260	-0.797216	-0.163045	0.129235	0.107383	-0.985782
16600	14.373933	13.400350	-35.292114	0.146172	0.114179	-0.358642	0.998668	-0.046062	0.001052	-0.023235	-0.026351	0.956078	-0.290037	0.033145	-176.003628	-2.756548	-33.847660	0.829560	-0.556342	0.048092	-0.552849	-0.830369	-0.069613	0.078663	0.031160	-0.996414
16601	20.553304	12.305961	-32.448588	0.209336	0.110269	-0.326553	0.999416	-0.030633	-0.006930	-0.013476	0.001388	0.960467	-0.277808	0.017990	-179.579834	-2.024576	-32.271644	0.844998	-0.533601	0.035328	-0.533701	-0.845642	-0.007329	0.033786	-0.012662	-0.999349
16602	23.875002	11.108203	-29.740201	0.242621	0.103053	-0.297115	0.999696	-0.021132	-0.010448	-0.007239	0.018891	0.962347	-0.271158	0.002075	177.980561	-0.815808	-31.457794	0.852938	-0.521817	0.014238	-0.521974	-0.852233	0.035235	-0.006252	-0.037485	-0.999278
16603	23.099998	8.441118	-26.214027	0.233440	0.079817	-0.261399	0.999836	-0.015739	-0.008689	-0.002044	0.031681	0.962468	-0.269334	-0.010575	176.176601	0.188542	-31.273447	0.854695	-0.519120	-0.003291	-0.517780	-0.852911	0.066681	-0.037422	-0.055288	-0.997769
16604	21.165331	5.736858	-23.007212	0.212869	0.055525	-0.229398	0.999911	-0.011314	-0.006163	0.003551	0.040934	0.961005	-0.272795	-0.019423	174.877675	0.859306	-31.733150	0.850411	-0.525905	-0.014997	-0.522725	-0.847815	0.089272	-0.059664	-0.068079	-0.995894
16605	18.390950	5.235779	-19.301776	0.184902	0.053346	-0.191792	0.999913	-0.004187	-0.007844	0.009715	0.043002	0.957951	-0.282339	-0.027684	174.372516	1.647947	-32.924842	0.839037	-0.543314	-0.028758	-0.538552	-0.836872	0.098020	-0.077322	-0.066754	-0.994769
16606	15.732014	5.613289	-15.517670	0.158412	0.058890	-0.153015	0.999780	0.001262	-0.013216	0.016215	0.038495	0.952855	-0.298404	-0.039254	174.438264	2.971117	-34.922217	0.818828	-0.571694	-0.051833	-0.565650	-0.818946	0.096788	-0.097781	-0.049934	-0.993954
16607	12.134090	4.913670	-12.105217	0.122232	0.052330	-0.118773	0.999611	0.004452	-0.016815	0.021819	0.030076	0.945488	-0.319892	-0.053073	174.771467	4.652824	-37.597548	0.789705	-0.608101	-0.081118	-0.601716	-0.793529	0.090828	-0.119602	-0.022918	-0.992557
16608	7.780663	5.051924	-9.459407	0.078149	0.053109	-0.092860	0.999483	0.006113	-0.018123	0.025862	0.019855	0.935954	-0.345040	-0.067407	175.168936	6.458198	-40.745593	0.752808	-0.648560	-0.112478	-0.643206	-0.761106	0.083684	-0.139882	0.009349	-0.990124
16609	3.976451	4.463563	-8.183624	0.039964	0.046239	-0.080836	0.999440	0.006207	-0.017959	0.027538	0.009694	0.924846	-0.371388	-0.081471	175.453649	8.250188	-44.085599	0.710867	-0.688532	-0.143496	-0.685373	-0.723955	0.078445	-0.157897	0.042584	-0.986537
16610	1.535565	4.024396	-8.058395	0.015483	0.041103	-0.080123	0.999515	0.005578	-0.015132	0.026649	0.001085	0.913329	-0.396447	-0.093052	175.591361	9.736311	-47.303930	0.668342	-0.724375	-0.169114	-0.723971	-0.685657	0.075762	-0.170834	0.071799	-0.982680
16611	-0.635067	4.066384	-8.108325	-0.006512	0.040794	-0.081005	0.999641	0.003555	-0.010325	0.024486	-0.003977	0.902342	-0.419003	-0.100993	175.478973	10.695736	-50.239061	0.628474	-0.755364	-0.185593	-0.756971	-0.648842	0.077455	-0.178928	0.091810	-0.979569
16612	-6.116898	3.000400	-6.360119	-0.061354	0.028901	-0.063930	0.999806	0.000813	-0.005745	0.018846	-0.005208	0.893695	-0.435979	-0.105846	175.147654	11.170528	-52.484618	0.597437	-0.778163	-0.193730	-0.780368	-0.619790	0.082986	-0.184648	0.101602	-0.977539
16613	-2.852548	3.990187	-5.161201	-0.028851	0.039463	-0.051768	0.999916	-0.001589	-0.003222	0.012422	-0.003876	0.887878	-0.446852	-0.109455	174.676935	11.410067	-53.962670	0.576685	-0.792652	-0.197830	-0.794349	-0.600616	0.090938	-0.190902	0.104703	-0.976009
16614	-3.966385	7.307589	-2.221181	-0.040743	0.072247	-0.022940	0.999835	-0.008273	-0.003184	0.015876	0.003792	0.880330	-0.459950	-0.115979	173.354842	11.578528	-55.846360	0.549990	-0.810695	-0.200711	-0.808936	-0.576863	0.113365	-0.207687	0.100013	-0.973069
16615	-6.792221	3.530206	-4.592189	-0.068293	0.033635	-0.046606	0.999787	-0.012436	-0.003796	0.015998	0.014850	0.872303	-0.472501	-0.124935	171.543285	11.766855	-57.759254	0.522267	-0.828040	-0.203930	-0.820618	-0.553044	0.143972	-0.231996	0.092157	-0.968341
16616	-6.682193	4.528574	-4.936582	-0.067243	0.043714	-0.050192	0.999813	-0.011844	-0.004507	0.014605	0.024883	0.864509	-0.483735	-0.134184	169.822147	12.001239	-59.530885	0.495991	-0.843064	-0.207933	-0.829708	-0.530763	0.172842	-0.256080	0.086796	-0.962751
16617	-6.746277	5.483251	-4.803781	-0.068024	0.053217	-0.049039	0.999801	-0.013362	-0.004168	0.014217	0.036323	0.856576	-0.494232	-0.143851	167.930046	12.153694	-61.258408	0.470082	-0.857145	-0.210535	-0.836245	-0.508830	0.204419	-0.282343	0.079965	-0.955975
16618	-6.921513	5.458267	-6.789749	-0.069753	0.052600	-0.068892	0.999790	-0.015092	-0.002743	0.013621	0.049856	0.848729	-0.503719	-0.153101	165.859612	12.102170	-62.884635	0.445654	-0.870309	-0.209656	-0.839776	-0.487563	0.238869	-0.310110	0.069611	-0.948149
16619	-7.717743	4.289585	-9.037115	-0.077607	0.040796	-0.090965	0.999844	-0.012622	-0.000898	0.012310	0.061996	0.841637	-0.512194	-0.159565	164.119730	11.834391	-64.303141	0.424393	-0.881947	-0.205084	-0.842378	-0.467628	0.267812	-0.332099	0.059100	-0.941391
16620	-8.989133	3.458093	-8.959906	-0.090152	0.032680	-0.090042	0.999888	-0.010563	-0.001016	0.010566	0.072054	0.835323	-0.519401	-0.165128	162.662790	11.596641	-65.520351	0.405911	-0.891530	-0.201020	-0.843938	-0.450062	0.291912	-0.350720	0.051158	-0.935082
16621	-9.907608	3.547493	-9.275199	-0.099081	0.033827	-0.093355	0.999921	-0.009371	-0.002832	0.007821	0.079699	0.830060	-0.524542	-0.171766	161.394267	11.627106	-66.491272	0.390704	-0.898183	-0.201541	-0.843424	-0.437007	0.312507	-0.368763	0.047887	-0.928289
16622	-9.226541	4.225574	-10.489141	-0.092078	0.040764	-0.105640	0.999933	-0.009784	-0.003740	0.005000	0.086719	0.825968	-0.527268	-0.179570	160.132438	11.840591	-67.186283	0.379486	-0.902157	-0.205189	-0.839869	-0.428936	0.332616	-0.388085	0.046109	-0.920469
16623	-7.879769	4.954990	-11.511211	-0.078493	0.048060	-0.115944	0.999930	-0.010468	-0.004121	0.003550	0.093826	0.822400	-0.528634	-0.188155	158.817928	12.138630	-67.743294	0.370289	-0.904804	-0.210278	-0.834189	-0.423486	0.353254	-0.408675	0.044605	-0.911589
16624	-7.053790	4.761697	-12.145642	-0.070206	0.046209	-0.122187	0.999939	-0.010212	-0.003608	0.002317	0.100751	0.819496	-0.528916	-0.196273	157.561628	12.422133	-68.151034	0.363449	-0.906439	-0.215113	-0.827340	-0.420193	0.372754	-0.428268	0.042494	-0.902652
16625	-5.218026	5.600633	-12.260515	-0.051967	0.054698	-0.123282	0.999946	-0.009965	-0.002444	0.001579	0.107931	0.817142	-0.528464	-0.203360	156.359550	12.607528	-68.432023	0.358741	-0.907558	-0.218271	-0.819763	-0.418153	0.391327	-0.446423	0.038546	-0.893991
16626	-4.245888	5.658742	-13.219092	-0.042498	0.055093	-0.132805	0.999942	-0.010481	-0.000743	0.002470	0.116602	0.814516	-0.528392	-0.209211	155.094093	12.567409	-68.730373	0.354066	-0.909556	-0.217588	-0.811979	-0.414412	0.411039	-0.464035	0.031142	-0.885269
16627	-4.520136	4.534937	-13.627958	-0.045531	0.044054	-0.136592	0.999958	-0.008637	0.001578	0.002569	0.125006	0.812457	-0.528463	-0.212163	154.064082	12.276234	-68.921239	0.351427	-0.911751	-0.212625	-0.805664	-0.410201	0.427365	-0.476869	0.021117	-0.878721
16628	-4.125822	5.490861	-11.253431	-0.041640	0.054030	-0.112817	0.999971	-0.006956	0.002289	0.002283	0.132349	0.810853	-0.528532	-0.213672	153.242815	11.923880	-69.040093	0.349996	-0.913682	-0.206612	-0.800564	-0.406275	0.440496	-0.486415	0.011234	-0.873656
16629	-3.761994	5.039630	-9.971307	-0.037896	0.049704	-0.099955	0.999977	-0.006173	0.001757	0.002014	0.138712	0.809338	-0.528594	-0.215221	152.512941	11.638053	-69.154291	0.348537	-0.915329	-0.201728	-0.795914	-0.402695	0.452060	-0.495018	0.002999	-0.868877
16630	-3.235359	5.015518	-8.902744	-0.032495	0.049537	-0.089320	0.999979	-0.006114	0.000345	0.002234	0.144321	0.807376	-0.529018	-0.217845	151.771001	11.482560	-69.364538	0.345367	-0.917111	-0.199070	-0.791353	-0.398624	0.463530	-0.504462	-0.002554	-0.863430
16631	-3.440580	5.196579	-8.570210	-0.034323	0.051443	-0.086049	0.999982	-0.005435	-0.001937	0.001613	0.148035	0.805311	-0.529398	-0.222031	151.094583	11.587758	-69.636646	0.340880	-0.918397	-0.200869	-0.786924	-0.395647	0.473513	-0.514346	-0.003343	-0.857576
16632	-1.439155	5.967681	-8.196461	-0.014224	0.059163	-0.082365	0.999977	-0.006045	-0.002905	0.001203	0.151628	0.803125	-0.529433	-0.227375	150.344345	11.809987	-69.923826	0.336003	-0.919355	-0.204667	-0.781449	-0.393419	0.484312	-0.525775	-0.002794	-0.850619
16633	0.438360	6.337391	-9.467379	0.004308	0.062747	-0.095093	0.999976	-0.006695	-0.000504	0.001967	0.157184	0.800944	-0.529546	-0.231003	149.531628	11.745713	-70.150687	0.332438	-0.920894	-0.203568	-0.775653	-0.389749	0.496445	-0.536514	-0.007138	-0.843861
16634	0.300449	6.210589	-9.803093	0.002522	0.061455	-0.098453	0.999969	-0.006701	0.003120	0.002844	0.164857	0.799091	-0.529759	-0.231585	148.745116	11.270755	-70.247046	0.331447	-0.923008	-0.195446	-0.770294	-0.384355	0.508840	-0.544784	-0.018103	-0.838381
16635	-0.376732	6.271282	-10.386944	-0.004607	0.061948	-0.104291	0.999949	-0.007233	0.006482	0.002652	0.174679	0.797964	-0.529100	-0.229771	147.942641	10.477698	-70.111515	0.334518	-0.924677	-0.181853	-0.764133	-0.379082	0.521918	-0.551542	-0.035631	-0.833385
16636	1.203525	6.506961	-13.898213	0.010368	0.064076	-0.139572	0.999911	-0.007320	0.010848	0.002404	0.186799	0.797845	-0.527384	-0.224532	147.180341	9.279671	-69.668633	0.342902	-0.925427	-0.161254	-0.757657	-0.373943	0.534903	-0.555314	-0.061244	-0.829383
16637	-0.115543	5.918393	-12.976457	-0.003166	0.058316	-0.130117	0.999877	-0.006601	0.013692	0.003929	0.200148	0.797526	-0.526405	-0.216311	146.496887	7.718690	-69.179904	0.352214	-0.926232	-0.134309	-0.753055	-0.365677	0.546981	-0.555745	-0.091512	-0.826301
16638	-2.209445	6.291469	-14.378221	-0.023660	0.062571	-0.143680	0.999947	-0.002002	0.009843	0.002402	0.207438	0.797958	-0.525880	-0.209004	146.318191	6.625406	-68.779905	0.359534	-0.925971	-0.115378	-0.752549	-0.360839	0.550877	-0.551729	-0.111232	-0.826573
16639	0.347775	5.751252	-9.609335	0.002829	0.057606	-0.096058	0.999981	0.000941	0.006043	0.001180	0.210111	0.798790	-0.525745	-0.203422	146.456893	5.972659	-68.505484	0.364423	-0.925402	-0.104054	-0.754437	-0.358891	0.549565	-0.545912	-0.121772	-0.828946
16640	-0.300133	6.051765	-9.959305	-0.003238	0.060855	-0.099379	0.999992	0.003443	0.001463	0.001502	0.208435	0.799025	-0.527325	-0.200107	146.847372	5.736538	-68.555360	0.363771	-0.926110	-0.099954	-0.759273	-0.356966	0.544132	-0.539607	-0.122047	-0.833024
16641	-0.606626	6.122493	-7.929455	-0.005914	0.061624	-0.078996	0.999983	0.005118	-0.002712	0.001004	0.203116	0.799015	-0.529698	-0.199345	147.407749	5.933842	-68.820047	0.359362	-0.927454	-0.103380	-0.765494	-0.356328	0.535771	-0.533740	-0.113399	-0.838011
16642	-0.219535	5.835714	-7.034429	-0.001849	0.058682	-0.070083	0.999974	0.004651	-0.005469	0.000644	0.196629	0.798518	-0.532228	-0.201095	147.898906	6.422197	-69.217907	0.352588	-0.929070	-0.111854	-0.770905	-0.356141	0.528080	-0.530459	-0.099966	-0.841796
16643	-1.710452	4.931712	-6.729521	-0.016670	0.049625	-0.067177	0.999963	0.004777	-0.007059	0.000799	0.189213	0.797594	-0.535186	-0.204008	148.387708	7.059663	-69.724073	0.343914	-0.930923	-0.122903	-0.776519	-0.355550	0.520195	-0.527959	-0.083466	-0.845158
16644	-1.614650	5.846741	-7.129039	-0.015504	0.058800	-0.071158	0.999953	0.004554	-0.008567	-0.000551	0.180878	0.796975	-0.537262	-0.208478	148.850637	7.929017	-70.183228	0.335772	-0.931787	-0.137946	-0.780951	-0.357265	0.512326	-0.526662	-0.064296	-0.847640
16645	-0.554388	5.407630	-8.697151	-0.004952	0.054445	-0.086776	0.999968	0.004239	-0.006776	-0.000068	0.173842	0.796350	-0.539291	-0.211590	149.280521	8.597765	-70.577787	0.328790	-0.932496	-0.149497	-0.785363	-0.357889	0.505095	-0.524502	-0.048661	-0.850018
16646	-3.608035	4.008644	-9.155368	-0.035667	0.040522	-0.091523	0.999983	0.004033	-0.003703	-0.001852	0.168242	0.797264	-0.539296	-0.212662	149.738771	9.069415	-70.608552	0.327869	-0.931480	-0.157631	-0.788364	-0.361709	0.497643	-0.520561	-0.038891	-0.852938
16647	-2.702723	4.608097	-9.587227	-0.026660	0.046631	-0.095708	0.999979	0.004497	-0.001674	-0.004461	0.162804	0.800062	-0.536957	-0.212301	150.311898	9.489709	-70.255056	0.333210	-0.928326	-0.164870	-0.790071	-0.370344	0.488501	-0.514546	-0.032514	-0.856846
16648	-2.933865	4.749068	-7.398234	-0.029017	0.047967	-0.073801	0.999974	0.004118	-0.000528	-0.005906	0.157970	0.803781	-0.533170	-0.211449	150.880642	9.873136	-69.685081	0.342038	-0.923910	-0.171467	-0.790299	-0.381550	0.479423	-0.508367	-0.028471	-0.860670
16649	-3.306926	5.905836	-6.974961	-0.032540	0.059462	-0.069655	0.999971	0.002448	-0.001538	-0.007113	0.153677	0.807621	-0.528189	-0.212480	151.274697	10.420244	-69.044968	0.351737	-0.918460	-0.180867	-0.787847	-0.394800	0.472684	-0.505548	-0.023765	-0.862471
16650	-0.865432	7.381312	-8.772921	-0.007988	0.073931	-0.087692	0.999977	0.000755	-0.002251	-0.006339	0.150529	0.810599	-0.523555	-0.214852	151.459612	10.993437	-68.519932	0.359458	-0.913469	-0.190697	-0.784103	-0.406462	0.469010	-0.505937	-0.019064	-0.862360
16651	-0.276474	7.205690	-9.610072	-0.002288	0.072092	-0.096086	0.999988	0.000249	-0.001415	-0.004722	0.148572	0.812804	-0.519979	-0.216559	151.568147	11.392688	-68.111966	0.365449	-0.909631	-0.197532	-0.780932	-0.415097	0.466732	-0.506549	-0.016307	-0.862057
16652	-0.537211	6.726427	-10.972244	-0.005094	0.067382	-0.109663	0.999992	0.000892	-0.000145	-0.003892	0.146932	0.814932	-0.517018	-0.216772	151.749593	11.617410	-67.717538	0.371405	-0.906370	-0.201376	-0.778966	-0.422207	0.463629	-0.505242	-0.015330	-0.862842
16653	-2.194241	6.374991	-11.141316	-0.021774	0.064089	-0.111251	0.999988	0.002208	0.000959	-0.004298	0.144697	0.817686	-0.513838	-0.215461	152.104349	11.750846	-67.219028	0.379094	-0.902669	-0.203656	-0.777963	-0.430066	0.458057	-0.501060	-0.015210	-0.865279
16654	-2.834428	5.594656	-10.981790	-0.028421	0.056397	-0.109567	0.999972	0.002562	0.003773	-0.005987	0.143254	0.821931	-0.508926	-0.211901	152.566359	11.684644	-66.391603	0.392184	-0.897316	-0.202525	-0.775893	-0.440945	0.451174	-0.494147	-0.019805	-0.869153
16655	-3.293682	5.405770	-12.463509	-0.033751	0.054557	-0.124198	0.999910	0.001742	0.010240	-0.008443	0.145234	0.828583	-0.500834	-0.203771	153.048364	11.081609	-64.964806	0.415285	-0.889154	-0.192207	-0.770777	-0.456144	0.444787	-0.483159	-0.036565	-0.874769
16656	-5.218188	4.435736	-13.348136	-0.054070	0.045137	-0.132458	0.999757	0.000958	0.018343	-0.012212	0.151109	0.838383	-0.488116	-0.189798	153.564050	9.830266	-62.731196	0.451439	-0.875816	-0.170730	-0.761096	-0.477818	0.438661	-0.465764	-0.068087	-0.882286
16657	-6.822946	3.649978	-13.688306	-0.071144	0.037713	-0.135042	0.999503	-0.000077	0.026273	-0.017435	0.160615	0.851459	-0.469262	-0.170331	154.046492	8.008477	-59.569030	0.501560	-0.853831	-0.139320	-0.744400	-0.507992	0.433374	-0.440801	-0.113653	-0.890380
16658	-6.475762	4.477055	-12.232010	-0.067640	0.046172	-0.120201	0.999214	-0.000974	0.032435	-0.022772	0.172659	0.866852	-0.444119	-0.146679	154.416201	5.793035	-55.571652	0.562488	-0.820621	-0.100935	-0.719320	-0.545895	0.429625	-0.407660	-0.169054	-0.897348
16659	-5.932098	6.099283	-11.155732	-0.061647	0.062353	-0.109509	0.998991	-0.002386	0.036064	-0.026650	0.186662	0.882699	-0.413982	-0.120912	154.507643	3.377194	-51.016888	0.627999	-0.775981	-0.058909	-0.685703	-0.587553	0.429643	-0.368007	-0.229421	-0.901075
16660	-4.100083	7.535853	-10.660906	-0.042797	0.076174	-0.105307	0.998884	-0.003685	0.037457	-0.028538	0.201757	0.897376	-0.380880	-0.094555	154.266330	0.917487	-46.205956	0.691979	-0.721740	-0.016012	-0.645431	-0.628449	0.434133	-0.323394	-0.290076	-0.900707
16661	-2.456686	9.678043	-10.698937	-0.025863	0.096946	-0.106530	0.998870	-0.005190	0.037833	-0.028284	0.217923	0.909671	-0.346933	-0.068164	153.644699	-1.558420	-41.387118	0.749982	-0.660899	0.027196	-0.601481	-0.664294	0.443772	-0.275222	-0.349179	-0.895727
16662	-0.705148	9.925324	-11.622685	-0.008831	0.098701	-0.116570	0.998898	-0.006634	0.037988	-0.026751	0.235069	0.919099	-0.313472	-0.041657	152.653415	-4.059991	-36.677208	0.800001	-0.595807	0.070801	-0.556638	-0.692957	0.458219	-0.223948	-0.405986	-0.886015
16663	0.112246	9.494490	-11.394692	-0.000856	0.094519	-0.114297	0.998906	-0.003774	0.038764	-0.025865	0.249353	0.926934	-0.280074	-0.013229	151.782334	-6.612225	-31.960800	0.842767	-0.525818	0.115149	-0.512623	-0.718764	0.469677	-0.164200	-0.454857	-0.875296
16664	1.671035	10.251359	-9.066870	0.016118	0.101567	-0.091830	0.999017	-0.005713	0.035439	-0.025997	0.263982	0.932354	-0.246772	0.011553	150.511160	-8.733014	-27.347387	0.877940	-0.454058	0.151830	-0.466258	-0.738834	0.486547	-0.108743	-0.497951	-0.860360
16665	3.584738	10.476907	-9.640372	0.035574	0.103630	-0.097722	0.999194	-0.002190	0.030553	-0.025951	0.273648	0.937078	-0.214324	0.032656	149.535486	-10.282477	-22.958779	0.905998	-0.383804	0.178501	-0.419549	-0.758364	0.498862	-0.056096	-0.526858	-0.848100
16666	5.258006	11.704257	-9.987065	0.052853	0.115772	-0.101193	0.999269	0.001193	0.027678	-0.026343	0.279125	0.941465	-0.181850	0.051616	148.861325	-11.461337	-18.661522	0.928533	-0.313596	0.198707	-0.371225	-0.778040	0.506799	-0.004329	-0.544345	-0.838850
16667	8.073138	14.641535	-8.612080	0.082242	0.144646	-0.087653	0.999355	0.003577	0.025090	-0.025452	0.281450	0.945191	-0.150569	0.068766	148.428926	-12.400807	-14.584008	0.945200	-0.245925	0.214749	-0.323341	-0.796229	0.511341	0.045238	-0.552757	-0.832114
16668	12.236407	17.518200	-8.037409	0.124104	0.172844	-0.082706	0.999521	0.002782	0.022783	-0.020767	0.283554	0.947081	-0.124244	0.084844	147.968893	-13.365874	-11.094946	0.954730	-0.187223	0.231168	-0.283455	-0.808321	0.516014	0.090249	-0.558179	-0.824798
16669	14.279849	17.385210	-8.613513	0.143276	0.172083	-0.088832	0.999657	0.002614	0.021994	-0.013965	0.284895	0.947367	-0.104503	0.102026	147.595691	-14.646672	-8.312408	0.957339	-0.139872	0.252858	-0.256139	-0.815828	0.518476	0.133768	-0.561124	-0.816851
16670	16.013848	17.900239	-7.909399	0.159900	0.178062	-0.081642	0.999749	0.004129	0.020526	-0.007960	0.283893	0.947036	-0.090647	0.119624	147.506092	-16.143570	-6.201807	0.954946	-0.103771	0.278045	-0.239613	-0.822376	0.516027	0.175109	-0.559401	-0.810190
16671	16.642245	18.721210	-7.666779	0.165324	0.187467	-0.078393	0.999829	0.006172	0.017393	-0.001361	0.279735	0.946669	-0.083652	0.136264	147.848769	-17.745806	-4.947861	0.948869	-0.082145	0.304795	-0.234616	-0.829502	0.506835	0.211194	-0.552430	-0.806361
16672	16.668488	19.313455	-8.599999	0.164558	0.194768	-0.086396	0.999863	0.008927	0.012889	0.005223	0.271652	0.946830	-0.083742	0.150684	148.776942	-19.319820	-4.662714	0.940563	-0.076712	0.330841	-0.240446	-0.838384	0.489180	0.239846	-0.539654	-0.806999
16673	17.309663	19.911795	-9.980561	0.169731	0.202409	-0.098923	0.999812	0.012027	0.009006	0.012279	0.259114	0.947533	-0.091079	0.163541	150.408685	-20.923420	-5.396697	0.929918	-0.087849	0.357120	-0.257352	-0.849130	0.461248	0.262721	-0.520828	-0.812229
16674	16.512911	19.657260	-9.936889	0.160451	0.201272	-0.097529	0.999666	0.014824	0.006921	0.020020	0.242395	0.948082	-0.105778	0.176627	152.756756	-22.717852	-7.158369	0.915228	-0.114945	0.386193	-0.286199	-0.860111	0.422254	0.283634	-0.496987	-0.820095
16675	14.317600	18.564720	-10.001932	0.137425	0.191204	-0.097467	0.999453	0.017502	0.005475	0.027518	0.221385	0.947927	-0.127376	0.190258	155.891040	-24.651640	-9.963144	0.895154	-0.157246	0.417100	-0.325727	-0.869528	0.371245	0.304303	-0.468183	-0.829581
16676	11.700669	17.846922	-10.225461	0.110431	0.184442	-0.098759	0.999183	0.020933	0.002892	0.034440	0.195254	0.946826	-0.155268	0.203196	159.971126	-26.449986	-13.873105	0.869206	-0.214674	0.445416	-0.373373	-0.875536	0.306643	0.324150	-0.432842	-0.841174
16677	8.358943	17.218764	-11.624372	0.076376	0.178274	-0.111790	0.998838	0.025087	-0.000366	0.041136	0.162856	0.944311	-0.188997	0.214558	165.162303	-27.825281	-18.940740	0.836490	-0.287059	0.466777	-0.426828	-0.875516	0.226472	0.343660	-0.388675	-0.854886
16678	4.532281	16.266882	-13.040709	0.037797	0.168444	-0.125221	0.998427	0.030546	-0.002367	0.046960	0.123327	0.939412	-0.226838	0.225478	171.518863	-28.658195	-24.980414	0.795408	-0.370574	0.479583	-0.481804	-0.866669	0.129416	0.367682	-0.334004	-0.867900
16679	1.341341	15.867486	-13.636740	0.005376	0.164019	-0.130305	0.997954	0.037176	-0.003002	0.051930	0.075762	0.930971	-0.267134	0.237051	179.057413	-28.806473	-31.778637	0.744893	-0.461468	0.481853	-0.533306	-0.845800	0.014415	0.400899	-0.267712	-0.876134
16680	-1.821701	16.067283	-12.479810	-0.026986	0.164691	-0.117568	0.997389	0.044780	-0.003971	0.056523	0.019528	0.917768	-0.308696	0.249051	-172.326451	-27.982343	-39.095966	0.685360	-0.556897	0.469199	-0.576351	-0.808650	-0.117918	0.445086	-0.189607	-0.875184
16681	-4.384937	16.425020	-10.217821	-0.053367	0.166222	-0.093856	0.996789	0.051906	-0.005700	0.060709	-0.045050	0.898512	-0.350596	0.260248	-162.977885	-25.854216	-46.565551	0.618708	-0.653477	0.436083	-0.606581	-0.750106	-0.263439	0.499260	-0.101528	-0.860483
16682	-5.940027	17.303711	-6.650488	-0.070079	0.172228	-0.057021	0.996177	0.058097	-0.008382	0.064700	-0.116724	0.871978	-0.391842	0.269241	-153.397556	-22.214173	-53.710230	0.547939	-0.746208	0.378070	-0.620501	-0.665672	-0.414560	0.561019	-0.007439	-0.827770
16683	-8.386285	17.867343	-3.363934	-0.095523	0.174123	-0.023661	0.995684	0.062337	-0.010849	0.067895	-0.193104	0.837253	-0.431296	0.275140	-144.080962	-17.106850	-60.091016	0.476563	-0.828469	0.294155	-0.615946	-0.553390	-0.560687	0.627294	0.086020	-0.774017
16684	-12.465573	17.574227	-1.249451	-0.136213	0.167087	-0.003086	0.995588	0.063537	-0.010680	0.068218	-0.268678	0.794860	-0.466923	0.279274	-135.483798	-11.131639	-65.430181	0.407979	-0.892345	0.193064	-0.592207	-0.419591	-0.687920	0.694870	0.166323	-0.699637
16685	-15.329096	15.825293	1.548866	-0.163216	0.146580	0.023591	0.995935	0.062149	-0.007928	0.064714	-0.338755	0.746926	-0.496972	0.283489	-127.739224	-4.978765	-69.719691	0.345306	-0.934469	0.086787	-0.550337	-0.276528	-0.787821	0.760193	0.224277	-0.609759
16686	-17.363538	13.011900	5.017909	-0.181007	0.116493	0.056316	0.996603	0.057617	-0.004748	0.058658	-0.399484	0.697143	-0.521133	0.287792	-121.013215	0.865429	-73.068669	0.291192	-0.956545	-0.015104	-0.496672	-0.137666	-0.856951	0.817633	0.257039	-0.515177
16687	-21.117527	9.163713	7.775494	-0.215294	0.076962	0.081737	0.997482	0.050905	-0.000891	0.049368	-0.448631	0.649578	-0.539230	0.293273	-115.322298	5.901822	-75.655192	0.246444	-0.963687	-0.102824	-0.437402	-0.015921	-0.899125	0.864838	0.266559	-0.425443
16688	-22.732710	5.971721	11.346760	-0.228802	0.046188	0.116492	0.998392	0.041835	0.003944	0.038045	-0.483994	0.608173	-0.552577	0.300890	-110.826436	9.723901	-77.802433	0.208248	-0.963382	-0.168901	-0.380866	0.079182	-0.921234	0.900874	0.256173	-0.350430
16689	-25.086077	3.534593	14.401557	-0.250438	0.023913	0.146913	0.999076	0.032989	0.007906	0.026389	-0.507172	0.574680	-0.562017	0.310897	-107.402765	12.283350	-79.684998	0.174961	-0.961316	-0.212746	-0.330604	0.146173	-0.932381	0.927410	0.233465	-0.292240
16690	-25.827383	3.246516	17.470856	-0.257091	0.024056	0.177711	0.999532	0.024572	0.009094	0.015786	-0.520763	0.550308	-0.567812	0.321803	-104.943037	13.721887	-81.233082	0.148065	-0.960109	-0.237209	-0.289778	0.187208	-0.938606	0.945572	0.207713	-0.250499
16691	-26.521314	3.016170	20.202089	-0.263750	0.024608	0.204639	0.999788	0.017284	0.008176	0.007687	-0.527985	0.534190	-0.570620	0.332063	-103.242671	14.346595	-82.392706	0.128254	-0.960288	-0.247787	-0.258990	0.208749	-0.943052	0.957327	0.185125	-0.221932
16692	-26.888515	3.047017	23.322211	-0.267732	0.028051	0.234840	0.999942	0.009448	0.005016	0.000767	-0.530343	0.527093	-0.570527	0.339717	-102.313836	14.301610	-82.994645	0.118182	-0.961775	-0.247026	-0.241109	0.213531	-0.946716	0.963275	0.171445	-0.206657
16693	-26.004617	2.535863	24.944814	-0.260190	0.026368	0.249192	0.999988	0.000863	-0.001070	-0.004708	-0.529793	0.529674	-0.567180	0.342157	-102.155963	13.798842	-82.755122	0.122471	-0.963386	-0.238514	-0.238297	0.204749	-0.949364	0.963439	0.173106	-0.204496
16694	-25.047389	2.445249	22.343325	-0.251839	0.028631	0.221376	0.999895	-0.007915	-0.007327	-0.009629	-0.526404	0.541764	-0.560868	0.338846	-102.812732	12.905091	-81.669705	0.141220	-0.964457	-0.223337	-0.250977	0.183349	-0.950470	0.957637	0.190278	-0.216164
16695	-24.272833	2.372241	18.052246	-0.244404	0.029989	0.177250	0.999711	-0.015017	-0.011698	-0.014713	-0.519682	0.561724	-0.551668	0.331752	-104.165378	11.576580	-79.935174	0.171207	-0.964581	-0.200677	-0.274960	0.148813	-0.949869	0.946089	0.217803	-0.239743
16696	-23.698389	2.700585	13.782843	-0.238325	0.034537	0.133680	0.999482	-0.020491	-0.014673	-0.020017	-0.509401	0.587942	-0.539333	0.322420	-106.090954	9.807888	-77.675391	0.210330	-0.962675	-0.170345	-0.305711	0.100739	-0.946780	0.928602	0.251213	-0.273112
16697	-22.815193	3.387708	10.130523	-0.228826	0.042183	0.096394	0.999210	-0.025240	-0.017124	-0.025494	-0.495166	0.619601	-0.523335	0.311490	-108.564237	7.601120	-74.901526	0.258190	-0.956996	-0.132276	-0.340040	0.038136	-0.939637	0.904274	0.287584	-0.315570
16698	-21.445535	4.359246	7.009416	-0.214172	0.052061	0.064738	0.998938	-0.029550	-0.018192	-0.030325	-0.476491	0.655039	-0.504217	0.299410	-111.595844	5.063501	-71.732043	0.312238	-0.945895	-0.088260	-0.375231	-0.037443	-0.926175	0.872759	0.322305	-0.366621
16699	-20.562494	5.963870	3.650066	-0.203966	0.067808	0.030594	0.998676	-0.033412	-0.018226	-0.034594	-0.452799	0.692988	-0.482209	0.286732	-115.204167	2.251388	-68.234757	0.370518	-0.927994	-0.039284	-0.408667	-0.124895	-0.904098	0.834091	0.351039	-0.425516
16700	-19.533185	7.550191	1.274131	-0.192450	0.083095	0.006306	0.998456	-0.036720	-0.017948	-0.037620	-0.424644	0.731750	-0.457839	0.273135	-119.352348	-0.624273	-64.431666	0.431562	-0.902018	0.010895	-0.438078	-0.220122	-0.871570	0.788570	0.371363	-0.490150
16701	-19.004643	8.684142	-1.043223	-0.186154	0.093662	-0.017464	0.998286	-0.039049	-0.018440	-0.039503	-0.392989	0.770197	-0.430982	0.258091	-123.977360	-3.371995	-60.254667	0.495287	-0.866736	0.058818	-0.461029	-0.319628	-0.827823	0.736304	0.382893	-0.557898
16702	-18.670828	9.078355	-3.871999	-0.181946	0.096588	-0.046154	0.998170	-0.039647	-0.020016	-0.041027	-0.359925	0.807140	-0.401015	0.241176	-128.885411	-5.776888	-55.603845	0.562043	-0.820961	0.100655	-0.473740	-0.419282	-0.774450	0.677996	0.387590	-0.624577
16703	-17.873332	9.356289	-6.902143	-0.172879	0.098087	-0.076919	0.998044	-0.039355	-0.023381	-0.042572	-0.326561	0.842434	-0.366943	0.221394	-134.018673	-7.663875	-50.329079	0.632675	-0.762848	0.133361	-0.473654	-0.517422	-0.712690	0.612678	0.387734	-0.688686
16704	-16.346625	9.833140	-11.085926	-0.155849	0.100788	-0.119116	0.997854	-0.039578	-0.027090	-0.044569	-0.292766	0.875843	-0.328582	0.198044	-139.398273	-8.888652	-44.422152	0.705625	-0.691534	0.154515	-0.459612	-0.612643	-0.642981	0.539306	0.382687	-0.750133
16705	-13.385623	10.258720	-15.514452	-0.124472	0.102128	-0.162906	0.997650	-0.040617	-0.028190	-0.047439	-0.256370	0.906844	-0.286048	0.173452	-145.086980	-9.666833	-38.060326	0.776182	-0.607737	0.167919	-0.429866	-0.704902	-0.564206	0.461255	0.365744	-0.808378
16706	-10.107073	11.079079	-20.418362	-0.090068	0.106909	-0.211134	0.997404	-0.042165	-0.025368	-0.052580	-0.215787	0.934702	-0.238485	0.151306	-151.088931	-10.365519	-31.305742	0.840463	-0.511125	0.179927	-0.380526	-0.793121	-0.475562	0.385775	0.331225	-0.861085
16707	-6.834697	13.521816	-25.218754	-0.056038	0.127536	-0.258965	0.997095	-0.043870	-0.017609	-0.059718	-0.169320	0.958357	-0.184806	0.136852	-157.490734	-11.520831	-24.129538	0.894236	-0.400565	0.199724	-0.307877	-0.874355	-0.375120	0.324889	0.273955	-0.905205
16708	-4.420724	16.846888	-27.715882	-0.031612	0.158269	-0.284603	0.996688	-0.044683	-0.005763	-0.067706	-0.117913	0.976041	-0.124486	0.133955	-164.280517	-13.422795	-16.398065	0.933118	-0.274597	0.232135	-0.211417	-0.941199	-0.263527	0.290849	0.196825	-0.936305
16709	-1.087711	21.229944	-26.082726	0.002753	0.200736	-0.269786	0.996216	-0.043753	0.006397	-0.074823	-0.063946	0.985961	-0.057592	0.143088	-171.472302	-15.949665	-7.882813	0.952418	-0.131868	0.274793	-0.095268	-0.985188	-0.142579	0.289524	0.109616	-0.950873
16710	3.480026	25.475050	-22.201248	0.050548	0.241888	-0.232717	0.995964	-0.040481	0.015795	-0.078530	-0.011787	0.986854	0.013244	0.160641	-178.851451	-18.503986	1.350700	0.948038	0.022353	0.317371	0.029927	-0.999371	-0.019008	0.316746	0.027519	-0.948111
16711	9.694712	29.102771	-17.371146	0.114724	0.276578	-0.185454	0.996297	-0.033659	0.020656	-0.076371	0.033463	0.979263	0.082921	0.181794	174.135943	-20.517836	10.742430	0.920150	0.174570	0.350499	0.150236	-0.984009	0.095687	0.361598	-0.035389	-0.931662
16712	15.133759	32.203486	-12.871439	0.169886	0.307791	-0.139146	0.997311	-0.024076	0.017666	-0.066927	0.067527	0.967096	0.144451	0.198242	168.362697	-21.341722	19.190481	0.879668	0.306169	0.363930	0.252622	-0.949148	0.187883	0.402947	-0.073338	-0.912280
16713	18.845095	34.565417	-11.205630	0.205297	0.333678	-0.117921	0.998516	-0.013010	0.007345	-0.052372	0.089323	0.955756	0.192813	0.203410	164.545400	-20.755207	25.658286	0.842895	0.404902	0.354376	0.332226	-0.909689	0.249181	0.423266	-0.092301	-0.901291
16714	20.994533	35.780310	-12.249493	0.223104	0.349631	-0.122506	0.999348	-0.003064	-0.004883	-0.035632	0.100303	0.949005	0.225697	0.195932	162.842741	-19.062788	29.657569	0.821343	0.467680	0.326604	0.389070	-0.878000	0.278818	0.417156	-0.101934	-0.903100
16715	21.393812	35.786344	-14.086741	0.223290	0.353570	-0.136999	0.999687	0.003238	-0.012345	-0.021530	0.104194	0.946587	0.245467	0.181279	162.584345	-16.980154	31.694616	0.813768	0.502488	0.292040	0.426935	-0.857779	0.286254	0.394345	-0.108262	-0.912563
16716	21.503941	35.362197	-15.503338	0.221345	0.351513	-0.150831	0.999838	0.004679	-0.011650	-0.012866	0.104910	0.945882	0.257258	0.167687	162.833311	-15.262774	32.747332	0.811399	0.521856	0.263246	0.451488	-0.845624	0.284742	0.371202	-0.112187	-0.921750
16717	22.445611	35.216115	-13.856195	0.228054	0.350708	-0.136329	0.999948	0.002561	-0.005876	-0.007951	0.105317	0.945037	0.264590	0.160642	162.949299	-14.352844	33.444797	0.808373	0.533931	0.247893	0.466258	-0.837801	0.284066	0.359356	-0.114049	-0.926205
16718	22.956251	34.654275	-11.950262	0.230964	0.345432	-0.120012	0.999991	-0.001627	-0.000230	-0.003974	0.107571	0.943835	0.268076	0.160435	162.651948	-14.192085	33.888049	0.804792	0.540554	0.245173	0.471522	-0.833128	0.289075	0.360522	-0.117041	-0.925379
16719	22.918451	34.038263	-11.452054	0.228482	0.339977	-0.117090	0.999980	-0.005191	0.003514	0.000863	0.111378	0.942921	0.266812	0.165247	162.050284	-14.607510	33.918432	0.803009	0.539975	0.252196	0.466356	-0.832813	0.298221	0.371064	-0.121861	-0.920577
16720	21.454825	32.956472	-11.482340	0.211484	0.330366	-0.118128	0.999935	-0.007040	0.004612	0.007649	0.115579	0.943332	0.258950	0.172369	161.412355	-15.387398	33.232778	0.806467	0.528397	0.265344	0.448708	-0.839173	0.307329	0.385061	-0.128789	-0.913861
16721	19.110492	31.323285	-12.755047	0.185700	0.315282	-0.130399	0.999847	-0.006816	0.003756	0.015634	0.118314	0.945797	0.243434	0.179472	161.074834	-16.372759	31.614617	0.817060	0.502946	0.281885	0.418010	-0.853484	0.311181	0.397092	-0.136422	-0.907583
16722	16.271282	29.536368	-13.725749	0.155303	0.298399	-0.139180	0.999703	-0.005055	0.002657	0.023674	0.118271	0.950167	0.220396	0.186067	161.231898	-17.545118	29.040025	0.833609	0.462839	0.301457	0.374813	-0.874875	0.306771	0.405723	-0.142737	-0.902782
16723	13.440499	27.765769	-14.355785	0.125481	0.281192	-0.144644	0.999516	-0.003016	0.001876	0.030896	0.114909	0.955806	0.190606	0.192093	161.969542	-18.868841	25.576188	0.853539	0.408511	0.323403	0.320219	-0.900931	0.292889	0.411012	-0.146433	-0.899792
16724	10.540729	25.722282	-14.995202	0.095519	0.260676	-0.150491	0.999314	-0.001338	0.001940	0.036963	0.108781	0.961620	0.155136	0.198461	163.211711	-20.361191	21.364779	0.873092	0.341542	0.347937	0.255187	-0.928199	0.270789	0.415441	-0.147635	-0.897560
16725	7.824733	23.889651	-15.921692	0.067767	0.241882	-0.159390	0.999122	0.000025	0.002514	0.041824	0.099963	0.966763	0.115072	0.205266	164.969714	-21.955240	16.507443	0.889248	0.263533	0.373882	0.181457	-0.953532	0.240522	0.419894	-0.146040	-0.895746
16726	5.417329	22.339892	-17.320108	0.043101	0.225792	-0.173083	0.998920	0.001306	0.003760	0.046290	0.088830	0.970349	0.070877	0.213329	167.218158	-23.666684	11.043908	0.898934	0.175450	0.401415	0.099650	-0.974171	0.202632	0.426599	-0.142152	-0.893200
16727	2.552641	20.615935	-18.094985	0.014031	0.207699	-0.180321	0.998685	0.003486	0.005234	0.050882	0.074099	0.971868	0.022631	0.222417	170.177985	-25.401972	4.886710	0.900037	0.076950	0.428966	0.011027	-0.987994	0.154096	0.435674	-0.133962	-0.890080
16728	-0.395181	19.252164	-18.118667	-0.015729	0.193164	-0.179727	0.998383	0.007240	0.005182	0.056145	0.054534	0.970897	-0.029921	0.231280	174.075422	-26.895231	-2.112488	0.891229	-0.032874	0.452360	-0.083325	-0.992261	0.092055	0.445834	-0.119735	-0.887072
16729	-3.176124	18.449790	-17.910827	-0.043809	0.184309	-0.176603	0.997965	0.012920	0.003025	0.062362	0.027543	0.967057	-0.087243	0.237551	179.235214	-27.662097	-10.121620	0.871917	-0.155651	0.464256	-0.181823	-0.983260	0.011822	0.454645	-0.094720	-0.885622
16730	-5.718682	18.282828	-17.524044	-0.069836	0.181826	-0.171492	0.997400	0.020456	0.000255	0.069097	-0.008485	0.958982	-0.148892	0.241064	-174.308911	-27.375827	-19.037739	0.839439	-0.289661	0.459825	-0.281479	-0.955518	-0.088059	0.464879	-0.055510	-0.883632
16731	-8.616162	18.704271	-16.124232	-0.099795	0.184467	-0.156037	0.996714	0.029277	-0.002417	0.075490	-0.055093	0.944923	-0.213708	0.241692	-166.694857	-25.671572	-28.532343	0.791828	-0.430506	0.433212	-0.377244	-0.902587	-0.207421	0.480307	0.000815	-0.877100
16732	-11.237051	19.994446	-13.856960	-0.127712	0.195119	-0.131613	0.995916	0.038603	-0.005330	0.081438	-0.111932	0.922828	-0.280069	0.239626	-158.384297	-22.307036	-38.076087	0.728281	-0.570555	0.379570	-0.463268	-0.818065	-0.340811	0.504964	0.072364	-0.860102
16733	-14.144020	21.375847	-11.417089	-0.158578	0.205718	-0.105458	0.995057	0.048017	-0.008622	0.086492	-0.178830	0.890733	-0.346023	0.234272	-149.810195	-17.072948	-47.096222	0.650769	-0.700218	0.293589	-0.532639	-0.696576	-0.480706	0.541106	0.156451	-0.826273
16734	-20.556843	21.073833	-11.058627	-0.222463	0.197340	-0.101402	0.994429	0.056145	-0.010029	0.088650	-0.251833	0.847474	-0.408018	0.227793	-141.466383	-10.404318	-55.062733	0.563263	-0.806301	0.180593	-0.576837	-0.540203	-0.612731	0.591602	0.240956	-0.769381
16735	-25.213144	18.887467	-10.010550	-0.266422	0.172918	-0.090557	0.994648	0.061503	-0.005511	0.082836	-0.323722	0.794905	-0.460634	0.226158	-133.583469	-3.515231	-61.690714	0.473339	-0.878744	0.061314	-0.585895	-0.366042	-0.723008	0.657782	0.306304	-0.688113
16736	-26.568155	15.813719	-4.238031	-0.276429	0.140510	-0.032549	0.995518	0.060732	0.003359	0.072418	-0.385136	0.737688	-0.503420	0.232497	-126.571674	2.564750	-67.330579	0.385028	-0.921820	-0.044748	-0.563648	-0.196479	-0.802308	0.730791	0.334133	-0.595231
16737	-27.384667	11.991460	2.958210	-0.280049	0.101035	0.038143	0.996622	0.054215	0.009808	0.060905	-0.433044	0.681373	-0.537819	0.242804	-120.778236	7.753934	-72.157896	0.303593	-0.943201	-0.134919	-0.522621	-0.046446	-0.851299	0.796679	0.328960	-0.507038
16738	-26.167550	9.714655	8.662053	-0.265175	0.079214	0.093252	0.997527	0.046352	0.010126	0.051847	-0.470492	0.629411	-0.564914	0.251695	-116.158620	12.400008	-76.074738	0.235042	-0.947968	-0.214735	-0.474286	0.080982	-0.876639	0.848415	0.307893	-0.430574
16739	-26.422870	8.822299	11.444494	-0.267229	0.071183	0.118799	0.998116	0.039929	0.004808	0.046336	-0.503676	0.582050	-0.585228	0.255023	-112.280977	17.017177	-78.848098	0.184943	-0.938162	-0.292658	-0.424367	0.192362	-0.884822	0.886402	0.287836	-0.362549
16740	-29.039205	7.863758	10.814444	-0.293169	0.062813	0.110568	0.998539	0.035458	0.000025	0.040787	-0.533809	0.539583	-0.599078	0.254958	-108.799101	21.373402	-80.593126	0.152203	-0.918703	-0.364445	-0.374306	0.287694	-0.881548	0.914729	0.270589	-0.300088
16741	-30.453977	7.747148	12.844335	-0.306658	0.063644	0.130718	0.998999	0.031470	0.000411	0.031801	-0.558108	0.503084	-0.607836	0.256821	-105.670483	24.839061	-81.817739	0.129156	-0.898253	-0.420071	-0.324918	0.361898	-0.873761	0.936881	0.249341	-0.245117
16742	-30.721873	6.764724	18.303440	-0.307512	0.056980	0.186037	0.999493	0.024153	0.005010	0.020151	-0.572002	0.475892	-0.614274	0.262695	-103.464132	26.917254	-83.087295	0.107318	-0.885179	-0.452703	-0.284133	0.409037	-0.867155	0.952760	0.221689	-0.207611
16743	-30.263775	4.631570	24.742035	-0.300654	0.040803	0.250756	0.999848	0.012323	0.009325	0.008083	-0.574164	0.461352	-0.620129	0.270057	-102.696027	27.576227	-84.495935	0.085020	-0.882309	-0.462928	-0.262082	0.428447	-0.864723	0.961293	0.194844	-0.194811
16744	-30.794409	2.903521	27.454556	-0.305392	0.030399	0.277226	0.999954	-0.001117	0.008861	-0.003447	-0.567155	0.461735	-0.623916	0.275436	-103.292755	26.959353	-85.513188	0.069728	-0.888597	-0.453358	-0.263738	0.421873	-0.867448	0.962071	0.180053	-0.204940
16745	-30.195489	1.986394	25.520407	-0.300703	0.027853	0.255891	0.999789	-0.013886	0.003442	-0.014738	-0.554406	0.477757	-0.622760	0.276680	-104.870406	25.223660	-85.483674	0.071235	-0.901842	-0.426153	-0.288270	0.390393	-0.874353	0.954896	0.185132	-0.232164
16746	-28.728946	2.279727	19.765115	-0.287278	0.034425	0.195859	0.999419	-0.023566	-0.003730	-0.024347	-0.538448	0.506694	-0.615227	0.273553	-107.044863	22.663634	-84.195264	0.093329	-0.918051	-0.385320	-0.328876	0.336861	-0.882250	0.939750	0.209062	-0.270486
16747	-26.748995	4.166186	13.583589	-0.267139	0.054496	0.131698	0.998945	-0.030761	-0.009693	-0.032676	-0.519308	0.545475	-0.601220	0.267040	-109.711275	19.457624	-81.802218	0.134447	-0.933253	-0.333110	-0.378549	0.262293	-0.887639	0.915764	0.245439	-0.318018
16748	-24.673990	6.377717	7.793552	-0.244812	0.076219	0.072224	0.998463	-0.036790	-0.012448	-0.039536	-0.495473	0.590748	-0.582104	0.258223	-112.975877	15.768030	-78.676979	0.188952	-0.943638	-0.271743	-0.431867	0.168676	-0.886024	0.881923	0.284773	-0.375655
16749	-23.491069	8.467584	3.165325	-0.231061	0.096309	0.025012	0.998052	-0.041284	-0.012130	-0.045178	-0.465504	0.639480	-0.558933	0.248927	-116.872089	11.654191	-75.134754	0.251258	-0.946606	-0.202004	-0.483100	0.058202	-0.873629	0.838739	0.317094	-0.442682
16750	-22.331993	9.892673	0.539104	-0.218052	0.109871	-0.001749	0.997740	-0.043908	-0.011224	-0.049600	-0.430460	0.688887	-0.531689	0.239679	-121.248577	7.326242	-71.194694	0.319722	-0.938891	-0.127519	-0.526203	-0.064022	-0.847945	0.787964	0.338207	-0.514517
16751	-21.312791	10.659510	-1.177944	-0.206946	0.116832	-0.019507	0.997539	-0.044664	-0.012687	-0.052532	-0.392780	0.737386	-0.499436	0.229235	-125.959705	3.110818	-66.633330	0.396030	-0.916633	-0.054267	-0.556477	-0.192575	-0.808237	0.730406	0.350284	-0.586351
16752	-20.197575	11.094347	-3.446774	-0.194950	0.119863	-0.043020	0.997404	-0.044284	-0.017050	-0.054159	-0.355409	0.783724	-0.461711	0.215137	-130.906538	-0.517005	-61.242915	0.481078	-0.876632	0.009023	-0.570785	-0.321014	-0.755748	0.665409	0.358423	-0.654800
16753	-18.696056	10.562256	-6.364579	-0.179205	0.112664	-0.072729	0.997242	-0.043507	-0.023490	-0.055356	-0.319263	0.827635	-0.418063	0.195742	-136.111277	-3.271148	-54.917652	0.573817	-0.816994	0.057061	-0.567022	-0.446589	-0.692130	0.590949	0.364801	-0.719513
16754	-16.714571	10.000136	-10.269974	-0.157875	0.104546	-0.112097	0.996909	-0.043758	-0.030272	-0.057810	-0.283636	0.869060	-0.367886	0.170130	-141.645572	-4.991876	-47.624438	0.671431	-0.735941	0.087014	-0.542921	-0.568420	-0.618171	0.504398	0.367817	-0.781213
16755	-13.997629	11.939864	-15.295232	-0.126959	0.120399	-0.162910	0.996400	-0.045485	-0.034092	-0.062889	-0.244927	0.907768	-0.309973	0.141015	-147.655702	-5.979691	-39.442232	0.768064	-0.631843	0.104176	-0.493690	-0.687856	-0.532095	0.407858	0.357252	-0.840252
16756	-9.561681	16.545412	-21.393163	-0.077426	0.160310	-0.224574	0.995878	-0.049406	-0.031292	-0.069330	-0.199244	0.941980	-0.245115	0.113554	-154.279788	-6.676029	-30.696967	0.854049	-0.507036	0.116255	-0.416537	-0.800442	-0.431034	0.311605	0.319700	-0.894815
16757	-4.235472	21.515050	-26.298639	-0.021894	0.202521	-0.274794	0.995469	-0.054555	-0.017412	-0.075910	-0.142600	0.969164	-0.175218	0.098410	-161.698338	-8.092897	-21.801713	0.919228	-0.367697	0.140779	-0.311564	-0.897927	-0.310893	0.240723	0.241920	-0.939961
16758	2.024250	26.119235	-26.094454	0.038714	0.242106	-0.276217	0.994874	-0.060492	0.006110	-0.080800	-0.074448	0.986375	-0.102870	0.104595	-170.122333	-11.012430	-12.862373	0.956955	-0.218511	0.191022	-0.187363	-0.967751	-0.168386	0.221656	0.125348	-0.967035
16759	7.889650	28.167908	-21.352520	0.094734	0.260273	-0.232565	0.994228	-0.061417	0.028567	-0.083203	-0.001800	0.990823	-0.028749	0.132064	-179.337455	-15.165065	-3.412196	0.963465	-0.057446	0.261601	-0.056495	-0.998340	-0.011161	0.261808	-0.004026	-0.965112
16760	14.483729	31.163286	-15.192181	0.162397	0.290587	-0.173087	0.994788	-0.051146	0.037583	-0.079801	0.060333	0.983117	0.043637	0.167145	171.906932	-18.867517	6.429848	0.940317	0.105969	0.323381	0.065632	-0.988911	0.133217	0.333912	-0.104042	-0.936845
16761	22.366219	34.833841	-6.995196	0.243413	0.330031	-0.087963	0.996864	-0.032909	0.029209	-0.065779	0.102212	0.970291	0.104442	0.192821	165.224625	-20.660788	14.995020	0.903824	0.242095	0.352835	0.163260	-0.957289	0.238628	0.395535	-0.158074	-0.904745
16762	27.277226	36.526899	-3.327618	0.287598	0.352625	-0.041560	0.998927	-0.016048	0.009030	-0.042504	0.124824	0.961460	0.143410	0.198613	161.545031	-20.249895	20.290652	0.879973	0.325349	0.346115	0.226182	-0.927705	0.296993	0.417719	-0.183061	-0.889943
16763	28.084555	36.151470	-6.057401	0.288445	0.355828	-0.058226	0.999754	-0.001769	-0.010425	-0.019522	0.131859	0.960269	0.160504	0.186373	160.735409	-18.397579	22.126632	0.879007	0.357404	0.315609	0.259104	-0.913703	0.313068	0.400265	-0.193414	-0.895756
16764	26.294234	34.401307	-9.423132	0.265824	0.343816	-0.086419	0.999756	0.006681	-0.020818	-0.002990	0.129284	0.964321	0.161851	0.164848	161.642444	-16.026603	21.661604	0.893258	0.354778	0.276084	0.269528	-0.914179	0.302705	0.359783	-0.195982	-0.912221
16765	24.010658	31.183015	-11.768400	0.240223	0.314181	-0.110929	0.999766	0.006609	-0.019497	0.006671	0.124929	0.969240	0.153962	0.145817	162.780353	-14.134232	20.202541	0.910067	0.334885	0.244194	0.262018	-0.921377	0.287074	0.321132	-0.197273	-0.926260
16766	22.065588	28.058439	-11.654401	0.218758	0.283291	-0.113505	0.999866	0.001759	-0.011589	0.011419	0.123365	0.972764	0.141695	0.135767	163.375369	-13.248719	18.519313	0.922979	0.309171	0.229179	0.242175	-0.929407	0.278486	0.299100	-0.201535	-0.932697
16767	19.659689	25.336537	-12.384329	0.193264	0.255637	-0.124398	0.999871	-0.004938	-0.003619	0.014840	0.126643	0.974621	0.126136	0.134775	163.222937	-13.341888	16.724719	0.931851	0.280007	0.230761	0.211733	-0.936102	0.280858	0.294658	-0.212858	-0.931594
16768	16.749177	21.993955	-14.626712	0.162978	0.221732	-0.148608	0.999784	-0.008677	0.002566	0.018693	0.132319	0.975296	0.107059	0.140815	162.697476	-14.261024	14.709450	0.937419	0.246093	0.246340	0.171563	-0.942060	0.288252	0.303003	-0.227950	-0.925326
16769	13.877531	19.328796	-15.163119	0.133278	0.195392	-0.153807	0.999673	-0.007331	0.005535	0.023878	0.135464	0.975781	0.083448	0.150127	162.505286	-15.686481	12.204411	0.940997	0.203527	0.270373	0.122180	-0.949372	0.289421	0.315590	-0.239311	-0.918223
16770	11.131830	17.015230	-13.768377	0.105437	0.173151	-0.138519	0.999512	-0.002302	0.004083	0.030875	0.132790	0.976915	0.053503	0.158559	163.181212	-17.192834	8.830099	0.943993	0.146646	0.295589	0.062425	-0.959008	0.276416	0.324007	-0.242483	-0.914451
16771	8.497306	15.362325	-11.947678	0.078852	0.157293	-0.118825	0.999211	0.003960	-0.000415	0.039522	0.122566	0.978848	0.015436	0.163082	165.038713	-18.389821	4.242281	0.946332	0.070196	0.315480	-0.009757	-0.969478	0.244982	0.323048	-0.234913	-0.916764
16772	5.144399	13.629361	-10.443317	0.045389	0.139599	-0.102780	0.998787	0.009996	-0.005636	0.047893	0.105054	0.980500	-0.030500	0.163261	168.028617	-19.060309	-1.546425	0.944831	-0.025507	0.326563	-0.094112	-0.976067	0.196051	0.313747	-0.215969	-0.924619
16773	1.991558	12.111942	-8.329228	0.014017	0.123253	-0.081252	0.998333	0.015333	-0.009967	0.054751	0.080597	0.980431	-0.082664	0.159453	171.993411	-19.025599	-8.295091	0.935483	-0.136390	0.325991	-0.187796	-0.973341	0.131678	0.299340	-0.184402	-0.936158
16774	-0.963303	11.233796	-6.144236	-0.015596	0.112706	-0.059402	0.997893	0.019767	-0.013757	0.060247	0.050463	0.977138	-0.139480	0.152318	176.613460	-18.164647	-15.705946	0.914689	-0.257210	0.311749	-0.287956	-0.955997	0.056128	0.283594	-0.141109	-0.948505
16775	-4.373913	10.133026	-3.853721	-0.049504	0.099154	-0.037021	0.997514	0.023425	-0.017360	0.064158	0.015252	0.969585	-0.199122	0.141500	-178.401486	-16.288039	-23.439482	0.880657	-0.381815	0.280466	-0.390447	-0.920236	-0.026776	0.268319	-0.085927	-0.959490
16776	-7.566749	9.137065	-1.904846	-0.081113	0.086623	-0.018343	0.997312	0.025627	-0.019626	0.065780	-0.022682	0.957037	-0.258995	0.128403	-173.507825	-13.534122	-31.056760	0.832868	-0.501561	0.234024	-0.489911	-0.864814	-0.109928	0.257523	-0.023096	-0.965996
16777	-11.015665	7.596776	-0.590726	-0.114693	0.068715	-0.006308	0.997394	0.024235	-0.018766	0.065313	-0.059064	0.939487	-0.317281	0.114924	-169.227683	-10.280054	-38.293241	0.772250	-0.609739	0.178460	-0.582587	-0.791688	-0.183906	0.253419	0.038053	-0.966608
16778	-14.080619	5.307398	0.465054	-0.143766	0.044207	0.003504	0.997825	0.018902	-0.014267	0.061512	-0.088121	0.918463	-0.371323	0.103830	-166.061632	-7.197286	-44.906614	0.702678	-0.700391	0.125286	-0.663793	-0.708709	-0.238980	0.256171	0.084762	-0.962908
16779	-18.958311	0.956853	0.049488	-0.189729	-0.000593	-0.000910	0.998497	0.008881	-0.007534	0.053549	-0.104501	0.897199	-0.418354	0.095354	-164.440389	-4.799360	-50.654317	0.631775	-0.770623	0.083667	-0.730765	-0.628119	-0.267300	0.258541	0.107733	-0.959974
16780	-22.540412	-4.565739	-0.783213	-0.223310	-0.054733	-0.007813	0.999180	-0.002299	-0.000443	0.040414	-0.106244	0.879857	-0.454411	0.089855	-164.387401	-3.529553	-55.113099	0.570873	-0.818727	0.061563	-0.780540	-0.564446	-0.268621	0.254676	0.105296	-0.961277
16781	-24.168267	-9.866996	-2.779127	-0.239321	-0.104796	-0.025413	0.999622	-0.012245	0.004663	0.024172	-0.095480	0.869425	-0.477096	0.085812	-165.621551	-3.331224	-57.931765	0.530032	-0.845985	0.058108	-0.813211	-0.526526	-0.247906	0.240320	0.084144	-0.967040
16782	-22.283031	-11.896259	-3.985797	-0.222274	-0.121141	-0.036155	0.999797	-0.017530	0.007156	0.006845	-0.077296	0.867052	-0.485117	0.083110	-167.573321	-3.963785	-58.885815	0.515509	-0.854091	0.069126	-0.828395	-0.517374	-0.214675	0.219116	0.053404	-0.974236
16783	-19.126214	-10.024068	-3.605542	-0.192161	-0.099644	-0.032719	0.999751	-0.020156	0.006901	-0.006663	-0.055895	0.871056	-0.481420	0.079829	-169.928633	-4.890602	-58.288817	0.523724	-0.847611	0.085253	-0.829763	-0.530221	-0.174238	0.192889	0.020512	-0.981006
16784	-15.727578	-7.245980	-3.151031	-0.158529	-0.070658	-0.029181	0.999611	-0.022616	0.004538	-0.015675	-0.032700	0.879167	-0.469625	0.073807	-172.677907	-5.685321	-56.583685	0.548009	-0.830585	0.099065	-0.820931	-0.556766	-0.126820	0.160491	-0.011827	-0.986966
16785	-12.373667	-4.701075	-4.464370	-0.124732	-0.045556	-0.043345	0.999488	-0.024653	0.001312	-0.020369	-0.008886	0.888995	-0.453331	0.064031	-175.740716	-6.072701	-54.263454	0.580782	-0.807156	0.105790	-0.804880	-0.588824	-0.073853	0.121903	-0.042256	-0.991642
16786	-10.620560	-2.907209	-6.396837	-0.106700	-0.028263	-0.063504	0.999405	-0.025638	-0.002510	-0.022916	0.014243	0.899245	-0.434301	0.050379	-178.954866	-5.910631	-51.611446	0.617690	-0.779651	0.102977	-0.782521	-0.622360	-0.018143	0.078234	-0.069375	-0.994518
16787	-9.188619	-1.453129	-9.156788	-0.091700	-0.014474	-0.091763	0.999368	-0.024472	-0.005996	-0.025074	0.034902	0.909523	-0.412788	0.033989	177.961343	-5.200535	-48.729301	0.656902	-0.748508	0.090642	-0.753253	-0.656776	0.035427	0.033014	-0.091549	-0.995253
16788	-6.746472	0.943447	-12.143909	-0.066289	0.008555	-0.122146	0.999379	-0.021770	-0.007708	-0.026624	0.052383	0.919455	-0.389317	0.017051	175.223569	-4.136999	-45.725077	0.696283	-0.714133	0.072142	-0.717705	-0.691377	0.083051	-0.009432	-0.109603	-0.993931
16789	-2.592887	3.673361	-15.155843	-0.024164	0.034257	-0.152417	0.999460	-0.020363	-0.005804	-0.025131	0.069248	0.927778	-0.366642	0.002480	172.711285	-3.174685	-42.923864	0.731136	-0.679981	0.055380	-0.680668	-0.721557	0.126675	-0.046176	-0.130312	-0.990397
16790	0.712807	3.882405	-16.958581	0.007971	0.035243	-0.170315	0.999581	-0.020109	-0.000494	-0.020816	0.087718	0.933637	-0.347248	-0.006801	170.286939	-2.763893	-40.568539	0.758745	-0.649601	0.048220	-0.647214	-0.743448	0.168518	-0.073620	-0.159071	-0.984518
16791	2.043830	3.179407	-16.655718	0.020104	0.028451	-0.167190	0.999681	-0.017955	0.005019	-0.017030	0.106081	0.937716	-0.330665	-0.009823	168.128359	-2.965349	-38.539787	0.781128	-0.622224	0.051732	-0.618055	-0.758815	0.205444	-0.088577	-0.192452	-0.977301
16792	2.488130	3.026001	-15.644757	0.024114	0.027721	-0.157029	0.999773	-0.013972	0.007491	-0.014260	0.121470	0.940817	-0.316274	-0.008937	166.429748	-3.440975	-36.752626	0.799782	-0.597283	0.060020	-0.592941	-0.770432	0.234214	-0.093651	-0.222909	-0.970330
16793	2.943177	3.273055	-14.502090	0.028837	0.031063	-0.145502	0.999868	-0.009142	0.006627	-0.011653	0.132046	0.943331	-0.304372	-0.006989	165.288376	-3.852919	-35.267724	0.814618	-0.576093	0.067195	-0.572401	-0.779843	0.253380	-0.093569	-0.244871	-0.965030
16794	3.362932	3.489073	-12.624916	0.033411	0.034078	-0.126528	0.999945	-0.004118	0.004090	-0.008713	0.137081	0.945423	-0.295555	-0.005535	164.744345	-4.046373	-34.178115	0.825233	-0.560367	0.070564	-0.557332	-0.787712	0.262471	-0.091496	-0.255927	-0.962356
16795	3.353246	3.684416	-10.561660	0.033670	0.036672	-0.105633	0.999985	0.000088	0.000575	-0.005399	0.137134	0.947024	-0.290358	-0.005687	164.712193	-3.948732	-33.560931	0.831320	-0.551511	0.068864	-0.548391	-0.793773	0.263042	-0.090408	-0.256436	-0.962324
16796	3.158246	3.950553	-9.184917	0.032001	0.039728	-0.091608	0.999985	0.003281	-0.003497	-0.002468	0.132973	0.948163	-0.288503	-0.008378	165.079951	-3.487955	-33.390608	0.833391	-0.549324	0.060839	-0.544868	-0.798168	0.256994	-0.092614	-0.247326	-0.964496
16797	2.781430	4.338460	-8.055230	0.028381	0.043804	-0.080125	0.999961	0.005224	-0.007059	0.000001	0.125977	0.948766	-0.289465	-0.013545	165.690302	-2.707064	-33.593610	0.832053	-0.552681	0.047230	-0.545856	-0.800680	0.246887	-0.098634	-0.231204	-0.967893
16798	2.446843	4.196244	-7.530559	0.025130	0.042449	-0.074811	0.999933	0.005948	-0.009754	0.001649	0.117509	0.948848	-0.292308	-0.020856	166.391372	-1.668676	-34.045445	0.828242	-0.559613	0.029120	-0.549810	-0.801496	0.235189	-0.108275	-0.210804	-0.971513
16799	2.027769	4.110665	-7.086366	0.020924	0.041529	-0.070427	0.999927	0.005267	-0.010581	0.002438	0.109459	0.948469	-0.295942	-0.029049	167.006405	-0.554792	-34.594893	0.823148	-0.567744	0.009683	-0.555025	-0.800873	0.224832	-0.119892	-0.190444	-0.974350
16800	1.679458	4.011805	-6.996506	0.017365	0.040382	-0.069672	0.999943	0.003080	-0.009819	0.002844	0.103703	0.947629	-0.299777	-0.037121	167.361022	0.468545	-35.160833	0.817511	-0.575854	-0.008178	-0.560456	-0.798759	0.218800	-0.132529	-0.174288	-0.975736
16801	1.494073	3.770634	-7.186858	0.015398	0.037775	-0.071735	0.999964	0.000311	-0.007961	0.003024	0.101129	0.946430	-0.303458	-0.044238	167.389265	1.281165	-35.696908	0.811912	-0.583352	-0.022359	-0.565457	-0.795372	0.218272	-0.145112	-0.164574	-0.975632
16802	0.409478	3.343348	-8.000625	0.004407	0.033229	-0.080074	0.999978	-0.002716	-0.005191	0.003113	0.102263	0.944964	-0.306793	-0.049639	167.065622	1.780293	-36.174979	0.806829	-0.589968	-0.031067	-0.569663	-0.790841	0.223727	-0.156561	-0.162812	-0.974157
16803	-1.113042	2.852811	-8.939501	-0.010879	0.028161	-0.089542	0.999985	-0.003871	-0.003420	0.001926	0.104964	0.943797	-0.308756	-0.053842	166.612561	2.109793	-36.477842	0.803542	-0.594109	-0.036815	-0.571503	-0.787305	0.231378	-0.166448	-0.164882	-0.972167
16804	-1.821925	2.789366	-9.793805	-0.017928	0.027516	-0.098098	0.999988	-0.003848	-0.002975	-0.000003	0.107682	0.943227	-0.308844	-0.057818	166.168482	2.439050	-36.556251	0.802545	-0.595072	-0.042557	-0.570168	-0.786040	0.238851	-0.175585	-0.167424	-0.970123
16805	-1.526994	3.047335	-10.191101	-0.014880	0.030191	-0.102052	0.999988	-0.003036	-0.003293	-0.001795	0.109423	0.943257	-0.307317	-0.062036	165.826434	2.853186	-36.446412	0.803416	-0.593334	-0.049777	-0.566182	-0.787166	0.244557	-0.184286	-0.168298	-0.968357
16806	-0.855412	3.579372	-10.132313	-0.008092	0.035535	-0.101451	0.999986	-0.002746	-0.003707	-0.002411	0.110728	0.943459	-0.305264	-0.066625	165.520462	3.331556	-36.282170	0.804750	-0.590762	-0.058114	-0.561253	-0.789106	0.249612	-0.193319	-0.168258	-0.966601
16807	-0.429304	3.960213	-10.393789	-0.003770	0.039313	-0.104067	0.999985	-0.002856	-0.004300	-0.001913	0.111979	0.943431	-0.303730	-0.071747	165.199593	3.861957	-36.192860	0.805201	-0.589164	-0.067353	-0.557028	-0.790418	0.254873	-0.203399	-0.167706	-0.964626
16808	-0.162543	4.004375	-10.614859	-0.001046	0.039790	-0.106251	0.999984	-0.002402	-0.005035	-0.001121	0.112644	0.943129	-0.303048	-0.077337	164.921961	4.450915	-36.216031	0.804362	-0.589050	-0.077605	-0.554203	-0.790947	0.259350	-0.214151	-0.165602	-0.962660
16809	0.110535	4.180751	-10.591668	0.001744	0.041664	-0.105964	0.999982	-0.001346	-0.005795	-0.000579	0.112109	0.942693	-0.303035	-0.083256	164.759495	5.107490	-36.324432	0.802477	-0.590005	-0.089024	-0.552670	-0.791203	0.261828	-0.224916	-0.160909	-0.961000
16810	0.556254	4.451308	-10.517358	0.006243	0.044473	-0.105152	0.999979	-0.000383	-0.006475	-0.000001	0.110519	0.942094	-0.303712	-0.089460	164.695985	5.821358	-36.519263	0.799512	-0.592024	-0.101427	-0.552476	-0.791089	0.262579	-0.235691	-0.153899	-0.959565
16811	0.996689	4.775955	-10.945925	0.010614	0.047785	-0.109387	0.999981	0.000169	-0.006184	0.000626	0.108534	0.941357	-0.304984	-0.095145	164.688725	6.484182	-36.775459	0.795864	-0.594851	-0.112929	-0.553545	-0.790410	0.262374	-0.245333	-0.146303	-0.958336
16812	1.533449	5.023936	-11.179657	0.015791	0.050306	-0.111703	0.999988	0.000426	-0.004639	0.001227	0.106856	0.940579	-0.306671	-0.099228	164.703378	6.957015	-37.052008	0.792213	-0.598103	-0.121125	-0.555691	-0.789069	0.261874	-0.252203	-0.140152	-0.957471
16813	1.532133	5.122422	-12.843517	0.015759	0.051478	-0.128280	0.999989	0.001773	-0.004075	0.001668	0.104101	0.939847	-0.308839	-0.102320	164.869030	7.355717	-37.359865	0.788299	-0.601825	-0.128029	-0.559219	-0.787563	0.258878	-0.256631	-0.132477	-0.957387
16814	1.327084	4.503209	-12.649939	0.013871	0.045771	-0.126168	0.999962	0.005496	-0.005939	0.003300	0.097466	0.938758	-0.313103	-0.105828	165.424221	7.912489	-37.903547	0.781534	-0.608485	-0.137660	-0.567227	-0.784934	0.249264	-0.259728	-0.116724	-0.958602
16815	-0.199812	4.261862	-11.058076	-0.001703	0.043216	-0.110353	0.999963	0.005486	-0.004569	0.004879	0.091396	0.937252	-0.318688	-0.107902	165.958464	8.279904	-38.579889	0.773591	-0.617105	-0.144009	-0.577658	-0.780170	0.240096	-0.260516	-0.102548	-0.960008
16816	-1.292929	3.769949	-10.079027	-0.012692	0.038154	-0.100649	0.999965	0.005140	-0.004236	0.004972	0.085800	0.935651	-0.324273	-0.109741	166.445445	8.610310	-39.255230	0.765608	-0.625644	-0.149713	-0.587981	-0.774971	0.231730	-0.261004	-0.089385	-0.961191
16817	-1.720282	3.320415	-8.721398	-0.017021	0.033361	-0.087190	0.999973	0.002844	-0.004133	0.005355	0.082383	0.933685	-0.329933	-0.112205	166.663279	8.926473	-39.969062	0.757109	-0.634594	-0.155167	-0.597619	-0.768715	0.227880	-0.263890	-0.079799	-0.961246
16818	-3.279451	2.731210	-10.223735	-0.032399	0.027390	-0.102342	0.999974	0.002223	-0.005100	0.004608	0.079182	0.931753	-0.334891	-0.115817	166.810517	9.368945	-40.624486	0.748869	-0.642413	-0.162791	-0.605731	-0.763156	0.225128	-0.268861	-0.069984	-0.960633
16819	-2.337689	2.284616	-11.000545	-0.023057	0.022940	-0.110053	0.999989	0.001464	-0.003514	0.002897	0.076974	0.930487	-0.338026	-0.118352	166.909735	9.683842	-41.043619	0.743463	-0.647277	-0.168211	-0.610837	-0.759627	0.223259	-0.272288	-0.063235	-0.960136
16820	-2.549704	2.437466	-10.006534	-0.025418	0.024467	-0.100063	0.999997	0.001302	-0.001150	0.001488	0.075590	0.929948	-0.339647	-0.118837	167.022330	9.768997	-41.241413	0.741035	-0.649674	-0.169676	-0.613743	-0.757852	0.221315	-0.272372	-0.059865	-0.960328
16821	-2.896257	2.492162	-9.417015	-0.028993	0.024920	-0.094161	1.000000	0.000224	0.000117	0.000782	0.075514	0.929719	-0.340383	-0.118575	167.034482	9.734033	-41.325527	0.740158	-0.650830	-0.169075	-0.615014	-0.756874	0.221134	-0.271889	-0.059691	-0.960476
16822	-3.208575	2.305385	-8.767034	-0.032095	0.023046	-0.087669	1.000000	-0.000059	0.000084	0.000082	0.075647	0.929698	-0.340441	-0.118483	167.023397	9.718108	-41.331777	0.740123	-0.650941	-0.168801	-0.615090	-0.756754	0.221331	-0.271814	-0.059984	-0.960478
16823	-3.306815	2.386372	-8.232642	-0.032964	0.023840	-0.082375	0.999999	-0.000371	-0.001212	-0.000201	0.075554	0.929600	-0.340293	-0.119732	166.980433	9.856754	-41.339205	0.739729	-0.650766	-0.171186	-0.614581	-0.756984	0.221958	-0.274028	-0.058982	-0.959911
16824	-3.320609	2.095821	-8.764402	-0.032954	0.020953	-0.087740	0.999996	-0.000287	-0.002735	-0.000598	0.074857	0.929452	-0.339903	-0.122396	166.943631	10.173794	-41.342437	0.738970	-0.650172	-0.176635	-0.613523	-0.757725	0.222357	-0.278411	-0.055946	-0.958831
16825	-2.792096	2.380338	-9.096081	-0.027596	0.023836	-0.091051	0.999994	-0.000132	-0.003145	-0.001618	0.073711	0.929607	-0.338607	-0.125466	166.947700	10.564914	-41.240077	0.739207	-0.648040	-0.183349	-0.611048	-0.759823	0.222012	-0.283186	-0.052077	-0.957650
16826	-2.571716	2.448450	-10.617532	-0.025385	0.024532	-0.106244	0.999993	-0.000194	-0.002516	-0.002652	0.072743	0.930171	-0.336295	-0.128049	166.965998	10.911287	-41.004190	0.741018	-0.644253	-0.189289	-0.606994	-0.763228	0.221452	-0.287142	-0.049203	-0.956624
16827	-2.154122	2.745199	-11.029747	-0.021330	0.027559	-0.110312	0.999993	0.000295	-0.001041	-0.003485	0.071671	0.931231	-0.333155	-0.129153	167.071344	11.115463	-40.633522	0.744654	-0.639002	-0.192787	-0.601976	-0.767742	0.219540	-0.288297	-0.047429	-0.956366
16828	-1.742226	3.320222	-10.519985	-0.017366	0.033276	-0.105186	0.999992	0.000045	0.000735	-0.004001	0.071394	0.932655	-0.329374	-0.128725	167.164685	11.132700	-40.158175	0.749886	-0.632765	-0.193082	-0.596004	-0.772832	0.217969	-0.287143	-0.048374	-0.956665
16829	-1.669151	3.185101	-10.096201	-0.016850	0.031803	-0.100951	0.999989	-0.001075	0.002717	-0.003624	0.072823	0.934118	-0.325649	-0.126784	167.134921	10.919698	-39.673593	0.755758	-0.626854	-0.189433	-0.589923	-0.777300	0.218624	-0.284292	-0.053476	-0.957245
16830	-1.890986	3.046297	-9.396953	-0.019264	0.030365	-0.093929	0.999982	-0.001690	0.004788	-0.003154	0.075600	0.935612	-0.322128	-0.123075	167.027152	10.462740	-39.189635	0.762172	-0.621383	-0.181596	-0.584165	-0.781036	0.220757	-0.279008	-0.062173	-0.958274
16831	-1.424753	3.383297	-9.531552	-0.014786	0.033636	-0.095303	0.999973	-0.002435	0.006499	-0.002392	0.079674	0.936979	-0.319082	-0.117938	166.826945	9.797500	-38.745821	0.768555	-0.616739	-0.170167	-0.579152	-0.783678	0.224569	-0.271856	-0.074042	-0.959485
16832	0.198172	3.535089	-11.296421	0.001320	0.035151	-0.113036	0.999980	-0.001762	0.006044	-0.000596	0.083225	0.937723	-0.317821	-0.112869	166.658471	9.135972	-38.516694	0.772501	-0.614843	-0.158778	-0.577269	-0.784127	0.227828	-0.264580	-0.084340	-0.960669
16833	-0.587796	3.782836	-13.370518	-0.006484	0.037953	-0.133641	0.999990	0.000995	0.004138	0.001391	0.083761	0.937827	-0.318881	-0.108536	166.766316	8.636009	-38.561903	0.773070	-0.616292	-0.150157	-0.579928	-0.782598	0.226328	-0.256996	-0.087887	-0.962408
16834	-1.320032	3.568563	-15.022205	-0.013442	0.036399	-0.150029	0.999983	0.005007	0.000917	0.002886	0.079718	0.937409	-0.322043	-0.105817	167.290770	8.455519	-38.863182	0.770183	-0.620643	-0.147042	-0.586901	-0.779867	0.217612	-0.249732	-0.081302	-0.964896
16835	-0.365027	4.017118	-15.164986	-0.003549	0.041484	-0.151296	0.999954	0.008751	-0.001614	0.003493	0.071360	0.936774	-0.326348	-0.104209	168.230237	8.549586	-39.296864	0.765275	-0.626301	-0.148665	-0.596555	-0.776810	0.201713	-0.241817	-0.065679	-0.968096
16836	1.663182	4.655640	-14.640839	0.016703	0.048262	-0.145843	0.999923	0.011089	-0.002169	0.005142	0.060846	0.935590	-0.332445	-0.102223	169.401508	8.674516	-39.929580	0.758062	-0.634504	-0.150821	-0.609624	-0.771557	0.181822	-0.231733	-0.045888	-0.971696
16837	1.383301	4.651929	-14.673690	0.013566	0.048408	-0.146145	0.999896	0.012187	-0.000678	0.007667	0.049996	0.933621	-0.340862	-0.098310	170.665579	8.597092	-40.817079	0.748297	-0.646302	-0.149485	-0.626642	-0.762627	0.160374	-0.217652	-0.026334	-0.975671
16838	0.030104	4.088318	-13.880719	-0.000049	0.042814	-0.138219	0.999864	0.013942	-0.000166	0.008855	0.037850	0.931159	-0.350458	-0.093220	172.107159	8.457519	-41.833952	0.736978	-0.659721	-0.147076	-0.645608	-0.751493	0.135827	-0.200135	-0.005148	-0.979755
16839	-0.486123	3.914284	-11.268328	-0.004914	0.040875	-0.112059	0.999833	0.015808	-0.002695	0.008813	0.022999	0.928266	-0.360173	-0.089821	173.763444	8.637836	-42.884578	0.724415	-0.672805	-0.150188	-0.664541	-0.739493	0.107401	-0.183323	0.022003	-0.982806
16840	0.644093	3.836168	-8.384529	0.006636	0.039829	-0.083138	0.999798	0.016909	-0.006459	0.008740	0.005830	0.924744	-0.369879	-0.089466	175.527211	9.273843	-43.963747	0.710371	-0.685129	-0.161153	-0.683043	-0.726312	0.076966	-0.169779	0.055400	-0.983924
16841	2.718653	3.055080	-6.600973	0.027502	0.031958	-0.065201	0.999756	0.017421	-0.009506	0.009737	-0.012926	0.920173	-0.380399	-0.091714	177.321091	10.289421	-45.161558	0.693771	-0.697694	-0.178621	-0.702436	-0.710259	0.045987	-0.158952	0.093565	-0.982843
16842	3.641890	3.920668	-6.077597	0.036574	0.040642	-0.059722	0.999739	0.016941	-0.010229	0.011440	-0.031267	0.914431	-0.392249	-0.094757	178.997354	11.409856	-46.534390	0.674324	-0.711444	-0.197826	-0.723295	-0.690326	0.017153	-0.148768	0.131520	-0.980087
16843	4.079207	3.500531	-6.230867	0.040779	0.036465	-0.061467	0.999772	0.014811	-0.007566	0.013359	-0.046506	0.907808	-0.405536	-0.096242	-179.626097	12.266478	-48.102312	0.652557	-0.727345	-0.212459	-0.745249	-0.666756	-0.006377	-0.137020	0.162496	-0.977149
16844	2.800055	1.011374	-8.703930	0.028211	0.012034	-0.086719	0.999724	0.017111	-0.004449	0.015449	-0.062238	0.900081	-0.420892	-0.093969	-178.064368	12.800099	-49.905946	0.628039	-0.745977	-0.221550	-0.769371	-0.637952	-0.032937	-0.116768	0.191140	-0.974593
16845	1.669035	1.452219	-7.798862	0.016607	0.016405	-0.077624	0.999650	0.020732	-0.002224	0.016253	-0.080285	0.891431	-0.437178	-0.088203	-176.112753	13.147058	-51.800633	0.602191	-0.765266	-0.227451	-0.793591	-0.604859	-0.066016	-0.087056	0.220258	-0.971549
16846	2.501345	0.503426	-7.807710	0.024839	0.007168	-0.077956	0.999601	0.021499	0.000721	0.018319	-0.097372	0.881423	-0.455292	-0.079516	-174.148474	13.228731	-53.957369	0.572774	-0.787123	-0.228839	-0.818094	-0.566457	-0.099246	-0.051509	0.244057	-0.968392
16847	0.677273	1.192364	-6.964871	0.006215	0.013617	-0.069382	0.999509	0.022372	0.003974	0.021594	-0.113515	0.869300	-0.476262	-0.067870	-172.169776	13.069043	-56.535522	0.537137	-0.812620	-0.226125	-0.843437	-0.520579	-0.132709	-0.009874	0.262005	-0.965016
16848	-2.244064	1.417572	-4.778230	-0.023111	0.014649	-0.047315	0.999548	0.020092	0.007694	0.021021	-0.125717	0.857160	-0.496557	-0.053873	-170.445891	12.545021	-59.115326	0.501057	-0.837713	-0.217207	-0.864804	-0.475252	-0.162016	0.032495	0.269021	-0.962586
16849	-3.682618	0.027210	-5.674056	-0.037314	0.000434	-0.056419	0.999612	0.016502	0.008485	0.020763	-0.134478	0.844905	-0.516113	-0.040975	-169.100680	12.008191	-61.687865	0.463897	-0.861112	-0.208052	-0.883153	-0.431086	-0.184946	0.069571	0.269537	-0.960474
16850	-5.161045	-0.868133	-6.129736	-0.051858	-0.008924	-0.061053	0.999663	0.013714	0.007070	0.020887	-0.141394	0.832309	-0.535099	-0.030628	-168.061200	11.671668	-64.249977	0.425463	-0.882074	-0.202303	-0.899397	-0.387354	-0.202589	0.100336	0.268145	-0.958139
16851	-6.532418	-0.231611	-4.177200	-0.065594	-0.002981	-0.041301	0.999758	0.011241	0.007663	0.017261	-0.146083	0.821522	-0.550759	-0.020648	-167.201582	11.235295	-66.412757	0.392476	-0.898888	-0.194839	-0.910954	-0.350649	-0.217276	0.126987	0.262765	-0.956467
16852	-6.902003	-0.249367	-4.278533	-0.069390	-0.003098	-0.042139	0.999866	0.005505	0.009561	0.012093	-0.144958	0.814167	-0.562128	-0.011448	-166.882786	10.463590	-68.038669	0.367762	-0.912014	-0.181611	-0.918651	-0.325998	-0.223170	0.144329	0.248910	-0.957712
16853	-6.546732	-3.295698	-8.664103	-0.066163	-0.033231	-0.086004	0.999897	0.003155	0.011249	0.008285	-0.141089	0.809102	-0.570478	-0.001695	-166.733940	9.422835	-69.275220	0.349104	-0.922671	-0.163719	-0.923628	-0.309298	-0.226377	0.158233	0.230245	-0.960182
16854	-4.232705	-5.636407	-7.843879	-0.042936	-0.056705	-0.077858	0.999918	-0.001527	0.011567	0.005199	-0.133136	0.806323	-0.576264	0.006121	-167.051368	8.254537	-70.167061	0.335764	-0.930940	-0.143571	-0.927680	-0.300389	-0.221756	0.163315	0.207646	-0.964475
16855	-4.006211	-2.799889	-10.134698	-0.041342	-0.028277	-0.100751	0.999858	0.000448	0.014879	0.007902	-0.124947	0.801508	-0.584528	0.017344	-167.166033	6.792103	-71.440620	0.316054	-0.941341	-0.118267	-0.932673	-0.285432	-0.220568	0.173872	0.180016	-0.968175
16856	-1.808226	-2.632234	-9.148354	-0.019815	-0.026249	-0.091139	0.999786	0.001694	0.020202	0.004227	-0.114457	0.798318	-0.590278	0.034052	-167.074916	4.631887	-72.433684	0.300824	-0.950255	-0.080754	-0.934665	-0.276942	-0.222946	0.189492	0.142545	-0.971480
16857	-3.410634	-3.859206	-9.964786	-0.036421	-0.038557	-0.098829	0.999710	0.000970	0.024020	0.001709	-0.101071	0.796152	-0.594182	0.053615	-167.009697	1.990759	-73.242539	0.288147	-0.956956	-0.034738	-0.935280	-0.273465	-0.224650	0.205481	0.097222	-0.973820
16858	-4.184531	-2.939876	-7.331045	-0.043746	-0.029208	-0.072259	0.999653	0.002684	0.026209	0.000101	-0.087528	0.794151	-0.596550	0.076102	-166.711756	-0.942170	-73.935993	0.276674	-0.960823	0.016443	-0.934179	-0.272934	-0.229819	0.225303	0.048224	-0.973094
16859	-3.346723	-2.118762	-5.909914	-0.035002	-0.021407	-0.058113	0.999651	-0.003968	0.026126	-0.000356	-0.068728	0.792448	-0.598641	0.094507	-167.139059	-3.870234	-74.573598	0.265394	-0.961775	0.067497	-0.935794	-0.273810	-0.222078	0.232070	-0.004225	-0.972690
16860	-4.248463	-0.924143	-8.386323	-0.044729	-0.009449	-0.082652	0.999633	-0.002927	0.026920	-0.000816	-0.050125	0.790310	-0.599888	0.114154	-167.421935	-6.909125	-75.163285	0.254206	-0.959640	0.120295	-0.936752	-0.275243	-0.216188	0.240573	-0.057730	-0.968913
16861	-0.199985	-0.460087	-11.826263	-0.004451	-0.004066	-0.118207	0.999767	0.004372	0.020547	-0.005012	-0.040664	0.790571	-0.596311	0.133259	-166.925450	-9.334913	-75.125047	0.253311	-0.953689	0.162205	-0.932014	-0.285520	-0.223223	0.259198	-0.094633	-0.961177
16862	1.471802	-5.421175	-9.479569	0.013377	-0.053999	-0.095112	0.999895	0.002190	0.014308	0.000342	-0.033843	0.788296	-0.596795	0.145879	-166.604134	-10.929227	-75.543848	0.245111	-0.950775	0.189596	-0.931028	-0.285382	-0.227476	0.270385	-0.120763	-0.955148
16863	-1.346232	-4.222369	-8.239237	-0.014161	-0.042077	-0.082349	0.999925	0.002588	0.010943	0.004808	-0.030044	0.783686	-0.600525	0.155895	-166.138189	-12.020441	-76.391183	0.230133	-0.950614	0.208261	-0.931879	-0.276934	-0.234328	0.280430	-0.140147	-0.949588
16864	0.052061	-1.132425	-9.989941	-0.000294	-0.010712	-0.099966	0.999946	0.006123	0.008306	0.001416	-0.030025	0.781321	-0.600883	0.166061	-165.352216	-12.909444	-76.791104	0.222727	-0.948937	0.223411	-0.928993	-0.276076	-0.246485	0.295577	-0.152648	-0.943044
16865	1.490350	-1.605796	-9.568442	0.014244	-0.016171	-0.095765	0.999976	-0.001101	0.006802	-0.000501	-0.024987	0.780508	-0.600857	0.170744	-165.444361	-13.680467	-76.935478	0.219635	-0.946480	0.236507	-0.929415	-0.276693	-0.244190	0.296561	-0.166180	-0.940444
16866	0.769476	-0.180561	-8.934249	0.007106	-0.002564	-0.089371	0.999941	-0.008259	0.006517	-0.002826	-0.014092	0.781260	-0.600174	0.170952	-166.426873	-14.489419	-76.797300	0.221132	-0.942603	0.250201	-0.932966	-0.279185	-0.227222	0.284032	-0.183183	-0.941153
16867	0.328502	0.280226	-7.772299	0.002574	0.001697	-0.077778	0.999831	-0.013936	0.009341	-0.007465	0.003688	0.784210	-0.596747	0.169981	-168.185191	-15.723972	-76.176013	0.229998	-0.934697	0.271003	-0.937204	-0.287758	-0.197087	0.262200	-0.208656	-0.942186
16868	-0.280998	-2.490571	-8.807971	-0.004114	-0.026295	-0.087616	0.999742	-0.016273	0.011732	-0.010621	0.025306	0.788298	-0.590973	0.169402	-170.334118	-17.276763	-75.188315	0.244109	-0.923152	0.296988	-0.940299	-0.300222	-0.160327	0.237168	-0.240120	-0.941325
16869	1.110139	-6.185278	-14.037986	0.009443	-0.063496	-0.139759	0.999873	-0.011201	0.008452	-0.007544	0.040412	0.790943	-0.586626	0.169250	-171.843612	-18.369782	-74.448090	0.254449	-0.914296	0.315149	-0.941655	-0.308474	-0.134646	0.220321	-0.262501	-0.939442
16870	1.745393	-4.394161	-14.269893	0.016703	-0.044728	-0.142543	0.999973	-0.005270	0.004619	-0.002082	0.047676	0.791154	-0.585656	0.169733	-172.505794	-18.930034	-74.272859	0.256396	-0.910504	0.324413	-0.942872	-0.309469	-0.123372	0.212726	-0.274248	-0.937835
16871	0.860524	-2.969358	-9.757115	0.008243	-0.029987	-0.097512	0.999989	-0.002984	0.003609	-0.000331	0.052213	0.790587	-0.585712	0.170841	-172.841948	-19.347288	-74.288047	0.255509	-0.908273	0.331293	-0.943954	-0.308430	-0.117570	0.208966	-0.282685	-0.936174
16872	2.925057	-3.272271	-8.939170	0.028872	-0.033143	-0.089359	0.999983	-0.004283	0.003757	-0.001301	0.058042	0.790475	-0.585198	0.171238	-173.368801	-19.794750	-74.184244	0.256441	-0.905292	0.338652	-0.945048	-0.308348	-0.108655	0.202787	-0.292179	-0.934617
16873	9.152010	-4.344780	-15.804664	0.090071	-0.044009	-0.158719	0.999959	-0.001291	0.008053	-0.003937	0.064454	0.791295	-0.581807	0.176630	-173.643370	-20.764833	-73.816791	0.260606	-0.897993	0.354533	-0.943531	-0.314694	-0.103525	0.204534	-0.307534	-0.929295
16874	4.508922	-2.638508	-9.674471	0.043875	-0.026872	-0.097165	0.999921	-0.002501	0.010996	-0.005523	0.073818	0.792346	-0.577112	0.183522	-174.125001	-22.087897	-73.283644	0.266524	-0.887450	0.376029	-0.941639	-0.322986	-0.094846	0.205623	-0.328804	-0.921741
16875	3.653126	-0.497379	-10.202830	0.035353	-0.005609	-0.102407	0.999898	-0.003296	0.011081	-0.008336	0.084353	0.794802	-0.570225	0.189784	-174.850128	-23.445806	-72.383924	0.277651	-0.874414	0.397881	-0.938450	-0.335455	-0.082350	0.205480	-0.350527	-0.913733
16876	4.553752	-0.359445	-9.240670	0.044588	-0.004281	-0.092837	0.999907	-0.003118	0.009856	-0.008852	0.094138	0.797645	-0.562885	0.195091	-175.617301	-24.658257	-71.378364	0.290199	-0.861234	0.417205	-0.934696	-0.348596	-0.069450	0.205249	-0.369806	-0.906155
16877	5.100912	-0.728252	-9.178394	0.050301	-0.007823	-0.092128	0.999952	-0.002472	0.007187	-0.006185	0.101364	0.799455	-0.557720	0.198859	-176.203779	-25.532511	-70.661629	0.298807	-0.851430	0.431023	-0.932059	-0.357347	-0.059742	0.204891	-0.383888	-0.900361
16878	4.984027	-0.933881	-8.860963	0.049418	-0.009655	-0.088812	0.999984	-0.001980	0.004460	-0.002826	0.106012	0.799933	-0.555381	0.201048	-176.572060	-26.065786	-70.336958	0.302264	-0.845909	0.439403	-0.931162	-0.360627	-0.053712	0.203896	-0.392920	-0.896683
16879	5.452876	-0.967336	-8.513910	0.054169	-0.009983	-0.085333	0.999987	-0.002986	0.004107	-0.001016	0.110891	0.799346	-0.554715	0.202582	-176.958235	-26.544434	-70.235953	0.302503	-0.841891	0.446892	-0.931748	-0.359988	-0.047470	0.200840	-0.402031	-0.893328
16880	5.432483	-0.925672	-7.363765	0.053796	-0.009578	-0.073983	0.999965	-0.004408	0.007163	0.000082	0.118384	0.797334	-0.554847	0.205886	-177.438740	-27.367086	-70.290081	0.299512	-0.836049	0.459690	-0.933544	-0.356260	-0.039686	0.196949	-0.417254	-0.887192
16881	5.569355	-0.972943	-8.362657	0.054768	-0.010015	-0.084200	0.999928	-0.004227	0.011169	0.001266	0.127690	0.793776	-0.555353	0.212598	-177.817642	-28.642092	-70.513139	0.292770	-0.827359	0.479337	-0.935945	-0.350556	-0.033420	0.195685	-0.438848	-0.876995
16882	6.481557	-2.492376	-11.219465	0.063418	-0.024345	-0.113112	0.999884	0.001548	0.013761	0.006329	0.132761	0.787441	-0.558212	0.225190	-177.193261	-30.189761	-71.422366	0.275377	-0.819325	0.502865	-0.938911	-0.341548	-0.042326	0.206431	-0.460490	-0.863328
16883	4.288534	0.639308	-7.409649	0.041794	0.007123	-0.074647	0.999842	0.003728	0.013670	0.010732	0.135025	0.778744	-0.563909	0.239442	-175.973904	-31.682477	-72.961360	0.249349	-0.813620	0.525211	-0.942943	-0.327550	-0.059747	0.220645	-0.480346	-0.848872
16884	3.746564	1.792231	-8.229949	0.036575	0.018032	-0.082673	0.999934	-0.001525	0.009389	0.006395	0.139983	0.772632	-0.567935	0.246768	-175.638900	-32.705735	-73.916874	0.233110	-0.808523	0.540325	-0.946696	-0.315709	-0.063986	0.222319	-0.496607	-0.839020
16885	5.102950	0.913526	-9.621368	0.050495	0.009215	-0.096487	0.999984	0.000009	0.005392	0.001553	0.142660	0.770410	-0.568358	0.251169	-175.491351	-33.310140	-74.184455	0.227766	-0.804074	0.549171	-0.947401	-0.313234	-0.065695	0.224842	-0.505322	-0.833124
16886	5.917429	-0.704024	-8.488327	0.058995	-0.006977	-0.085013	0.999997	0.000195	0.002179	0.000785	0.143572	0.769443	-0.568586	0.253089	-175.397873	-33.555236	-74.313884	0.225311	-0.802317	0.552741	-0.947663	-0.312193	-0.066865	0.226209	-0.508746	-0.830667
16887	5.400978	-0.163984	-7.955876	0.053934	-0.001466	-0.079613	0.999998	0.001172	0.000981	0.001489	0.142858	0.768516	-0.569282	0.254740	-175.144227	-33.655418	-74.528133	0.222052	-0.802221	0.554197	-0.947788	-0.311019	-0.070460	0.228890	-0.509616	-0.829398
16888	5.181111	0.463767	-7.062920	0.051710	0.004845	-0.070689	0.999996	0.001641	0.001306	0.001763	0.141913	0.767413	-0.570014	0.256947	-174.814294	-33.790229	-74.784058	0.218123	-0.801945	0.556154	-0.947801	-0.309889	-0.075116	0.232585	-0.510739	-0.827678
16889	5.341355	-0.075358	-6.979872	0.053286	-0.000583	-0.069897	0.999996	0.001098	0.001838	0.001756	0.141674	0.766094	-0.570806	0.259248	-174.540611	-33.983463	-75.047938	0.213942	-0.801124	0.558954	-0.948039	-0.308219	-0.078890	0.235481	-0.513032	-0.825438
16890	4.246507	-1.203344	-7.845609	0.042345	-0.011895	-0.078542	0.999997	0.000815	0.001794	0.001746	0.141646	0.764747	-0.571659	0.261352	-174.300700	-34.172254	-75.310387	0.209802	-0.800310	0.561683	-0.948387	-0.306285	-0.082162	0.237791	-0.515455	-0.823263
16891	4.637405	-1.749537	-9.186496	0.046401	-0.017235	-0.091900	0.999996	0.001762	0.000102	0.002117	0.139811	0.763758	-0.572789	0.262753	-173.934019	-34.161243	-75.602438	0.205747	-0.801473	0.561524	-0.948416	-0.304731	-0.087441	0.241195	-0.514568	-0.822828
16892	5.092451	-2.440691	-9.501324	0.051292	-0.023907	-0.094942	0.999983	0.003140	-0.002875	0.003933	0.134751	0.762689	-0.575345	0.262917	-173.298306	-33.786851	-76.096573	0.199705	-0.806762	0.556105	-0.948476	-0.301640	-0.096991	0.245992	-0.508082	-0.825433
16893	5.129770	-2.571043	-9.269503	0.052016	-0.025037	-0.092477	0.999956	0.004027	-0.006183	0.005802	0.126599	0.761487	-0.579508	0.261306	-172.459539	-33.003620	-76.780649	0.191779	-0.816414	0.544692	-0.948738	-0.296286	-0.110051	0.251232	-0.495664	-0.831384
16894	4.709355	-2.136442	-7.934272	0.047824	-0.020776	-0.079060	0.999945	0.003784	-0.007613	0.006081	0.117723	0.760392	-0.584069	0.258474	-171.662954	-32.045937	-77.455038	0.184109	-0.827387	0.530599	-0.949100	-0.290008	-0.122902	0.255566	-0.480964	-0.838665
16895	5.934578	-1.531044	-8.004392	0.059813	-0.014826	-0.079786	0.999974	0.002964	-0.005069	0.004157	0.111439	0.759605	-0.587035	0.256849	-171.085724	-31.402410	-77.905433	0.178836	-0.834583	0.521046	-0.949076	-0.285942	-0.132260	0.259371	-0.470859	-0.843219
16896	7.948000	-1.677068	-6.963062	0.079733	-0.016341	-0.069443	0.999987	0.001723	-0.002714	0.003894	0.107548	0.758199	-0.589834	0.256249	-170.651182	-31.027301	-78.361930	0.172866	-0.839305	0.515446	-0.949541	-0.281059	-0.139202	0.261704	-0.465374	-0.845540
16897	6.642451	-0.993789	-6.074181	0.066580	-0.009835	-0.060588	0.999985	-0.002867	-0.001892	0.004152	0.107548	0.755917	-0.593901	0.253584	-170.719445	-30.738611	-78.867399	0.165954	-0.843335	0.511122	-0.952425	-0.271430	-0.138612	0.255630	-0.463802	-0.848257
16898	3.760950	-0.354760	-6.857023	0.037693	-0.004053	-0.068496	0.999958	-0.008711	-0.001083	0.002442	0.112885	0.753772	-0.598034	0.247871	-171.564838	-30.576937	-79.165788	0.161830	-0.845601	0.508695	-0.957524	-0.259225	-0.126292	0.238659	-0.466650	-0.851634
16899	3.146952	-0.005847	-8.475533	0.031529	-0.000963	-0.084726	0.999946	-0.010263	-0.000714	-0.001096	0.120467	0.753407	-0.599789	0.241076	-172.820553	-30.515181	-79.007499	0.164270	-0.845688	0.507767	-0.961855	-0.251480	-0.107667	0.218746	-0.470711	-0.854740
16900	2.237369	-1.646929	-9.276374	0.022503	-0.017148	-0.092608	0.999970	-0.006358	-0.002124	-0.003990	0.124961	0.755524	-0.598540	0.235196	-173.832757	-30.330122	-78.446860	0.172865	-0.845643	0.504981	-0.963204	-0.252269	-0.092727	0.205805	-0.470371	-0.858135
16901	1.970109	-2.539769	-9.388089	0.020152	-0.025039	-0.093881	0.999962	0.004725	-0.005931	-0.004223	0.118838	0.760011	-0.594946	0.233024	-173.611842	-29.709715	-77.804517	0.183479	-0.848947	0.495606	-0.959715	-0.263835	-0.096638	0.212798	-0.457909	-0.863155
16902	2.784268	0.004908	-8.172632	0.028420	0.000665	-0.081523	0.999929	0.008826	-0.007051	-0.003697	0.108795	0.764851	-0.590864	0.232477	-172.889901	-28.959225	-77.212026	0.193668	-0.853262	0.484187	-0.954431	-0.278086	-0.108300	0.227054	-0.441149	-0.868236
