// Start Time: Unknown
// Update Rate: 60.0Hz
//Filter Profile: human (46.1)
// Option Flags: AHS Disabled ICC Disabled
// Firmware Version: 4.0.2
0	sampleTimeFine	Year	Month	Day	Second	UTC_Nano	UTC_Year	UTC_Month	UTC_Day	UTC_Hour	UTC_Minute	UTC_Second	UTC_Valid	Acc_X	Acc_Y	Acc_Z	Mat[1][1]	Mat[2][1]	Mat[3][1]	Mat[1][2]	Mat[2][2]	Mat[3][2]	Mat[1][3]	Mat[2][3]	Mat[3][3]
0	1172428													0.000000	0.000000	0.000000	0.391497	-0.885646	-0.249722	-0.022058	-0.280338	0.959648	-0.919915	-0.370191	-0.129287
1	1172594													9.007511	-0.214841	3.897969	0.392165	-0.884720	-0.251947	-0.022159	-0.282893	0.958896	-0.919628	-0.370462	-0.130545
2	1172761													8.992791	-0.228484	3.927380	0.393206	-0.884313	-0.251753	-0.022250	-0.282879	0.958897	-0.919181	-0.371443	-0.130906
3	1172928													9.017704	-0.246862	3.924057	0.394527	-0.883782	-0.251550	-0.022510	-0.282969	0.958865	-0.918609	-0.372636	-0.131533
4	1173261													8.998836	-0.215877	3.940347	0.396080	-0.883302	-0.250796	-0.023119	-0.282640	0.958947	-0.917925	-0.374022	-0.132369
5	1173428													8.996822	-0.233777	3.906466	0.396565	-0.883065	-0.250864	-0.023215	-0.282829	0.958889	-0.917713	-0.374438	-0.132660
6	1173594													9.006843	-0.221961	3.900598	0.396841	-0.882974	-0.250747	-0.023310	-0.282785	0.958900	-0.917592	-0.374686	-0.132802
7	1173761													9.021533	-0.237260	3.925163	0.397040	-0.882824	-0.250960	-0.023371	-0.283072	0.958814	-0.917504	-0.374822	-0.133023
8	1173928													9.032717	-0.225970	3.891376	0.397222	-0.882637	-0.251328	-0.023453	-0.283534	0.958675	-0.917423	-0.374912	-0.133327
9	1174095													9.026043	-0.222265	3.883486	0.397321	-0.882523	-0.251573	-0.023512	-0.283840	0.958583	-0.917378	-0.374950	-0.133525
10	1174261													9.033678	-0.220831	3.909921	0.397341	-0.882477	-0.251703	-0.023556	-0.284003	0.958534	-0.917369	-0.374936	-0.133634
11	1174428													9.012726	-0.217340	3.930874	0.397296	-0.882478	-0.251771	-0.023576	-0.284078	0.958511	-0.917388	-0.374877	-0.133668
12	1174595													9.018899	-0.251375	3.879044	0.397154	-0.882505	-0.251900	-0.023643	-0.284222	0.958467	-0.917447	-0.374704	-0.133746
13	1174761													9.038345	-0.199638	3.912310	0.397222	-0.882458	-0.251956	-0.023729	-0.284329	0.958433	-0.917416	-0.374732	-0.133881
14	1174928													9.048459	-0.234499	3.872378	0.397127	-0.882463	-0.252089	-0.023702	-0.284448	0.958399	-0.917458	-0.374631	-0.133878
15	1175095													9.015561	-0.202499	3.885285	0.397136	-0.882403	-0.252287	-0.023686	-0.284657	0.958337	-0.917454	-0.374614	-0.133948
16	1175261													9.029695	-0.211518	3.897007	0.397133	-0.882370	-0.252406	-0.023715	-0.284798	0.958294	-0.917455	-0.374584	-0.134028
17	1175428													9.026916	-0.231659	3.898888	0.397059	-0.882375	-0.252504	-0.023756	-0.284910	0.958260	-0.917485	-0.374487	-0.134088
18	1175595													9.018244	-0.230755	3.905486	0.397010	-0.882311	-0.252806	-0.023798	-0.285247	0.958159	-0.917506	-0.374382	-0.134243
19	1175761													9.006356	-0.230133	3.924140	0.396994	-0.882304	-0.252855	-0.023848	-0.285318	0.958136	-0.917512	-0.374344	-0.134311
20	1175928													9.011539	-0.239305	3.937265	0.396930	-0.882355	-0.252776	-0.023905	-0.285245	0.958156	-0.917537	-0.374279	-0.134315
21	1176095													9.030085	-0.234195	3.907207	0.396918	-0.882318	-0.252924	-0.023930	-0.285414	0.958105	-0.917542	-0.374237	-0.134400
22	1176261													9.037154	-0.222426	3.876373	0.396857	-0.882343	-0.252935	-0.023949	-0.285423	0.958102	-0.917568	-0.374172	-0.134403
23	1176428													9.039780	-0.224350	3.907876	0.396830	-0.882329	-0.253024	-0.023989	-0.285533	0.958069	-0.917578	-0.374121	-0.134475
24	1176595													9.031418	-0.228774	3.897383	0.396822	-0.882331	-0.253032	-0.024034	-0.285558	0.958060	-0.917581	-0.374098	-0.134521
25	1176761													9.017903	-0.230919	3.885982	0.396809	-0.882342	-0.253010	-0.024085	-0.285554	0.958060	-0.917585	-0.374073	-0.134562
26	1176928													9.029719	-0.217283	3.889605	0.396832	-0.882318	-0.253061	-0.024116	-0.285625	0.958038	-0.917574	-0.374078	-0.134623
27	1177095													9.038102	-0.227901	3.900358	0.396849	-0.882300	-0.253097	-0.024172	-0.285690	0.958017	-0.917565	-0.374070	-0.134703
28	1177261													9.014514	-0.224371	3.886983	0.396863	-0.882292	-0.253103	-0.024205	-0.285712	0.958010	-0.917558	-0.374073	-0.134745
29	1177428													9.017625	-0.221414	3.918682	0.396873	-0.882304	-0.253046	-0.024248	-0.285669	0.958021	-0.917553	-0.374077	-0.134769
30	1177595													9.000895	-0.234703	3.906395	0.396910	-0.882276	-0.253085	-0.024313	-0.285744	0.957998	-0.917535	-0.374085	-0.134866
31	1177761													9.017485	-0.243743	3.939951	0.396924	-0.882291	-0.253009	-0.024395	-0.285697	0.958009	-0.917527	-0.374084	-0.134924
32	1177928													9.007493	-0.239906	3.933699	0.396910	-0.882319	-0.252933	-0.024476	-0.285645	0.958023	-0.917531	-0.374059	-0.134971
33	1178095													9.005566	-0.238866	3.924705	0.396926	-0.882317	-0.252915	-0.024559	-0.285662	0.958016	-0.917522	-0.374050	-0.135056
34	1178261													9.013906	-0.236702	3.906888	0.396933	-0.882286	-0.253013	-0.024659	-0.285810	0.957969	-0.917516	-0.374011	-0.135204
35	1178428													9.019205	-0.227751	3.909438	0.396951	-0.882278	-0.253011	-0.024717	-0.285835	0.957960	-0.917507	-0.374010	-0.135270
36	1178595													9.014853	-0.229410	3.921100	0.396959	-0.882244	-0.253118	-0.024770	-0.285974	0.957917	-0.917502	-0.373984	-0.135373
37	1178761													9.017720	-0.217845	3.906939	0.396990	-0.882221	-0.253152	-0.024826	-0.286038	0.957897	-0.917487	-0.373991	-0.135457
38	1178928													9.020864	-0.218549	3.916294	0.397031	-0.882188	-0.253202	-0.024921	-0.286138	0.957864	-0.917467	-0.373992	-0.135591
39	1179095													9.013629	-0.228881	3.909578	0.397032	-0.882203	-0.253148	-0.024987	-0.286106	0.957872	-0.917465	-0.373980	-0.135637
40	1179261													9.012507	-0.241337	3.924723	0.397035	-0.882218	-0.253088	-0.025062	-0.286073	0.957880	-0.917461	-0.373969	-0.135691
41	1179428													9.000209	-0.229685	3.931039	0.397045	-0.882219	-0.253072	-0.025128	-0.286084	0.957875	-0.917455	-0.373960	-0.135757
42	1179595													9.003503	-0.226056	3.912914	0.397006	-0.882253	-0.253013	-0.025210	-0.286047	0.957884	-0.917470	-0.373907	-0.135804
43	1179761													9.008821	-0.230919	3.907433	0.396982	-0.882255	-0.253044	-0.025241	-0.286089	0.957871	-0.917479	-0.373870	-0.135841
44	1179928													9.013171	-0.242735	3.947518	0.396979	-0.882270	-0.252996	-0.025298	-0.286060	0.957878	-0.917479	-0.373857	-0.135880
45	1180095													9.012743	-0.258227	3.884083	0.396960	-0.882268	-0.253033	-0.025380	-0.286131	0.957854	-0.917485	-0.373808	-0.135975
46	1180261													9.010097	-0.242009	3.901152	0.396943	-0.882278	-0.253023	-0.025395	-0.286123	0.957856	-0.917492	-0.373789	-0.135980
47	1180428													9.015710	-0.250273	3.902312	0.396874	-0.882294	-0.253078	-0.025409	-0.286177	0.957840	-0.917521	-0.373711	-0.135994
48	1180595													9.031356	-0.226094	3.880828	0.396969	-0.882233	-0.253143	-0.025509	-0.286304	0.957799	-0.917478	-0.373759	-0.136158
49	1180761													9.046188	-0.214980	3.921755	0.397086	-0.882186	-0.253123	-0.025533	-0.286311	0.957797	-0.917426	-0.373864	-0.136215
50	1180928													9.051888	-0.218445	3.941993	0.397123	-0.882175	-0.253104	-0.025482	-0.286276	0.957808	-0.917412	-0.373918	-0.136166
51	1181095													8.996657	-0.218106	3.923689	0.397143	-0.882131	-0.253223	-0.025531	-0.286428	0.957762	-0.917402	-0.373903	-0.136274
52	1181261													8.989845	-0.249552	3.955179	0.397074	-0.882133	-0.253324	-0.025670	-0.286583	0.957712	-0.917427	-0.373780	-0.136439
53	1181428													9.026935	-0.229002	3.924029	0.397024	-0.882178	-0.253247	-0.025789	-0.286540	0.957721	-0.917446	-0.373707	-0.136513
54	1181595													8.993055	-0.215488	3.935055	0.396987	-0.882240	-0.253089	-0.025870	-0.286395	0.957762	-0.917460	-0.373671	-0.136519
55	1181928													8.988078	-0.237660	3.918651	0.396877	-0.882324	-0.252970	-0.026009	-0.286304	0.957786	-0.917503	-0.373543	-0.136576
56	1182095													9.009078	-0.228326	3.925556	0.396858	-0.882328	-0.252984	-0.026062	-0.286338	0.957774	-0.917510	-0.373507	-0.136630
57	1182261													9.008473	-0.238909	3.929762	0.396854	-0.882393	-0.252762	-0.026118	-0.286120	0.957838	-0.917510	-0.373520	-0.136595
58	1182428													9.015699	-0.241065	3.920092	0.396892	-0.882357	-0.252830	-0.026201	-0.286233	0.957802	-0.917491	-0.373520	-0.136722
59	1182595													9.026576	-0.228938	3.923046	0.396932	-0.882353	-0.252782	-0.026269	-0.286216	0.957805	-0.917472	-0.373543	-0.136786
60	1182761													9.015189	-0.220305	3.946577	0.396910	-0.882369	-0.252761	-0.026294	-0.286200	0.957809	-0.917481	-0.373518	-0.136797
61	1182928													9.005931	-0.237145	3.946685	0.396834	-0.882396	-0.252787	-0.026329	-0.286229	0.957799	-0.917513	-0.373431	-0.136817
62	1183095													9.045478	-0.242414	3.865093	0.396684	-0.882466	-0.252776	-0.026406	-0.286225	0.957799	-0.917575	-0.373268	-0.136844
63	1183261													9.022532	-0.219025	3.924479	0.396801	-0.882435	-0.252700	-0.026486	-0.286194	0.957806	-0.917523	-0.373365	-0.136935
64	1183428													9.030893	-0.227386	3.901456	0.396719	-0.882517	-0.252541	-0.026459	-0.285996	0.957865	-0.917559	-0.373322	-0.136810
65	1183595													8.998016	-0.223978	3.892591	0.396738	-0.882503	-0.252563	-0.026448	-0.286019	0.957859	-0.917551	-0.373340	-0.136815
66	1183761													9.024126	-0.231660	3.897251	0.396751	-0.882481	-0.252617	-0.026514	-0.286107	0.957831	-0.917543	-0.373323	-0.136911
67	1183928													9.005766	-0.245067	3.945479	0.396703	-0.882527	-0.252534	-0.026589	-0.286040	0.957849	-0.917562	-0.373267	-0.136939
68	1184095													8.989430	-0.242721	3.938205	0.396657	-0.882566	-0.252469	-0.026621	-0.285975	0.957867	-0.917581	-0.373224	-0.136929
69	1184261													9.006784	-0.232246	3.937426	0.396613	-0.882635	-0.252295	-0.026673	-0.285800	0.957918	-0.917598	-0.373193	-0.136895
70	1184428													9.011606	-0.254630	3.912725	0.396556	-0.882690	-0.252194	-0.026690	-0.285687	0.957951	-0.917622	-0.373150	-0.136850
71	1184595													9.022885	-0.242649	3.922406	0.396511	-0.882682	-0.252295	-0.026638	-0.285768	0.957928	-0.917644	-0.373108	-0.136823
72	1184761													9.018293	-0.228205	3.887863	0.396460	-0.882677	-0.252389	-0.026625	-0.285858	0.957902	-0.917666	-0.373050	-0.136832
73	1184928													9.018330	-0.240042	3.878057	0.396444	-0.882699	-0.252337	-0.026599	-0.285788	0.957924	-0.917673	-0.373051	-0.136778
74	1185095													9.005490	-0.231102	3.913118	0.396450	-0.882733	-0.252210	-0.026585	-0.285645	0.957967	-0.917671	-0.373081	-0.136711
75	1185261													9.015512	-0.207331	3.918382	0.396453	-0.882785	-0.252024	-0.026576	-0.285440	0.958028	-0.917670	-0.373115	-0.136625
76	1185428													9.012947	-0.213067	3.928778	0.396458	-0.882751	-0.252134	-0.026571	-0.285559	0.957993	-0.917668	-0.373105	-0.136668
77	1185595													9.005688	-0.221818	3.930291	0.396405	-0.882777	-0.252126	-0.026578	-0.285543	0.957997	-0.917691	-0.373054	-0.136653
78	1185761													9.017632	-0.223309	3.930280	0.396332	-0.882792	-0.252190	-0.026547	-0.285589	0.957985	-0.917723	-0.372985	-0.136624
79	1185928													9.007593	-0.229034	3.908137	0.396223	-0.882853	-0.252146	-0.026544	-0.285522	0.958004	-0.917770	-0.372891	-0.136565
80	1186095													9.028503	-0.228831	3.923364	0.396133	-0.882901	-0.252118	-0.026533	-0.285473	0.958019	-0.917810	-0.372814	-0.136512
81	1186261													9.007421	-0.227349	3.915374	0.396025	-0.882946	-0.252133	-0.026527	-0.285470	0.958020	-0.917856	-0.372712	-0.136476
82	1186428													9.007579	-0.238006	3.907709	0.395887	-0.883023	-0.252078	-0.026566	-0.285403	0.958039	-0.917915	-0.372579	-0.136446
83	1186595													9.008572	-0.222753	3.931765	0.395757	-0.883081	-0.252079	-0.026599	-0.285397	0.958040	-0.917970	-0.372446	-0.136437
84	1186761													9.007866	-0.216691	3.915994	0.395600	-0.883154	-0.252070	-0.026622	-0.285371	0.958047	-0.918037	-0.372293	-0.136404
85	1186928													9.007463	-0.207689	3.920417	0.395454	-0.883262	-0.251922	-0.026653	-0.285199	0.958098	-0.918099	-0.372169	-0.136325
86	1187095													9.017600	-0.219937	3.914141	0.395339	-0.883337	-0.251838	-0.026699	-0.285108	0.958123	-0.918147	-0.372060	-0.136298
87	1187261													8.999374	-0.198192	3.927258	0.395229	-0.883380	-0.251859	-0.026730	-0.285126	0.958117	-0.918194	-0.371943	-0.136303
88	1187428													9.003775	-0.202349	3.924144	0.395096	-0.883442	-0.251854	-0.026772	-0.285116	0.958119	-0.918250	-0.371806	-0.136300
89	1187595													9.014761	-0.208046	3.951058	0.394940	-0.883516	-0.251838	-0.026835	-0.285100	0.958122	-0.918315	-0.371643	-0.136306
90	1187761													9.017127	-0.212433	3.909065	0.394797	-0.883592	-0.251795	-0.026894	-0.285053	0.958134	-0.918375	-0.371497	-0.136301
91	1187928													9.015772	-0.226674	3.896791	0.394640	-0.883681	-0.251726	-0.027010	-0.285001	0.958147	-0.918439	-0.371324	-0.136341
92	1188095													9.021097	-0.222044	3.935267	0.394459	-0.883761	-0.251733	-0.027112	-0.285020	0.958138	-0.918514	-0.371121	-0.136389
93	1188261													9.013121	-0.244332	3.921205	0.394277	-0.883801	-0.251874	-0.027180	-0.285171	0.958091	-0.918590	-0.370907	-0.136458
94	1188428													9.023903	-0.226504	3.905492	0.394109	-0.883914	-0.251741	-0.027265	-0.285035	0.958129	-0.918659	-0.370744	-0.136435
95	1188595													9.023172	-0.244037	3.884747	0.393940	-0.883988	-0.251745	-0.027353	-0.285047	0.958123	-0.918729	-0.370557	-0.136472
96	1188761													9.038054	-0.242099	3.887285	0.393774	-0.884064	-0.251741	-0.027371	-0.285023	0.958130	-0.918800	-0.370396	-0.136432
97	1188928													9.027668	-0.236181	3.875165	0.393611	-0.884108	-0.251839	-0.027416	-0.285122	0.958099	-0.918868	-0.370214	-0.136466
98	1189095													9.029621	-0.197011	3.861387	0.393619	-0.884092	-0.251883	-0.027511	-0.285208	0.958071	-0.918862	-0.370185	-0.136586
99	1189261													9.077859	-0.195933	3.908391	0.393600	-0.884170	-0.251638	-0.027563	-0.284961	0.958143	-0.918868	-0.370189	-0.136531
100	1189428													9.065392	-0.200908	3.894998	0.393490	-0.884246	-0.251542	-0.027562	-0.284839	0.958179	-0.918916	-0.370101	-0.136453
101	1189595													9.012968	-0.220536	3.917572	0.393408	-0.884256	-0.251638	-0.027658	-0.284968	0.958138	-0.918948	-0.369979	-0.136565
102	1189761													8.984831	-0.237509	3.917764	0.393274	-0.884341	-0.251548	-0.027775	-0.284896	0.958156	-0.919002	-0.369831	-0.136605
103	1189928													9.008323	-0.236684	3.913991	0.393128	-0.884405	-0.251551	-0.027857	-0.284908	0.958150	-0.919062	-0.369668	-0.136642
104	1190095													9.002358	-0.220098	3.904253	0.393025	-0.884469	-0.251486	-0.027913	-0.284844	0.958167	-0.919104	-0.369564	-0.136639
105	1190261													8.997397	-0.227121	3.886107	0.392910	-0.884514	-0.251509	-0.027963	-0.284871	0.958158	-0.919152	-0.369437	-0.136662
106	1190428													9.005194	-0.248374	3.901503	0.392844	-0.884546	-0.251502	-0.027992	-0.284864	0.958159	-0.919179	-0.369367	-0.136667
107	1190595													9.019863	-0.233086	3.878651	0.392825	-0.884539	-0.251555	-0.028023	-0.284931	0.958138	-0.919186	-0.369331	-0.136715
108	1190762													9.016644	-0.240461	3.881058	0.392843	-0.884537	-0.251532	-0.028064	-0.284925	0.958139	-0.919177	-0.369339	-0.136754
109	1190928													9.025207	-0.248850	3.888103	0.392893	-0.884554	-0.251397	-0.028098	-0.284801	0.958175	-0.919155	-0.369396	-0.136751
110	1191095													9.024538	-0.243826	3.914503	0.392934	-0.884569	-0.251278	-0.028131	-0.284692	0.958206	-0.919136	-0.369443	-0.136749
111	1191262													9.019699	-0.235146	3.901957	0.392939	-0.884593	-0.251187	-0.028164	-0.284607	0.958230	-0.919133	-0.369452	-0.136747
112	1191428													9.001793	-0.264704	3.888689	0.392868	-0.884628	-0.251174	-0.028226	-0.284607	0.958229	-0.919162	-0.369368	-0.136783
113	1191595													9.083123	-0.250470	3.853446	0.392923	-0.884616	-0.251128	-0.028263	-0.284581	0.958235	-0.919137	-0.369416	-0.136820
114	1191762													9.012486	-0.237013	3.921623	0.392996	-0.884608	-0.251042	-0.028296	-0.284513	0.958254	-0.919105	-0.369487	-0.136844
115	1191928													9.058561	-0.228534	3.852305	0.393045	-0.884602	-0.250988	-0.028219	-0.284431	0.958281	-0.919086	-0.369566	-0.136756
116	1192095													9.001760	-0.241873	3.905733	0.393170	-0.884517	-0.251091	-0.028213	-0.284560	0.958243	-0.919033	-0.369668	-0.136835
117	1192262													9.021040	-0.233777	3.903477	0.393282	-0.884488	-0.251019	-0.028241	-0.284512	0.958257	-0.918984	-0.369776	-0.136872
118	1192428													9.023676	-0.237342	3.888517	0.393353	-0.884452	-0.251033	-0.028270	-0.284550	0.958244	-0.918953	-0.369831	-0.136932
119	1192595													8.995521	-0.243368	3.941792	0.393443	-0.884421	-0.251003	-0.028286	-0.284539	0.958247	-0.918914	-0.369916	-0.136967
120	1192762													9.009403	-0.247545	3.929118	0.393463	-0.884440	-0.250903	-0.028256	-0.284422	0.958283	-0.918906	-0.369959	-0.136900
121	1192928													9.029515	-0.218785	3.914931	0.393461	-0.884451	-0.250870	-0.028236	-0.284377	0.958297	-0.918908	-0.369969	-0.136864
122	1193095													9.019899	-0.216275	3.885832	0.393480	-0.884453	-0.250830	-0.028194	-0.284320	0.958315	-0.918901	-0.370006	-0.136810
123	1193262													9.023554	-0.238115	3.901985	0.393485	-0.884493	-0.250681	-0.028160	-0.284145	0.958368	-0.918900	-0.370044	-0.136714
124	1193428													9.038671	-0.223506	3.865326	0.393558	-0.884459	-0.250686	-0.028106	-0.284141	0.958370	-0.918870	-0.370129	-0.136684
125	1193595													9.029490	-0.215541	3.889808	0.393628	-0.884425	-0.250698	-0.028037	-0.284137	0.958374	-0.918842	-0.370214	-0.136641
126	1193762													9.035112	-0.222830	3.892841	0.393713	-0.884410	-0.250618	-0.027989	-0.284045	0.958402	-0.918807	-0.370321	-0.136586
127	1193928													9.026165	-0.219411	3.929458	0.393815	-0.884355	-0.250652	-0.027963	-0.284089	0.958390	-0.918764	-0.370419	-0.136608
128	1194095													9.011610	-0.227300	3.899961	0.393911	-0.884327	-0.250601	-0.027927	-0.284033	0.958408	-0.918724	-0.370529	-0.136580
129	1194262													9.017331	-0.219536	3.920178	0.393987	-0.884311	-0.250537	-0.027916	-0.283972	0.958426	-0.918692	-0.370614	-0.136567
130	1194428													9.011703	-0.222143	3.911591	0.394034	-0.884287	-0.250548	-0.027888	-0.283980	0.958424	-0.918673	-0.370664	-0.136559
131	1194595													9.012500	-0.218935	3.913422	0.394069	-0.884277	-0.250526	-0.027901	-0.283968	0.958428	-0.918657	-0.370697	-0.136575
132	1194762													9.014704	-0.235697	3.913079	0.394125	-0.884281	-0.250426	-0.027898	-0.283867	0.958458	-0.918633	-0.370766	-0.136549
133	1194928													9.018144	-0.219819	3.898273	0.394185	-0.884264	-0.250390	-0.027932	-0.283851	0.958461	-0.918607	-0.370817	-0.136589
134	1195095													9.009918	-0.220573	3.897079	0.394247	-0.884238	-0.250384	-0.027931	-0.283855	0.958460	-0.918580	-0.370876	-0.136606
135	1195262													9.021698	-0.224701	3.882892	0.394321	-0.884218	-0.250339	-0.027907	-0.283808	0.958475	-0.918549	-0.370960	-0.136587
136	1195428													9.040777	-0.217566	3.888689	0.394411	-0.884160	-0.250401	-0.027872	-0.283875	0.958456	-0.918511	-0.371047	-0.136606
137	1195595													9.021609	-0.206859	3.898327	0.394514	-0.884121	-0.250379	-0.027871	-0.283868	0.958458	-0.918467	-0.371146	-0.136631
138	1195762													9.020822	-0.204895	3.913501	0.394617	-0.884086	-0.250339	-0.027863	-0.283838	0.958467	-0.918423	-0.371252	-0.136640
139	1195928													9.022424	-0.218499	3.887484	0.394727	-0.884058	-0.250263	-0.027873	-0.283777	0.958485	-0.918376	-0.371364	-0.136656
140	1196095													9.033195	-0.214876	3.907854	0.394837	-0.884004	-0.250280	-0.027895	-0.283823	0.958471	-0.918327	-0.371459	-0.136723
141	1196262													9.025914	-0.214408	3.902998	0.394952	-0.883969	-0.250224	-0.027918	-0.283789	0.958480	-0.918278	-0.371568	-0.136762
142	1196428													9.017314	-0.228781	3.899221	0.395051	-0.883930	-0.250205	-0.027945	-0.283796	0.958477	-0.918234	-0.371656	-0.136815
143	1196595													9.035116	-0.228791	3.922806	0.395192	-0.883879	-0.250163	-0.027970	-0.283783	0.958481	-0.918173	-0.371787	-0.136871
144	1196762													9.023780	-0.222680	3.900498	0.395316	-0.883846	-0.250084	-0.028025	-0.283740	0.958492	-0.918117	-0.371899	-0.136937
145	1196928													9.027338	-0.231316	3.898746	0.395473	-0.883788	-0.250038	-0.028038	-0.283721	0.958497	-0.918050	-0.372049	-0.136984
146	1197095													9.028775	-0.210718	3.906971	0.395581	-0.883730	-0.250074	-0.028006	-0.283764	0.958485	-0.918004	-0.372155	-0.137001
147	1197262													9.043437	-0.211113	3.856629	0.395777	-0.883633	-0.250104	-0.028027	-0.283837	0.958463	-0.917919	-0.372328	-0.137102
148	1197428													9.051916	-0.214510	3.914157	0.396085	-0.883517	-0.250027	-0.028076	-0.283823	0.958466	-0.917784	-0.372614	-0.137223
149	1197595													9.056580	-0.207720	3.948715	0.396282	-0.883445	-0.249972	-0.028050	-0.283785	0.958478	-0.917700	-0.372816	-0.137239
150	1197762													9.026254	-0.207025	3.960597	0.396505	-0.883343	-0.249977	-0.028045	-0.283825	0.958466	-0.917604	-0.373026	-0.137311
151	1197928													8.974958	-0.238392	3.987109	0.396707	-0.883269	-0.249918	-0.028134	-0.283830	0.958462	-0.917514	-0.373198	-0.137447
152	1198095													8.990671	-0.236477	3.969329	0.396827	-0.883262	-0.249754	-0.028219	-0.283705	0.958496	-0.917459	-0.373310	-0.137507
153	1198262													9.011310	-0.229478	3.939468	0.396979	-0.883228	-0.249634	-0.028279	-0.283624	0.958518	-0.917392	-0.373452	-0.137570
154	1198428													8.968546	-0.223663	3.949842	0.397110	-0.883200	-0.249523	-0.028305	-0.283535	0.958544	-0.917334	-0.373585	-0.137594
155	1198595													8.982593	-0.229428	3.966186	0.397202	-0.883189	-0.249415	-0.028361	-0.283457	0.958565	-0.917293	-0.373671	-0.137638
156	1198762													8.969808	-0.225230	3.961361	0.397237	-0.883186	-0.249371	-0.028407	-0.283433	0.958571	-0.917276	-0.373696	-0.137678
157	1198928													8.995531	-0.238379	3.941928	0.397320	-0.883157	-0.249342	-0.028461	-0.283437	0.958568	-0.917239	-0.373762	-0.137751
158	1199095													9.006109	-0.246916	3.956147	0.397435	-0.883104	-0.249346	-0.028526	-0.283487	0.958552	-0.917187	-0.373849	-0.137859
159	1199262													8.999358	-0.243182	3.943730	0.397589	-0.883063	-0.249246	-0.028598	-0.283433	0.958566	-0.917118	-0.373987	-0.137943
160	1199428													9.004879	-0.213307	3.980698	0.397693	-0.883022	-0.249223	-0.028635	-0.283440	0.958562	-0.917071	-0.374077	-0.138008
161	1199595													9.000116	-0.245796	3.995908	0.397730	-0.882985	-0.249294	-0.028649	-0.283529	0.958536	-0.917055	-0.374096	-0.138064
162	1199762													8.980715	-0.266980	3.931724	0.397642	-0.883011	-0.249344	-0.028730	-0.283602	0.958512	-0.917091	-0.373981	-0.138141
163	1199928													9.032989	-0.211958	3.954409	0.397799	-0.882972	-0.249232	-0.028807	-0.283537	0.958529	-0.917020	-0.374122	-0.138227
164	1200095													9.016938	-0.242996	3.927974	0.397754	-0.882993	-0.249230	-0.028815	-0.283531	0.958530	-0.917039	-0.374078	-0.138219
165	1200262													9.000910	-0.229982	3.907994	0.397853	-0.882959	-0.249192	-0.028770	-0.283488	0.958544	-0.916998	-0.374190	-0.138189
166	1200428													8.997949	-0.235200	3.926232	0.397967	-0.882922	-0.249140	-0.028809	-0.283465	0.958550	-0.916947	-0.374294	-0.138246
167	1200595													9.023600	-0.232425	3.923707	0.397999	-0.882911	-0.249129	-0.028856	-0.283478	0.958544	-0.916932	-0.374310	-0.138302
168	1200762													8.999483	-0.235333	3.921443	0.398088	-0.882882	-0.249090	-0.028883	-0.283461	0.958549	-0.916892	-0.374392	-0.138343
169	1200928													8.995649	-0.247799	3.922713	0.398223	-0.882826	-0.249072	-0.028892	-0.283468	0.958546	-0.916833	-0.374519	-0.138390
170	1201095													8.993764	-0.232364	3.957213	0.398306	-0.882805	-0.249013	-0.028886	-0.283415	0.958562	-0.916797	-0.374608	-0.138387
171	1201262													9.013802	-0.236287	3.940862	0.398395	-0.882777	-0.248971	-0.028843	-0.283366	0.958578	-0.916761	-0.374711	-0.138353
172	1201428													9.008220	-0.225766	3.949209	0.398494	-0.882736	-0.248959	-0.028809	-0.283355	0.958582	-0.916718	-0.374817	-0.138346
173	1201595													9.024577	-0.228098	3.922906	0.398572	-0.882700	-0.248961	-0.028746	-0.283345	0.958587	-0.916687	-0.374909	-0.138307
174	1201762													9.021491	-0.243118	3.925388	0.398690	-0.882637	-0.248996	-0.028717	-0.283390	0.958575	-0.916636	-0.375024	-0.138331
175	1201928													9.020947	-0.232457	3.928811	0.398822	-0.882578	-0.248993	-0.028659	-0.283385	0.958578	-0.916580	-0.375166	-0.138314
176	1202095													9.002379	-0.249673	3.935641	0.398977	-0.882490	-0.249055	-0.028603	-0.283455	0.958559	-0.916515	-0.375319	-0.138334
177	1202262													9.004533	-0.237414	3.957721	0.399158	-0.882418	-0.249023	-0.028566	-0.283434	0.958566	-0.916437	-0.375505	-0.138342
178	1202428													9.002827	-0.222612	3.948158	0.399312	-0.882352	-0.249007	-0.028563	-0.283441	0.958564	-0.916370	-0.375654	-0.138384
179	1202595													8.997115	-0.219633	3.965917	0.399503	-0.882279	-0.248960	-0.028553	-0.283417	0.958572	-0.916287	-0.375843	-0.138418
180	1202762													8.997985	-0.227343	3.942035	0.399692	-0.882204	-0.248923	-0.028563	-0.283412	0.958573	-0.916204	-0.376024	-0.138476
181	1202928													8.982559	-0.225512	3.968839	0.399899	-0.882122	-0.248879	-0.028550	-0.283393	0.958579	-0.916114	-0.376229	-0.138514
182	1203095													8.980572	-0.231137	3.985046	0.400099	-0.882040	-0.248851	-0.028527	-0.283386	0.958582	-0.916028	-0.376428	-0.138545
183	1203262													8.982209	-0.233712	3.971521	0.400286	-0.881983	-0.248751	-0.028518	-0.283304	0.958606	-0.915946	-0.376623	-0.138555
184	1203428													8.994805	-0.236194	3.979121	0.400469	-0.881915	-0.248699	-0.028508	-0.283273	0.958615	-0.915867	-0.376806	-0.138584
185	1203595													8.984818	-0.238969	3.970999	0.400653	-0.881846	-0.248646	-0.028476	-0.283234	0.958628	-0.915787	-0.376997	-0.138590
186	1203762													8.973487	-0.223055	3.950404	0.400830	-0.881768	-0.248637	-0.028430	-0.283233	0.958629	-0.915711	-0.377178	-0.138597
187	1203928													8.991380	-0.227632	3.964401	0.401009	-0.881681	-0.248656	-0.028392	-0.283268	0.958620	-0.915634	-0.377356	-0.138626
188	1204095													8.989351	-0.232543	3.984778	0.401180	-0.881619	-0.248603	-0.028375	-0.283231	0.958632	-0.915560	-0.377530	-0.138643
189	1204262													8.992989	-0.232100	3.988387	0.401367	-0.881529	-0.248620	-0.028363	-0.283276	0.958619	-0.915478	-0.377706	-0.138700
190	1204428													8.978136	-0.219987	3.965370	0.401511	-0.881463	-0.248619	-0.028355	-0.283295	0.958614	-0.915415	-0.377844	-0.138740
191	1204595													8.989462	-0.220001	3.989309	0.401677	-0.881393	-0.248601	-0.028354	-0.283302	0.958611	-0.915342	-0.378003	-0.138788
192	1204762													8.981048	-0.234231	3.966429	0.401820	-0.881354	-0.248507	-0.028357	-0.283225	0.958634	-0.915280	-0.378151	-0.138798
193	1204928													8.995606	-0.222236	3.971468	0.401967	-0.881310	-0.248426	-0.028342	-0.283155	0.958655	-0.915216	-0.378307	-0.138797
194	1205095													8.998770	-0.236691	3.987775	0.402176	-0.881228	-0.248379	-0.028354	-0.283143	0.958658	-0.915123	-0.378507	-0.138859
195	1205262													8.979927	-0.236029	3.976485	0.402319	-0.881172	-0.248346	-0.028372	-0.283139	0.958659	-0.915060	-0.378641	-0.138913
196	1205428													8.966149	-0.247009	3.992449	0.402498	-0.881104	-0.248297	-0.028341	-0.283102	0.958671	-0.914982	-0.378826	-0.138919
197	1205595													8.987152	-0.246447	3.961361	0.402631	-0.881028	-0.248349	-0.028282	-0.283156	0.958657	-0.914925	-0.378961	-0.138925
198	1205762													9.004322	-0.227036	3.941012	0.402886	-0.880874	-0.248481	-0.028306	-0.283352	0.958598	-0.914812	-0.379173	-0.139092
199	1205928													8.995478	-0.211086	4.008465	0.403262	-0.880705	-0.248471	-0.028342	-0.283418	0.958578	-0.914645	-0.379516	-0.139253
200	1206095													9.019249	-0.227070	3.994808	0.403481	-0.880600	-0.248488	-0.028289	-0.283451	0.958569	-0.914550	-0.379735	-0.139278
201	1206262													8.989338	-0.209683	3.988444	0.403770	-0.880457	-0.248525	-0.028303	-0.283545	0.958541	-0.914423	-0.379996	-0.139406
202	1206428													8.947419	-0.238945	4.037735	0.403973	-0.880362	-0.248534	-0.028418	-0.283637	0.958511	-0.914329	-0.380150	-0.139600
203	1206595													8.976913	-0.239366	4.011746	0.404140	-0.880306	-0.248457	-0.028506	-0.283617	0.958514	-0.914253	-0.380292	-0.139715
204	1206762													8.967841	-0.240625	3.986841	0.404328	-0.880290	-0.248212	-0.028566	-0.283406	0.958574	-0.914168	-0.380488	-0.139735
205	1206928													8.954926	-0.234953	4.007465	0.404464	-0.880276	-0.248040	-0.028647	-0.283275	0.958611	-0.914105	-0.380618	-0.139792
206	1207095													8.936141	-0.232146	4.013223	0.404620	-0.880228	-0.247953	-0.028679	-0.283220	0.958626	-0.914035	-0.380768	-0.139841
207	1207262													8.961088	-0.233930	3.985422	0.404790	-0.880150	-0.247954	-0.028729	-0.283270	0.958610	-0.913958	-0.380912	-0.139950
208	1207429													8.969877	-0.246457	3.993270	0.404984	-0.880064	-0.247943	-0.028782	-0.283312	0.958596	-0.913870	-0.381080	-0.140067
209	1207595													8.990222	-0.236660	3.976273	0.405242	-0.879966	-0.247868	-0.028826	-0.283292	0.958600	-0.913755	-0.381321	-0.140168
210	1207762													8.983475	-0.237968	4.005826	0.405498	-0.879849	-0.247866	-0.028850	-0.283343	0.958584	-0.913640	-0.381553	-0.140279
211	1207929													8.992084	-0.236695	4.024265	0.405760	-0.879705	-0.247947	-0.028854	-0.283477	0.958545	-0.913524	-0.381785	-0.140406
212	1208095													8.967820	-0.251995	4.010841	0.405977	-0.879608	-0.247937	-0.028842	-0.283497	0.958539	-0.913428	-0.381994	-0.140463
213	1208262													8.990793	-0.262447	3.963912	0.406070	-0.879550	-0.247988	-0.028869	-0.283580	0.958514	-0.913386	-0.382064	-0.140545
214	1208429													9.000334	-0.222087	4.005073	0.406462	-0.879372	-0.247977	-0.028859	-0.283630	0.958500	-0.913212	-0.382438	-0.140662
215	1208595													8.987052	-0.254075	3.990536	0.406581	-0.879330	-0.247935	-0.028778	-0.283569	0.958520	-0.913161	-0.382581	-0.140599
216	1208762													8.972271	-0.228138	3.999218	0.406888	-0.879171	-0.247994	-0.028676	-0.283643	0.958501	-0.913028	-0.382891	-0.140622
217	1208929													8.932786	-0.248826	4.053148	0.407148	-0.879029	-0.248069	-0.028619	-0.283745	0.958473	-0.912914	-0.383141	-0.140683
218	1209095													8.968011	-0.245056	4.039628	0.407304	-0.878934	-0.248150	-0.028590	-0.283847	0.958443	-0.912845	-0.383284	-0.140741
219	1209262													8.950761	-0.252713	4.061101	0.407498	-0.878836	-0.248178	-0.028547	-0.283892	0.958431	-0.912760	-0.383474	-0.140774
220	1209429													8.947095	-0.237972	4.068726	0.407698	-0.878770	-0.248084	-0.028491	-0.283800	0.958460	-0.912672	-0.383694	-0.140741
221	1209595													8.949305	-0.245274	4.049536	0.407854	-0.878699	-0.248078	-0.028405	-0.283782	0.958468	-0.912605	-0.383868	-0.140701
222	1209762													8.950453	-0.230057	4.053981	0.408005	-0.878640	-0.248040	-0.028291	-0.283719	0.958490	-0.912541	-0.384051	-0.140617
223	1209929													8.948758	-0.240760	4.043742	0.408168	-0.878563	-0.248046	-0.028169	-0.283701	0.958499	-0.912472	-0.384242	-0.140546
224	1210095													8.960960	-0.246118	4.055322	0.408355	-0.878463	-0.248089	-0.028025	-0.283719	0.958498	-0.912393	-0.384455	-0.140477
225	1210262													8.950191	-0.217970	4.047471	0.408612	-0.878318	-0.248181	-0.027880	-0.283802	0.958478	-0.912282	-0.384726	-0.140452
226	1210429													8.960744	-0.235073	4.050091	0.408908	-0.878176	-0.248196	-0.027732	-0.283805	0.958481	-0.912154	-0.385048	-0.140403
227	1210595													8.965437	-0.220594	4.054706	0.409284	-0.878008	-0.248172	-0.027586	-0.283780	0.958492	-0.911990	-0.385450	-0.140368
228	1210762													8.975155	-0.219005	4.033073	0.409704	-0.877812	-0.248172	-0.027431	-0.283785	0.958495	-0.911806	-0.385891	-0.140347
229	1210929													8.968692	-0.217601	4.023211	0.410165	-0.877606	-0.248137	-0.027324	-0.283780	0.958500	-0.911602	-0.386363	-0.140376
230	1211095													8.962329	-0.227838	4.050868	0.410736	-0.877357	-0.248074	-0.027228	-0.283765	0.958507	-0.911348	-0.386939	-0.140441
231	1211262													8.971087	-0.216484	4.043460	0.411382	-0.877102	-0.247904	-0.027146	-0.283654	0.958542	-0.911059	-0.387598	-0.140500
232	1211429													8.977212	-0.217620	4.041593	0.412089	-0.876828	-0.247700	-0.027092	-0.283528	0.958581	-0.910741	-0.388310	-0.140593
233	1211595													8.960444	-0.219951	4.034574	0.412841	-0.876513	-0.247562	-0.026998	-0.283463	0.958603	-0.910403	-0.389067	-0.140689
234	1211762													8.963374	-0.224550	4.032516	0.413597	-0.876194	-0.247430	-0.026930	-0.283418	0.958618	-0.910062	-0.389818	-0.140817
235	1211929													8.980314	-0.224564	4.065104	0.414404	-0.875859	-0.247266	-0.026859	-0.283345	0.958642	-0.909697	-0.390624	-0.140944
236	1212095													8.951627	-0.219272	4.062731	0.415244	-0.875494	-0.247150	-0.026788	-0.283330	0.958648	-0.909316	-0.391452	-0.141104
237	1212262													8.954022	-0.204407	4.062286	0.416110	-0.875121	-0.247016	-0.026692	-0.283289	0.958663	-0.908923	-0.392316	-0.141238
238	1212429													8.945438	-0.217796	4.071454	0.417014	-0.874735	-0.246857	-0.026600	-0.283229	0.958683	-0.908511	-0.393217	-0.141379
239	1212595													8.923588	-0.203924	4.116123	0.417894	-0.874348	-0.246740	-0.026519	-0.283216	0.958690	-0.908109	-0.394087	-0.141541
240	1212762													8.913650	-0.225545	4.132301	0.418762	-0.873969	-0.246608	-0.026462	-0.283195	0.958697	-0.907710	-0.394941	-0.141719
241	1212929													8.905561	-0.212270	4.154286	0.419669	-0.873581	-0.246443	-0.026392	-0.283138	0.958716	-0.907293	-0.395840	-0.141880
242	1213095													8.897776	-0.214347	4.145648	0.420573	-0.873190	-0.246286	-0.026315	-0.283088	0.958733	-0.906877	-0.396736	-0.142037
243	1213262													8.893003	-0.217553	4.185295	0.421517	-0.872775	-0.246145	-0.026242	-0.283063	0.958742	-0.906441	-0.397666	-0.142219
244	1213429													8.884857	-0.217879	4.178150	0.422416	-0.872376	-0.246018	-0.026126	-0.283028	0.958756	-0.906026	-0.398566	-0.142347
245	1213595													8.869961	-0.215015	4.191378	0.423339	-0.871961	-0.245902	-0.026014	-0.283011	0.958764	-0.905598	-0.399485	-0.142493
246	1213762													8.892735	-0.226144	4.184645	0.424205	-0.871604	-0.245676	-0.025922	-0.282872	0.958807	-0.905195	-0.400362	-0.142590
247	1213929													8.890434	-0.219814	4.225516	0.425161	-0.871206	-0.245435	-0.025793	-0.282715	0.958857	-0.904750	-0.401338	-0.142671
248	1214095													8.868657	-0.226717	4.229103	0.426023	-0.870822	-0.245304	-0.025657	-0.282661	0.958877	-0.904349	-0.402209	-0.142763
249	1214262													8.890347	-0.212898	4.191411	0.426909	-0.870437	-0.245126	-0.025544	-0.282569	0.958907	-0.903934	-0.403105	-0.142866
250	1214429													8.912861	-0.195721	4.189110	0.428157	-0.869909	-0.244826	-0.025438	-0.282408	0.958957	-0.903346	-0.404356	-0.143043
251	1214595													8.884422	-0.186118	4.263897	0.429403	-0.869405	-0.244433	-0.025253	-0.282109	0.959050	-0.902760	-0.405646	-0.143094
252	1214762													8.877707	-0.192580	4.284675	0.430604	-0.868853	-0.244283	-0.025110	-0.282090	0.959059	-0.902192	-0.406840	-0.143286
253	1214929													8.811193	-0.210172	4.308290	0.431813	-0.868311	-0.244078	-0.025066	-0.282055	0.959071	-0.901615	-0.408021	-0.143560
254	1215095													8.777373	-0.198411	4.315674	0.432860	-0.867863	-0.243814	-0.025054	-0.281943	0.959104	-0.901113	-0.409050	-0.143785
255	1215262													8.808784	-0.200304	4.313832	0.433877	-0.867459	-0.243446	-0.024957	-0.281671	0.959186	-0.900627	-0.410093	-0.143859
256	1215429													8.813968	-0.184098	4.302921	0.434861	-0.867055	-0.243130	-0.024865	-0.281453	0.959253	-0.900154	-0.411096	-0.143952
257	1215595													8.810597	-0.201452	4.311085	0.435868	-0.866626	-0.242855	-0.024738	-0.281270	0.959310	-0.899671	-0.412125	-0.144036
258	1215762													8.803241	-0.211936	4.310280	0.436806	-0.866213	-0.242642	-0.024617	-0.281145	0.959350	-0.899219	-0.413077	-0.144129
259	1215929													8.832932	-0.222964	4.286206	0.437785	-0.865794	-0.242373	-0.024512	-0.280972	0.959403	-0.898746	-0.414071	-0.144228
260	1216095													8.836077	-0.195979	4.306368	0.438875	-0.865311	-0.242128	-0.024411	-0.280848	0.959442	-0.898217	-0.415164	-0.144380
261	1216262													8.853627	-0.193279	4.321024	0.439948	-0.864809	-0.241972	-0.024359	-0.280842	0.959445	-0.897693	-0.416212	-0.144622
262	1216429													8.844283	-0.192011	4.342473	0.441078	-0.864294	-0.241755	-0.024256	-0.280756	0.959473	-0.897141	-0.417338	-0.144800
263	1216595													8.811415	-0.191891	4.385542	0.442136	-0.863804	-0.241576	-0.024146	-0.280696	0.959493	-0.896623	-0.418393	-0.144963
264	1216762													8.771124	-0.220908	4.320340	0.442963	-0.863429	-0.241400	-0.024094	-0.280625	0.959515	-0.896216	-0.419214	-0.145110
265	1216929													8.888154	-0.195112	4.298017	0.444134	-0.862891	-0.241172	-0.024057	-0.280565	0.959534	-0.895638	-0.420359	-0.145367
266	1217095													8.779080	-0.190763	4.395207	0.445276	-0.862403	-0.240810	-0.023972	-0.280329	0.959605	-0.895072	-0.421516	-0.145497
267	1217262													8.832211	-0.190786	4.343153	0.446443	-0.861847	-0.240641	-0.023836	-0.280288	0.959620	-0.894495	-0.422679	-0.145676
268	1217429													8.751159	-0.194526	4.406193	0.447732	-0.861261	-0.240346	-0.023764	-0.280159	0.959660	-0.893852	-0.423958	-0.145903
269	1217595													8.776402	-0.206322	4.421987	0.448887	-0.860734	-0.240079	-0.023747	-0.280064	0.959688	-0.893273	-0.425090	-0.146157
270	1217762													8.776965	-0.194557	4.430486	0.450128	-0.860170	-0.239775	-0.023719	-0.279938	0.959725	-0.892649	-0.426312	-0.146410
271	1217929													8.737690	-0.181226	4.464184	0.451478	-0.859532	-0.239523	-0.023673	-0.279883	0.959742	-0.891968	-0.427633	-0.146709
272	1218095													8.742642	-0.188245	4.463121	0.452823	-0.858911	-0.239213	-0.023578	-0.279738	0.959787	-0.891289	-0.428973	-0.146923
273	1218262													8.756288	-0.191262	4.483923	0.454166	-0.858269	-0.238971	-0.023511	-0.279682	0.959805	-0.890607	-0.430292	-0.147201
274	1218429													8.734724	-0.186966	4.488837	0.455551	-0.857612	-0.238695	-0.023458	-0.279604	0.959829	-0.889901	-0.431651	-0.147492
275	1218595													8.721998	-0.179224	4.482382	0.456944	-0.856965	-0.238356	-0.023363	-0.279438	0.959879	-0.889189	-0.433043	-0.147709
276	1218762													8.732525	-0.193148	4.511541	0.458426	-0.856261	-0.238040	-0.023239	-0.279299	0.959923	-0.888429	-0.434521	-0.147937
277	1218929													8.715953	-0.189183	4.516723	0.459931	-0.855520	-0.237798	-0.023210	-0.279296	0.959924	-0.887651	-0.435980	-0.148314
278	1219095													8.709994	-0.199995	4.550059	0.461354	-0.854828	-0.237533	-0.023203	-0.279262	0.959934	-0.886913	-0.437358	-0.148674
279	1219262													8.720030	-0.193121	4.531351	0.462808	-0.854110	-0.237286	-0.023159	-0.279237	0.959943	-0.886156	-0.438774	-0.149013
280	1219429													8.716188	-0.198395	4.589047	0.464345	-0.853355	-0.237000	-0.023133	-0.279194	0.959956	-0.885352	-0.440269	-0.149383
281	1219595													8.688254	-0.187930	4.569882	0.465925	-0.852588	-0.236661	-0.023098	-0.279095	0.959986	-0.884523	-0.441815	-0.149730
282	1219762													8.697841	-0.215280	4.604384	0.467447	-0.851846	-0.236330	-0.023060	-0.278994	0.960016	-0.883720	-0.443307	-0.150058
283	1219929													8.685622	-0.199366	4.614533	0.469016	-0.851080	-0.235979	-0.023000	-0.278869	0.960054	-0.882890	-0.444853	-0.150369
284	1220095													8.665483	-0.191468	4.636714	0.470650	-0.850274	-0.235631	-0.022899	-0.278740	0.960094	-0.882023	-0.446473	-0.150660
285	1220262													8.662794	-0.196865	4.648450	0.472199	-0.849499	-0.235329	-0.022820	-0.278658	0.960119	-0.881196	-0.447997	-0.150968
286	1220429													8.651965	-0.199071	4.664883	0.473781	-0.848717	-0.234969	-0.022760	-0.278528	0.960158	-0.880349	-0.449556	-0.151278
287	1220595													8.637696	-0.198583	4.672178	0.475305	-0.847963	-0.234615	-0.022700	-0.278393	0.960199	-0.879528	-0.451061	-0.151570
288	1220762													8.650166	-0.192243	4.691370	0.476700	-0.847257	-0.234336	-0.022687	-0.278342	0.960214	-0.878773	-0.452418	-0.151908
289	1220929													8.656349	-0.186746	4.703211	0.478198	-0.846502	-0.234012	-0.022592	-0.278220	0.960252	-0.877961	-0.453904	-0.152169
290	1221095													8.628326	-0.181622	4.709880	0.479682	-0.845747	-0.233702	-0.022553	-0.278141	0.960276	-0.877153	-0.455356	-0.152493
291	1221262													8.612734	-0.196857	4.732467	0.481132	-0.844996	-0.233439	-0.022521	-0.278112	0.960285	-0.876359	-0.456767	-0.152839
292	1221429													8.614118	-0.184241	4.739995	0.482595	-0.844243	-0.233143	-0.022477	-0.278043	0.960306	-0.875555	-0.458198	-0.153158
293	1221595													8.586533	-0.191728	4.773269	0.484067	-0.843468	-0.232897	-0.022372	-0.278001	0.960320	-0.874745	-0.459649	-0.153441
294	1221762													8.570753	-0.191125	4.759840	0.485444	-0.842733	-0.232690	-0.022285	-0.277995	0.960324	-0.873984	-0.460998	-0.153732
295	1221929													8.583333	-0.185450	4.793858	0.486816	-0.841962	-0.232616	-0.022121	-0.278100	0.960297	-0.873224	-0.462343	-0.154009
296	1222095													8.569898	-0.198420	4.825446	0.488230	-0.841195	-0.232429	-0.022045	-0.278131	0.960290	-0.872437	-0.463718	-0.154336
297	1222262													8.551537	-0.198496	4.812103	0.489682	-0.840403	-0.232239	-0.021912	-0.278136	0.960292	-0.871626	-0.465149	-0.154613
298	1222429													8.546496	-0.188581	4.846010	0.490879	-0.839734	-0.232132	-0.021710	-0.278149	0.960293	-0.870957	-0.466348	-0.154768
299	1222595													8.543530	-0.166704	4.798728	0.492138	-0.839016	-0.232059	-0.021517	-0.278219	0.960277	-0.870251	-0.467595	-0.154976
300	1222762													8.630230	-0.178532	4.736903	0.493819	-0.838066	-0.231923	-0.021401	-0.278345	0.960243	-0.869301	-0.469223	-0.155388
301	1222929													8.586248	-0.162698	4.865109	0.496169	-0.836749	-0.231663	-0.021244	-0.278443	0.960218	-0.867966	-0.471509	-0.155931
302	1223095													8.473783	-0.148516	4.943161	0.498379	-0.835495	-0.231446	-0.021060	-0.278551	0.960190	-0.866704	-0.473664	-0.156419
303	1223262													8.472249	-0.162151	4.977226	0.500385	-0.834339	-0.231287	-0.020929	-0.278714	0.960146	-0.865550	-0.475602	-0.156926
304	1223429													8.432685	-0.151254	5.023536	0.502205	-0.833311	-0.231048	-0.020880	-0.278792	0.960124	-0.864496	-0.477355	-0.157410
305	1223595													8.437441	-0.165645	5.023724	0.503628	-0.832510	-0.230836	-0.020826	-0.278818	0.960118	-0.863669	-0.478735	-0.157758
306	1223762													8.438689	-0.175316	5.035098	0.504969	-0.831746	-0.230663	-0.020695	-0.278828	0.960118	-0.862890	-0.480056	-0.158012
307	1223929													8.396808	-0.146239	5.035506	0.506257	-0.830998	-0.230535	-0.020597	-0.278898	0.960100	-0.862137	-0.481309	-0.158310
308	1224096													8.381883	-0.154075	5.039174	0.507452	-0.830311	-0.230382	-0.020489	-0.278915	0.960097	-0.861437	-0.482483	-0.158548
309	1224262													8.401256	-0.150002	5.042296	0.508640	-0.829632	-0.230209	-0.020408	-0.278923	0.960097	-0.860737	-0.483646	-0.158802
310	1224429													8.388763	-0.151049	5.062247	0.509882	-0.828923	-0.230017	-0.020329	-0.278921	0.960099	-0.860004	-0.484861	-0.159068
311	1224596													8.398697	-0.150383	5.090664	0.511145	-0.828219	-0.229748	-0.020257	-0.278840	0.960124	-0.859256	-0.486108	-0.159305
312	1224762													8.397822	-0.152528	5.090022	0.512352	-0.827536	-0.229518	-0.020189	-0.278796	0.960138	-0.858538	-0.487295	-0.159549
313	1224929													8.385860	-0.156361	5.128623	0.513534	-0.826861	-0.229312	-0.020094	-0.278757	0.960151	-0.857834	-0.488463	-0.159766
314	1225096													8.336127	-0.173035	5.154626	0.514375	-0.826385	-0.229142	-0.020018	-0.278698	0.960170	-0.857332	-0.489300	-0.159898
315	1225262													8.479974	-0.161224	5.020047	0.514883	-0.826087	-0.229077	-0.019930	-0.278683	0.960176	-0.857029	-0.489813	-0.159953
316	1225429													8.464211	-0.148277	5.049371	0.516372	-0.825254	-0.228726	-0.019840	-0.278546	0.960218	-0.856134	-0.491292	-0.160207
317	1225596													8.369207	-0.154868	5.133929	0.517504	-0.824625	-0.228437	-0.019701	-0.278377	0.960270	-0.855454	-0.492443	-0.160307
318	1225762													8.437643	-0.141253	5.037340	0.518625	-0.824006	-0.228129	-0.019581	-0.278193	0.960326	-0.854778	-0.493582	-0.160413
319	1225929													8.422065	-0.144932	5.081680	0.520002	-0.823253	-0.227713	-0.019522	-0.277976	0.960389	-0.853942	-0.494959	-0.160620
320	1226096													8.420937	-0.177708	5.090083	0.521269	-0.822563	-0.227309	-0.019487	-0.277763	0.960452	-0.853170	-0.496224	-0.160818
321	1226262													8.398547	-0.179921	5.087424	0.522576	-0.821856	-0.226864	-0.019482	-0.277528	0.960520	-0.852370	-0.497525	-0.161041
322	1226429													8.398720	-0.178771	5.134769	0.523931	-0.821117	-0.226412	-0.019414	-0.277260	0.960599	-0.851539	-0.498892	-0.161206
323	1226596													8.392029	-0.168860	5.132768	0.525261	-0.820384	-0.225989	-0.019342	-0.277017	0.960670	-0.850721	-0.500232	-0.161375
324	1226762													8.393152	-0.165644	5.162406	0.526649	-0.819602	-0.225597	-0.019262	-0.276819	0.960729	-0.849865	-0.501622	-0.161574
325	1226929													8.375621	-0.175487	5.183982	0.528093	-0.818788	-0.225176	-0.019143	-0.276578	0.960801	-0.848971	-0.503082	-0.161733
326	1227096													8.351666	-0.168645	5.172739	0.529524	-0.817999	-0.224683	-0.019043	-0.276260	0.960894	-0.848081	-0.504537	-0.161863
327	1227262													8.339771	-0.167617	5.200775	0.530937	-0.817211	-0.224214	-0.018950	-0.275970	0.960979	-0.847199	-0.505971	-0.162009
328	1227429													8.326062	-0.161232	5.220341	0.532343	-0.816404	-0.223820	-0.018817	-0.275745	0.961047	-0.846320	-0.507395	-0.162153
329	1227596													8.332005	-0.161838	5.265561	0.533793	-0.815555	-0.223461	-0.018651	-0.275549	0.961106	-0.845409	-0.508864	-0.162298
330	1227762													8.301806	-0.163514	5.281838	0.535298	-0.814662	-0.223117	-0.018476	-0.275378	0.961158	-0.844461	-0.510384	-0.162461
331	1227929													8.271753	-0.152788	5.306827	0.536869	-0.813734	-0.222730	-0.018291	-0.275167	0.961222	-0.843467	-0.511977	-0.162613
332	1228096													8.254263	-0.173121	5.332052	0.538402	-0.812843	-0.222280	-0.018169	-0.274911	0.961298	-0.842492	-0.513527	-0.162781
333	1228262													8.254717	-0.151948	5.344114	0.539919	-0.811961	-0.221824	-0.018031	-0.274634	0.961380	-0.841524	-0.515068	-0.162920
334	1228429													8.228909	-0.156325	5.363814	0.541459	-0.811064	-0.221351	-0.017886	-0.274339	0.961467	-0.840537	-0.516636	-0.163050
335	1228596													8.224075	-0.159090	5.374540	0.542944	-0.810184	-0.220936	-0.017692	-0.274070	0.961547	-0.839582	-0.518158	-0.163139
336	1228762													8.231789	-0.149237	5.384887	0.544528	-0.809231	-0.220533	-0.017517	-0.273847	0.961614	-0.838560	-0.519763	-0.163293
337	1228929													8.216761	-0.166781	5.423962	0.546177	-0.808227	-0.220135	-0.017326	-0.273638	0.961677	-0.837490	-0.521432	-0.163458
338	1229096													8.175616	-0.131614	5.421105	0.547783	-0.807239	-0.219768	-0.017129	-0.273452	0.961733	-0.836445	-0.523057	-0.163620
339	1229262													8.185779	-0.136764	5.417471	0.549331	-0.806294	-0.219376	-0.016935	-0.273224	0.961801	-0.835433	-0.524632	-0.163746
340	1229429													8.183054	-0.129168	5.410668	0.550852	-0.805353	-0.219017	-0.016751	-0.273035	0.961858	-0.834435	-0.526173	-0.163892
341	1229596													8.196873	-0.138051	5.432934	0.552402	-0.804380	-0.218688	-0.016537	-0.272872	0.961908	-0.833414	-0.527743	-0.164038
342	1229762													8.174410	-0.125574	5.438767	0.554057	-0.803325	-0.218381	-0.016313	-0.272752	0.961946	-0.832319	-0.529410	-0.164225
343	1229929													8.162030	-0.112725	5.480028	0.555745	-0.802261	-0.218003	-0.016138	-0.272588	0.961995	-0.831196	-0.531105	-0.164437
344	1230096													8.137343	-0.130411	5.508574	0.557325	-0.801261	-0.217648	-0.015974	-0.272432	0.962042	-0.830141	-0.532693	-0.164633
345	1230262													8.143646	-0.117602	5.514337	0.558861	-0.800281	-0.217310	-0.015800	-0.272282	0.962088	-0.829111	-0.534240	-0.164812
346	1230429													8.125447	-0.118015	5.519698	0.560325	-0.799350	-0.216967	-0.015647	-0.272120	0.962136	-0.828125	-0.535714	-0.164983
347	1230596													8.132576	-0.119479	5.510045	0.561684	-0.798484	-0.216644	-0.015493	-0.271958	0.962184	-0.827207	-0.537087	-0.165126
348	1230762													8.147704	-0.128642	5.507207	0.563108	-0.797579	-0.216279	-0.015361	-0.271775	0.962238	-0.826240	-0.538522	-0.165290
349	1230929													8.124835	-0.136622	5.546139	0.564669	-0.796590	-0.215854	-0.015238	-0.271559	0.962301	-0.825177	-0.540092	-0.165479
350	1231096													8.084165	-0.118285	5.580535	0.566095	-0.795675	-0.215494	-0.015080	-0.271367	0.962358	-0.824202	-0.541536	-0.165618
351	1231262													8.105717	-0.119867	5.541873	0.567322	-0.794881	-0.215195	-0.014907	-0.271189	0.962411	-0.823361	-0.542789	-0.165701
352	1231429													8.177267	-0.119965	5.480002	0.569007	-0.793764	-0.214871	-0.014748	-0.271103	0.962437	-0.822200	-0.544465	-0.165966
353	1231596													8.102903	-0.112322	5.589146	0.571533	-0.792084	-0.214364	-0.014566	-0.270987	0.962473	-0.820450	-0.546963	-0.166416
354	1231762													7.992437	-0.086422	5.739347	0.573823	-0.790544	-0.213934	-0.014364	-0.270894	0.962502	-0.818853	-0.549233	-0.166801
355	1231929													8.012000	-0.111708	5.682502	0.575882	-0.789167	-0.213485	-0.014235	-0.270774	0.962538	-0.817409	-0.551269	-0.167168
356	1232096													7.971868	-0.119836	5.769270	0.577780	-0.787908	-0.213005	-0.014181	-0.270625	0.962580	-0.816069	-0.553139	-0.167535
357	1232262													7.952055	-0.132075	5.757844	0.579372	-0.786848	-0.212597	-0.014121	-0.270486	0.962620	-0.814941	-0.554713	-0.167823
358	1232429													7.947313	-0.105900	5.751334	0.580837	-0.785861	-0.212250	-0.014032	-0.270371	0.962654	-0.813899	-0.556167	-0.168068
359	1232596													7.937122	-0.101588	5.770067	0.582250	-0.784891	-0.211970	-0.013906	-0.270300	0.962676	-0.812891	-0.557570	-0.168297
360	1232762													7.937709	-0.106719	5.769773	0.583601	-0.783968	-0.211668	-0.013793	-0.270194	0.962707	-0.811923	-0.558918	-0.168499
361	1232929													7.942854	-0.113292	5.779229	0.584961	-0.783039	-0.211355	-0.013692	-0.270088	0.962738	-0.810946	-0.560270	-0.168712
362	1233096													7.945027	-0.090960	5.787099	0.586410	-0.782042	-0.211028	-0.013627	-0.270012	0.962760	-0.809899	-0.561697	-0.168995
363	1233262													7.943893	-0.098004	5.802108	0.587953	-0.780972	-0.210698	-0.013543	-0.269944	0.962781	-0.808782	-0.563216	-0.169291
364	1233429													7.920968	-0.104204	5.823475	0.589480	-0.779905	-0.210384	-0.013427	-0.269871	0.962803	-0.807672	-0.564728	-0.169555
365	1233596													7.907199	-0.119700	5.842274	0.590962	-0.778857	-0.210108	-0.013300	-0.269825	0.962818	-0.806590	-0.566194	-0.169815
366	1233762													7.892511	-0.091229	5.891474	0.592319	-0.777901	-0.209830	-0.013189	-0.269756	0.962838	-0.805596	-0.567540	-0.170041
367	1233929													7.902220	-0.099710	5.841677	0.593182	-0.777313	-0.209569	-0.013159	-0.269638	0.962872	-0.804961	-0.568401	-0.170173
368	1234096													7.988834	-0.125362	5.765150	0.594593	-0.776338	-0.209187	-0.013132	-0.269516	0.962906	-0.803920	-0.569790	-0.170447
369	1234262													7.855797	-0.105402	5.869620	0.596217	-0.775201	-0.208780	-0.013039	-0.269373	0.962948	-0.802717	-0.571404	-0.170713
370	1234429													7.926449	-0.073653	5.822110	0.597604	-0.774217	-0.208464	-0.012937	-0.269275	0.962977	-0.801687	-0.572782	-0.170936
371	1234596													7.912142	-0.094416	5.860879	0.599431	-0.772911	-0.208068	-0.012853	-0.269207	0.962997	-0.800324	-0.574575	-0.171305
372	1234762													7.844021	-0.099069	5.928798	0.601121	-0.771688	-0.207729	-0.012771	-0.269177	0.963006	-0.799056	-0.576230	-0.171663
373	1234929													7.869097	-0.104762	5.905766	0.602750	-0.770507	-0.207394	-0.012693	-0.269140	0.963017	-0.797829	-0.577826	-0.172004
374	1235096													7.847556	-0.082645	5.952506	0.604557	-0.769183	-0.207049	-0.012655	-0.269170	0.963010	-0.796461	-0.579574	-0.172462
375	1235262													7.803952	-0.088666	5.986538	0.606283	-0.767926	-0.206664	-0.012644	-0.269149	0.963016	-0.795148	-0.581247	-0.172890
376	1235429													7.835927	-0.097046	5.973238	0.608061	-0.766622	-0.206282	-0.012635	-0.269149	0.963016	-0.793790	-0.582966	-0.173345
377	1235596													7.816840	-0.072712	5.996012	0.610057	-0.765165	-0.205799	-0.012672	-0.269119	0.963024	-0.792256	-0.584892	-0.173874
378	1235762													7.791045	-0.088119	6.049332	0.612102	-0.763660	-0.205316	-0.012724	-0.269115	0.963024	-0.790677	-0.586856	-0.174443
379	1235929													7.770612	-0.086240	6.031782	0.614237	-0.762089	-0.204778	-0.012837	-0.269116	0.963022	-0.789017	-0.588895	-0.175084
380	1236096													7.768342	-0.085751	6.065410	0.616439	-0.760449	-0.204254	-0.012956	-0.269163	0.963008	-0.787296	-0.590989	-0.175775
381	1236262													7.747538	-0.083023	6.071160	0.618800	-0.758673	-0.203721	-0.013071	-0.269244	0.962983	-0.785440	-0.593231	-0.176525
382	1236429													7.721149	-0.086423	6.105929	0.621122	-0.756929	-0.203141	-0.013207	-0.269275	0.962973	-0.783603	-0.595440	-0.177249
383	1236596													7.706525	-0.086190	6.097301	0.623321	-0.755293	-0.202494	-0.013391	-0.269227	0.962984	-0.781852	-0.597536	-0.177929
384	1236762													7.715723	-0.084706	6.103930	0.625643	-0.753545	-0.201843	-0.013602	-0.269235	0.962978	-0.779991	-0.599735	-0.178695
385	1236929													7.689238	-0.089221	6.142353	0.628208	-0.751589	-0.201168	-0.013806	-0.269284	0.962962	-0.777923	-0.602163	-0.179543
386	1237096													7.649798	-0.109052	6.188350	0.631057	-0.749408	-0.200386	-0.014025	-0.269297	0.962955	-0.775610	-0.604869	-0.180452
387	1237262													7.609358	-0.111657	6.242560	0.633951	-0.747183	-0.199558	-0.014263	-0.269288	0.962954	-0.773241	-0.607620	-0.181372
388	1237429													7.590566	-0.125310	6.275398	0.636917	-0.744880	-0.198722	-0.014458	-0.269265	0.962958	-0.770796	-0.610451	-0.182269
389	1237596													7.541200	-0.134370	6.333391	0.639884	-0.742563	-0.197863	-0.014669	-0.269232	0.962964	-0.768332	-0.613282	-0.183170
390	1237762													7.503299	-0.123506	6.326578	0.642616	-0.740408	-0.197081	-0.014854	-0.269213	0.962966	-0.766045	-0.615889	-0.183999
391	1237929													7.527310	-0.145915	6.310012	0.645318	-0.738250	-0.196347	-0.015012	-0.269233	0.962958	-0.763766	-0.618467	-0.184824
392	1238096													7.476582	-0.126138	6.348575	0.648063	-0.736027	-0.195649	-0.015124	-0.269284	0.962942	-0.761436	-0.621088	-0.185645
393	1238262													7.431299	-0.125727	6.377853	0.650649	-0.733928	-0.194952	-0.015249	-0.269301	0.962935	-0.759225	-0.623560	-0.186412
394	1238429													7.428740	-0.133243	6.416762	0.653168	-0.731868	-0.194268	-0.015387	-0.269332	0.962924	-0.757056	-0.625963	-0.187181
395	1238596													7.415027	-0.136361	6.445308	0.655774	-0.729732	-0.193522	-0.015549	-0.269335	0.962921	-0.754797	-0.628450	-0.187970
396	1238762													7.390740	-0.162049	6.512664	0.658382	-0.727574	-0.192792	-0.015711	-0.269368	0.962909	-0.752520	-0.630933	-0.188779
397	1238929													7.363525	-0.150621	6.526195	0.661083	-0.725324	-0.192027	-0.015862	-0.269383	0.962903	-0.750145	-0.633512	-0.189589
398	1239096													7.344841	-0.178222	6.567345	0.663872	-0.722979	-0.191246	-0.016013	-0.269413	0.962892	-0.747674	-0.636175	-0.190433
399	1239262													7.322093	-0.146439	6.580166	0.666788	-0.720497	-0.190470	-0.016142	-0.269482	0.962870	-0.745073	-0.638956	-0.191317
400	1239429													7.280670	-0.154074	6.641540	0.669816	-0.717898	-0.189652	-0.016266	-0.269540	0.962852	-0.742349	-0.641849	-0.192220
401	1239596													7.239129	-0.156864	6.657936	0.672773	-0.715372	-0.188730	-0.016458	-0.269501	0.962859	-0.739666	-0.644680	-0.193087
402	1239762													7.246560	-0.156514	6.660264	0.675540	-0.712981	-0.187894	-0.016563	-0.269443	0.962874	-0.737137	-0.647348	-0.193829
403	1239929													7.200519	-0.143057	6.638581	0.678191	-0.710669	-0.187100	-0.016659	-0.269400	0.962884	-0.734697	-0.649902	-0.194544
404	1240096													7.222703	-0.170318	6.651933	0.680913	-0.708253	-0.186375	-0.016719	-0.269450	0.962869	-0.732173	-0.652514	-0.195314
405	1240262													7.265206	-0.148311	6.643664	0.684123	-0.705407	-0.185409	-0.016853	-0.269427	0.962873	-0.729171	-0.655599	-0.196210
406	1240429													7.156996	-0.114979	6.756011	0.687627	-0.702276	-0.184331	-0.016962	-0.269345	0.962894	-0.725866	-0.658986	-0.197121
407	1240596													7.124944	-0.145440	6.785872	0.690937	-0.699290	-0.183299	-0.017108	-0.269301	0.962904	-0.722712	-0.662171	-0.198034
408	1240763													7.094260	-0.180980	6.801274	0.694113	-0.696425	-0.182206	-0.017320	-0.269194	0.962930	-0.719657	-0.665227	-0.198913
409	1240929													7.060185	-0.183602	6.815762	0.697154	-0.693648	-0.181187	-0.017520	-0.269137	0.962942	-0.716708	-0.668145	-0.199783
410	1241096													6.999652	-0.153922	6.842957	0.700182	-0.690849	-0.180202	-0.017661	-0.269079	0.962956	-0.713746	-0.671062	-0.200605
411	1241263													6.970743	-0.162645	6.894177	0.703159	-0.688067	-0.179252	-0.017813	-0.269069	0.962956	-0.710810	-0.673918	-0.201455
412	1241429													6.924570	-0.183998	6.934552	0.706079	-0.685305	-0.178351	-0.017912	-0.269064	0.962956	-0.707906	-0.676728	-0.202256
413	1241596													6.894265	-0.182571	6.965914	0.708930	-0.682583	-0.177476	-0.017980	-0.269050	0.962958	-0.705049	-0.679480	-0.203010
414	1241763													6.866968	-0.168381	6.986505	0.711716	-0.679903	-0.176614	-0.018032	-0.269020	0.962966	-0.702236	-0.682173	-0.203725
415	1241929													6.829196	-0.164839	7.016979	0.714369	-0.677326	-0.175803	-0.018083	-0.269014	0.962966	-0.699536	-0.684734	-0.204424
416	1242096													6.806547	-0.161463	7.054705	0.716909	-0.674847	-0.174994	-0.018148	-0.268988	0.962973	-0.696931	-0.687188	-0.205087
417	1242263													6.777738	-0.157253	7.087084	0.719316	-0.672480	-0.174227	-0.018202	-0.268959	0.962980	-0.694445	-0.689515	-0.205707
418	1242429													6.742853	-0.171059	7.135386	0.721579	-0.670249	-0.173465	-0.018258	-0.268886	0.962999	-0.692091	-0.691713	-0.206260
419	1242596													6.726761	-0.182954	7.141896	0.723474	-0.668373	-0.172810	-0.018305	-0.268806	0.963021	-0.690109	-0.693557	-0.206708
420	1242763													6.773408	-0.203193	7.080891	0.725590	-0.666240	-0.172171	-0.018296	-0.268793	0.963024	-0.687884	-0.695611	-0.207223
421	1242929													6.661223	-0.162718	7.216706	0.727805	-0.663967	-0.171604	-0.018195	-0.268837	0.963014	-0.685543	-0.697763	-0.207742
422	1243096													6.709227	-0.161806	7.158372	0.729830	-0.661849	-0.171187	-0.017991	-0.268918	0.962995	-0.683392	-0.699742	-0.208172
423	1243263													6.655095	-0.171817	7.215743	0.731991	-0.659582	-0.170708	-0.017802	-0.268988	0.962979	-0.681082	-0.701853	-0.208639
424	1243429													6.647815	-0.187507	7.227185	0.734057	-0.657406	-0.170226	-0.017661	-0.269065	0.962960	-0.678858	-0.703862	-0.209119
425	1243596													6.621376	-0.181847	7.262592	0.736180	-0.655169	-0.169684	-0.017541	-0.269108	0.962950	-0.676558	-0.705928	-0.209604
426	1243763													6.570255	-0.178023	7.303822	0.738240	-0.652987	-0.169141	-0.017439	-0.269144	0.962942	-0.674312	-0.707933	-0.210080
427	1243929													6.570023	-0.162332	7.304759	0.740229	-0.650888	-0.168542	-0.017388	-0.269123	0.962949	-0.672130	-0.709872	-0.210530
428	1244096													6.551485	-0.151815	7.340512	0.742109	-0.648889	-0.167980	-0.017336	-0.269110	0.962953	-0.670055	-0.711704	-0.210958
429	1244263													6.536015	-0.155651	7.337742	0.743890	-0.646992	-0.167417	-0.017318	-0.269090	0.962959	-0.668077	-0.713437	-0.211378
430	1244429													6.541016	-0.164486	7.311194	0.745605	-0.645140	-0.166937	-0.017256	-0.269117	0.962953	-0.666165	-0.715101	-0.211788
431	1244596													6.514139	-0.139596	7.332423	0.747327	-0.643271	-0.166448	-0.017170	-0.269114	0.962955	-0.664235	-0.716784	-0.212161
432	1244763													6.492848	-0.152791	7.383107	0.748956	-0.641502	-0.165950	-0.017145	-0.269124	0.962953	-0.662398	-0.718365	-0.212560
433	1244929													6.485070	-0.148401	7.369566	0.750502	-0.639815	-0.165477	-0.017152	-0.269167	0.962941	-0.660645	-0.719851	-0.212984
434	1245096													6.468864	-0.144391	7.379289	0.752057	-0.638113	-0.164988	-0.017176	-0.269214	0.962927	-0.658874	-0.721343	-0.213425
435	1245263													6.463425	-0.148693	7.411384	0.753579	-0.636442	-0.164500	-0.017204	-0.269253	0.962916	-0.657132	-0.722803	-0.213853
436	1245429													6.424136	-0.153270	7.425870	0.755063	-0.634814	-0.163984	-0.017263	-0.269271	0.962910	-0.655425	-0.724227	-0.214276
437	1245596													6.403876	-0.128170	7.418117	0.756518	-0.633211	-0.163478	-0.017307	-0.269275	0.962908	-0.653744	-0.725627	-0.214671
438	1245763													6.385788	-0.139765	7.502739	0.757984	-0.631582	-0.162984	-0.017321	-0.269272	0.962908	-0.652043	-0.727046	-0.215044
439	1245929													6.365265	-0.101241	7.525796	0.759338	-0.630064	-0.162557	-0.017305	-0.269287	0.962905	-0.650466	-0.728357	-0.215383
440	1246096													6.313077	-0.089595	7.535646	0.760568	-0.628695	-0.162107	-0.017304	-0.269220	0.962923	-0.649028	-0.729563	-0.215639
441	1246263													6.295235	-0.078530	7.539347	0.761683	-0.627448	-0.161701	-0.017292	-0.269153	0.962942	-0.647719	-0.730661	-0.215859
442	1246429													6.283822	-0.078301	7.548527	0.762697	-0.626324	-0.161280	-0.017299	-0.269034	0.962975	-0.646525	-0.731668	-0.216026
443	1246596													6.283978	-0.103263	7.521307	0.763637	-0.625280	-0.160883	-0.017317	-0.268928	0.963005	-0.645414	-0.732600	-0.216191
444	1246763													6.252364	-0.105811	7.492414	0.764510	-0.624315	-0.160486	-0.017338	-0.268790	0.963043	-0.644379	-0.733473	-0.216317
445	1246929													6.250261	-0.126572	7.525781	0.765342	-0.623419	-0.160002	-0.017464	-0.268619	0.963088	-0.643387	-0.734297	-0.216473
446	1247096													6.234470	-0.139292	7.504580	0.766135	-0.622576	-0.159486	-0.017618	-0.268411	0.963143	-0.642438	-0.735088	-0.216608
447	1247263													6.246464	-0.164713	7.556470	0.766863	-0.621820	-0.158937	-0.017827	-0.268181	0.963204	-0.641563	-0.735812	-0.216743
448	1247429													6.257872	-0.158157	7.578818	0.767539	-0.621110	-0.158451	-0.018034	-0.268018	0.963245	-0.640749	-0.736470	-0.216916
449	1247596													6.254991	-0.180786	7.586403	0.768135	-0.620485	-0.158010	-0.018228	-0.267871	0.963282	-0.640029	-0.737050	-0.217072
450	1247763													6.265167	-0.198979	7.574168	0.768634	-0.619962	-0.157636	-0.018429	-0.267784	0.963303	-0.639424	-0.737522	-0.217253
451	1247929													6.277547	-0.217658	7.579658	0.769082	-0.619478	-0.157350	-0.018594	-0.267768	0.963304	-0.638879	-0.737934	-0.217454
452	1248096													6.259961	-0.207250	7.562749	0.769542	-0.618991	-0.157017	-0.018826	-0.267761	0.963301	-0.638318	-0.738345	-0.217707
453	1248263													6.272356	-0.213386	7.563821	0.769958	-0.618534	-0.156782	-0.019024	-0.267847	0.963274	-0.637811	-0.738698	-0.217998
454	1248429													6.248343	-0.204078	7.579067	0.770386	-0.618028	-0.156676	-0.019141	-0.268044	0.963216	-0.637290	-0.739050	-0.218327
455	1248596													6.270483	-0.198015	7.559212	0.770744	-0.617605	-0.156582	-0.019312	-0.268287	0.963145	-0.636852	-0.739315	-0.218708
456	1248763													6.311798	-0.221801	7.528849	0.771317	-0.616941	-0.156377	-0.019544	-0.268544	0.963069	-0.636151	-0.739775	-0.219190
457	1248929													6.262878	-0.209978	7.619311	0.772070	-0.616061	-0.156132	-0.019767	-0.268827	0.962986	-0.635230	-0.740406	-0.219731
458	1249096													6.257778	-0.178809	7.589204	0.772732	-0.615288	-0.155901	-0.019993	-0.269090	0.962908	-0.634417	-0.740953	-0.220236
459	1249263													6.243864	-0.205551	7.646676	0.773400	-0.614526	-0.155600	-0.020263	-0.269297	0.962844	-0.633595	-0.741510	-0.220726
460	1249429													6.222381	-0.224733	7.609741	0.773911	-0.613956	-0.155307	-0.020601	-0.269514	0.962776	-0.632960	-0.741903	-0.221228
461	1249596													6.203673	-0.225806	7.599045	0.774400	-0.613416	-0.155004	-0.020930	-0.269692	0.962719	-0.632350	-0.742285	-0.221688
462	1249763													6.191290	-0.241888	7.615302	0.774864	-0.612894	-0.154748	-0.021204	-0.269869	0.962664	-0.631772	-0.742652	-0.222107
463	1249929													6.175629	-0.222248	7.612672	0.775357	-0.612332	-0.154503	-0.021402	-0.269987	0.962626	-0.631161	-0.743072	-0.222441
464	1250096													6.147082	-0.245169	7.626141	0.775843	-0.611774	-0.154270	-0.021555	-0.270073	0.962599	-0.630557	-0.743500	-0.222721
465	1250263													6.138147	-0.252746	7.626887	0.776316	-0.611219	-0.154092	-0.021651	-0.270169	0.962569	-0.629972	-0.743922	-0.222970
466	1250429													6.142955	-0.254539	7.653220	0.776798	-0.610652	-0.153916	-0.021717	-0.270238	0.962549	-0.629376	-0.744363	-0.223182
467	1250596													6.136955	-0.245224	7.656453	0.777273	-0.610082	-0.153777	-0.021732	-0.270301	0.962530	-0.628788	-0.744807	-0.223356
468	1250763													6.137413	-0.234512	7.681405	0.777671	-0.609600	-0.153672	-0.021736	-0.270366	0.962512	-0.628295	-0.745178	-0.223506
469	1250929													6.132590	-0.228007	7.702172	0.778003	-0.609199	-0.153583	-0.021735	-0.270411	0.962500	-0.627884	-0.745489	-0.223622
470	1251096													6.099212	-0.235426	7.726372	0.778150	-0.609012	-0.153577	-0.021684	-0.270423	0.962497	-0.627703	-0.745638	-0.223636
471	1251263													6.138175	-0.239443	7.639522	0.778030	-0.609153	-0.153630	-0.021684	-0.270438	0.962493	-0.627853	-0.745517	-0.223618
472	1251429													6.083557	-0.262271	7.650191	0.777927	-0.609259	-0.153732	-0.021628	-0.270475	0.962484	-0.627983	-0.745417	-0.223587
473	1251596													6.088032	-0.208535	7.653815	0.777553	-0.609653	-0.154058	-0.021463	-0.270585	0.962457	-0.628450	-0.745055	-0.223479
474	1251763													6.115105	-0.196363	7.655252	0.777184	-0.610064	-0.154298	-0.021331	-0.270600	0.962455	-0.628912	-0.744713	-0.223319
475	1251929													6.094570	-0.169596	7.662743	0.776631	-0.610710	-0.154520	-0.021282	-0.270583	0.962461	-0.629596	-0.744189	-0.223141
476	1252096													6.087526	-0.186107	7.684813	0.776124	-0.611313	-0.154689	-0.021277	-0.270559	0.962468	-0.630222	-0.743703	-0.222994
477	1252263													6.086994	-0.194210	7.665819	0.775465	-0.612096	-0.154895	-0.021289	-0.270531	0.962476	-0.631032	-0.743069	-0.222818
478	1252429													6.095191	-0.193943	7.685299	0.774732	-0.612965	-0.155127	-0.021305	-0.270509	0.962482	-0.631931	-0.742360	-0.222631
479	1252596													6.112288	-0.187063	7.672958	0.773827	-0.614021	-0.155466	-0.021266	-0.270497	0.962486	-0.633040	-0.741491	-0.222376
480	1252763													6.126710	-0.194085	7.647659	0.772845	-0.615156	-0.155861	-0.021192	-0.270490	0.962490	-0.634241	-0.740552	-0.222083
481	1252929													6.148541	-0.176166	7.623898	0.771785	-0.616371	-0.156313	-0.021039	-0.270439	0.962507	-0.635535	-0.739560	-0.221689
482	1253096													6.188491	-0.188602	7.638254	0.770675	-0.617643	-0.156772	-0.020906	-0.270395	0.962522	-0.636886	-0.738514	-0.221299
483	1253263													6.221652	-0.193872	7.590266	0.769567	-0.618916	-0.157192	-0.020797	-0.270326	0.962544	-0.638227	-0.737473	-0.220905
484	1253429													6.216345	-0.180426	7.569055	0.768444	-0.620207	-0.157599	-0.020719	-0.270266	0.962563	-0.639582	-0.736410	-0.220534
485	1253596													6.263863	-0.182522	7.583850	0.767373	-0.621430	-0.157995	-0.020622	-0.270198	0.962584	-0.640869	-0.735403	-0.220158
486	1253763													6.292456	-0.170638	7.578077	0.766306	-0.622653	-0.158359	-0.020593	-0.270161	0.962595	-0.642145	-0.734381	-0.219848
487	1253929													6.316998	-0.180077	7.534854	0.765165	-0.623952	-0.158763	-0.020542	-0.270124	0.962606	-0.643506	-0.733291	-0.219507
488	1254096													6.324331	-0.198047	7.484642	0.763980	-0.625268	-0.159290	-0.020405	-0.270158	0.962600	-0.644917	-0.732157	-0.219154
489	1254263													6.337936	-0.193015	7.495708	0.762734	-0.626668	-0.159760	-0.020321	-0.270136	0.962608	-0.646393	-0.730967	-0.218777
490	1254429													6.357130	-0.195136	7.442766	0.761447	-0.628118	-0.160209	-0.020303	-0.270137	0.962608	-0.647910	-0.729722	-0.218448
491	1254596													6.356430	-0.204425	7.486266	0.760058	-0.629727	-0.160484	-0.020481	-0.270043	0.962630	-0.649532	-0.728368	-0.218146
492	1254763													6.366815	-0.203013	7.464186	0.758467	-0.631589	-0.160695	-0.020786	-0.269892	0.962666	-0.651380	-0.726810	-0.217833
493	1254929													6.401538	-0.218123	7.434080	0.756772	-0.633541	-0.161003	-0.021035	-0.269779	0.962693	-0.653340	-0.725152	-0.217488
494	1255096													6.391456	-0.206173	7.454825	0.755019	-0.635538	-0.161360	-0.021282	-0.269710	0.962706	-0.655357	-0.723427	-0.217162
495	1255263													6.424194	-0.196302	7.403165	0.753139	-0.637643	-0.161843	-0.021474	-0.269711	0.962702	-0.657511	-0.721573	-0.216823
496	1255429													6.453640	-0.207151	7.415842	0.751203	-0.639789	-0.162371	-0.021643	-0.269732	0.962692	-0.659716	-0.719663	-0.216470
497	1255596													6.451442	-0.208269	7.412266	0.749140	-0.642059	-0.162941	-0.021790	-0.269734	0.962688	-0.662054	-0.717637	-0.216059
498	1255763													6.484445	-0.208129	7.365750	0.747013	-0.644377	-0.163552	-0.021903	-0.269734	0.962686	-0.664448	-0.715557	-0.215608
499	1255929													6.493137	-0.191055	7.361585	0.744844	-0.646747	-0.164089	-0.022066	-0.269664	0.962702	-0.666874	-0.713442	-0.215128
500	1256096													6.514067	-0.207380	7.335408	0.742567	-0.649248	-0.164535	-0.022312	-0.269502	0.962741	-0.669400	-0.711228	-0.214609
501	1256263													6.539619	-0.221252	7.310028	0.740262	-0.651750	-0.165030	-0.022541	-0.269385	0.962769	-0.671941	-0.708981	-0.214107
502	1256429													6.567987	-0.213660	7.288449	0.737959	-0.654204	-0.165633	-0.022660	-0.269321	0.962784	-0.674465	-0.706742	-0.213572
503	1256596													6.590368	-0.210497	7.277781	0.735697	-0.656614	-0.166156	-0.022795	-0.269181	0.962820	-0.676927	-0.704556	-0.213003
504	1256763													6.601967	-0.261807	7.263620	0.733415	-0.659032	-0.166673	-0.022931	-0.269031	0.962858	-0.679395	-0.702352	-0.212424
505	1256929													6.641902	-0.232907	7.198536	0.731092	-0.661427	-0.167391	-0.022898	-0.268988	0.962871	-0.681895	-0.700114	-0.211800
506	1257096													6.640760	-0.221603	7.222744	0.728603	-0.663966	-0.168188	-0.022779	-0.268906	0.962897	-0.684557	-0.697738	-0.211051
507	1257263													6.719231	-0.221040	7.116200	0.726162	-0.666453	-0.168906	-0.022731	-0.268812	0.962925	-0.687148	-0.695400	-0.210350
508	1257430													6.722437	-0.231820	7.156142	0.724066	-0.668555	-0.169597	-0.022640	-0.268793	0.962932	-0.689359	-0.693387	-0.209760
509	1257596													6.717593	-0.224894	7.184207	0.721823	-0.670786	-0.170348	-0.022511	-0.268767	0.962942	-0.691712	-0.691239	-0.209102
510	1257763													6.761876	-0.233598	7.135939	0.719461	-0.673134	-0.171074	-0.022419	-0.268694	0.962965	-0.694171	-0.688980	-0.208406
511	1257930													6.752851	-0.247509	7.117791	0.716937	-0.675655	-0.171733	-0.022419	-0.268558	0.963003	-0.696778	-0.686562	-0.207686
512	1258096													6.792934	-0.249566	7.105386	0.714091	-0.678467	-0.172501	-0.022425	-0.268454	0.963031	-0.699694	-0.683823	-0.206915
513	1258263													6.803134	-0.254098	7.045317	0.711140	-0.681348	-0.173333	-0.022396	-0.268374	0.963054	-0.702693	-0.680985	-0.206111
514	1258430													6.842221	-0.255383	6.999849	0.707973	-0.684394	-0.174297	-0.022284	-0.268321	0.963072	-0.705888	-0.677945	-0.205214
515	1258596													6.899285	-0.248737	6.951351	0.704659	-0.687551	-0.175300	-0.022170	-0.268273	0.963088	-0.709200	-0.674762	-0.204284
516	1258763													6.943878	-0.247153	6.886208	0.701307	-0.690695	-0.176375	-0.021999	-0.268271	0.963092	-0.712520	-0.671543	-0.203335
517	1258930													6.993317	-0.255112	6.880080	0.697906	-0.693841	-0.177516	-0.021809	-0.268336	0.963078	-0.715857	-0.668267	-0.202405
518	1259096													7.026040	-0.241768	6.848223	0.694499	-0.696942	-0.178723	-0.021541	-0.268431	0.963058	-0.719171	-0.664993	-0.201438
519	1259263													7.059202	-0.235565	6.835255	0.691032	-0.700086	-0.179875	-0.021312	-0.268476	0.963051	-0.722510	-0.661665	-0.200445
520	1259430													7.102918	-0.229909	6.799140	0.687473	-0.703259	-0.181126	-0.021014	-0.268573	0.963030	-0.725905	-0.658251	-0.199415
521	1259596													7.135465	-0.225033	6.777722	0.683893	-0.706426	-0.182351	-0.020685	-0.268613	0.963026	-0.729289	-0.654835	-0.198315
522	1259763													7.126556	-0.229790	6.727860	0.679939	-0.709910	-0.183604	-0.020483	-0.268681	0.963011	-0.732983	-0.651028	-0.197228
523	1259930													7.263105	-0.236043	6.621911	0.676042	-0.713278	-0.184937	-0.020230	-0.268851	0.962969	-0.736585	-0.647266	-0.196184
524	1260096													7.243965	-0.200774	6.634142	0.672464	-0.716312	-0.186253	-0.019888	-0.269046	0.962922	-0.739863	-0.643826	-0.195170
525	1260263													7.277387	-0.188513	6.598177	0.668741	-0.719407	-0.187721	-0.019449	-0.269325	0.962853	-0.743241	-0.640248	-0.194100
526	1260430													7.347014	-0.193655	6.567209	0.665211	-0.722320	-0.189073	-0.019031	-0.269547	0.962799	-0.746413	-0.636867	-0.193052
527	1260596													7.367627	-0.181345	6.530007	0.661784	-0.725136	-0.190313	-0.018680	-0.269725	0.962756	-0.749462	-0.633582	-0.192045
528	1260763													7.403151	-0.184380	6.489193	0.658344	-0.727940	-0.191539	-0.018360	-0.269917	0.962709	-0.752494	-0.630276	-0.191063
529	1260930													7.447622	-0.173418	6.457959	0.655011	-0.730624	-0.192740	-0.018066	-0.270146	0.962650	-0.755403	-0.627065	-0.190148
530	1261096													7.442950	-0.175336	6.440598	0.651741	-0.733228	-0.193935	-0.017771	-0.270395	0.962586	-0.758234	-0.623910	-0.189257
531	1261263													7.472935	-0.150305	6.367673	0.648367	-0.735890	-0.195158	-0.017458	-0.270643	0.962522	-0.761128	-0.620660	-0.188323
532	1261430													7.531304	-0.149883	6.319313	0.644954	-0.738563	-0.196366	-0.017123	-0.270850	0.962469	-0.764029	-0.617386	-0.187332
533	1261596													7.591709	-0.134954	6.257899	0.641569	-0.741182	-0.197578	-0.016777	-0.271074	0.962412	-0.766881	-0.614140	-0.186348
534	1261763													7.617805	-0.130427	6.255264	0.638357	-0.743645	-0.198727	-0.016472	-0.271313	0.962350	-0.769564	-0.611050	-0.185444
535	1261930													7.623411	-0.145764	6.205812	0.635244	-0.746009	-0.199840	-0.016170	-0.271546	0.962290	-0.772142	-0.608057	-0.184561
536	1262096													7.647398	-0.140996	6.172536	0.632125	-0.748352	-0.200966	-0.015896	-0.271825	0.962216	-0.774704	-0.605046	-0.183723
537	1262263													7.679707	-0.135497	6.131685	0.629019	-0.750672	-0.202053	-0.015638	-0.272078	0.962148	-0.777232	-0.602050	-0.182881
538	1262430													7.709678	-0.125342	6.125368	0.625967	-0.752940	-0.203091	-0.015407	-0.272312	0.962086	-0.779697	-0.599105	-0.182059
539	1262596													7.739184	-0.145054	6.089127	0.622902	-0.755211	-0.204082	-0.015223	-0.272527	0.962028	-0.782151	-0.596143	-0.181255
540	1262763													7.725925	-0.136822	6.057457	0.619849	-0.757443	-0.205101	-0.015065	-0.272806	0.961951	-0.784576	-0.593175	-0.180509
541	1262930													7.773430	-0.138146	6.058281	0.616930	-0.759558	-0.206083	-0.014904	-0.273081	0.961876	-0.786877	-0.590338	-0.179792
542	1263096													7.764036	-0.128740	6.029202	0.614080	-0.761612	-0.207008	-0.014792	-0.273346	0.961802	-0.789105	-0.587562	-0.179122
543	1263263													7.759614	-0.144897	6.028961	0.611235	-0.763630	-0.207993	-0.014666	-0.273683	0.961708	-0.791313	-0.584779	-0.178484
544	1263430													7.786811	-0.146038	6.019196	0.608354	-0.765664	-0.208960	-0.014551	-0.274000	0.961620	-0.793532	-0.581965	-0.177830
545	1263596													7.803286	-0.141734	5.993095	0.605451	-0.767697	-0.209930	-0.014430	-0.274315	0.961532	-0.795752	-0.579131	-0.177162
546	1263763													7.818379	-0.133492	5.939952	0.602495	-0.769766	-0.210855	-0.014322	-0.274573	0.961460	-0.797994	-0.576255	-0.176453
547	1263930													7.845723	-0.137714	5.904602	0.599495	-0.771858	-0.211759	-0.014212	-0.274797	0.961397	-0.800253	-0.573343	-0.175709
548	1264096													7.883357	-0.127293	5.849550	0.596621	-0.773839	-0.212641	-0.014113	-0.275042	0.961329	-0.802399	-0.570548	-0.175017
549	1264263													7.881936	-0.125850	5.865005	0.593841	-0.775748	-0.213464	-0.014057	-0.275272	0.961263	-0.804459	-0.567838	-0.174373
550	1264430													7.897912	-0.127092	5.836603	0.591033	-0.777679	-0.214231	-0.014036	-0.275457	0.961211	-0.806525	-0.565100	-0.173720
551	1264596													7.883307	-0.114385	5.810870	0.588221	-0.779606	-0.214965	-0.014043	-0.275622	0.961163	-0.808578	-0.562358	-0.173075
552	1264763													7.954934	-0.132085	5.809125	0.585407	-0.781531	-0.215656	-0.014078	-0.275759	0.961124	-0.810617	-0.559613	-0.172434
553	1264930													7.963186	-0.128281	5.768903	0.582683	-0.783386	-0.216303	-0.014129	-0.275878	0.961089	-0.812577	-0.556954	-0.171818
554	1265096													7.962141	-0.140621	5.743241	0.579886	-0.785262	-0.217016	-0.014146	-0.276042	0.961042	-0.814575	-0.554225	-0.171181
555	1265263													8.013416	-0.101992	5.704381	0.577053	-0.787213	-0.217500	-0.014282	-0.275999	0.961052	-0.816582	-0.551471	-0.170509
556	1265430													8.031294	-0.071687	5.651469	0.574329	-0.789159	-0.217656	-0.014548	-0.275677	0.961140	-0.818495	-0.548845	-0.169810
557	1265596													8.066178	-0.121838	5.642034	0.571443	-0.791255	-0.217642	-0.014907	-0.275175	0.961279	-0.820506	-0.546071	-0.169042
558	1265763													8.070807	-0.149417	5.569055	0.568478	-0.793366	-0.217722	-0.015215	-0.274737	0.961399	-0.822557	-0.543222	-0.168253
559	1265930													8.109525	-0.175279	5.523909	0.565603	-0.795378	-0.217871	-0.015505	-0.274398	0.961491	-0.824532	-0.540444	-0.167532
560	1266096													8.190810	-0.146487	5.524080	0.563055	-0.797114	-0.218125	-0.015734	-0.274232	0.961535	-0.826270	-0.537965	-0.166950
561	1266263													8.115665	-0.128892	5.579883	0.560495	-0.798838	-0.218411	-0.015908	-0.274068	0.961579	-0.828005	-0.535485	-0.166322
562	1266430													8.122683	-0.155654	5.531246	0.557747	-0.800651	-0.218805	-0.016072	-0.273986	0.961599	-0.829855	-0.532813	-0.165683
563	1266596													8.131753	-0.188179	5.513583	0.555060	-0.802425	-0.219140	-0.016269	-0.273872	0.961629	-0.831651	-0.530196	-0.165070
564	1266763													8.140617	-0.184753	5.486831	0.552120	-0.804338	-0.219552	-0.016416	-0.273763	0.961657	-0.833603	-0.527346	-0.164354
565	1266930													8.218872	-0.177884	5.414771	0.549160	-0.806221	-0.220070	-0.016500	-0.273739	0.961662	-0.835554	-0.524476	-0.163629
566	1267096													8.221070	-0.179700	5.370697	0.546301	-0.808003	-0.220649	-0.016552	-0.273796	0.961645	-0.837425	-0.521696	-0.162949
567	1267263													8.179576	-0.177075	5.383925	0.543402	-0.809801	-0.221217	-0.016597	-0.273831	0.961634	-0.839308	-0.518883	-0.162241
568	1267430													8.224704	-0.171672	5.346691	0.540531	-0.811575	-0.221746	-0.016670	-0.273848	0.961628	-0.841159	-0.516093	-0.161552
569	1267596													8.268511	-0.180618	5.302965	0.537780	-0.813226	-0.222388	-0.016711	-0.274009	0.961582	-0.842920	-0.513403	-0.160947
570	1267763													8.285573	-0.186277	5.268630	0.535144	-0.814772	-0.223086	-0.016724	-0.274249	0.961513	-0.844595	-0.510817	-0.160389
571	1267930													8.322806	-0.177917	5.261899	0.532539	-0.816272	-0.223835	-0.016715	-0.274545	0.961429	-0.846241	-0.508257	-0.159850
572	1268096													8.319806	-0.184641	5.249779	0.529898	-0.817808	-0.224496	-0.016737	-0.274749	0.961370	-0.847896	-0.505671	-0.159276
573	1268263													8.355621	-0.175581	5.207757	0.527246	-0.819330	-0.225190	-0.016715	-0.274969	0.961308	-0.849548	-0.503082	-0.158671
574	1268430													8.335853	-0.186865	5.172314	0.524471	-0.820924	-0.225862	-0.016719	-0.275153	0.961255	-0.851264	-0.500375	-0.158035
575	1268596													8.470058	-0.187288	5.050373	0.521750	-0.822476	-0.226520	-0.016727	-0.275338	0.961202	-0.852935	-0.497718	-0.157415
576	1268763													8.405898	-0.150936	5.091204	0.519290	-0.823837	-0.227225	-0.016636	-0.275580	0.961134	-0.854436	-0.495327	-0.156811
577	1268930													8.453152	-0.159909	5.058589	0.516680	-0.825268	-0.227980	-0.016520	-0.275836	0.961063	-0.856019	-0.492795	-0.156152
578	1269096													8.458767	-0.175610	5.029771	0.514249	-0.826567	-0.228769	-0.016395	-0.276167	0.960970	-0.857484	-0.490427	-0.155570
579	1269263													8.444037	-0.171222	5.020113	0.511840	-0.827865	-0.229475	-0.016333	-0.276447	0.960890	-0.858925	-0.488074	-0.155019
580	1269430													8.477115	-0.169555	4.994102	0.509333	-0.829199	-0.230237	-0.016281	-0.276777	0.960796	-0.860415	-0.485617	-0.154472
581	1269596													8.479396	-0.168090	4.951150	0.506854	-0.830517	-0.230956	-0.016207	-0.277054	0.960718	-0.861879	-0.483201	-0.153887
582	1269763													8.479373	-0.157619	4.940559	0.504295	-0.831852	-0.231754	-0.016066	-0.277371	0.960629	-0.863382	-0.480717	-0.153241
583	1269930													8.515633	-0.151454	4.899608	0.501820	-0.833159	-0.232427	-0.015917	-0.277560	0.960577	-0.864826	-0.478337	-0.152546
584	1270096													8.537050	-0.159660	4.892059	0.499423	-0.834386	-0.233188	-0.015739	-0.277852	0.960495	-0.866215	-0.476023	-0.151898
585	1270263													8.529846	-0.155826	4.878927	0.497056	-0.835587	-0.233945	-0.015551	-0.278145	0.960413	-0.867579	-0.473741	-0.151248
586	1270430													8.542982	-0.138496	4.840078	0.494735	-0.836756	-0.234683	-0.015372	-0.278431	0.960333	-0.868908	-0.471503	-0.150612
587	1270596													8.526679	-0.142800	4.843482	0.492479	-0.837882	-0.235411	-0.015149	-0.278698	0.960259	-0.870193	-0.469341	-0.149946
588	1270763													8.563422	-0.147842	4.833800	0.490254	-0.838979	-0.236148	-0.014965	-0.279006	0.960173	-0.871451	-0.467194	-0.149339
589	1270930													8.587423	-0.146148	4.810231	0.488102	-0.840038	-0.236838	-0.014817	-0.279294	0.960091	-0.872661	-0.465113	-0.148771
590	1271096													8.583087	-0.138329	4.818744	0.486111	-0.841025	-0.237430	-0.014719	-0.279533	0.960023	-0.873773	-0.463183	-0.148263
591	1271263													8.586524	-0.136739	4.806471	0.484189	-0.841995	-0.237918	-0.014642	-0.279678	0.959982	-0.874841	-0.461329	-0.147746
592	1271430													8.583476	-0.133021	4.790241	0.482262	-0.842976	-0.238357	-0.014582	-0.279776	0.959955	-0.875906	-0.459474	-0.147217
593	1271596													8.589965	-0.135131	4.742539	0.480348	-0.843950	-0.238776	-0.014538	-0.279864	0.959930	-0.876957	-0.457629	-0.146702
594	1271763													8.639353	-0.145123	4.689774	0.478413	-0.844894	-0.239321	-0.014490	-0.280092	0.959864	-0.878015	-0.455744	-0.146242
595	1271930													8.658401	-0.146601	4.698659	0.476559	-0.845771	-0.239925	-0.014429	-0.280395	0.959776	-0.879024	-0.453928	-0.145829
596	1272096													8.658792	-0.146929	4.614555	0.474654	-0.846671	-0.240526	-0.014400	-0.280705	0.959686	-0.880055	-0.452055	-0.145429
597	1272263													8.678473	-0.148267	4.625506	0.472778	-0.847547	-0.241133	-0.014312	-0.280997	0.959602	-0.881065	-0.450227	-0.144979
598	1272430													8.672814	-0.142403	4.618507	0.470940	-0.848418	-0.241667	-0.014240	-0.281223	0.959537	-0.882050	-0.448443	-0.144521
599	1272596													8.700646	-0.131248	4.586514	0.469139	-0.849269	-0.242178	-0.014191	-0.281443	0.959473	-0.883010	-0.446690	-0.144088
600	1272763													8.738677	-0.151810	4.560956	0.467400	-0.850122	-0.242551	-0.014181	-0.281539	0.959445	-0.883932	-0.445005	-0.143647
601	1272930													8.687280	-0.124395	4.568046	0.465673	-0.850979	-0.242865	-0.014181	-0.281577	0.959434	-0.884843	-0.443339	-0.143190
602	1273096													8.714487	-0.152285	4.549979	0.463789	-0.851917	-0.243180	-0.014222	-0.281611	0.959423	-0.885831	-0.441512	-0.142724
603	1273263													8.729630	-0.143801	4.562774	0.461985	-0.852840	-0.243379	-0.014314	-0.281553	0.959439	-0.886772	-0.439763	-0.142281
604	1273430													8.715882	-0.138013	4.548075	0.460035	-0.853837	-0.243577	-0.014389	-0.281463	0.959464	-0.887784	-0.437883	-0.141769
605	1273596													8.748804	-0.126468	4.492661	0.458211	-0.854780	-0.243709	-0.014463	-0.281320	0.959505	-0.888726	-0.436131	-0.141266
606	1273763													8.747376	-0.138977	4.501367	0.456617	-0.855617	-0.243762	-0.014584	-0.281155	0.959551	-0.889544	-0.434593	-0.140858
607	1273930													8.736196	-0.134919	4.491861	0.455024	-0.856459	-0.243786	-0.014693	-0.280954	0.959609	-0.890358	-0.433063	-0.140424
608	1274097													8.723568	-0.130593	4.488628	0.453137	-0.857398	-0.243997	-0.014724	-0.280872	0.959632	-0.891319	-0.431253	-0.139898
609	1274263													8.760554	-0.135466	4.399855	0.451088	-0.858389	-0.244310	-0.014695	-0.280850	0.959639	-0.892359	-0.429291	-0.139302
610	1274430													8.853673	-0.134517	4.358903	0.449085	-0.859348	-0.244631	-0.014712	-0.280867	0.959634	-0.893368	-0.427358	-0.138776
611	1274597													8.867056	-0.112356	4.379358	0.447217	-0.860258	-0.244852	-0.014743	-0.280806	0.959651	-0.894304	-0.425562	-0.138264
612	1274763													8.833179	-0.123769	4.399853	0.445412	-0.861143	-0.245034	-0.014768	-0.280711	0.959679	-0.895204	-0.423833	-0.137750
613	1274930													8.798207	-0.147177	4.365551	0.443724	-0.861944	-0.245278	-0.014768	-0.280694	0.959684	-0.896042	-0.422212	-0.137279
614	1275097													8.756445	-0.170445	4.390440	0.441857	-0.862834	-0.245521	-0.014840	-0.280680	0.959687	-0.896963	-0.420401	-0.136825
615	1275263													8.818780	-0.169345	4.364360	0.439904	-0.863748	-0.245814	-0.014907	-0.280707	0.959678	-0.897921	-0.418501	-0.136360
616	1275430													8.818990	-0.167914	4.353209	0.438102	-0.864600	-0.246034	-0.014961	-0.280673	0.959687	-0.898801	-0.416760	-0.135899
617	1275597													8.762833	-0.167033	4.363192	0.436296	-0.865430	-0.246327	-0.014840	-0.280640	0.959698	-0.899681	-0.415057	-0.135285
618	1275763													8.814217	-0.167978	4.288956	0.434478	-0.866227	-0.246738	-0.014730	-0.280742	0.959670	-0.900562	-0.413321	-0.134736
619	1275930													8.839836	-0.169023	4.274420	0.432730	-0.866947	-0.247279	-0.014657	-0.281020	0.959590	-0.901404	-0.411619	-0.134313
620	1276097													8.836361	-0.154623	4.285953	0.430975	-0.867690	-0.247737	-0.014652	-0.281235	0.959527	-0.902245	-0.409903	-0.133919
621	1276263													8.879154	-0.136803	4.233112	0.429170	-0.868452	-0.248204	-0.014609	-0.281436	0.959469	-0.903106	-0.408149	-0.133471
622	1276430													8.872483	-0.163383	4.233309	0.427560	-0.869124	-0.248628	-0.014519	-0.281601	0.959422	-0.903871	-0.406600	-0.133020
623	1276597													8.873102	-0.154965	4.212500	0.426059	-0.869733	-0.249077	-0.014464	-0.281829	0.959356	-0.904580	-0.405139	-0.132656
624	1276763													8.888540	-0.146705	4.233609	0.424726	-0.870263	-0.249499	-0.014421	-0.282060	0.959288	-0.905207	-0.403837	-0.132348
625	1276930													8.844864	-0.165360	4.207818	0.423294	-0.870808	-0.250030	-0.014353	-0.282384	0.959194	-0.905879	-0.402432	-0.132031
626	1277097													8.966494	-0.156304	4.136631	0.421491	-0.871555	-0.250474	-0.014340	-0.282579	0.959137	-0.906719	-0.400676	-0.131602
627	1277263													8.934503	-0.134803	4.129902	0.419846	-0.872264	-0.250768	-0.014250	-0.282600	0.959132	-0.907484	-0.399114	-0.131078
628	1277430													8.994951	-0.153501	4.066448	0.418357	-0.872850	-0.251219	-0.014064	-0.282779	0.959082	-0.908174	-0.397705	-0.130578
629	1277597													8.949577	-0.130839	4.070292	0.417225	-0.873275	-0.251623	-0.013935	-0.282988	0.959022	-0.908697	-0.396621	-0.130239
630	1277763													8.959203	-0.131862	4.090765	0.416361	-0.873595	-0.251942	-0.013880	-0.283179	0.958967	-0.909093	-0.395780	-0.130030
631	1277930													8.974863	-0.141297	4.091258	0.415634	-0.873873	-0.252181	-0.013879	-0.283326	0.958923	-0.909426	-0.395061	-0.129888
632	1278097													8.955714	-0.146742	4.074475	0.415076	-0.874079	-0.252386	-0.013854	-0.283453	0.958886	-0.909681	-0.394514	-0.129764
633	1278263													8.940777	-0.121292	4.093752	0.414658	-0.874218	-0.252589	-0.013791	-0.283582	0.958849	-0.909873	-0.394111	-0.129646
634	1278430													8.956555	-0.117204	4.073705	0.414213	-0.874383	-0.252749	-0.013723	-0.283660	0.958827	-0.910077	-0.393690	-0.129495
635	1278597													8.976978	-0.110838	4.049712	0.413396	-0.874702	-0.252981	-0.013668	-0.283763	0.958797	-0.910449	-0.392905	-0.129262
636	1278763													8.975012	-0.110568	4.058064	0.412084	-0.875259	-0.253196	-0.013672	-0.283796	0.958787	-0.911043	-0.391639	-0.128915
637	1278930													8.993643	-0.135809	3.923901	0.410235	-0.876064	-0.253414	-0.013688	-0.283756	0.958799	-0.911877	-0.389864	-0.128399
638	1279097													9.125551	-0.128823	3.852005	0.408789	-0.876671	-0.253651	-0.013655	-0.283779	0.958792	-0.912527	-0.388480	-0.127977
639	1279263													9.094512	-0.111244	3.876006	0.408013	-0.876995	-0.253781	-0.013662	-0.283805	0.958785	-0.912874	-0.387730	-0.127778
640	1279430													9.042730	-0.134904	3.897692	0.407472	-0.877215	-0.253891	-0.013721	-0.283867	0.958765	-0.913115	-0.387186	-0.127705
641	1279597													9.037517	-0.122829	3.914108	0.406988	-0.877408	-0.253999	-0.013746	-0.283922	0.958749	-0.913330	-0.386707	-0.127614
642	1279763													9.048362	-0.126971	3.958651	0.406611	-0.877527	-0.254191	-0.013744	-0.284074	0.958704	-0.913498	-0.386326	-0.127569
643	1279930													9.014383	-0.140477	3.949937	0.406411	-0.877587	-0.254305	-0.013773	-0.284180	0.958672	-0.913587	-0.386112	-0.127581
644	1280097													8.977472	-0.134715	4.013786	0.406292	-0.877621	-0.254380	-0.013805	-0.284257	0.958649	-0.913639	-0.385980	-0.127607
645	1280263													8.953964	-0.135397	4.040084	0.406120	-0.877684	-0.254436	-0.013820	-0.284299	0.958636	-0.913715	-0.385805	-0.127590
646	1280430													8.947434	-0.133774	4.030982	0.405862	-0.877777	-0.254527	-0.013840	-0.284367	0.958616	-0.913830	-0.385543	-0.127562
647	1280597													8.956559	-0.122400	4.018428	0.405562	-0.877878	-0.254656	-0.013865	-0.284473	0.958584	-0.913962	-0.385235	-0.127543
648	1280763													8.966443	-0.144959	4.009233	0.405200	-0.877978	-0.254887	-0.013848	-0.284663	0.958528	-0.914123	-0.384866	-0.127504
649	1280930													8.990792	-0.149760	3.981954	0.404908	-0.878075	-0.255017	-0.013878	-0.284773	0.958495	-0.914252	-0.384563	-0.127492
650	1281097													9.014808	-0.158682	3.962471	0.404753	-0.878118	-0.255116	-0.013884	-0.284860	0.958469	-0.914320	-0.384401	-0.127490
651	1281263													9.010683	-0.149160	3.960234	0.404728	-0.878115	-0.255165	-0.013915	-0.284923	0.958450	-0.914331	-0.384361	-0.127535
652	1281430													9.015401	-0.134233	3.985036	0.404804	-0.878099	-0.255098	-0.014012	-0.284901	0.958454	-0.914296	-0.384412	-0.127633
653	1281597													8.993421	-0.129198	3.997234	0.404844	-0.878120	-0.254965	-0.014132	-0.284813	0.958479	-0.914277	-0.384431	-0.127714
654	1281763													8.992184	-0.144610	3.965016	0.404738	-0.878234	-0.254738	-0.014276	-0.284610	0.958537	-0.914321	-0.384320	-0.127730
655	1281930													9.038891	-0.120184	3.933649	0.404667	-0.878310	-0.254589	-0.014441	-0.284506	0.958565	-0.914350	-0.384223	-0.127814
656	1282097													9.035240	-0.139626	3.934464	0.404771	-0.878309	-0.254427	-0.014593	-0.284408	0.958592	-0.914302	-0.384298	-0.127937
657	1282263													8.999771	-0.148764	3.948877	0.404851	-0.878348	-0.254165	-0.014824	-0.284231	0.958641	-0.914262	-0.384339	-0.128092
658	1282430													9.013922	-0.146851	3.926170	0.404936	-0.878404	-0.253837	-0.015091	-0.283999	0.958706	-0.914220	-0.384384	-0.128257
659	1282597													9.024427	-0.159357	3.916471	0.405052	-0.878453	-0.253481	-0.015366	-0.283744	0.958777	-0.914164	-0.384460	-0.128429
660	1282763													9.037544	-0.161028	3.894296	0.405376	-0.878391	-0.253179	-0.015582	-0.283555	0.958829	-0.914017	-0.384741	-0.128633
661	1282930													9.020206	-0.160208	3.930419	0.405940	-0.878190	-0.252971	-0.015716	-0.283471	0.958852	-0.913765	-0.385261	-0.128874
662	1283097													9.004685	-0.165745	3.880216	0.406588	-0.877930	-0.252833	-0.015806	-0.283458	0.958854	-0.913475	-0.385863	-0.129127
663	1283263													9.056432	-0.145481	3.880985	0.407367	-0.877608	-0.252697	-0.015977	-0.283502	0.958838	-0.913125	-0.386562	-0.129511
664	1283430													9.020130	-0.137509	3.985797	0.408230	-0.877275	-0.252462	-0.016192	-0.283471	0.958844	-0.912736	-0.387341	-0.129926
665	1283597													9.028847	-0.140396	3.996944	0.409002	-0.876960	-0.252308	-0.016327	-0.283480	0.958839	-0.912387	-0.388047	-0.130262
666	1283763													9.005886	-0.157807	4.010109	0.409916	-0.876576	-0.252157	-0.016517	-0.283539	0.958818	-0.911974	-0.388871	-0.130706
667	1283930													8.965808	-0.167941	4.084122	0.410874	-0.876210	-0.251869	-0.016815	-0.283502	0.958824	-0.911537	-0.389720	-0.131217
668	1284097													8.936520	-0.175400	4.099521	0.411708	-0.875932	-0.251476	-0.017100	-0.283325	0.958872	-0.911155	-0.390475	-0.131626
669	1284263													8.939116	-0.184479	4.097665	0.412489	-0.875697	-0.251011	-0.017325	-0.283037	0.958953	-0.910798	-0.391209	-0.131921
670	1284430													8.911288	-0.180228	4.116206	0.413317	-0.875455	-0.250496	-0.017489	-0.282674	0.959056	-0.910419	-0.392013	-0.132145
671	1284597													8.890562	-0.207225	4.134311	0.414046	-0.875254	-0.249992	-0.017697	-0.282328	0.959155	-0.910084	-0.392710	-0.132386
672	1284763													8.917333	-0.196721	4.083569	0.414624	-0.875101	-0.249571	-0.017884	-0.282039	0.959236	-0.909817	-0.393259	-0.132590
673	1284930													8.942607	-0.194167	4.094542	0.415375	-0.874861	-0.249164	-0.018061	-0.281789	0.959306	-0.909471	-0.393971	-0.132849
674	1285097													8.921339	-0.192959	4.092871	0.416130	-0.874646	-0.248655	-0.018213	-0.281419	0.959412	-0.909123	-0.394712	-0.133037
675	1285263													8.914025	-0.202573	4.099662	0.416872	-0.874442	-0.248129	-0.018375	-0.281031	0.959523	-0.908779	-0.395439	-0.133222
676	1285430													8.931848	-0.207428	4.055978	0.417500	-0.874296	-0.247589	-0.018516	-0.280601	0.959646	-0.908488	-0.396068	-0.133339
677	1285597													8.988042	-0.209677	4.001752	0.418176	-0.874085	-0.247191	-0.018559	-0.280292	0.959735	-0.908176	-0.396751	-0.133434
678	1285763													8.960211	-0.211973	4.017332	0.418985	-0.873814	-0.246780	-0.018628	-0.280001	0.959819	-0.907802	-0.397553	-0.133594
679	1285930													9.032431	-0.200490	3.973759	0.419864	-0.873482	-0.246462	-0.018688	-0.279821	0.959870	-0.907394	-0.398409	-0.133810
680	1286097													8.923900	-0.181787	4.056870	0.420915	-0.873106	-0.246003	-0.018742	-0.279510	0.959960	-0.906907	-0.399450	-0.134014
681	1286263													9.000852	-0.187340	4.010782	0.421975	-0.872646	-0.245818	-0.018645	-0.279436	0.959983	-0.906416	-0.400505	-0.134186
682	1286430													8.946052	-0.184974	4.066620	0.423215	-0.872114	-0.245574	-0.018603	-0.279351	0.960009	-0.905838	-0.401722	-0.134449
683	1286597													8.944264	-0.173871	4.118738	0.424350	-0.871650	-0.245261	-0.018684	-0.279229	0.960043	-0.905305	-0.402812	-0.134777
684	1286763													8.921569	-0.194144	4.130413	0.425533	-0.871156	-0.244968	-0.018793	-0.279149	0.960064	-0.904748	-0.403935	-0.135159
685	1286930													8.904049	-0.198558	4.196333	0.426842	-0.870606	-0.244643	-0.018865	-0.279038	0.960095	-0.904129	-0.405194	-0.135529
686	1287097													8.882216	-0.192311	4.208416	0.428181	-0.870055	-0.244265	-0.018892	-0.278855	0.960147	-0.903495	-0.406502	-0.135837
687	1287263													8.861832	-0.206086	4.248919	0.429355	-0.869587	-0.243872	-0.018926	-0.278632	0.960211	-0.902937	-0.407656	-0.136090
688	1287430													8.869399	-0.214018	4.273630	0.430391	-0.869145	-0.243619	-0.018897	-0.278513	0.960247	-0.902445	-0.408677	-0.136294
689	1287597													8.863135	-0.200179	4.256300	0.431418	-0.868693	-0.243413	-0.018819	-0.278421	0.960275	-0.901956	-0.409699	-0.136464
690	1287763													8.868785	-0.193368	4.285741	0.432421	-0.868231	-0.243284	-0.018713	-0.278397	0.960284	-0.901478	-0.410694	-0.136632
691	1287930													8.834023	-0.201498	4.290344	0.433384	-0.867794	-0.243128	-0.018587	-0.278330	0.960306	-0.901018	-0.411662	-0.136753
692	1288097													8.849740	-0.202090	4.304578	0.434399	-0.867338	-0.242943	-0.018451	-0.278233	0.960336	-0.900532	-0.412687	-0.136867
693	1288263													8.828095	-0.203278	4.333864	0.435452	-0.866870	-0.242731	-0.018318	-0.278115	0.960373	-0.900025	-0.413750	-0.136985
694	1288430													8.818923	-0.194517	4.324794	0.436461	-0.866404	-0.242582	-0.018178	-0.278056	0.960393	-0.899540	-0.414764	-0.137110
695	1288597													8.834560	-0.219258	4.328445	0.437478	-0.865922	-0.242470	-0.018033	-0.278036	0.960401	-0.899048	-0.415783	-0.137250
696	1288763													8.816689	-0.186321	4.344276	0.438570	-0.865374	-0.242456	-0.017869	-0.278130	0.960377	-0.898519	-0.416860	-0.137443
697	1288930													8.817489	-0.194803	4.349482	0.439648	-0.864812	-0.242509	-0.017683	-0.278285	0.960336	-0.897996	-0.417921	-0.137640
698	1289097													8.788314	-0.191672	4.371464	0.440805	-0.864218	-0.242525	-0.017488	-0.278410	0.960303	-0.897433	-0.419065	-0.137838
699	1289263													8.795032	-0.184521	4.393982	0.441963	-0.863627	-0.242524	-0.017288	-0.278512	0.960277	-0.896867	-0.420214	-0.138022
700	1289430													8.799764	-0.190065	4.410629	0.443095	-0.863049	-0.242514	-0.017104	-0.278609	0.960252	-0.896312	-0.421335	-0.138212
701	1289597													8.789443	-0.165300	4.396925	0.444188	-0.862475	-0.242556	-0.016919	-0.278757	0.960213	-0.895774	-0.422411	-0.138413
702	1289763													8.793325	-0.158100	4.369596	0.445260	-0.861927	-0.242541	-0.016736	-0.278838	0.960192	-0.895245	-0.423476	-0.138581
703	1289930													8.802339	-0.160423	4.392270	0.446322	-0.861363	-0.242592	-0.016555	-0.278992	0.960151	-0.894719	-0.424520	-0.138780
704	1290097													8.806352	-0.154676	4.397109	0.447358	-0.860812	-0.242640	-0.016379	-0.279141	0.960110	-0.894205	-0.425539	-0.138976
705	1290263													8.783909	-0.146588	4.411339	0.448465	-0.860244	-0.242610	-0.016262	-0.279244	0.960082	-0.893652	-0.426618	-0.139220
706	1290430													8.776068	-0.146237	4.418276	0.449507	-0.859710	-0.242572	-0.016147	-0.279328	0.960060	-0.893131	-0.427637	-0.139442
707	1290597													8.772063	-0.145062	4.390993	0.450539	-0.859166	-0.242587	-0.016019	-0.279465	0.960022	-0.892613	-0.428642	-0.139673
708	1290764													8.804856	-0.143399	4.402781	0.451642	-0.858575	-0.242628	-0.015900	-0.279646	0.959971	-0.892058	-0.429705	-0.139952
709	1290930													8.795451	-0.148178	4.420388	0.452894	-0.857900	-0.242682	-0.015759	-0.279858	0.959912	-0.891425	-0.430914	-0.140265
710	1291097													8.759294	-0.134829	4.459342	0.454171	-0.857190	-0.242803	-0.015611	-0.280148	0.959830	-0.890778	-0.432136	-0.140617
711	1291264													8.731606	-0.120090	4.465826	0.455416	-0.856500	-0.242908	-0.015488	-0.280426	0.959751	-0.890144	-0.433324	-0.140975
712	1291430													8.765362	-0.146668	4.496604	0.456518	-0.855899	-0.242959	-0.015365	-0.280618	0.959696	-0.889581	-0.434386	-0.141258
713	1291597													8.773293	-0.173854	4.464857	0.457548	-0.855368	-0.242891	-0.015261	-0.280675	0.959682	-0.889054	-0.435393	-0.141476
714	1291764													8.787451	-0.141169	4.469549	0.458679	-0.854822	-0.242680	-0.015211	-0.280616	0.959699	-0.888472	-0.436502	-0.141715
715	1291930													8.750538	-0.153235	4.478115	0.459790	-0.854287	-0.242460	-0.015185	-0.280555	0.959718	-0.887898	-0.437587	-0.141969
716	1292097													8.737784	-0.160052	4.469188	0.460903	-0.853732	-0.242302	-0.015130	-0.280551	0.959720	-0.887321	-0.438672	-0.142224
717	1292264													8.740176	-0.167751	4.471638	0.462108	-0.853117	-0.242173	-0.015036	-0.280577	0.959714	-0.886696	-0.439850	-0.142484
718	1292430													8.778490	-0.140095	4.475131	0.463524	-0.852388	-0.242034	-0.015014	-0.280666	0.959688	-0.885957	-0.441204	-0.142893
719	1292597													8.716434	-0.123076	4.569713	0.465123	-0.851599	-0.241743	-0.015015	-0.280630	0.959698	-0.885119	-0.442748	-0.143314
720	1292764													8.728571	-0.133268	4.606986	0.466624	-0.850808	-0.241637	-0.014879	-0.280717	0.959675	-0.884331	-0.444212	-0.143648
721	1292930													8.713508	-0.146108	4.640487	0.468281	-0.849923	-0.241546	-0.014798	-0.280878	0.959629	-0.883456	-0.445802	-0.144107
722	1293097													8.641800	-0.154747	4.686533	0.469757	-0.849175	-0.241311	-0.014847	-0.280909	0.959619	-0.882671	-0.447205	-0.144567
723	1293264													8.664438	-0.142918	4.647926	0.471113	-0.848491	-0.241073	-0.014851	-0.280894	0.959624	-0.881948	-0.448511	-0.144934
724	1293430													8.658949	-0.150433	4.644454	0.472525	-0.847777	-0.240821	-0.014855	-0.280873	0.959630	-0.881192	-0.449872	-0.145313
725	1293597													8.634000	-0.134394	4.659433	0.473976	-0.847041	-0.240559	-0.014866	-0.280854	0.959635	-0.880412	-0.451268	-0.145710
726	1293764													8.617772	-0.145192	4.656428	0.475534	-0.846235	-0.240321	-0.014849	-0.280868	0.959631	-0.879572	-0.452769	-0.146128
727	1293930													8.636028	-0.143505	4.682851	0.477187	-0.845368	-0.240095	-0.014869	-0.280935	0.959612	-0.878676	-0.454344	-0.146628
728	1294097													8.630004	-0.145415	4.708801	0.478982	-0.844400	-0.239926	-0.014861	-0.281079	0.959569	-0.877699	-0.456051	-0.147180
729	1294264													8.624834	-0.144466	4.730105	0.480894	-0.843371	-0.239721	-0.014841	-0.281202	0.959534	-0.876653	-0.457877	-0.147745
730	1294430													8.607431	-0.148767	4.760122	0.482829	-0.842311	-0.239558	-0.014771	-0.281351	0.959491	-0.875590	-0.459731	-0.148286
731	1294597													8.604238	-0.162690	4.773882	0.484760	-0.841282	-0.239274	-0.014740	-0.281385	0.959482	-0.874523	-0.461592	-0.148805
732	1294764													8.607603	-0.151285	4.821452	0.486696	-0.840258	-0.238944	-0.014702	-0.281365	0.959488	-0.873448	-0.463466	-0.149293
733	1294930													8.569351	-0.164516	4.785158	0.488547	-0.839295	-0.238548	-0.014711	-0.281280	0.959513	-0.872413	-0.465258	-0.149765
734	1295097													8.718994	-0.173523	4.711807	0.490848	-0.838072	-0.238123	-0.014678	-0.281229	0.959529	-0.871121	-0.467488	-0.150342
735	1295264													8.561766	-0.158151	4.847910	0.493555	-0.836633	-0.237590	-0.014548	-0.281085	0.959572	-0.869593	-0.470145	-0.150902
736	1295430													8.575929	-0.141195	4.843764	0.496223	-0.835159	-0.237219	-0.014346	-0.281083	0.959576	-0.868077	-0.472760	-0.151461
737	1295597													8.541097	-0.157805	4.883468	0.499054	-0.833632	-0.236647	-0.014261	-0.280948	0.959617	-0.866453	-0.475526	-0.152097
738	1295764													8.559698	-0.167612	4.876250	0.501782	-0.832145	-0.236115	-0.014202	-0.280857	0.959645	-0.864878	-0.478179	-0.152747
739	1295930													8.567158	-0.163216	4.891809	0.504704	-0.830528	-0.235580	-0.014084	-0.280770	0.959672	-0.863178	-0.481032	-0.153403
740	1296097													8.537168	-0.145839	4.921710	0.507878	-0.828748	-0.235025	-0.013921	-0.280692	0.959697	-0.861317	-0.484137	-0.154094
741	1296264													8.488477	-0.141987	4.993346	0.511135	-0.826891	-0.234504	-0.013723	-0.280654	0.959711	-0.859391	-0.487324	-0.154799
742	1296430													8.489192	-0.151191	5.022474	0.514321	-0.825069	-0.233955	-0.013551	-0.280587	0.959733	-0.857491	-0.490440	-0.155492
743	1296597													8.485423	-0.147005	5.013649	0.517541	-0.823219	-0.233369	-0.013353	-0.280473	0.959769	-0.855554	-0.493604	-0.156148
744	1296764													8.476626	-0.130162	5.056894	0.520899	-0.821256	-0.232812	-0.013108	-0.280399	0.959794	-0.853517	-0.496905	-0.156825
745	1296930													8.449071	-0.144280	5.057971	0.524310	-0.819247	-0.232235	-0.012898	-0.280336	0.959815	-0.851430	-0.500245	-0.157550
746	1297097													8.439181	-0.124848	5.065228	0.527848	-0.817159	-0.231578	-0.012732	-0.280239	0.959846	-0.849244	-0.503704	-0.158327
747	1297264													8.376943	-0.130752	5.132974	0.531419	-0.815051	-0.230839	-0.012569	-0.280059	0.959901	-0.847016	-0.507208	-0.159073
748	1297430													8.374835	-0.132453	5.199296	0.534902	-0.812949	-0.230204	-0.012381	-0.279971	0.959929	-0.844823	-0.510618	-0.159823
749	1297597													8.355290	-0.097342	5.308739	0.538603	-0.810672	-0.229602	-0.012168	-0.279961	0.959934	-0.842472	-0.514230	-0.160652
750	1297764													8.282151	-0.102745	5.370368	0.542305	-0.808387	-0.228943	-0.012040	-0.279941	0.959942	-0.840095	-0.517825	-0.161547
751	1297930													8.265444	-0.103094	5.383780	0.546031	-0.806090	-0.228186	-0.012042	-0.279899	0.959954	-0.837678	-0.521417	-0.162541
752	1298097													8.201574	-0.102442	5.407712	0.549805	-0.803746	-0.227390	-0.012104	-0.279865	0.959963	-0.835205	-0.525040	-0.163599
753	1298264													8.150026	-0.086042	5.456477	0.553578	-0.801364	-0.226642	-0.012177	-0.279905	0.959950	-0.832708	-0.528648	-0.164707
754	1298430													8.095800	-0.096879	5.480416	0.557274	-0.798982	-0.225995	-0.012287	-0.280080	0.959898	-0.830238	-0.532149	-0.165898
755	1298597													8.085957	-0.103591	5.485541	0.560951	-0.796617	-0.225245	-0.012435	-0.280162	0.959872	-0.827755	-0.535641	-0.167063
756	1298764													8.060131	-0.107907	5.593669	0.564589	-0.794264	-0.224461	-0.012577	-0.280199	0.959860	-0.825276	-0.539104	-0.168187
757	1298930													8.040385	-0.106489	5.589024	0.568153	-0.791956	-0.223625	-0.012770	-0.280197	0.959857	-0.822824	-0.542491	-0.169308
758	1299097													8.062919	-0.130453	5.610241	0.571787	-0.789601	-0.222687	-0.012964	-0.280098	0.959884	-0.820300	-0.545962	-0.170393
759	1299264													8.042819	-0.123797	5.684127	0.575472	-0.787199	-0.221697	-0.013194	-0.279984	0.959914	-0.817715	-0.549478	-0.171510
760	1299430													7.997122	-0.124730	5.731092	0.579113	-0.784814	-0.220669	-0.013443	-0.279833	0.959954	-0.815136	-0.552956	-0.172606
761	1299597													7.973746	-0.130166	5.753918	0.582611	-0.782486	-0.219726	-0.013638	-0.279723	0.959984	-0.812637	-0.556301	-0.173641
762	1299764													7.942911	-0.122470	5.778998	0.585928	-0.780258	-0.218826	-0.013794	-0.279598	0.960018	-0.810245	-0.559483	-0.174587
763	1299930													7.890958	-0.141244	5.819332	0.588935	-0.778217	-0.218022	-0.013916	-0.279494	0.960046	-0.808060	-0.562371	-0.175434
764	1300097													7.898337	-0.149221	5.813004	0.591645	-0.776350	-0.217342	-0.013997	-0.279440	0.960061	-0.806077	-0.564973	-0.176196
765	1300264													7.871277	-0.146618	5.811390	0.594255	-0.774535	-0.216694	-0.014092	-0.279414	0.960067	-0.804153	-0.567471	-0.176958
766	1300430													7.846398	-0.152602	5.870668	0.596600	-0.772890	-0.216122	-0.014188	-0.279414	0.960066	-0.802413	-0.569709	-0.177664
767	1300597													7.870919	-0.159741	5.853598	0.598804	-0.771332	-0.215594	-0.014253	-0.279411	0.960066	-0.800769	-0.571818	-0.178306
768	1300764													7.873407	-0.156928	5.840452	0.601199	-0.769647	-0.214947	-0.014369	-0.279356	0.960080	-0.798970	-0.574111	-0.179008
769	1300930													7.836283	-0.182847	5.922086	0.603658	-0.767891	-0.214336	-0.014462	-0.279350	0.960081	-0.797112	-0.576461	-0.179737
770	1301097													7.811706	-0.160366	5.969752	0.605899	-0.766255	-0.213866	-0.014451	-0.279387	0.960070	-0.795410	-0.578615	-0.180353
771	1301264													7.796416	-0.143274	5.944633	0.607979	-0.764740	-0.213388	-0.014455	-0.279384	0.960071	-0.793822	-0.580618	-0.180913
772	1301430													7.877178	-0.143515	5.920312	0.610044	-0.763227	-0.212912	-0.014515	-0.279422	0.960059	-0.792235	-0.582588	-0.181538
773	1301597													7.863507	-0.143388	5.969255	0.612777	-0.761197	-0.212329	-0.014546	-0.279503	0.960035	-0.790122	-0.585198	-0.182345
774	1301764													7.729945	-0.144691	6.118517	0.615513	-0.759153	-0.211732	-0.014625	-0.279608	0.960003	-0.787991	-0.587798	-0.183206
775	1301930													7.707951	-0.182617	6.123440	0.617974	-0.757317	-0.211139	-0.014781	-0.279701	0.959973	-0.786060	-0.590118	-0.184042
776	1302097													7.667550	-0.159717	6.159867	0.620324	-0.755577	-0.210481	-0.014960	-0.279701	0.959971	-0.784203	-0.592344	-0.184808
777	1302264													7.639336	-0.180697	6.190347	0.622348	-0.754063	-0.209934	-0.015073	-0.279699	0.959969	-0.782595	-0.594271	-0.185436
778	1302430													7.646424	-0.169987	6.168442	0.624332	-0.752569	-0.209403	-0.015143	-0.279676	0.959975	-0.781012	-0.596172	-0.186007
779	1302597													7.604578	-0.162917	6.185881	0.626328	-0.751044	-0.208917	-0.015175	-0.279690	0.959970	-0.779412	-0.598086	-0.186575
780	1302764													7.607545	-0.161654	6.178714	0.628204	-0.749619	-0.208402	-0.015243	-0.279658	0.959979	-0.777900	-0.599885	-0.187108
781	1302930													7.637029	-0.162119	6.151208	0.630219	-0.748078	-0.207853	-0.015314	-0.279633	0.959985	-0.776266	-0.601818	-0.187686
782	1303097													7.629112	-0.169510	6.223208	0.632443	-0.746351	-0.207310	-0.015351	-0.279656	0.959978	-0.774455	-0.603948	-0.188324
783	1303264													7.593087	-0.185237	6.223713	0.634628	-0.744628	-0.206828	-0.015353	-0.279723	0.959958	-0.772666	-0.606040	-0.188953
784	1303430													7.574866	-0.207981	6.251396	0.636874	-0.742837	-0.206361	-0.015203	-0.279714	0.959963	-0.770818	-0.608238	-0.189436
785	1303597													7.564246	-0.187638	6.280799	0.639180	-0.740945	-0.206032	-0.014857	-0.279749	0.959958	-0.768914	-0.610525	-0.189818
786	1303764													7.498341	-0.168087	6.357731	0.641470	-0.739031	-0.205788	-0.014437	-0.279833	0.959940	-0.767012	-0.612802	-0.190174
787	1303930													7.530225	-0.148003	6.339113	0.643269	-0.737511	-0.205626	-0.014102	-0.279935	0.959915	-0.765510	-0.614584	-0.190474
788	1304097													7.584768	-0.143432	6.262769	0.645500	-0.735629	-0.205377	-0.013780	-0.280076	0.959879	-0.763636	-0.616772	-0.190926
789	1304264													7.455706	-0.121442	6.361900	0.647813	-0.733636	-0.205221	-0.013335	-0.280269	0.959829	-0.761682	-0.619053	-0.191345
790	1304430													7.494609	-0.101040	6.343499	0.649955	-0.731745	-0.205202	-0.012852	-0.280557	0.959751	-0.759864	-0.621158	-0.191754
791	1304597													7.505874	-0.105821	6.357308	0.652370	-0.729626	-0.205084	-0.012393	-0.280829	0.959678	-0.757799	-0.623523	-0.192247
792	1304764													7.427777	-0.107932	6.375803	0.654661	-0.727616	-0.204924	-0.012038	-0.281092	0.959605	-0.755827	-0.625749	-0.192779
793	1304930													7.442102	-0.108928	6.400069	0.656812	-0.725709	-0.204803	-0.011692	-0.281371	0.959528	-0.753964	-0.627834	-0.193293
794	1305097													7.447338	-0.081327	6.431987	0.659073	-0.723742	-0.204500	-0.011489	-0.281570	0.959472	-0.751992	-0.630012	-0.193890
795	1305264													7.405835	-0.093723	6.494955	0.661338	-0.721790	-0.204086	-0.011366	-0.281695	0.959437	-0.750001	-0.632193	-0.194500
796	1305430													7.398296	-0.099934	6.500139	0.663530	-0.719902	-0.203640	-0.011316	-0.281818	0.959401	-0.748064	-0.634287	-0.195141
797	1305597													7.367696	-0.100966	6.531533	0.665791	-0.717961	-0.203112	-0.011289	-0.281879	0.959383	-0.746053	-0.636456	-0.195777
798	1305764													7.315536	-0.088784	6.569845	0.668024	-0.716060	-0.202489	-0.011322	-0.281861	0.959388	-0.744054	-0.638601	-0.196397
799	1305930													7.303665	-0.099360	6.599456	0.670171	-0.714241	-0.201819	-0.011435	-0.281821	0.959399	-0.742119	-0.640653	-0.197035
800	1306097													7.261158	-0.111138	6.628918	0.672344	-0.712418	-0.201031	-0.011674	-0.281746	0.959418	-0.740147	-0.642712	-0.197747
801	1306264													7.247521	-0.119580	6.665411	0.674400	-0.710697	-0.200236	-0.011964	-0.281670	0.959437	-0.738269	-0.644649	-0.198461
802	1306430													7.223090	-0.130485	6.658021	0.676462	-0.708981	-0.199364	-0.012269	-0.281509	0.959480	-0.736376	-0.646605	-0.199129
803	1306597													7.235776	-0.147294	6.661288	0.678492	-0.707270	-0.198538	-0.012575	-0.281407	0.959506	-0.734500	-0.648521	-0.199826
804	1306764													7.241076	-0.148412	6.627563	0.680703	-0.705381	-0.197690	-0.012918	-0.281378	0.959510	-0.732446	-0.650587	-0.200647
805	1306930													7.217044	-0.154161	6.668864	0.683185	-0.703231	-0.196787	-0.013306	-0.281423	0.959491	-0.730124	-0.652892	-0.201621
806	1307097													7.174541	-0.165417	6.718565	0.685836	-0.700912	-0.195834	-0.013696	-0.281476	0.959471	-0.727627	-0.655358	-0.202646
807	1307264													7.195213	-0.197069	6.740578	0.688600	-0.698464	-0.194882	-0.014057	-0.281557	0.959442	-0.725006	-0.657932	-0.203698
808	1307431													7.163499	-0.171195	6.757253	0.691555	-0.695806	-0.193921	-0.014373	-0.281670	0.959404	-0.722181	-0.660693	-0.204791
809	1307597													7.118137	-0.188053	6.791949	0.694633	-0.693022	-0.192887	-0.014690	-0.281745	0.959377	-0.719214	-0.663582	-0.205890
810	1307764													7.099591	-0.208698	6.769601	0.697885	-0.690056	-0.191780	-0.014974	-0.281770	0.959365	-0.716053	-0.666655	-0.206976
811	1307931													7.032137	-0.213491	6.846309	0.701130	-0.687064	-0.190680	-0.015250	-0.281809	0.959349	-0.712870	-0.669721	-0.208063
812	1308097													6.976070	-0.193524	6.872108	0.704297	-0.684115	-0.189613	-0.015455	-0.281809	0.959346	-0.709738	-0.672734	-0.209050
813	1308264													6.923012	-0.187173	6.904037	0.707270	-0.681306	-0.188657	-0.015603	-0.281843	0.959334	-0.706772	-0.675564	-0.209969
814	1308431													6.848040	-0.183078	6.970831	0.709953	-0.678710	-0.187937	-0.015619	-0.281970	0.959296	-0.704076	-0.678120	-0.210786
815	1308597													6.832737	-0.198950	7.015597	0.712315	-0.676393	-0.187348	-0.015580	-0.282104	0.959257	-0.701687	-0.680375	-0.211485
816	1308764													6.814923	-0.182629	7.056843	0.714387	-0.674343	-0.186847	-0.015530	-0.282233	0.959220	-0.699578	-0.682353	-0.212096
817	1308931													6.790712	-0.155639	7.061710	0.716160	-0.672558	-0.186497	-0.015437	-0.282411	0.959169	-0.697766	-0.684039	-0.212634
818	1309097													6.753006	-0.151262	7.112124	0.717657	-0.671020	-0.186281	-0.015232	-0.282553	0.959131	-0.696230	-0.685490	-0.212997
819	1309264													6.766285	-0.164558	7.116079	0.718912	-0.669698	-0.186203	-0.014944	-0.282708	0.959090	-0.694941	-0.686718	-0.213250
820	1309431													6.766673	-0.144726	7.131592	0.720089	-0.668445	-0.186153	-0.014651	-0.282865	0.959048	-0.693727	-0.687873	-0.213482
821	1309597													6.765006	-0.141926	7.150439	0.721252	-0.667216	-0.186062	-0.014402	-0.283002	0.959011	-0.692523	-0.689009	-0.213725
822	1309764													6.725743	-0.163473	7.145278	0.722448	-0.665984	-0.185835	-0.014256	-0.283062	0.958996	-0.691278	-0.690175	-0.213992
823	1309931													6.749887	-0.137197	7.142552	0.723530	-0.664832	-0.185748	-0.014046	-0.283209	0.958955	-0.690150	-0.691224	-0.214248
824	1310097													6.739201	-0.119464	7.128497	0.724559	-0.663742	-0.185635	-0.013879	-0.283340	0.958919	-0.689073	-0.692217	-0.214509
825	1310264													6.793353	-0.115374	7.037336	0.725711	-0.662541	-0.185425	-0.013770	-0.283446	0.958889	-0.687861	-0.693324	-0.214823
826	1310431													6.788603	-0.117023	7.092858	0.727445	-0.660757	-0.184997	-0.013690	-0.283533	0.958865	-0.686029	-0.694989	-0.215301
827	1310597													6.717779	-0.110181	7.214973	0.729201	-0.658965	-0.184476	-0.013687	-0.283575	0.958852	-0.684163	-0.696671	-0.215802
828	1310931													6.674279	-0.139468	7.238218	0.732740	-0.655401	-0.183146	-0.013863	-0.283451	0.958887	-0.680368	-0.700075	-0.216781
829	1311097													6.675258	-0.168083	7.233096	0.734307	-0.653836	-0.182460	-0.014034	-0.283356	0.958912	-0.678672	-0.701576	-0.217246
830	1311264													6.637844	-0.160085	7.267362	0.735863	-0.652269	-0.181796	-0.014199	-0.283285	0.958931	-0.676981	-0.703061	-0.217720
831	1311431													6.606917	-0.161782	7.258139	0.737322	-0.650785	-0.181202	-0.014315	-0.283224	0.958947	-0.675389	-0.704459	-0.218144
832	1311597													6.597594	-0.161765	7.283140	0.738717	-0.649352	-0.180662	-0.014431	-0.283214	0.958948	-0.673861	-0.705784	-0.218586
833	1311764													6.609760	-0.177326	7.292550	0.740039	-0.647984	-0.180167	-0.014519	-0.283211	0.958948	-0.672408	-0.707042	-0.218995
834	1311931													6.607527	-0.182584	7.272130	0.741301	-0.646671	-0.179694	-0.014606	-0.283211	0.958946	-0.671014	-0.708243	-0.219390
835	1312097													6.622642	-0.173098	7.269953	0.742568	-0.645350	-0.179212	-0.014704	-0.283215	0.958944	-0.669609	-0.709446	-0.219796
836	1312264													6.630912	-0.164849	7.272713	0.743958	-0.643883	-0.178721	-0.014774	-0.283240	0.958935	-0.668063	-0.710767	-0.220231
837	1312431													6.616188	-0.171705	7.280047	0.745390	-0.642361	-0.178229	-0.014854	-0.283297	0.958917	-0.666463	-0.712120	-0.220709
838	1312597													6.622643	-0.165165	7.289691	0.746962	-0.640676	-0.177711	-0.014893	-0.283344	0.958903	-0.664699	-0.713618	-0.221188
839	1312764													6.583312	-0.157381	7.333531	0.748524	-0.639019	-0.177105	-0.015009	-0.283342	0.958901	-0.662938	-0.715102	-0.221680
840	1312931													6.613774	-0.176980	7.305377	0.750081	-0.637392	-0.176382	-0.015221	-0.283269	0.958920	-0.661171	-0.716582	-0.222176
841	1313097													6.552203	-0.169718	7.364612	0.751930	-0.635441	-0.175546	-0.015459	-0.283207	0.958934	-0.659062	-0.718337	-0.222775
842	1313264													6.516324	-0.156982	7.365929	0.753684	-0.633561	-0.174819	-0.015641	-0.283206	0.958932	-0.657051	-0.719997	-0.223357
843	1313431													6.529807	-0.157253	7.376424	0.755685	-0.631408	-0.173966	-0.015847	-0.283173	0.958938	-0.654744	-0.721898	-0.223996
844	1313597													6.457531	-0.201611	7.393431	0.757732	-0.629191	-0.173090	-0.016092	-0.283181	0.958931	-0.652367	-0.723828	-0.224700
845	1313764													6.428978	-0.199210	7.426500	0.759772	-0.626939	-0.172321	-0.016255	-0.283264	0.958904	-0.649987	-0.725747	-0.225407
846	1313931													6.411170	-0.181474	7.446818	0.761941	-0.624535	-0.171472	-0.016469	-0.283360	0.958872	-0.647438	-0.727780	-0.226189
847	1314097													6.345052	-0.196924	7.514168	0.764121	-0.622097	-0.170628	-0.016671	-0.283466	0.958837	-0.644858	-0.729823	-0.226973
848	1314264													6.334527	-0.191845	7.518573	0.766179	-0.619794	-0.169782	-0.016910	-0.283552	0.958808	-0.642405	-0.731747	-0.227732
849	1314431													6.329864	-0.188037	7.510061	0.768185	-0.617528	-0.168971	-0.017126	-0.283650	0.958775	-0.639999	-0.733623	-0.228472
850	1314597													6.304557	-0.183986	7.547361	0.770200	-0.615231	-0.168175	-0.017327	-0.283764	0.958738	-0.637567	-0.735506	-0.229215
851	1314764													6.276197	-0.185440	7.574430	0.772132	-0.613021	-0.167383	-0.017542	-0.283864	0.958704	-0.635220	-0.737310	-0.229934
852	1314931													6.234789	-0.193883	7.609421	0.774051	-0.610815	-0.166584	-0.017766	-0.283966	0.958670	-0.632874	-0.739100	-0.230656
853	1315097													6.211039	-0.181695	7.615086	0.775899	-0.608681	-0.165797	-0.017996	-0.284061	0.958637	-0.630601	-0.740822	-0.231357
854	1315264													6.174728	-0.179493	7.638717	0.777658	-0.606622	-0.165101	-0.018189	-0.284211	0.958589	-0.628425	-0.742452	-0.232052
