// Start Time: Unknown
// Update Rate: 60.0Hz
//Filter Profile: human (46.1)
// Option Flags: AHS Disabled ICC Disabled
// Firmware Version: 4.0.2
0	sampleTimeFine	Year	Month	Day	Second	UTC_Nano	UTC_Year	UTC_Month	UTC_Day	UTC_Hour	UTC_Minute	UTC_Second	UTC_Valid	Acc_X	Acc_Y	Acc_Z	Mat[1][1]	Mat[2][1]	Mat[3][1]	Mat[1][2]	Mat[2][2]	Mat[3][2]	Mat[1][3]	Mat[2][3]	Mat[3][3]
0	252040													0.000000	0.000000	0.000000	-0.146986	-0.988793	-0.026143	-0.062104	-0.017153	0.997922	-0.987187	0.148304	-0.058887
1	252207													9.656924	-0.630103	-1.429807	-0.146564	-0.988794	-0.028370	-0.062347	-0.019389	0.997866	-0.987234	0.148020	-0.058807
2	252374													9.663867	-0.621960	-1.427304	-0.146251	-0.988835	-0.028579	-0.062824	-0.019547	0.997833	-0.987251	0.147729	-0.059264
3	252540													9.651572	-0.593357	-1.427583	-0.145999	-0.988878	-0.028350	-0.063164	-0.019280	0.997817	-0.987266	0.147471	-0.059647
4	253374													9.659343	-0.580329	-1.424983	-0.145888	-0.988907	-0.027905	-0.063103	-0.018847	0.997829	-0.987286	0.147332	-0.059654
5	253540													9.666038	-0.569346	-1.421553	-0.145833	-0.988928	-0.027447	-0.062850	-0.018427	0.997853	-0.987311	0.147245	-0.059467
6	253707													9.645153	-0.588365	-1.433876	-0.145797	-0.988948	-0.026946	-0.062557	-0.017967	0.997880	-0.987335	0.147173	-0.059246
7	253874													9.652946	-0.584324	-1.422229	-0.145892	-0.988948	-0.026406	-0.062398	-0.017440	0.997899	-0.987331	0.147233	-0.059164
8	254040													9.670122	-0.595203	-1.417265	-0.145974	-0.988931	-0.026576	-0.062283	-0.017623	0.997903	-0.987326	0.147323	-0.059021
9	254207													9.677929	-0.570963	-1.404276	-0.146008	-0.988915	-0.026987	-0.062191	-0.018050	0.997901	-0.987327	0.147379	-0.058866
10	254374													9.624386	-0.602852	-1.445660	-0.146022	-0.988904	-0.027331	-0.062107	-0.018409	0.997900	-0.987330	0.147413	-0.058729
11	254540													9.643161	-0.605799	-1.452083	-0.146107	-0.988890	-0.027386	-0.062181	-0.018448	0.997894	-0.987313	0.147502	-0.058795
12	254707													9.619193	-0.551794	-1.437932	-0.146243	-0.988874	-0.027217	-0.062237	-0.018261	0.997894	-0.987289	0.147629	-0.058874
13	254874													9.662572	-0.557956	-1.470075	-0.146426	-0.988849	-0.027139	-0.062188	-0.018179	0.997899	-0.987265	0.147806	-0.058832
14	255040													9.683082	-0.595492	-1.465054	-0.146588	-0.988830	-0.026956	-0.062198	-0.017983	0.997902	-0.987240	0.147957	-0.058867
15	255207													9.685100	-0.586391	-1.469896	-0.146680	-0.988806	-0.027358	-0.062312	-0.018366	0.997888	-0.987219	0.148075	-0.058921
16	255374													9.662055	-0.601198	-1.467160	-0.146759	-0.988789	-0.027515	-0.062478	-0.018494	0.997875	-0.987197	0.148167	-0.059064
17	255540													9.637146	-0.609679	-1.462594	-0.146866	-0.988771	-0.027606	-0.062600	-0.018561	0.997866	-0.987174	0.148280	-0.059171
18	255707													9.646350	-0.605691	-1.458481	-0.146991	-0.988751	-0.027660	-0.062655	-0.018600	0.997862	-0.987151	0.148410	-0.059216
19	255874													9.638687	-0.599133	-1.448739	-0.147111	-0.988729	-0.027801	-0.062626	-0.018740	0.997861	-0.987135	0.148537	-0.059163
20	256040													9.671495	-0.588529	-1.432858	-0.147187	-0.988717	-0.027845	-0.062528	-0.018794	0.997866	-0.987130	0.148614	-0.059056
21	256207													9.660616	-0.554888	-1.421288	-0.147242	-0.988704	-0.027999	-0.062433	-0.018961	0.997869	-0.987128	0.148676	-0.058936
22	256374													9.648486	-0.525642	-1.442155	-0.147293	-0.988700	-0.027890	-0.062316	-0.018865	0.997878	-0.987128	0.148718	-0.058833
23	256540													9.664292	-0.517681	-1.427801	-0.147388	-0.988692	-0.027645	-0.062216	-0.018628	0.997889	-0.987120	0.148797	-0.058767
24	256707													9.654921	-0.538947	-1.444369	-0.147505	-0.988683	-0.027343	-0.062152	-0.018326	0.997898	-0.987107	0.148894	-0.058745
25	256874													9.654764	-0.571589	-1.462701	-0.147635	-0.988674	-0.026959	-0.062218	-0.017920	0.997902	-0.987083	0.149003	-0.058868
26	257040													9.651337	-0.592146	-1.445486	-0.147772	-0.988660	-0.026735	-0.062383	-0.017660	0.997896	-0.987052	0.149129	-0.059065
27	257207													9.654857	-0.621845	-1.422444	-0.147873	-0.988647	-0.026655	-0.062567	-0.017546	0.997886	-0.987025	0.149228	-0.059263
28	257374													9.659752	-0.646568	-1.442216	-0.147983	-0.988620	-0.027057	-0.062757	-0.017916	0.997868	-0.986997	0.149366	-0.059391
29	257540													9.648539	-0.652352	-1.435354	-0.148061	-0.988603	-0.027224	-0.062996	-0.018044	0.997851	-0.986970	0.149458	-0.059607
30	257707													9.634931	-0.625956	-1.439281	-0.148135	-0.988584	-0.027543	-0.063300	-0.018316	0.997826	-0.986939	0.149556	-0.059864
31	257874													9.651096	-0.595859	-1.442387	-0.148262	-0.988555	-0.027874	-0.063604	-0.018596	0.997802	-0.986901	0.149709	-0.060119
32	258040													9.655100	-0.564571	-1.433445	-0.148378	-0.988526	-0.028290	-0.063902	-0.018963	0.997776	-0.986864	0.149855	-0.060355
33	258207													9.653508	-0.543269	-1.439139	-0.148508	-0.988495	-0.028706	-0.064152	-0.019337	0.997753	-0.986828	0.150015	-0.060542
34	258374													9.656069	-0.541735	-1.456568	-0.148654	-0.988466	-0.028934	-0.064401	-0.019520	0.997733	-0.986790	0.150180	-0.060757
35	258540													9.638680	-0.539280	-1.472166	-0.148822	-0.988445	-0.028781	-0.064603	-0.019325	0.997724	-0.986752	0.150342	-0.060980
36	258707													9.658940	-0.566940	-1.450112	-0.148975	-0.988431	-0.028467	-0.064771	-0.018972	0.997720	-0.986717	0.150479	-0.061196
37	258874													9.644938	-0.604490	-1.459147	-0.149093	-0.988418	-0.028300	-0.064968	-0.018767	0.997711	-0.986687	0.150590	-0.061417
38	259040													9.649189	-0.605510	-1.477093	-0.149216	-0.988406	-0.028082	-0.065131	-0.018514	0.997705	-0.986657	0.150703	-0.061613
39	259207													9.658092	-0.630862	-1.457822	-0.149335	-0.988391	-0.027959	-0.065206	-0.018371	0.997703	-0.986634	0.150815	-0.061706
40	259374													9.641058	-0.620966	-1.479831	-0.149461	-0.988374	-0.027907	-0.065252	-0.018303	0.997701	-0.986612	0.150938	-0.061757
41	259540													9.648958	-0.627735	-1.476791	-0.149614	-0.988355	-0.027742	-0.065272	-0.018124	0.997703	-0.986588	0.151081	-0.061801
42	259707													9.634353	-0.613946	-1.491368	-0.149759	-0.988335	-0.027670	-0.065267	-0.018042	0.997705	-0.986566	0.151221	-0.061803
43	259874													9.639893	-0.618008	-1.476047	-0.149881	-0.988313	-0.027787	-0.065285	-0.018150	0.997702	-0.986546	0.151351	-0.061801
44	260040													9.624418	-0.595574	-1.500952	-0.149964	-0.988296	-0.027946	-0.065410	-0.018286	0.997691	-0.986525	0.151446	-0.061902
45	260207													9.676812	-0.582591	-1.518484	-0.150079	-0.988274	-0.028123	-0.065596	-0.018429	0.997676	-0.986496	0.151575	-0.062061
46	260374													9.680364	-0.561282	-1.488764	-0.150145	-0.988268	-0.027989	-0.065744	-0.018267	0.997669	-0.986476	0.151635	-0.062230
47	260540													9.667190	-0.552202	-1.485149	-0.150187	-0.988262	-0.027956	-0.065772	-0.018227	0.997668	-0.986467	0.151676	-0.062263
48	260707													9.654804	-0.611106	-1.487184	-0.150168	-0.988274	-0.027644	-0.065824	-0.017905	0.997671	-0.986467	0.151638	-0.062364
49	260874													9.640243	-0.616656	-1.475854	-0.150105	-0.988287	-0.027536	-0.065959	-0.017779	0.997664	-0.986467	0.151570	-0.062518
50	261040													9.634900	-0.584203	-1.453074	-0.150013	-0.988305	-0.027358	-0.066121	-0.017580	0.997657	-0.986471	0.151470	-0.062711
51	261207													9.648701	-0.579625	-1.452366	-0.149904	-0.988327	-0.027193	-0.066219	-0.017406	0.997653	-0.986481	0.151353	-0.062837
52	261374													9.653406	-0.592806	-1.433966	-0.149771	-0.988350	-0.027082	-0.066211	-0.017304	0.997656	-0.986501	0.151213	-0.062848
53	261540													9.647030	-0.598983	-1.456586	-0.149620	-0.988375	-0.027011	-0.066234	-0.017238	0.997655	-0.986523	0.151058	-0.062885
54	261707													9.648286	-0.584399	-1.455692	-0.149488	-0.988398	-0.026893	-0.066294	-0.017119	0.997653	-0.986539	0.150920	-0.062965
55	261874													9.645625	-0.571896	-1.449705	-0.149405	-0.988409	-0.026933	-0.066404	-0.017147	0.997645	-0.986544	0.150842	-0.063073
56	262040													9.655151	-0.560073	-1.454054	-0.149328	-0.988421	-0.026930	-0.066511	-0.017133	0.997639	-0.986548	0.150766	-0.063183
57	262207													9.663348	-0.575694	-1.441104	-0.149321	-0.988427	-0.026748	-0.066622	-0.016933	0.997635	-0.986542	0.150750	-0.063322
58	262374													9.647802	-0.592295	-1.453743	-0.149353	-0.988425	-0.026630	-0.066743	-0.016793	0.997629	-0.986529	0.150777	-0.063463
59	262540													9.653418	-0.593718	-1.461546	-0.149392	-0.988416	-0.026747	-0.066896	-0.016885	0.997617	-0.986513	0.150825	-0.063598
60	262707													9.673019	-0.586165	-1.458013	-0.149423	-0.988411	-0.026783	-0.067036	-0.016898	0.997607	-0.986498	0.150861	-0.063734
61	262874													9.623274	-0.586351	-1.457791	-0.149417	-0.988415	-0.026664	-0.067172	-0.016757	0.997601	-0.986490	0.150850	-0.063890
62	263040													9.645192	-0.615669	-1.465744	-0.149448	-0.988409	-0.026691	-0.067346	-0.016756	0.997589	-0.986473	0.150886	-0.064061
63	263207													9.633570	-0.570820	-1.470086	-0.149464	-0.988404	-0.026798	-0.067504	-0.016839	0.997577	-0.986460	0.150911	-0.064205
64	263374													9.624665	-0.544245	-1.466796	-0.149537	-0.988395	-0.026739	-0.067526	-0.016771	0.997577	-0.986448	0.150980	-0.064234
65	263540													9.670090	-0.576112	-1.455667	-0.149633	-0.988382	-0.026668	-0.067495	-0.016698	0.997580	-0.986435	0.151071	-0.064212
66	263707													9.677038	-0.589152	-1.466649	-0.149698	-0.988372	-0.026662	-0.067542	-0.016681	0.997577	-0.986422	0.151136	-0.064259
67	263874													9.662962	-0.571950	-1.482095	-0.149735	-0.988367	-0.026639	-0.067666	-0.016636	0.997569	-0.986408	0.151174	-0.064388
68	264041													9.654447	-0.572667	-1.460734	-0.149754	-0.988372	-0.026365	-0.067835	-0.016332	0.997563	-0.986394	0.151177	-0.064600
69	264207													9.636059	-0.578877	-1.458249	-0.149794	-0.988368	-0.026281	-0.067916	-0.016232	0.997559	-0.986382	0.151214	-0.064695
70	264374													9.629467	-0.609364	-1.464868	-0.149889	-0.988355	-0.026233	-0.067954	-0.016171	0.997557	-0.986365	0.151306	-0.064739
71	264541													9.647533	-0.615344	-1.473165	-0.150008	-0.988342	-0.026048	-0.067948	-0.015978	0.997561	-0.986347	0.151412	-0.064759
72	264707													9.659147	-0.589256	-1.471406	-0.150097	-0.988327	-0.026110	-0.067904	-0.016042	0.997563	-0.986337	0.151504	-0.064703
73	264874													9.665491	-0.569118	-1.466120	-0.150168	-0.988319	-0.025994	-0.067857	-0.015927	0.997568	-0.986329	0.151567	-0.064673
74	265041													9.669724	-0.530706	-1.472332	-0.150229	-0.988312	-0.025895	-0.067809	-0.015830	0.997573	-0.986323	0.151620	-0.064639
75	265207													9.639249	-0.539549	-1.477550	-0.150326	-0.988303	-0.025684	-0.067785	-0.015614	0.997578	-0.986310	0.151703	-0.064645
76	265374													9.641943	-0.556800	-1.475283	-0.150475	-0.988286	-0.025469	-0.067862	-0.015375	0.997576	-0.986282	0.151838	-0.064754
77	265541													9.646798	-0.561229	-1.482070	-0.150636	-0.988267	-0.025262	-0.068021	-0.015131	0.997569	-0.986246	0.151988	-0.064943
78	265707													9.631438	-0.587562	-1.461319	-0.150796	-0.988246	-0.025105	-0.068232	-0.014930	0.997558	-0.986207	0.152141	-0.065179
79	265874													9.661938	-0.600769	-1.452977	-0.150963	-0.988217	-0.025227	-0.068378	-0.015019	0.997546	-0.986172	0.152317	-0.065305
80	266041													9.700416	-0.615444	-1.476477	-0.151052	-0.988201	-0.025340	-0.068482	-0.015111	0.997538	-0.986151	0.152416	-0.065391
81	266207													9.672922	-0.628989	-1.455226	-0.151048	-0.988197	-0.025525	-0.068639	-0.015274	0.997525	-0.986140	0.152427	-0.065521
82	266374													9.647964	-0.632153	-1.470260	-0.151055	-0.988190	-0.025758	-0.068901	-0.015468	0.997504	-0.986121	0.152453	-0.065750
83	266541													9.641137	-0.624389	-1.454466	-0.151101	-0.988170	-0.026256	-0.069291	-0.015907	0.997470	-0.986087	0.152538	-0.066068
84	266707													9.614507	-0.605227	-1.467613	-0.151239	-0.988138	-0.026646	-0.069703	-0.016228	0.997436	-0.986037	0.152708	-0.066421
85	266874													9.597570	-0.578665	-1.463569	-0.151502	-0.988091	-0.026889	-0.070001	-0.016410	0.997412	-0.985975	0.152992	-0.066682
86	267041													9.613938	-0.582960	-1.459447	-0.151835	-0.988029	-0.027302	-0.070184	-0.016775	0.997393	-0.985911	0.153355	-0.066797
87	267207													9.631772	-0.581845	-1.510709	-0.152147	-0.987979	-0.027367	-0.070251	-0.016809	0.997388	-0.985858	0.153672	-0.066849
88	267374													9.625583	-0.572561	-1.529919	-0.152471	-0.987927	-0.027433	-0.070225	-0.016857	0.997389	-0.985810	0.153999	-0.066807
89	267541													9.629847	-0.546761	-1.539593	-0.152810	-0.987881	-0.027222	-0.070173	-0.016629	0.997396	-0.985761	0.154323	-0.066781
90	267707													9.647976	-0.527340	-1.554075	-0.153109	-0.987841	-0.026987	-0.070102	-0.016383	0.997405	-0.985720	0.154603	-0.066741
91	267874													9.689227	-0.530699	-1.543216	-0.153321	-0.987824	-0.026397	-0.070033	-0.015783	0.997420	-0.985692	0.154774	-0.066760
92	268041													9.680704	-0.562496	-1.545678	-0.153417	-0.987824	-0.025828	-0.069966	-0.015213	0.997433	-0.985681	0.154831	-0.066780
93	268207													9.653633	-0.590453	-1.529538	-0.153449	-0.987830	-0.025417	-0.069927	-0.014801	0.997442	-0.985679	0.154834	-0.066804
94	268374													9.631083	-0.599684	-1.525734	-0.153460	-0.987839	-0.025001	-0.069912	-0.014383	0.997449	-0.985679	0.154816	-0.066855
95	268541													9.617768	-0.631902	-1.536972	-0.153488	-0.987843	-0.024652	-0.069945	-0.014024	0.997452	-0.985672	0.154822	-0.066942
96	268707													9.609318	-0.624867	-1.509378	-0.153581	-0.987828	-0.024663	-0.069978	-0.014023	0.997450	-0.985655	0.154915	-0.066973
97	268874													9.649023	-0.639168	-1.524298	-0.153671	-0.987812	-0.024772	-0.070010	-0.014122	0.997446	-0.985639	0.155013	-0.066987
98	269041													9.602970	-0.634508	-1.522181	-0.153745	-0.987793	-0.025043	-0.070140	-0.014370	0.997434	-0.985618	0.155107	-0.067074
99	269207													9.649700	-0.584788	-1.533720	-0.153812	-0.987778	-0.025236	-0.070352	-0.014527	0.997416	-0.985592	0.155190	-0.067258
100	269374													9.672076	-0.543924	-1.550611	-0.153851	-0.987765	-0.025508	-0.070499	-0.014776	0.997402	-0.985576	0.155250	-0.067363
101	269541													9.676484	-0.505629	-1.555249	-0.153837	-0.987764	-0.025615	-0.070447	-0.014893	0.997404	-0.985582	0.155242	-0.067294
102	269707													9.662223	-0.559555	-1.527745	-0.153753	-0.987779	-0.025531	-0.070375	-0.014825	0.997410	-0.985600	0.155151	-0.067236
103	269874													9.677249	-0.574172	-1.519590	-0.153551	-0.987814	-0.025405	-0.070441	-0.014702	0.997408	-0.985627	0.154943	-0.067325
104	270041													9.658536	-0.551267	-1.524910	-0.153259	-0.987866	-0.025166	-0.070648	-0.014448	0.997397	-0.985657	0.154638	-0.067577
105	270207													9.642248	-0.548278	-1.514833	-0.152930	-0.987917	-0.025143	-0.070781	-0.014427	0.997388	-0.985699	0.154310	-0.067720
106	270374													9.625530	-0.572415	-1.465240	-0.152608	-0.987975	-0.024842	-0.070847	-0.014135	0.997387	-0.985744	0.153969	-0.067838
107	270541													9.640975	-0.592764	-1.469738	-0.152275	-0.988030	-0.024691	-0.070873	-0.014002	0.997387	-0.985794	0.153627	-0.067892
108	270707													9.620711	-0.597615	-1.450356	-0.151868	-0.988090	-0.024786	-0.071030	-0.014102	0.997374	-0.985845	0.153230	-0.068043
109	270874													9.647635	-0.580016	-1.469095	-0.151794	-0.988100	-0.024826	-0.071172	-0.014126	0.997364	-0.985846	0.153161	-0.068180
110	271041													9.632938	-0.575527	-1.459742	-0.151825	-0.988086	-0.025202	-0.071347	-0.014475	0.997346	-0.985829	0.153220	-0.068300
111	271207													9.653788	-0.583355	-1.473624	-0.151936	-0.988065	-0.025360	-0.071538	-0.014598	0.997331	-0.985798	0.153344	-0.068467
112	271374													9.639928	-0.588203	-1.485190	-0.152066	-0.988039	-0.025599	-0.071769	-0.014793	0.997312	-0.985761	0.153494	-0.068661
113	271541													9.649527	-0.582353	-1.486844	-0.152213	-0.988011	-0.025799	-0.071993	-0.014950	0.997293	-0.985722	0.153658	-0.068855
114	271707													9.665147	-0.578346	-1.489924	-0.152290	-0.987993	-0.026016	-0.072177	-0.015135	0.997277	-0.985697	0.153754	-0.069006
115	271874													9.625347	-0.598997	-1.504306	-0.152313	-0.987990	-0.026008	-0.072364	-0.015096	0.997264	-0.985680	0.153779	-0.069196
116	272041													9.633017	-0.608562	-1.495470	-0.152336	-0.987983	-0.026151	-0.072594	-0.015203	0.997246	-0.985659	0.153815	-0.069406
117	272207													9.621013	-0.562786	-1.500230	-0.152392	-0.987972	-0.026233	-0.072721	-0.015261	0.997236	-0.985641	0.153879	-0.069521
118	272374													9.650394	-0.561747	-1.504682	-0.152444	-0.987961	-0.026331	-0.072733	-0.015355	0.997233	-0.985632	0.153937	-0.069517
119	272541													9.681119	-0.598142	-1.519670	-0.152458	-0.987964	-0.026133	-0.072811	-0.015142	0.997231	-0.985624	0.153939	-0.069626
120	272707													9.673282	-0.610130	-1.501579	-0.152422	-0.987972	-0.026068	-0.072968	-0.015055	0.997221	-0.985618	0.153901	-0.069796
121	272874													9.660572	-0.610087	-1.483620	-0.152342	-0.987990	-0.025846	-0.073192	-0.014801	0.997208	-0.985614	0.153809	-0.070058
122	273041													9.636989	-0.609038	-1.502416	-0.152255	-0.988005	-0.025760	-0.073362	-0.014695	0.997197	-0.985615	0.153718	-0.070245
123	273207													9.624361	-0.639723	-1.501410	-0.152180	-0.988017	-0.025783	-0.073463	-0.014707	0.997189	-0.985619	0.153646	-0.070345
124	273374													9.633151	-0.637677	-1.481194	-0.152123	-0.988023	-0.025871	-0.073514	-0.014792	0.997184	-0.985624	0.153596	-0.070383
125	273541													9.633881	-0.607530	-1.470501	-0.152071	-0.988029	-0.025937	-0.073461	-0.014871	0.997187	-0.985636	0.153549	-0.070320
126	273707													9.657838	-0.571671	-1.465469	-0.151994	-0.988038	-0.026050	-0.073375	-0.015004	0.997192	-0.985654	0.153479	-0.070217
127	273874													9.645432	-0.546434	-1.491568	-0.151924	-0.988051	-0.025979	-0.073294	-0.014950	0.997198	-0.985671	0.153403	-0.070147
128	274041													9.627687	-0.537372	-1.473794	-0.151896	-0.988059	-0.025814	-0.073192	-0.014801	0.997208	-0.985683	0.153362	-0.070070
129	274207													9.631183	-0.555034	-1.484061	-0.151985	-0.988054	-0.025497	-0.073128	-0.014484	0.997217	-0.985674	0.153427	-0.070053
130	274374													9.632151	-0.582112	-1.508914	-0.152095	-0.988047	-0.025099	-0.073140	-0.014074	0.997222	-0.985656	0.153509	-0.070125
131	274541													9.643892	-0.597714	-1.502854	-0.152231	-0.988032	-0.024869	-0.073167	-0.013827	0.997224	-0.985633	0.153628	-0.070186
132	274707													9.666570	-0.636704	-1.491913	-0.152327	-0.988025	-0.024539	-0.073162	-0.013488	0.997229	-0.985618	0.153701	-0.070231
133	274874													9.655667	-0.652733	-1.485675	-0.152366	-0.988024	-0.024370	-0.073122	-0.013321	0.997234	-0.985615	0.153727	-0.070216
134	275041													9.658227	-0.645566	-1.519083	-0.152377	-0.988020	-0.024440	-0.073069	-0.013399	0.997237	-0.985618	0.153742	-0.070152
135	275207													9.651446	-0.616148	-1.503114	-0.152313	-0.988020	-0.024838	-0.073002	-0.013815	0.997236	-0.985632	0.153706	-0.070023
136	275374													9.657379	-0.574026	-1.489500	-0.152193	-0.988031	-0.025147	-0.072937	-0.014146	0.997236	-0.985656	0.153606	-0.069911
137	275541													9.640056	-0.542678	-1.480680	-0.152071	-0.988044	-0.025365	-0.072884	-0.014384	0.997237	-0.985679	0.153499	-0.069825
138	275707													9.647974	-0.521093	-1.499876	-0.151968	-0.988055	-0.025557	-0.072868	-0.014587	0.997235	-0.985696	0.153410	-0.069781
139	275874													9.638594	-0.522294	-1.502079	-0.151931	-0.988058	-0.025656	-0.072894	-0.014685	0.997232	-0.985699	0.153381	-0.069793
140	276041													9.643508	-0.544710	-1.517825	-0.151943	-0.988059	-0.025564	-0.072926	-0.014587	0.997231	-0.985695	0.153387	-0.069839
141	276207													9.649580	-0.572035	-1.508793	-0.151983	-0.988059	-0.025306	-0.072983	-0.014314	0.997230	-0.985685	0.153409	-0.069936
142	276374													9.658053	-0.599380	-1.489772	-0.152036	-0.988058	-0.025032	-0.073032	-0.014027	0.997231	-0.985673	0.153443	-0.070027
143	276541													9.660048	-0.594884	-1.491879	-0.151997	-0.988067	-0.024904	-0.073050	-0.013898	0.997231	-0.985678	0.153396	-0.070066
144	276707													9.655034	-0.610609	-1.506967	-0.151912	-0.988081	-0.024862	-0.073015	-0.013867	0.997234	-0.985693	0.153307	-0.070038
145	276874													9.652076	-0.596651	-1.515507	-0.151769	-0.988102	-0.024897	-0.073004	-0.013914	0.997235	-0.985716	0.153167	-0.070024
146	277041													9.652580	-0.576936	-1.475758	-0.151596	-0.988124	-0.025087	-0.073033	-0.014114	0.997230	-0.985741	0.153008	-0.070026
147	277207													9.643645	-0.561020	-1.480242	-0.151388	-0.988157	-0.025067	-0.073046	-0.014107	0.997229	-0.985772	0.152799	-0.070045
148	277374													9.622269	-0.553389	-1.458479	-0.151151	-0.988191	-0.025151	-0.073102	-0.014199	0.997223	-0.985804	0.152570	-0.070093
149	277541													9.606210	-0.570354	-1.484604	-0.151023	-0.988210	-0.025159	-0.073234	-0.014196	0.997214	-0.985814	0.152444	-0.070226
150	277707													9.610909	-0.587058	-1.457414	-0.150966	-0.988213	-0.025388	-0.073373	-0.014410	0.997200	-0.985812	0.152406	-0.070332
151	277874													9.645462	-0.601232	-1.467677	-0.150914	-0.988216	-0.025593	-0.073547	-0.014593	0.997185	-0.985807	0.152371	-0.070478
152	278041													9.634441	-0.597655	-1.475942	-0.150897	-0.988208	-0.025964	-0.073784	-0.014933	0.997162	-0.985792	0.152385	-0.070660
153	278207													9.683215	-0.583291	-1.477496	-0.150868	-0.988207	-0.026201	-0.074026	-0.015137	0.997141	-0.985778	0.152377	-0.070869
154	278374													9.708188	-0.540500	-1.488374	-0.150780	-0.988217	-0.026309	-0.074174	-0.015229	0.997129	-0.985781	0.152299	-0.071004
155	278541													9.667376	-0.569404	-1.495978	-0.150628	-0.988239	-0.026351	-0.074154	-0.015286	0.997130	-0.985805	0.152150	-0.070980
156	278707													9.651007	-0.625457	-1.488986	-0.150474	-0.988263	-0.026344	-0.074112	-0.015296	0.997133	-0.985832	0.151995	-0.070940
157	278874													9.649908	-0.641745	-1.470891	-0.150288	-0.988293	-0.026284	-0.074157	-0.015242	0.997130	-0.985857	0.151806	-0.070998
158	279041													9.642646	-0.610317	-1.456070	-0.150085	-0.988323	-0.026319	-0.074218	-0.015282	0.997125	-0.985883	0.151607	-0.071058
159	279207													9.634102	-0.604491	-1.443508	-0.149880	-0.988349	-0.026506	-0.074192	-0.015490	0.997124	-0.985917	0.151415	-0.071006
160	279374													9.618002	-0.597520	-1.424986	-0.149752	-0.988364	-0.026672	-0.074094	-0.015683	0.997128	-0.985943	0.151298	-0.070883
161	279541													9.632135	-0.583086	-1.455377	-0.149677	-0.988375	-0.026685	-0.074007	-0.015714	0.997134	-0.985961	0.151222	-0.070794
162	279707													9.638062	-0.573205	-1.452931	-0.149654	-0.988381	-0.026579	-0.074019	-0.015607	0.997135	-0.985964	0.151192	-0.070823
163	279874													9.686926	-0.570008	-1.463102	-0.149699	-0.988373	-0.026615	-0.074104	-0.015627	0.997128	-0.985951	0.151241	-0.070903
164	280041													9.667955	-0.584224	-1.458593	-0.149723	-0.988371	-0.026554	-0.074198	-0.015550	0.997122	-0.985940	0.151263	-0.071007
165	280207													9.659677	-0.599319	-1.462366	-0.149783	-0.988366	-0.026432	-0.074301	-0.015406	0.997117	-0.985923	0.151315	-0.071129
166	280374													9.641493	-0.624999	-1.475220	-0.149906	-0.988348	-0.026390	-0.074431	-0.015335	0.997108	-0.985895	0.151437	-0.071265
167	280541													9.658681	-0.630060	-1.472321	-0.150063	-0.988324	-0.026413	-0.074578	-0.015324	0.997097	-0.985860	0.151597	-0.071408
168	280708													9.674243	-0.624773	-1.456762	-0.150230	-0.988295	-0.026533	-0.074712	-0.015412	0.997086	-0.985824	0.151775	-0.071522
169	280874													9.636130	-0.614021	-1.451677	-0.150334	-0.988279	-0.026551	-0.074819	-0.015406	0.997078	-0.985800	0.151881	-0.071626
170	281041													9.620521	-0.613168	-1.474286	-0.150504	-0.988253	-0.026554	-0.074964	-0.015375	0.997068	-0.985763	0.152053	-0.071769
171	281208													9.629163	-0.591080	-1.473398	-0.150698	-0.988221	-0.026649	-0.075112	-0.015433	0.997056	-0.985722	0.152256	-0.071901
172	281374													9.643738	-0.570857	-1.507726	-0.150924	-0.988188	-0.026593	-0.075123	-0.015358	0.997056	-0.985687	0.152477	-0.071917
173	281541													9.690183	-0.610699	-1.490209	-0.151082	-0.988169	-0.026371	-0.075155	-0.015118	0.997057	-0.985660	0.152619	-0.071982
174	281708													9.682568	-0.641922	-1.491245	-0.151133	-0.988164	-0.026294	-0.075261	-0.015019	0.997051	-0.985644	0.152667	-0.072101
175	281874													9.680215	-0.617902	-1.501753	-0.151103	-0.988170	-0.026229	-0.075408	-0.014934	0.997041	-0.985638	0.152634	-0.072260
176	282041													9.663354	-0.619741	-1.481342	-0.151007	-0.988185	-0.026209	-0.075534	-0.014901	0.997032	-0.985643	0.152539	-0.072392
177	282208													9.640228	-0.634416	-1.484612	-0.150914	-0.988201	-0.026131	-0.075551	-0.014826	0.997032	-0.985656	0.152440	-0.072422
178	283708													9.634020	-0.635056	-1.479842	-0.150852	-0.988211	-0.026127	-0.075502	-0.014834	0.997035	-0.985669	0.152377	-0.072374
179	283874													9.654777	-0.624335	-1.480243	-0.150773	-0.988220	-0.026252	-0.075382	-0.014985	0.997042	-0.985690	0.152306	-0.072235
180	284041													9.658284	-0.595496	-1.472718	-0.150650	-0.988237	-0.026325	-0.075289	-0.015082	0.997048	-0.985716	0.152187	-0.072132
181	284208													9.632172	-0.564100	-1.473061	-0.150550	-0.988247	-0.026490	-0.075178	-0.015273	0.997053	-0.985740	0.152098	-0.071995
182	284374													9.647216	-0.543794	-1.461202	-0.150497	-0.988254	-0.026560	-0.075029	-0.015371	0.997063	-0.985759	0.152047	-0.071834
183	284541													9.645414	-0.549939	-1.475269	-0.150475	-0.988267	-0.026185	-0.074861	-0.015020	0.997081	-0.985775	0.151996	-0.071723
184	284708													9.640695	-0.577541	-1.493838	-0.150464	-0.988272	-0.026046	-0.074782	-0.014892	0.997089	-0.985783	0.151974	-0.071664
185	284874													9.646474	-0.603315	-1.471274	-0.150478	-0.988278	-0.025747	-0.074758	-0.014593	0.997095	-0.985783	0.151965	-0.071686
186	285041													9.659691	-0.657206	-1.461466	-0.150423	-0.988289	-0.025642	-0.074990	-0.014456	0.997080	-0.985774	0.151906	-0.071937
187	285208													9.643732	-0.645967	-1.470211	-0.150421	-0.988282	-0.025915	-0.075114	-0.014713	0.997066	-0.985764	0.151926	-0.072021
188	285374													9.649080	-0.588837	-1.488733	-0.150520	-0.988231	-0.027269	-0.075647	-0.015989	0.997006	-0.985708	0.152132	-0.072350
189	285541													9.664905	-0.582514	-1.497691	-0.150572	-0.988213	-0.027614	-0.075867	-0.016299	0.996985	-0.985684	0.152213	-0.072519
190	285708													9.678364	-0.591652	-1.480632	-0.150584	-0.988200	-0.028008	-0.076093	-0.016661	0.996962	-0.985664	0.152258	-0.072686
191	285874													9.650850	-0.597849	-1.472537	-0.150595	-0.988197	-0.028075	-0.076314	-0.016694	0.996944	-0.985646	0.152277	-0.072899
192	286041													9.660576	-0.613766	-1.474532	-0.150619	-0.988192	-0.028110	-0.076520	-0.016695	0.996928	-0.985626	0.152307	-0.073102
193	286208													9.634795	-0.626761	-1.473243	-0.150651	-0.988185	-0.028184	-0.076665	-0.016745	0.996916	-0.985610	0.152347	-0.073236
194	286374													9.603459	-0.643219	-1.459554	-0.150759	-0.988170	-0.028141	-0.076750	-0.016681	0.996911	-0.985587	0.152453	-0.073327
195	286541													9.636826	-0.657665	-1.484899	-0.150923	-0.988145	-0.028134	-0.076785	-0.016656	0.996909	-0.985559	0.152617	-0.073361
196	286708													9.639423	-0.678160	-1.484462	-0.151108	-0.988118	-0.028105	-0.076743	-0.016619	0.996912	-0.985534	0.152798	-0.073320
197	286874													9.650764	-0.671837	-1.477399	-0.151230	-0.988099	-0.028121	-0.076686	-0.016635	0.996917	-0.985519	0.152920	-0.073258
198	287041													9.630365	-0.650498	-1.504153	-0.151339	-0.988079	-0.028204	-0.076672	-0.016713	0.996916	-0.985504	0.153035	-0.073229
199	287208													9.671356	-0.635456	-1.515125	-0.151401	-0.988066	-0.028357	-0.076657	-0.016865	0.996915	-0.985496	0.153108	-0.073189
200	287374													9.707032	-0.606435	-1.497462	-0.151380	-0.988069	-0.028335	-0.076541	-0.016862	0.996924	-0.985508	0.153083	-0.073076
201	287541													9.659729	-0.615973	-1.489426	-0.151336	-0.988081	-0.028184	-0.076345	-0.016744	0.996941	-0.985530	0.153024	-0.072901
202	287708													9.629915	-0.671451	-1.486979	-0.151280	-0.988093	-0.028041	-0.076241	-0.016620	0.996951	-0.985546	0.152957	-0.072819
203	287874													9.632237	-0.651656	-1.460419	-0.151237	-0.988097	-0.028153	-0.076240	-0.016736	0.996949	-0.985553	0.152922	-0.072801
204	288041													9.633523	-0.638639	-1.461356	-0.151190	-0.988104	-0.028134	-0.076225	-0.016722	0.996950	-0.985561	0.152873	-0.072790
205	288208													9.644773	-0.643578	-1.487016	-0.151130	-0.988112	-0.028188	-0.076110	-0.016800	0.996958	-0.985580	0.152815	-0.072667
206	288374													9.641283	-0.654210	-1.467987	-0.151066	-0.988125	-0.028081	-0.075875	-0.016733	0.996977	-0.985608	0.152740	-0.072446
207	288541													9.619622	-0.641218	-1.471338	-0.151025	-0.988131	-0.028094	-0.075645	-0.016784	0.996994	-0.985631	0.152696	-0.072212
208	288708													9.635855	-0.633311	-1.493936	-0.151033	-0.988127	-0.028181	-0.075460	-0.016901	0.997006	-0.985644	0.152708	-0.072011
209	288874													9.664068	-0.602401	-1.469381	-0.151053	-0.988121	-0.028276	-0.075293	-0.017020	0.997016	-0.985654	0.152731	-0.071828
210	289041													9.667114	-0.601658	-1.475647	-0.151096	-0.988117	-0.028186	-0.075092	-0.016957	0.997032	-0.985663	0.152764	-0.071637
211	289208													9.652662	-0.592116	-1.495227	-0.151167	-0.988112	-0.027991	-0.074892	-0.016787	0.997050	-0.985667	0.152817	-0.071464
212	289374													9.641537	-0.617200	-1.466302	-0.151282	-0.988101	-0.027743	-0.074757	-0.016549	0.997064	-0.985660	0.152912	-0.071364
213	289541													9.674989	-0.633475	-1.486594	-0.151401	-0.988089	-0.027518	-0.074628	-0.016334	0.997078	-0.985651	0.153012	-0.071266
214	289708													9.660148	-0.630407	-1.474721	-0.151450	-0.988087	-0.027344	-0.074452	-0.016181	0.997093	-0.985657	0.153045	-0.071114
215	289874													9.636788	-0.630965	-1.488689	-0.151475	-0.988084	-0.027292	-0.074303	-0.016151	0.997105	-0.985664	0.153065	-0.070971
216	290041													9.647381	-0.656695	-1.468137	-0.151481	-0.988082	-0.027355	-0.074186	-0.016232	0.997112	-0.985672	0.153073	-0.070843
217	290208													9.614744	-0.598517	-1.477317	-0.151471	-0.988081	-0.027420	-0.073996	-0.016328	0.997125	-0.985688	0.153065	-0.070641
218	290374													9.638626	-0.598325	-1.477928	-0.151581	-0.988064	-0.027454	-0.073711	-0.016398	0.997145	-0.985693	0.153171	-0.070345
219	290541													9.650145	-0.612940	-1.491543	-0.151751	-0.988037	-0.027476	-0.073445	-0.016450	0.997164	-0.985686	0.153339	-0.070070
220	290708													9.652462	-0.609958	-1.497801	-0.151899	-0.988018	-0.027341	-0.073257	-0.016332	0.997179	-0.985677	0.153473	-0.069899
221	290874													9.644970	-0.578140	-1.500988	-0.152063	-0.987995	-0.027249	-0.073120	-0.016249	0.997191	-0.985662	0.153628	-0.069771
222	291041													9.624375	-0.573895	-1.483164	-0.152221	-0.987974	-0.027133	-0.072985	-0.016141	0.997202	-0.985648	0.153775	-0.069650
223	291208													9.655807	-0.582317	-1.463287	-0.152395	-0.987952	-0.026953	-0.072802	-0.015976	0.997218	-0.985635	0.153933	-0.069491
224	291374													9.653914	-0.587190	-1.505645	-0.152531	-0.987939	-0.026676	-0.072558	-0.015725	0.997240	-0.985632	0.154045	-0.069285
225	291541													9.657638	-0.599523	-1.472139	-0.152606	-0.987932	-0.026482	-0.072288	-0.015565	0.997262	-0.985640	0.154103	-0.069041
226	291708													9.639646	-0.585057	-1.495416	-0.152651	-0.987932	-0.026228	-0.072014	-0.015349	0.997286	-0.985653	0.154125	-0.068802
227	291874													9.652412	-0.563607	-1.499872	-0.152718	-0.987927	-0.026025	-0.071753	-0.015180	0.997307	-0.985662	0.154174	-0.068568
228	292041													9.645547	-0.547660	-1.489450	-0.152814	-0.987918	-0.025796	-0.071485	-0.014984	0.997329	-0.985666	0.154250	-0.068332
229	292208													9.649317	-0.560371	-1.501035	-0.152966	-0.987902	-0.025509	-0.071299	-0.014713	0.997346	-0.985656	0.154379	-0.068186
230	292374													9.660299	-0.569952	-1.476712	-0.153118	-0.987884	-0.025293	-0.071213	-0.014498	0.997356	-0.985639	0.154514	-0.068131
231	292541													9.650020	-0.589883	-1.486450	-0.153263	-0.987867	-0.025080	-0.071198	-0.014275	0.997360	-0.985617	0.154644	-0.068147
232	292708													9.645848	-0.619043	-1.486622	-0.153403	-0.987852	-0.024818	-0.071204	-0.013999	0.997364	-0.985595	0.154766	-0.068192
233	292874													9.631864	-0.626080	-1.498960	-0.153575	-0.987824	-0.024866	-0.071241	-0.014030	0.997360	-0.985566	0.154941	-0.068219
234	293041													9.636859	-0.645962	-1.483245	-0.153744	-0.987793	-0.025036	-0.071272	-0.014186	0.997356	-0.985537	0.155122	-0.068221
235	293208													9.625764	-0.610386	-1.506109	-0.153921	-0.987760	-0.025260	-0.071317	-0.014392	0.997350	-0.985506	0.155314	-0.068229
236	293374													9.661085	-0.594105	-1.504930	-0.154077	-0.987727	-0.025588	-0.071371	-0.014704	0.997341	-0.985478	0.155493	-0.068230
237	293541													9.640396	-0.564829	-1.506886	-0.154233	-0.987695	-0.025886	-0.071439	-0.014983	0.997332	-0.985449	0.155670	-0.068249
238	293708													9.640267	-0.562836	-1.516611	-0.154416	-0.987660	-0.026145	-0.071546	-0.015215	0.997321	-0.985412	0.155873	-0.068314
239	293874													9.625675	-0.533255	-1.517350	-0.154620	-0.987624	-0.026308	-0.071638	-0.015351	0.997313	-0.985373	0.156089	-0.068378
240	294041													9.638708	-0.545376	-1.500195	-0.154843	-0.987589	-0.026307	-0.071736	-0.015318	0.997306	-0.985331	0.156313	-0.068474
241	294208													9.645812	-0.577191	-1.517647	-0.155047	-0.987559	-0.026222	-0.071832	-0.015203	0.997301	-0.985292	0.156512	-0.068582
242	294374													9.653366	-0.601816	-1.524644	-0.155220	-0.987535	-0.026083	-0.071897	-0.015040	0.997299	-0.985260	0.156676	-0.068666
243	294541													9.667411	-0.641418	-1.521952	-0.155321	-0.987525	-0.025885	-0.071927	-0.014828	0.997300	-0.985242	0.156763	-0.068726
244	294708													9.639858	-0.639145	-1.543660	-0.155387	-0.987516	-0.025807	-0.071913	-0.014747	0.997302	-0.985233	0.156824	-0.068723
245	294874													9.612087	-0.645670	-1.535040	-0.155444	-0.987507	-0.025813	-0.071889	-0.014753	0.997304	-0.985225	0.156880	-0.068698
246	295041													9.626867	-0.620862	-1.524380	-0.155516	-0.987496	-0.025801	-0.071848	-0.014742	0.997307	-0.985217	0.156951	-0.068657
247	295208													9.653028	-0.638582	-1.533642	-0.155563	-0.987484	-0.025974	-0.071794	-0.014923	0.997308	-0.985214	0.157009	-0.068574
248	295374													9.613575	-0.629186	-1.527344	-0.155590	-0.987475	-0.026170	-0.071787	-0.015120	0.997305	-0.985210	0.157049	-0.068535
249	295541													9.646995	-0.613651	-1.533686	-0.155615	-0.987463	-0.026469	-0.071877	-0.015406	0.997294	-0.985199	0.157096	-0.068579
250	295708													9.668526	-0.585367	-1.552704	-0.155630	-0.987453	-0.026749	-0.071939	-0.015677	0.997286	-0.985192	0.157132	-0.068597
251	295874													9.675844	-0.556061	-1.542855	-0.155606	-0.987455	-0.026830	-0.071828	-0.015779	0.997292	-0.985204	0.157111	-0.068472
252	296041													9.662386	-0.589463	-1.539690	-0.155543	-0.987469	-0.026677	-0.071694	-0.015650	0.997304	-0.985224	0.157036	-0.068361
253	296208													9.644096	-0.631405	-1.521498	-0.155436	-0.987489	-0.026555	-0.071666	-0.015539	0.997308	-0.985243	0.156920	-0.068354
254	296374													9.623632	-0.611515	-1.516090	-0.155282	-0.987515	-0.026483	-0.071752	-0.015462	0.997303	-0.985261	0.156763	-0.068455
255	296541													9.611249	-0.596443	-1.522344	-0.155107	-0.987542	-0.026498	-0.071803	-0.015482	0.997299	-0.985285	0.156591	-0.068508
256	296708													9.627804	-0.613071	-1.521893	-0.154937	-0.987571	-0.026435	-0.071735	-0.015441	0.997304	-0.985316	0.156416	-0.068451
257	296874													9.627315	-0.628744	-1.509531	-0.154788	-0.987594	-0.026425	-0.071591	-0.015464	0.997314	-0.985350	0.156264	-0.068309
258	297041													9.636819	-0.630135	-1.495334	-0.154670	-0.987610	-0.026537	-0.071494	-0.015601	0.997319	-0.985376	0.156152	-0.068195
259	297208													9.637797	-0.592499	-1.506552	-0.154583	-0.987621	-0.026624	-0.071457	-0.015701	0.997320	-0.985392	0.156071	-0.068145
260	297375													9.654779	-0.596411	-1.521086	-0.154468	-0.987637	-0.026685	-0.071415	-0.015778	0.997322	-0.985413	0.155960	-0.068095
261	297541													9.661494	-0.601840	-1.506405	-0.154381	-0.987646	-0.026871	-0.071431	-0.015968	0.997318	-0.985426	0.155886	-0.068083
262	297708													9.655293	-0.612953	-1.509043	-0.154290	-0.987659	-0.026914	-0.071446	-0.016016	0.997316	-0.985439	0.155799	-0.068093
263	297875													9.631310	-0.616759	-1.506423	-0.154222	-0.987665	-0.027074	-0.071481	-0.016177	0.997311	-0.985447	0.155743	-0.068104
264	298041													9.658950	-0.603714	-1.500868	-0.154136	-0.987675	-0.027210	-0.071510	-0.016315	0.997306	-0.985459	0.155666	-0.068114
265	298208													9.660554	-0.597574	-1.491056	-0.153988	-0.987694	-0.027349	-0.071505	-0.016467	0.997304	-0.985482	0.155529	-0.068090
266	298375													9.630982	-0.629952	-1.532824	-0.153830	-0.987719	-0.027347	-0.071484	-0.016479	0.997306	-0.985508	0.155371	-0.068071
267	298541													9.627894	-0.630307	-1.492578	-0.153648	-0.987745	-0.027434	-0.071478	-0.016580	0.997304	-0.985537	0.155195	-0.068054
268	298708													9.612194	-0.575104	-1.514577	-0.153544	-0.987760	-0.027451	-0.071369	-0.016622	0.997312	-0.985561	0.155090	-0.067943
269	298875													9.642521	-0.580622	-1.519702	-0.153499	-0.987769	-0.027381	-0.071175	-0.016586	0.997326	-0.985582	0.155038	-0.067759
270	299041													9.656465	-0.600170	-1.502779	-0.153450	-0.987780	-0.027258	-0.070984	-0.016494	0.997341	-0.985603	0.154977	-0.067586
271	299208													9.652595	-0.599662	-1.495877	-0.153406	-0.987789	-0.027208	-0.070858	-0.016467	0.997350	-0.985619	0.154928	-0.067467
272	299375													9.644941	-0.595367	-1.514763	-0.153372	-0.987798	-0.027074	-0.070785	-0.016345	0.997358	-0.985630	0.154883	-0.067415
273	299541													9.655106	-0.609797	-1.504692	-0.153335	-0.987807	-0.026928	-0.070711	-0.016213	0.997365	-0.985641	0.154835	-0.067363
274	299708													9.644841	-0.615333	-1.463137	-0.153269	-0.987820	-0.026827	-0.070647	-0.016125	0.997371	-0.985656	0.154761	-0.067315
275	299875													9.615501	-0.623816	-1.495917	-0.153192	-0.987833	-0.026783	-0.070536	-0.016104	0.997379	-0.985676	0.154680	-0.067211
276	300041													9.639299	-0.607326	-1.465734	-0.153153	-0.987841	-0.026737	-0.070334	-0.016092	0.997394	-0.985696	0.154634	-0.067014
277	300208													9.630895	-0.585776	-1.468270	-0.153162	-0.987839	-0.026736	-0.070119	-0.016124	0.997408	-0.985710	0.154640	-0.066797
278	300375													9.645106	-0.556777	-1.480454	-0.153242	-0.987829	-0.026655	-0.069866	-0.016076	0.997427	-0.985716	0.154710	-0.066553
279	300541													9.647359	-0.544810	-1.469478	-0.153327	-0.987820	-0.026519	-0.069655	-0.015966	0.997443	-0.985717	0.154783	-0.066359
280	300708													9.644454	-0.557992	-1.493488	-0.153449	-0.987805	-0.026366	-0.069473	-0.015832	0.997458	-0.985711	0.154891	-0.066196
281	300875													9.654337	-0.568652	-1.474100	-0.153573	-0.987792	-0.026104	-0.069398	-0.015570	0.997468	-0.985697	0.154995	-0.066159
282	301041													9.648051	-0.595361	-1.493968	-0.153681	-0.987781	-0.025901	-0.069376	-0.015362	0.997472	-0.985682	0.155089	-0.066167
283	301208													9.638155	-0.626640	-1.499444	-0.153783	-0.987770	-0.025728	-0.069375	-0.015180	0.997475	-0.985666	0.155179	-0.066192
284	301375													9.643962	-0.658534	-1.503237	-0.153838	-0.987761	-0.025728	-0.069329	-0.015184	0.997478	-0.985661	0.155234	-0.066145
285	301541													9.645411	-0.636114	-1.498285	-0.153887	-0.987750	-0.025844	-0.069265	-0.015307	0.997481	-0.985658	0.155290	-0.066061
286	301708													9.650705	-0.613998	-1.511319	-0.153936	-0.987737	-0.026056	-0.069234	-0.015523	0.997480	-0.985652	0.155352	-0.065995
287	301875													9.627602	-0.584321	-1.498333	-0.154012	-0.987717	-0.026380	-0.069212	-0.015848	0.997476	-0.985642	0.155449	-0.065921
288	302041													9.649740	-0.556121	-1.511835	-0.154124	-0.987692	-0.026653	-0.069161	-0.016124	0.997475	-0.985628	0.155578	-0.065825
289	302208													9.657934	-0.537322	-1.524280	-0.154232	-0.987672	-0.026782	-0.069122	-0.016254	0.997476	-0.985614	0.155693	-0.065763
290	302375													9.648398	-0.547055	-1.511520	-0.154359	-0.987651	-0.026797	-0.069147	-0.016256	0.997474	-0.985592	0.155821	-0.065784
291	302541													9.634706	-0.555543	-1.520756	-0.154497	-0.987634	-0.026658	-0.069195	-0.016099	0.997473	-0.985567	0.155951	-0.065852
292	302708													9.647429	-0.586481	-1.500151	-0.154663	-0.987614	-0.026428	-0.069174	-0.015859	0.997479	-0.985543	0.156101	-0.065865
293	302875													9.643742	-0.610065	-1.527701	-0.154813	-0.987597	-0.026162	-0.069145	-0.015585	0.997485	-0.985521	0.156233	-0.065875
294	303041													9.644691	-0.618934	-1.526769	-0.155027	-0.987569	-0.025944	-0.068943	-0.015383	0.997502	-0.985502	0.156429	-0.065701
295	303208													9.624654	-0.597867	-1.529308	-0.155111	-0.987557	-0.025897	-0.068803	-0.015352	0.997512	-0.985498	0.156507	-0.065565
296	303375													9.655610	-0.617246	-1.515911	-0.155193	-0.987545	-0.025889	-0.068719	-0.015351	0.997518	-0.985491	0.156586	-0.065480
297	303541													9.650130	-0.576442	-1.515021	-0.155246	-0.987536	-0.025909	-0.068686	-0.015373	0.997520	-0.985485	0.156640	-0.065443
298	303708													9.649462	-0.560907	-1.511863	-0.155286	-0.987530	-0.025904	-0.068685	-0.015365	0.997520	-0.985479	0.156680	-0.065442
299	303875													9.637421	-0.571571	-1.497662	-0.155335	-0.987522	-0.025898	-0.068706	-0.015352	0.997519	-0.985470	0.156729	-0.065464
300	304041													9.613128	-0.584555	-1.517968	-0.155377	-0.987516	-0.025888	-0.068797	-0.015326	0.997513	-0.985457	0.156772	-0.065556
301	304208													9.615261	-0.598226	-1.511064	-0.155515	-0.987492	-0.025971	-0.068906	-0.015383	0.997505	-0.985427	0.156917	-0.065652
302	304375													9.654184	-0.621144	-1.510701	-0.155714	-0.987461	-0.025975	-0.068991	-0.015360	0.997499	-0.985390	0.157116	-0.065734
303	304541													9.625159	-0.624922	-1.510706	-0.155884	-0.987430	-0.026130	-0.069085	-0.015490	0.997490	-0.985356	0.157298	-0.065802
304	304708													9.630260	-0.624262	-1.528137	-0.156081	-0.987393	-0.026352	-0.069275	-0.015670	0.997475	-0.985312	0.157512	-0.065955
305	304875													9.643057	-0.592119	-1.532313	-0.156293	-0.987355	-0.026525	-0.069363	-0.015817	0.997466	-0.985272	0.157737	-0.066013
306	305041													9.656525	-0.562866	-1.537097	-0.156477	-0.987324	-0.026577	-0.069280	-0.015870	0.997471	-0.985249	0.157922	-0.065918
307	305208													9.655026	-0.577493	-1.553762	-0.156651	-0.987299	-0.026465	-0.069084	-0.015776	0.997486	-0.985235	0.158086	-0.065735
308	305375													9.646283	-0.602715	-1.522543	-0.156818	-0.987276	-0.026339	-0.069032	-0.015646	0.997492	-0.985212	0.158243	-0.065700
309	305541													9.640181	-0.589576	-1.511617	-0.156946	-0.987261	-0.026158	-0.069124	-0.015441	0.997489	-0.985185	0.158360	-0.065821
310	305708													9.622622	-0.579681	-1.497131	-0.157034	-0.987251	-0.026001	-0.069196	-0.015264	0.997486	-0.985166	0.158439	-0.065916
311	305875													9.621320	-0.593612	-1.524496	-0.157115	-0.987244	-0.025782	-0.069173	-0.015041	0.997491	-0.985155	0.158504	-0.065928
312	306041													9.636871	-0.636650	-1.532422	-0.157195	-0.987236	-0.025588	-0.069108	-0.014850	0.997499	-0.985147	0.158570	-0.065892
313	306208													9.622233	-0.651560	-1.521719	-0.157291	-0.987221	-0.025562	-0.069071	-0.014824	0.997502	-0.985134	0.158663	-0.065856
314	306375													9.618617	-0.621495	-1.532634	-0.157382	-0.987206	-0.025586	-0.069027	-0.014849	0.997504	-0.985122	0.158756	-0.065807
315	306541													9.640493	-0.611039	-1.547075	-0.157546	-0.987179	-0.025621	-0.069001	-0.014877	0.997506	-0.985098	0.158921	-0.065773
316	306708													9.636587	-0.586986	-1.550293	-0.157778	-0.987139	-0.025734	-0.068929	-0.014987	0.997509	-0.985066	0.159159	-0.065678
317	306875													9.632776	-0.612877	-1.536375	-0.158045	-0.987095	-0.025795	-0.068853	-0.015043	0.997513	-0.985028	0.159428	-0.065587
318	307041													9.639969	-0.604964	-1.539263	-0.158313	-0.987052	-0.025785	-0.068790	-0.015025	0.997518	-0.984990	0.159694	-0.065521
319	307208													9.639444	-0.608334	-1.548405	-0.158555	-0.987013	-0.025801	-0.068731	-0.015034	0.997522	-0.984955	0.159935	-0.065454
320	307375													9.652631	-0.600367	-1.551977	-0.158722	-0.986985	-0.025849	-0.068668	-0.015083	0.997526	-0.984933	0.160104	-0.065380
321	307541													9.601791	-0.611632	-1.565724	-0.158829	-0.986969	-0.025817	-0.068593	-0.015055	0.997531	-0.984921	0.160207	-0.065308
322	307708													9.626732	-0.616942	-1.570230	-0.158925	-0.986954	-0.025764	-0.068570	-0.014998	0.997534	-0.984907	0.160300	-0.065292
323	307875													9.613064	-0.588583	-1.575577	-0.159012	-0.986941	-0.025742	-0.068511	-0.014980	0.997538	-0.984897	0.160385	-0.065234
324	308041													9.645032	-0.575273	-1.591283	-0.159077	-0.986933	-0.025656	-0.068340	-0.014916	0.997551	-0.984898	0.160441	-0.065074
325	308208													9.677135	-0.598056	-1.599251	-0.159085	-0.986935	-0.025530	-0.068234	-0.014806	0.997559	-0.984904	0.160438	-0.064987
326	308375													9.677042	-0.586659	-1.579950	-0.159003	-0.986948	-0.025541	-0.068203	-0.014827	0.997561	-0.984919	0.160357	-0.064956
327	308541													9.654257	-0.599194	-1.567588	-0.158832	-0.986972	-0.025655	-0.068244	-0.014948	0.997557	-0.984944	0.160195	-0.064981
328	308708													9.645079	-0.590996	-1.579896	-0.158623	-0.987003	-0.025762	-0.068319	-0.015057	0.997550	-0.984973	0.159995	-0.065042
329	308875													9.632683	-0.603628	-1.568087	-0.158359	-0.987044	-0.025811	-0.068353	-0.015120	0.997547	-0.985013	0.159735	-0.065073
330	309041													9.632032	-0.592852	-1.541071	-0.158107	-0.987080	-0.025994	-0.068338	-0.015323	0.997545	-0.985054	0.159495	-0.065033
331	309208													9.624749	-0.594448	-1.543635	-0.157811	-0.987121	-0.026219	-0.068292	-0.015578	0.997544	-0.985105	0.159214	-0.064954
332	309375													9.630794	-0.576052	-1.539664	-0.157539	-0.987161	-0.026361	-0.068150	-0.015762	0.997551	-0.985158	0.158950	-0.064792
333	309541													9.631767	-0.546478	-1.524374	-0.157300	-0.987197	-0.026428	-0.068010	-0.015869	0.997558	-0.985206	0.158714	-0.064643
334	309708													9.629922	-0.529729	-1.544124	-0.157090	-0.987232	-0.026366	-0.067867	-0.015843	0.997569	-0.985250	0.158497	-0.064512
335	309875													9.635645	-0.535631	-1.551973	-0.156927	-0.987263	-0.026174	-0.067792	-0.015672	0.997576	-0.985281	0.158321	-0.064469
336	310041													9.621136	-0.543214	-1.521888	-0.156773	-0.987293	-0.025962	-0.067767	-0.015471	0.997581	-0.985307	0.158154	-0.064480
337	310208													9.624887	-0.585548	-1.534671	-0.156638	-0.987322	-0.025698	-0.067859	-0.015199	0.997579	-0.985322	0.158002	-0.064618
338	310375													9.634194	-0.616275	-1.521913	-0.156525	-0.987343	-0.025582	-0.067998	-0.015067	0.997572	-0.985331	0.157884	-0.064779
339	310541													9.654471	-0.640942	-1.529073	-0.156354	-0.987370	-0.025591	-0.068135	-0.015066	0.997562	-0.985348	0.157716	-0.064919
340	310708													9.647532	-0.662883	-1.521363	-0.156112	-0.987403	-0.025763	-0.068357	-0.015220	0.997545	-0.985371	0.157490	-0.065120
341	310875													9.639202	-0.658775	-1.517771	-0.155824	-0.987439	-0.026118	-0.068633	-0.015554	0.997521	-0.985397	0.157231	-0.065348
342	311041													9.622535	-0.630769	-1.532882	-0.155505	-0.987477	-0.026582	-0.068889	-0.016003	0.997496	-0.985430	0.156947	-0.065538
343	311208													9.625033	-0.582112	-1.550480	-0.155222	-0.987508	-0.027098	-0.069171	-0.016499	0.997468	-0.985455	0.156703	-0.065746
344	311375													9.640976	-0.588899	-1.532539	-0.154966	-0.987537	-0.027517	-0.069465	-0.016892	0.997441	-0.985475	0.156481	-0.065981
345	311541													9.653708	-0.579519	-1.515181	-0.154685	-0.987572	-0.027826	-0.069764	-0.017176	0.997416	-0.985498	0.156226	-0.066240
346	311708													9.637568	-0.595664	-1.496295	-0.154426	-0.987606	-0.028038	-0.070054	-0.017362	0.997392	-0.985518	0.155987	-0.066505
347	311875													9.633018	-0.607854	-1.514693	-0.154182	-0.987643	-0.028098	-0.070308	-0.017399	0.997374	-0.985538	0.155752	-0.066756
348	312041													9.645892	-0.636757	-1.520470	-0.153938	-0.987682	-0.028072	-0.070510	-0.017357	0.997360	-0.985562	0.155510	-0.066970
349	312208													9.644370	-0.673299	-1.491413	-0.153719	-0.987718	-0.028010	-0.070669	-0.017285	0.997350	-0.985584	0.155291	-0.067144
350	312375													9.634028	-0.675617	-1.482664	-0.153516	-0.987747	-0.028088	-0.070749	-0.017365	0.997343	-0.985610	0.155095	-0.067216
351	312541													9.648207	-0.670557	-1.480234	-0.153315	-0.987776	-0.028180	-0.070782	-0.017467	0.997339	-0.985639	0.154901	-0.067239
352	312708													9.635004	-0.662539	-1.478269	-0.153181	-0.987791	-0.028364	-0.070775	-0.017663	0.997336	-0.985660	0.154780	-0.067205
353	312875													9.616224	-0.655415	-1.462769	-0.153103	-0.987799	-0.028511	-0.070751	-0.017821	0.997335	-0.985674	0.154713	-0.067159
354	313041													9.618084	-0.646271	-1.468866	-0.153090	-0.987799	-0.028570	-0.070703	-0.017888	0.997337	-0.985680	0.154702	-0.067101
355	313208													9.636084	-0.659406	-1.489275	-0.153112	-0.987792	-0.028691	-0.070600	-0.018025	0.997342	-0.985684	0.154730	-0.066979
356	313375													9.617673	-0.638439	-1.473143	-0.153137	-0.987788	-0.028710	-0.070521	-0.018055	0.997347	-0.985685	0.154756	-0.066895
357	313541													9.643457	-0.630975	-1.483929	-0.153167	-0.987781	-0.028793	-0.070511	-0.018138	0.997346	-0.985681	0.154791	-0.066871
358	313708													9.706123	-0.635578	-1.504528	-0.153162	-0.987782	-0.028775	-0.070514	-0.018120	0.997346	-0.985682	0.154785	-0.066877
359	313875													9.691812	-0.588011	-1.490442	-0.153083	-0.987796	-0.028711	-0.070407	-0.018077	0.997355	-0.985702	0.154699	-0.066780
360	314042													9.673250	-0.644652	-1.464077	-0.152952	-0.987824	-0.028462	-0.070258	-0.017859	0.997369	-0.985733	0.154549	-0.066671
361	314208													9.633127	-0.693935	-1.489290	-0.152815	-0.987846	-0.028415	-0.070194	-0.017830	0.997374	-0.985759	0.154409	-0.066617
362	314375													9.585091	-0.652214	-1.464071	-0.152736	-0.987858	-0.028448	-0.070193	-0.017869	0.997373	-0.985771	0.154331	-0.066611
363	314542													9.626523	-0.635056	-1.459400	-0.152684	-0.987863	-0.028519	-0.070151	-0.017951	0.997375	-0.985782	0.154284	-0.066559
364	314708													9.655437	-0.632567	-1.460859	-0.152651	-0.987867	-0.028572	-0.070017	-0.018027	0.997383	-0.985797	0.154252	-0.066416
365	314875													9.662694	-0.635385	-1.478397	-0.152592	-0.987873	-0.028674	-0.069849	-0.018162	0.997392	-0.985818	0.154197	-0.066231
366	315042													9.647723	-0.633543	-1.481812	-0.152514	-0.987884	-0.028711	-0.069718	-0.018224	0.997400	-0.985839	0.154119	-0.066094
367	315208													9.634710	-0.613949	-1.496453	-0.152497	-0.987883	-0.028831	-0.069607	-0.018364	0.997405	-0.985850	0.154108	-0.065963
368	315375													9.652319	-0.589981	-1.448203	-0.152498	-0.987883	-0.028831	-0.069489	-0.018382	0.997413	-0.985858	0.154107	-0.065844
369	315542													9.654018	-0.589702	-1.487841	-0.152557	-0.987874	-0.028821	-0.069366	-0.018388	0.997422	-0.985857	0.154163	-0.065720
370	315708													9.646510	-0.607186	-1.484598	-0.152661	-0.987859	-0.028784	-0.069266	-0.018358	0.997429	-0.985848	0.154262	-0.065623
371	315875													9.636062	-0.614957	-1.494007	-0.152786	-0.987841	-0.028761	-0.069144	-0.018346	0.997438	-0.985837	0.154383	-0.065501
372	316042													9.675268	-0.626133	-1.479541	-0.152883	-0.987828	-0.028689	-0.069055	-0.018281	0.997445	-0.985829	0.154473	-0.065420
373	316208													9.686104	-0.597548	-1.470887	-0.152833	-0.987836	-0.028685	-0.068943	-0.018297	0.997453	-0.985844	0.154422	-0.065308
374	316375													9.672957	-0.650877	-1.510322	-0.152736	-0.987850	-0.028695	-0.068895	-0.018321	0.997456	-0.985863	0.154325	-0.065260
375	316542													9.663353	-0.622326	-1.481987	-0.152557	-0.987876	-0.028756	-0.068899	-0.018395	0.997454	-0.985890	0.154150	-0.065257
376	316708													9.631290	-0.593911	-1.485689	-0.152357	-0.987904	-0.028862	-0.068822	-0.018527	0.997457	-0.985926	0.153956	-0.065167
377	316875													9.642737	-0.613656	-1.469131	-0.152227	-0.987922	-0.028949	-0.068691	-0.018644	0.997464	-0.985956	0.153829	-0.065023
378	317042													9.645819	-0.649933	-1.482527	-0.152095	-0.987940	-0.029020	-0.068632	-0.018734	0.997466	-0.985980	0.153701	-0.064955
379	317208													9.645255	-0.640921	-1.476093	-0.152007	-0.987950	-0.029147	-0.068692	-0.018858	0.997460	-0.985990	0.153623	-0.064998
380	317375													9.636770	-0.618109	-1.460039	-0.151987	-0.987947	-0.029326	-0.068743	-0.019033	0.997453	-0.985989	0.153616	-0.065021
381	317542													9.618106	-0.610419	-1.457366	-0.152023	-0.987938	-0.029462	-0.068736	-0.019169	0.997451	-0.985984	0.153661	-0.064992
382	317708													9.628655	-0.616180	-1.476530	-0.152112	-0.987922	-0.029540	-0.068639	-0.019256	0.997456	-0.985977	0.153753	-0.064881
383	317875													9.660534	-0.617897	-1.488325	-0.152185	-0.987910	-0.029570	-0.068464	-0.019310	0.997467	-0.985978	0.153824	-0.064698
384	318042													9.669857	-0.620661	-1.503012	-0.152191	-0.987910	-0.029534	-0.068279	-0.019302	0.997480	-0.985990	0.153824	-0.064516
385	318208													9.657062	-0.590514	-1.505837	-0.152135	-0.987922	-0.029419	-0.068058	-0.019224	0.997496	-0.986014	0.153756	-0.064311
386	318375													9.629199	-0.557756	-1.488882	-0.152131	-0.987927	-0.029251	-0.067822	-0.019091	0.997515	-0.986031	0.153737	-0.064099
387	318542													9.614313	-0.579503	-1.487712	-0.152197	-0.987926	-0.028938	-0.067544	-0.018814	0.997539	-0.986040	0.153777	-0.063865
388	318708													9.604261	-0.584365	-1.501064	-0.152370	-0.987910	-0.028576	-0.067302	-0.018475	0.997562	-0.986029	0.153921	-0.063674
389	318875													9.624858	-0.595251	-1.477427	-0.152616	-0.987884	-0.028183	-0.067114	-0.018092	0.997581	-0.986004	0.154138	-0.063539
390	319042													9.668350	-0.619411	-1.499107	-0.152867	-0.987856	-0.027783	-0.067006	-0.017688	0.997596	-0.985973	0.154361	-0.063488
391	319208													9.680148	-0.625897	-1.480898	-0.153029	-0.987841	-0.027435	-0.066954	-0.017334	0.997605	-0.985951	0.154500	-0.063487
392	319375													9.672650	-0.656235	-1.500194	-0.153097	-0.987835	-0.027271	-0.066957	-0.017163	0.997608	-0.985940	0.154557	-0.063514
393	319542													9.669743	-0.659685	-1.483189	-0.153094	-0.987835	-0.027297	-0.067000	-0.017183	0.997605	-0.985938	0.154556	-0.063554
394	319708													9.630948	-0.650049	-1.491909	-0.153093	-0.987829	-0.027490	-0.067019	-0.017375	0.997600	-0.985937	0.154568	-0.063543
395	319875													9.635898	-0.608509	-1.486180	-0.153126	-0.987816	-0.027786	-0.066977	-0.017679	0.997598	-0.985934	0.154620	-0.063454
396	320042													9.657146	-0.597776	-1.479439	-0.153168	-0.987801	-0.028101	-0.066932	-0.018001	0.997595	-0.985931	0.154680	-0.063358
397	320208													9.661303	-0.575906	-1.485357	-0.153187	-0.987790	-0.028360	-0.066953	-0.018259	0.997589	-0.985927	0.154716	-0.063338
398	320375													9.636939	-0.548643	-1.483792	-0.153242	-0.987778	-0.028491	-0.066977	-0.018384	0.997585	-0.985916	0.154780	-0.063341
399	320542													9.609379	-0.527743	-1.490684	-0.153350	-0.987760	-0.028531	-0.067022	-0.018409	0.997582	-0.985896	0.154892	-0.063379
400	320708													9.599043	-0.548466	-1.493359	-0.153558	-0.987734	-0.028323	-0.067023	-0.018186	0.997586	-0.985864	0.155085	-0.063408
401	320875													9.645788	-0.592599	-1.497762	-0.153815	-0.987704	-0.027964	-0.066968	-0.017815	0.997596	-0.985828	0.155318	-0.063405
402	321042													9.647333	-0.648963	-1.535832	-0.154039	-0.987679	-0.027604	-0.066849	-0.017456	0.997610	-0.985801	0.155517	-0.063336
403	321208													9.637105	-0.625831	-1.509806	-0.154139	-0.987670	-0.027367	-0.066724	-0.017229	0.997623	-0.985794	0.155598	-0.063246
404	321375													9.634030	-0.622814	-1.521834	-0.154223	-0.987661	-0.027207	-0.066601	-0.017082	0.997633	-0.985789	0.155670	-0.063145
405	321542													9.663892	-0.619817	-1.525181	-0.154307	-0.987652	-0.027072	-0.066453	-0.016964	0.997645	-0.985786	0.155743	-0.063014
406	321708													9.676341	-0.573513	-1.539879	-0.154359	-0.987647	-0.026940	-0.066189	-0.016869	0.997664	-0.985795	0.155782	-0.062768
407	321875													9.654207	-0.584438	-1.513240	-0.154376	-0.987651	-0.026696	-0.065900	-0.016667	0.997687	-0.985812	0.155778	-0.062513
408	322042													9.639817	-0.624967	-1.484444	-0.154376	-0.987655	-0.026553	-0.065730	-0.016549	0.997700	-0.985823	0.155766	-0.062363
409	322208													9.607041	-0.586595	-1.502293	-0.154339	-0.987663	-0.026483	-0.065695	-0.016487	0.997704	-0.985832	0.155724	-0.062340
410	322375													9.621800	-0.580486	-1.488778	-0.154328	-0.987667	-0.026387	-0.065671	-0.016394	0.997707	-0.985835	0.155707	-0.062331
411	322542													9.651615	-0.583501	-1.487298	-0.154288	-0.987677	-0.026274	-0.065578	-0.016297	0.997714	-0.985847	0.155658	-0.062255
412	322708													9.644183	-0.597477	-1.482642	-0.154262	-0.987683	-0.026193	-0.065425	-0.016241	0.997725	-0.985861	0.155625	-0.062114
413	322875													9.640018	-0.592435	-1.499618	-0.154265	-0.987686	-0.026062	-0.065335	-0.016123	0.997733	-0.985867	0.155618	-0.062043
414	323042													9.625298	-0.584263	-1.490746	-0.154317	-0.987678	-0.026032	-0.065291	-0.016096	0.997736	-0.985862	0.155667	-0.062003
415	323208													9.637292	-0.584810	-1.499482	-0.154448	-0.987661	-0.025898	-0.065222	-0.015964	0.997743	-0.985846	0.155788	-0.061951
416	323375													9.656239	-0.586988	-1.510590	-0.154600	-0.987639	-0.025832	-0.065171	-0.015894	0.997748	-0.985825	0.155935	-0.061908
417	323542													9.650084	-0.589552	-1.499296	-0.154737	-0.987620	-0.025756	-0.065130	-0.015816	0.997751	-0.985807	0.156067	-0.061876
418	323708													9.648642	-0.599496	-1.495262	-0.154895	-0.987595	-0.025758	-0.065139	-0.015806	0.997751	-0.985781	0.156224	-0.061883
419	323875													9.663061	-0.585125	-1.525377	-0.155034	-0.987571	-0.025832	-0.065182	-0.015866	0.997747	-0.985756	0.156368	-0.061912
420	324042													9.632757	-0.587013	-1.495834	-0.155132	-0.987554	-0.025917	-0.065185	-0.015945	0.997746	-0.985741	0.156472	-0.061900
421	324208													9.620277	-0.533953	-1.525843	-0.155689	-0.987457	-0.026241	-0.065120	-0.016247	0.997745	-0.985657	0.157047	-0.061774
422	324375													9.675388	-0.595746	-1.547250	-0.156099	-0.987398	-0.026058	-0.064792	-0.016089	0.997769	-0.985614	0.157440	-0.061464
423	324542													9.669117	-0.587020	-1.540401	-0.156209	-0.987382	-0.025981	-0.064754	-0.016010	0.997773	-0.985599	0.157544	-0.061436
424	324708													9.644934	-0.573476	-1.538720	-0.156293	-0.987371	-0.025905	-0.064787	-0.015922	0.997772	-0.985584	0.157623	-0.061481
425	324875													9.618999	-0.572998	-1.517352	-0.156393	-0.987357	-0.025825	-0.064734	-0.015844	0.997777	-0.985571	0.157717	-0.061438
426	325042													9.594728	-0.574296	-1.550147	-0.156567	-0.987332	-0.025723	-0.064596	-0.015752	0.997787	-0.985553	0.157882	-0.061311
427	325208													9.602424	-0.581537	-1.526977	-0.156814	-0.987296	-0.025617	-0.064385	-0.015663	0.997802	-0.985527	0.158119	-0.061111
428	325375													9.642413	-0.564797	-1.521252	-0.157044	-0.987261	-0.025538	-0.064139	-0.015609	0.997819	-0.985507	0.158339	-0.060870
429	325542													9.641102	-0.540964	-1.529857	-0.157266	-0.987229	-0.025431	-0.063898	-0.015525	0.997836	-0.985487	0.158551	-0.060640
430	325708													9.664476	-0.510299	-1.529285	-0.157449	-0.987205	-0.025207	-0.063656	-0.015327	0.997854	-0.985473	0.158716	-0.060429
431	325875													9.635680	-0.526506	-1.545839	-0.157628	-0.987185	-0.024890	-0.063489	-0.015022	0.997869	-0.985456	0.158872	-0.060307
432	326042													9.649707	-0.547304	-1.560092	-0.157761	-0.987171	-0.024600	-0.063385	-0.014737	0.997880	-0.985441	0.158986	-0.060247
433	326208													9.643122	-0.587169	-1.563765	-0.157864	-0.987160	-0.024381	-0.063378	-0.014510	0.997884	-0.985425	0.159075	-0.060274
434	326375													9.637499	-0.595581	-1.525598	-0.157918	-0.987154	-0.024270	-0.063450	-0.014384	0.997881	-0.985412	0.159124	-0.060364
435	326542													9.635572	-0.617111	-1.552356	-0.158003	-0.987139	-0.024320	-0.063554	-0.014412	0.997874	-0.985391	0.159213	-0.060459
436	326708													9.639594	-0.638182	-1.532567	-0.158112	-0.987117	-0.024499	-0.063651	-0.014570	0.997866	-0.985368	0.159334	-0.060528
437	326875													9.635157	-0.612776	-1.530702	-0.158206	-0.987092	-0.024904	-0.063808	-0.014949	0.997850	-0.985342	0.159455	-0.060619
438	327042													9.639894	-0.575136	-1.548451	-0.158312	-0.987063	-0.025375	-0.063955	-0.015394	0.997834	-0.985316	0.159591	-0.060691
439	327208													9.647572	-0.570683	-1.560421	-0.158390	-0.987040	-0.025796	-0.064111	-0.015790	0.997818	-0.985293	0.159698	-0.060779
440	327375													9.637033	-0.547699	-1.536371	-0.158431	-0.987022	-0.026209	-0.064278	-0.016178	0.997801	-0.985276	0.159767	-0.060880
441	327542													9.631115	-0.524933	-1.559638	-0.158525	-0.987000	-0.026459	-0.064430	-0.016400	0.997787	-0.985251	0.159879	-0.060992
442	327708													9.633325	-0.529221	-1.551547	-0.158582	-0.986988	-0.026588	-0.064569	-0.016504	0.997777	-0.985232	0.159946	-0.061112
443	327875													9.660112	-0.539974	-1.543817	-0.158612	-0.986985	-0.026503	-0.064710	-0.016393	0.997769	-0.985218	0.159973	-0.061268
444	328042													9.660233	-0.578002	-1.542197	-0.158585	-0.986993	-0.026386	-0.064808	-0.016261	0.997765	-0.985216	0.159940	-0.061386
445	328208													9.657467	-0.594066	-1.570917	-0.158479	-0.987015	-0.026203	-0.064854	-0.016075	0.997765	-0.985230	0.159825	-0.061465
446	328375													9.630951	-0.613023	-1.549918	-0.158331	-0.987044	-0.025975	-0.064877	-0.015850	0.997767	-0.985252	0.159662	-0.061527
447	328542													9.626302	-0.630293	-1.563057	-0.158172	-0.987072	-0.025892	-0.064851	-0.015780	0.997770	-0.985280	0.159498	-0.061516
448	328708													9.631087	-0.630500	-1.550854	-0.158007	-0.987099	-0.025877	-0.064801	-0.015784	0.997773	-0.985309	0.159332	-0.061471
449	328875													9.647087	-0.622600	-1.555933	-0.157821	-0.987128	-0.025895	-0.064691	-0.015832	0.997780	-0.985346	0.159146	-0.061360
450	329042													9.608441	-0.620297	-1.538396	-0.157587	-0.987161	-0.026055	-0.064631	-0.016018	0.997781	-0.985388	0.158921	-0.061277
451	329208													9.649434	-0.615556	-1.552868	-0.157307	-0.987200	-0.026277	-0.064659	-0.016255	0.997775	-0.985431	0.158656	-0.061274
452	329375													9.682687	-0.577600	-1.592513	-0.157024	-0.987240	-0.026455	-0.064673	-0.016451	0.997771	-0.985475	0.158384	-0.061265
453	329542													9.679095	-0.515782	-1.561882	-0.156657	-0.987298	-0.026487	-0.064526	-0.016529	0.997779	-0.985543	0.158018	-0.061116
454	329708													9.645677	-0.557086	-1.544429	-0.156245	-0.987366	-0.026382	-0.064371	-0.016474	0.997790	-0.985618	0.157598	-0.060984
455	329875													9.647057	-0.593415	-1.553107	-0.155786	-0.987441	-0.026302	-0.064369	-0.016423	0.997791	-0.985691	0.157135	-0.061002
456	330042													9.625185	-0.583804	-1.511466	-0.155264	-0.987524	-0.026261	-0.064430	-0.016404	0.997787	-0.985770	0.156612	-0.061079
457	330208													9.614178	-0.576346	-1.498891	-0.154757	-0.987606	-0.026174	-0.064453	-0.016345	0.997787	-0.985848	0.156102	-0.061124
458	330375													9.626273	-0.592785	-1.498746	-0.154278	-0.987683	-0.026084	-0.064371	-0.016296	0.997793	-0.985928	0.155616	-0.061064
459	330542													9.646111	-0.612892	-1.512139	-0.153832	-0.987754	-0.026038	-0.064235	-0.016299	0.997802	-0.986007	0.155166	-0.060941
460	330709													9.668004	-0.619231	-1.507031	-0.153358	-0.987827	-0.026061	-0.064149	-0.016366	0.997806	-0.986086	0.154694	-0.060858
461	330875													9.698728	-0.580651	-1.504159	-0.152788	-0.987912	-0.026192	-0.064122	-0.016538	0.997805	-0.986177	0.154132	-0.060820
462	331042													9.692941	-0.570752	-1.504830	-0.152130	-0.988012	-0.026230	-0.064128	-0.016616	0.997803	-0.986278	0.153478	-0.060831
463	331209													9.691597	-0.581116	-1.525209	-0.151352	-0.988131	-0.026258	-0.064157	-0.016688	0.997800	-0.986396	0.152704	-0.060870
464	331375													9.697841	-0.595385	-1.520472	-0.150446	-0.988270	-0.026226	-0.064187	-0.016708	0.997798	-0.986532	0.151798	-0.060920
465	331542													9.708331	-0.608228	-1.508731	-0.149352	-0.988436	-0.026247	-0.064253	-0.016787	0.997792	-0.986694	0.150708	-0.061003
466	331709													9.755359	-0.632562	-1.534738	-0.147980	-0.988641	-0.026292	-0.064309	-0.016910	0.997787	-0.986897	0.149343	-0.061076
467	331875													9.773662	-0.635733	-1.531433	-0.146217	-0.988898	-0.026487	-0.064297	-0.017218	0.997782	-0.987161	0.147596	-0.061066
468	332042													9.721603	-0.655327	-1.505395	-0.144049	-0.989210	-0.026711	-0.064231	-0.017589	0.997780	-0.987484	0.145445	-0.061004
469	332209													9.628093	-0.656001	-1.495491	-0.141664	-0.989545	-0.027045	-0.064079	-0.018097	0.997781	-0.987839	0.143082	-0.060846
470	332375													9.593241	-0.563923	-1.477279	-0.139304	-0.989871	-0.027380	-0.063768	-0.018625	0.997791	-0.988194	0.140743	-0.060527
471	332542													9.655183	-0.555722	-1.424284	-0.137033	-0.990184	-0.027539	-0.063375	-0.018981	0.997809	-0.988537	0.138478	-0.060152
472	332709													9.705520	-0.545513	-1.391212	-0.134734	-0.990498	-0.027562	-0.063044	-0.019190	0.997826	-0.988874	0.136178	-0.059860
473	332875													9.745064	-0.517046	-1.367225	-0.132282	-0.990830	-0.027514	-0.062817	-0.019322	0.997838	-0.989220	0.133725	-0.059685
474	333042													9.718845	-0.539405	-1.332210	-0.129670	-0.991183	-0.027252	-0.062663	-0.019237	0.997849	-0.989575	0.131099	-0.059616
475	333209													9.696595	-0.549780	-1.285628	-0.127014	-0.991536	-0.026924	-0.062557	-0.019082	0.997859	-0.989926	0.128426	-0.059604
476	333375													9.710405	-0.587589	-1.295017	-0.124278	-0.991891	-0.026605	-0.062430	-0.018943	0.997870	-0.990281	0.125675	-0.059569
477	333542													9.727758	-0.606567	-1.247894	-0.121407	-0.992253	-0.026349	-0.062276	-0.018879	0.997880	-0.990647	0.122791	-0.059501
478	333709													9.791806	-0.613744	-1.217591	-0.118256	-0.992638	-0.026162	-0.062053	-0.018908	0.997894	-0.991042	0.119631	-0.059360
479	333875													9.814674	-0.606108	-1.194927	-0.114727	-0.993056	-0.026032	-0.061818	-0.019017	0.997906	-0.991472	0.116096	-0.059207
480	334042													9.833780	-0.570172	-1.182356	-0.110744	-0.993510	-0.025935	-0.061614	-0.019182	0.997916	-0.991937	0.112111	-0.059090
481	334209													9.818255	-0.543999	-1.168718	-0.106346	-0.993994	-0.025820	-0.061406	-0.019352	0.997925	-0.992431	0.107711	-0.058979
482	334375													9.783813	-0.524652	-1.128673	-0.101596	-0.994495	-0.025635	-0.061192	-0.019473	0.997936	-0.992942	0.102954	-0.058877
483	334542													9.796560	-0.555321	-1.109699	-0.096570	-0.995001	-0.025433	-0.060965	-0.019592	0.997948	-0.993457	0.097922	-0.058769
484	334709													9.832007	-0.549977	-1.058755	-0.091133	-0.995520	-0.025182	-0.060759	-0.019681	0.997958	-0.993983	0.092477	-0.058693
485	334875													9.872924	-0.555493	-0.995714	-0.085174	-0.996054	-0.024925	-0.060548	-0.019795	0.997969	-0.994525	0.086510	-0.058623
486	335042													9.886271	-0.555496	-0.944803	-0.078679	-0.996594	-0.024712	-0.060317	-0.019985	0.997979	-0.995074	0.080010	-0.058539
487	335209													9.814346	-0.571849	-0.869728	-0.071746	-0.997123	-0.024441	-0.059993	-0.020146	0.997995	-0.995617	0.073068	-0.058375
488	335375													9.737664	-0.590171	-0.782192	-0.064674	-0.997613	-0.024205	-0.059559	-0.020353	0.998017	-0.996127	0.065988	-0.058101
489	335542													9.735098	-0.683740	-0.726891	-0.057584	-0.998049	-0.024144	-0.058942	-0.020743	0.998046	-0.996599	0.058894	-0.057633
490	335709													9.719589	-0.654301	-0.637229	-0.050502	-0.998424	-0.024479	-0.058108	-0.021531	0.998078	-0.997032	0.051827	-0.056929
491	335875													9.775408	-0.551900	-0.561841	-0.043521	-0.998741	-0.024953	-0.057213	-0.022445	0.998110	-0.997413	0.044866	-0.056164
492	336042													9.825446	-0.491295	-0.493575	-0.036434	-0.999012	-0.025463	-0.056337	-0.023387	0.998138	-0.997747	0.037801	-0.055429
493	336209													9.851030	-0.413448	-0.402453	-0.029158	-0.999241	-0.025829	-0.055537	-0.024181	0.998164	-0.998031	0.030539	-0.054790
494	336375													9.786026	-0.402493	-0.292297	-0.021762	-0.999426	-0.025955	-0.054858	-0.024729	0.998188	-0.998257	0.023146	-0.054288
495	336542													9.653641	-0.424866	-0.206690	-0.014526	-0.999558	-0.025934	-0.054373	-0.025109	0.998205	-0.998415	0.015910	-0.053985
496	336709													9.645856	-0.443629	-0.120925	-0.007699	-0.999637	-0.025821	-0.054016	-0.025368	0.998218	-0.998510	0.009081	-0.053801
497	336875													9.684576	-0.448209	-0.052502	-0.001279	-0.999669	-0.025691	-0.053801	-0.025585	0.998224	-0.998551	0.002658	-0.053751
498	337042													9.773175	-0.457544	0.064225	0.004942	-0.999663	-0.025476	-0.053667	-0.025705	0.998228	-0.998547	-0.003566	-0.053776
499	337209													9.802682	-0.469840	0.119218	0.011136	-0.999619	-0.025253	-0.053599	-0.025815	0.998229	-0.998500	-0.009763	-0.053867
500	337375													9.823106	-0.487048	0.201099	0.017359	-0.999535	-0.025062	-0.053590	-0.025960	0.998226	-0.998412	-0.015986	-0.054016
501	337542													9.820326	-0.491209	0.257987	0.023640	-0.999410	-0.024923	-0.053499	-0.026158	0.998225	-0.998288	-0.022264	-0.054086
502	337709													9.815221	-0.470638	0.346207	0.029898	-0.999246	-0.024752	-0.053287	-0.026321	0.998232	-0.998132	-0.028527	-0.054034
503	337875													9.753252	-0.503690	0.395637	0.036106	-0.999044	-0.024632	-0.052968	-0.026527	0.998244	-0.997943	-0.034738	-0.053875
504	338042													9.732772	-0.478225	0.457183	0.042075	-0.998813	-0.024546	-0.052609	-0.026748	0.998257	-0.997728	-0.040710	-0.053672
505	338209													9.767039	-0.455140	0.499188	0.047862	-0.998554	-0.024471	-0.052254	-0.026969	0.998270	-0.997486	-0.046501	-0.053469
506	338375													9.808165	-0.459324	0.538457	0.053597	-0.998266	-0.024343	-0.051959	-0.027133	0.998281	-0.997210	-0.052240	-0.053323
507	338542													9.787283	-0.463738	0.556953	0.059329	-0.997946	-0.024152	-0.051796	-0.027240	0.998286	-0.996894	-0.057976	-0.053305
508	338709													9.836032	-0.489055	0.603398	0.065111	-0.997590	-0.023962	-0.051674	-0.027352	0.998289	-0.996539	-0.063761	-0.053331
509	338875													9.852645	-0.456617	0.655066	0.070976	-0.997195	-0.023755	-0.051432	-0.027442	0.998299	-0.996151	-0.069633	-0.053236
510	339042													9.868037	-0.437880	0.711102	0.077003	-0.996755	-0.023432	-0.050967	-0.027406	0.998324	-0.995727	-0.075680	-0.052912
511	339209													9.860749	-0.472697	0.755922	0.083183	-0.996267	-0.023077	-0.050530	-0.027344	0.998348	-0.995252	-0.081879	-0.052616
512	339375													9.787864	-0.474955	0.799237	0.089436	-0.995732	-0.022762	-0.050157	-0.027327	0.998367	-0.994729	-0.088148	-0.052387
513	339542													9.746628	-0.450826	0.885038	0.095658	-0.995160	-0.022482	-0.049801	-0.027342	0.998385	-0.994168	-0.094384	-0.052175
514	339709													9.725468	-0.444792	0.942459	0.101755	-0.994562	-0.022188	-0.049449	-0.027333	0.998403	-0.993580	-0.100495	-0.051961
515	339875													9.735579	-0.404222	0.995707	0.107674	-0.993945	-0.021889	-0.049047	-0.027301	0.998423	-0.992976	-0.106431	-0.051690
516	340042													9.753613	-0.389479	1.017683	0.113485	-0.993309	-0.021424	-0.048853	-0.027116	0.998438	-0.992338	-0.112261	-0.051603
517	340209													9.750810	-0.429434	1.081152	0.119210	-0.992648	-0.020941	-0.048754	-0.026918	0.998448	-0.991671	-0.118004	-0.051604
518	340375													9.839082	-0.449219	1.111312	0.125019	-0.991942	-0.020544	-0.048676	-0.026813	0.998455	-0.990960	-0.123826	-0.051636
519	340542													9.824876	-0.449643	1.206812	0.130991	-0.991177	-0.020255	-0.048537	-0.026819	0.998461	-0.990195	-0.129806	-0.051622
520	340709													9.747764	-0.470980	1.242801	0.137021	-0.990365	-0.020068	-0.048337	-0.026920	0.998468	-0.989388	-0.135841	-0.051560
521	340875													9.719532	-0.477625	1.279009	0.142972	-0.989525	-0.019983	-0.048075	-0.027110	0.998476	-0.988558	-0.141793	-0.051448
522	341042													9.702735	-0.465831	1.344987	0.148883	-0.988653	-0.019976	-0.047812	-0.027375	0.998481	-0.987698	-0.147702	-0.051345
523	341209													9.765554	-0.436307	1.400858	0.154882	-0.987729	-0.020061	-0.047522	-0.027731	0.998485	-0.986789	-0.153694	-0.051234
524	341375													9.769358	-0.415955	1.467405	0.161081	-0.986735	-0.020153	-0.047236	-0.028104	0.998488	-0.985810	-0.159886	-0.051136
525	341542													9.781484	-0.419895	1.516186	0.167531	-0.985660	-0.020209	-0.047006	-0.028462	0.998489	-0.984745	-0.166328	-0.051100
526	341709													9.725020	-0.405837	1.576505	0.174211	-0.984499	-0.020307	-0.046813	-0.028879	0.998486	-0.983595	-0.172996	-0.051118
527	341875													9.797227	-0.405442	1.674605	0.181110	-0.983252	-0.020352	-0.046562	-0.029244	0.998487	-0.982360	-0.179888	-0.051078
528	342042													9.750180	-0.422458	1.741619	0.188227	-0.981915	-0.020351	-0.046290	-0.029568	0.998490	-0.981034	-0.187000	-0.051018
529	342209													9.692441	-0.455005	1.801460	0.195446	-0.980501	-0.020472	-0.046042	-0.030025	0.998488	-0.979633	-0.194208	-0.051012
530	342375													9.699776	-0.462112	1.909292	0.202673	-0.979028	-0.020676	-0.045818	-0.030572	0.998482	-0.978174	-0.201418	-0.051053
531	342542													9.704329	-0.450315	2.016436	0.210036	-0.977469	-0.020972	-0.045643	-0.031230	0.998470	-0.976628	-0.208757	-0.051174
532	342709													9.617374	-0.398335	2.102884	0.217392	-0.975853	-0.021250	-0.045389	-0.031854	0.998461	-0.975029	-0.216093	-0.051217
533	342875													9.533685	-0.369994	2.195706	0.224543	-0.974229	-0.021405	-0.045025	-0.032315	0.998463	-0.973423	-0.223234	-0.051121
534	343042													9.484797	-0.386362	2.253640	0.231389	-0.972627	-0.021356	-0.044579	-0.032529	0.998476	-0.971839	-0.230085	-0.050885
535	343209													9.512574	-0.396233	2.302100	0.237989	-0.971036	-0.021202	-0.044000	-0.032585	0.998500	-0.970271	-0.236699	-0.050480
536	343375													9.649817	-0.382973	2.394004	0.244569	-0.969405	-0.020959	-0.043287	-0.032509	0.998534	-0.968665	-0.243303	-0.049913
537	343542													9.611012	-0.350501	2.459988	0.251324	-0.967683	-0.020662	-0.042495	-0.032358	0.998573	-0.966970	-0.250087	-0.049254
538	343709													9.554822	-0.322632	2.495966	0.258097	-0.965907	-0.020218	-0.041665	-0.032035	0.998618	-0.965220	-0.256898	-0.048513
539	343875													9.519124	-0.332135	2.571184	0.264800	-0.964103	-0.019648	-0.040961	-0.031602	0.998661	-0.963433	-0.263641	-0.047858
540	344042													9.528495	-0.319748	2.613081	0.271476	-0.962257	-0.019031	-0.040362	-0.031139	0.998700	-0.961598	-0.270355	-0.047292
541	344209													9.502244	-0.336704	2.692760	0.278142	-0.960363	-0.018430	-0.039941	-0.030733	0.998729	-0.959709	-0.277052	-0.046906
542	344375													9.488398	-0.355763	2.747301	0.284770	-0.958429	-0.017905	-0.039615	-0.030429	0.998752	-0.957777	-0.283705	-0.046634
543	344542													9.451612	-0.383012	2.805314	0.291445	-0.956428	-0.017491	-0.039339	-0.030253	0.998768	-0.955778	-0.290397	-0.046442
544	344709													9.473887	-0.385595	2.848709	0.298196	-0.954349	-0.017237	-0.039024	-0.030233	0.998781	-0.953706	-0.297160	-0.046258
545	344875													9.512274	-0.415257	2.891506	0.305203	-0.952133	-0.017162	-0.038707	-0.030410	0.998788	-0.951500	-0.304169	-0.046135
546	345042													9.555695	-0.427643	2.978940	0.312566	-0.949737	-0.017359	-0.038352	-0.030877	0.998787	-0.949122	-0.311521	-0.046075
547	345209													9.517782	-0.420740	3.090789	0.320341	-0.947134	-0.017864	-0.037849	-0.031640	0.998782	-0.946546	-0.319275	-0.045984
548	345375													9.439515	-0.350294	3.164140	0.328380	-0.944363	-0.018584	-0.037218	-0.032597	0.998775	-0.943812	-0.327286	-0.045851
549	345542													9.332869	-0.286061	3.260353	0.336457	-0.941500	-0.019373	-0.036388	-0.033555	0.998774	-0.940996	-0.335339	-0.045549
550	345709													9.230218	-0.220701	3.318463	0.344346	-0.938629	-0.020033	-0.035507	-0.034343	0.998779	-0.938171	-0.343214	-0.045154
551	345875													9.208431	-0.205201	3.383676	0.351934	-0.935801	-0.020495	-0.034766	-0.034949	0.998784	-0.935379	-0.350793	-0.044834
552	346042													9.255442	-0.208156	3.464917	0.359333	-0.932977	-0.020830	-0.034227	-0.035482	0.998784	-0.932582	-0.358183	-0.044683
553	346209													9.295269	-0.210799	3.566122	0.366785	-0.930067	-0.021070	-0.033860	-0.035980	0.998779	-0.929689	-0.365623	-0.044689
554	346375													9.335065	-0.238581	3.715597	0.374321	-0.927056	-0.021220	-0.033598	-0.036428	0.998771	-0.926690	-0.373149	-0.044783
555	346542													9.197870	-0.206228	3.812735	0.381833	-0.923983	-0.021401	-0.033390	-0.036931	0.998760	-0.923628	-0.380645	-0.044954
556	346709													8.984042	-0.190143	3.886150	0.388915	-0.921025	-0.021417	-0.033380	-0.037319	0.998746	-0.920669	-0.387712	-0.045258
557	346875													8.909509	-0.219554	3.937371	0.395203	-0.918347	-0.021300	-0.033472	-0.037569	0.998733	-0.917984	-0.393989	-0.045587
558	347042													8.934912	-0.265644	3.995246	0.400772	-0.915933	-0.021184	-0.033625	-0.037811	0.998719	-0.915561	-0.399546	-0.045952
559	347209													9.050673	-0.332725	4.032967	0.405870	-0.913685	-0.021179	-0.033834	-0.038179	0.998698	-0.913304	-0.404625	-0.046410
560	347376													9.084977	-0.334350	4.058908	0.410825	-0.911461	-0.021469	-0.033997	-0.038847	0.998667	-0.911080	-0.409548	-0.046946
561	347542													9.116179	-0.279769	4.108671	0.415738	-0.909221	-0.021890	-0.034035	-0.039605	0.998636	-0.908847	-0.414426	-0.047410
562	347709													9.063322	-0.252196	4.155584	0.420780	-0.906886	-0.022389	-0.034022	-0.040439	0.998603	-0.906524	-0.419431	-0.047870
563	347876													9.013051	-0.263732	4.189998	0.425849	-0.904503	-0.022951	-0.034122	-0.041403	0.998560	-0.904151	-0.424452	-0.048494
564	348042													9.007901	-0.258330	4.215479	0.430904	-0.902089	-0.023608	-0.034295	-0.042513	0.998507	-0.901746	-0.429451	-0.049256
565	348209													8.946484	-0.231368	4.258323	0.435961	-0.899639	-0.024259	-0.034497	-0.043640	0.998452	-0.899304	-0.434449	-0.050061
566	348376													8.901937	-0.231020	4.288704	0.440969	-0.897178	-0.024859	-0.034699	-0.044718	0.998397	-0.896851	-0.439400	-0.050851
567	348542													8.912496	-0.247895	4.308712	0.445965	-0.894691	-0.025375	-0.034928	-0.045725	0.998343	-0.894369	-0.444339	-0.051641
568	348709													8.965354	-0.274475	4.365946	0.451066	-0.892116	-0.025847	-0.035251	-0.046746	0.998285	-0.891794	-0.449381	-0.052533
569	348876													8.969306	-0.268445	4.427113	0.456382	-0.889395	-0.026302	-0.035719	-0.047849	0.998216	-0.889066	-0.454629	-0.053605
570	349042													8.990192	-0.265862	4.517818	0.461916	-0.886522	-0.026700	-0.036282	-0.048966	0.998141	-0.886181	-0.460088	-0.054783
571	349209													8.942780	-0.307952	4.629144	0.467616	-0.883520	-0.026984	-0.036914	-0.050019	0.998066	-0.883161	-0.465715	-0.056004
572	349376													8.832390	-0.354379	4.763584	0.473280	-0.880491	-0.027234	-0.037516	-0.051033	0.997992	-0.880113	-0.471308	-0.057185
573	349542													8.653797	-0.336084	4.849897	0.478516	-0.877651	-0.027414	-0.038030	-0.051905	0.997928	-0.877255	-0.476482	-0.058214
574	349709													8.617194	-0.288540	4.912407	0.483164	-0.875100	-0.027435	-0.038536	-0.052561	0.997874	-0.874682	-0.481079	-0.059119
575	349876													8.575963	-0.315461	4.913452	0.487235	-0.872846	-0.027223	-0.039104	-0.052950	0.997831	-0.872395	-0.485114	-0.059931
576	350042													8.560076	-0.389735	4.941983	0.490762	-0.870880	-0.026858	-0.039709	-0.053149	0.997797	-0.870389	-0.488614	-0.060665
577	350209													8.640892	-0.423260	4.927842	0.493979	-0.869070	-0.026508	-0.040308	-0.053344	0.997762	-0.868539	-0.491805	-0.061381
578	350376													8.664867	-0.408252	4.917909	0.497149	-0.867271	-0.026150	-0.040765	-0.053451	0.997738	-0.866707	-0.494958	-0.061927
579	350542													8.674073	-0.437223	4.918093	0.500345	-0.865444	-0.025712	-0.041082	-0.053393	0.997728	-0.864851	-0.498152	-0.062269
580	350709													8.711665	-0.456610	4.896687	0.503757	-0.863474	-0.025313	-0.041308	-0.053348	0.997721	-0.862857	-0.501564	-0.062543
581	350876													8.716585	-0.479674	4.964086	0.507526	-0.861273	-0.025013	-0.041418	-0.053382	0.997715	-0.860640	-0.505330	-0.062765
582	351042													8.673682	-0.457578	5.003003	0.511644	-0.858840	-0.024790	-0.041411	-0.053469	0.997710	-0.858199	-0.509446	-0.062922
583	351209													8.611156	-0.450539	5.026404	0.515991	-0.856240	-0.024613	-0.041320	-0.053580	0.997708	-0.855597	-0.513792	-0.063027
584	351376													8.575363	-0.447721	5.066414	0.520511	-0.853503	-0.024500	-0.041178	-0.053751	0.997705	-0.852862	-0.518308	-0.063123
585	351542													8.519289	-0.416421	5.044965	0.525127	-0.850672	-0.024475	-0.041036	-0.054037	0.997695	-0.850034	-0.522912	-0.063285
586	351709													8.479830	-0.367325	5.109812	0.529810	-0.847763	-0.024487	-0.040821	-0.054329	0.997688	-0.847134	-0.527585	-0.063390
587	351876													8.466091	-0.355191	5.136331	0.534543	-0.844788	-0.024436	-0.040499	-0.054485	0.997693	-0.844170	-0.532321	-0.063338
588	352042													8.516130	-0.351187	5.211997	0.539390	-0.841705	-0.024308	-0.040020	-0.054459	0.997714	-0.841104	-0.537184	-0.063059
589	352209													8.522188	-0.354656	5.320113	0.544416	-0.838469	-0.024106	-0.039440	-0.054293	0.997746	-0.837888	-0.542238	-0.062627
590	352376													8.441319	-0.372052	5.441139	0.549496	-0.835153	-0.023964	-0.038739	-0.054120	0.997783	-0.834598	-0.547349	-0.062092
591	352542													8.365395	-0.388499	5.567019	0.554408	-0.831901	-0.023906	-0.038004	-0.054001	0.997817	-0.831377	-0.552290	-0.061554
592	352709													8.271505	-0.337785	5.657307	0.558926	-0.828871	-0.023976	-0.037269	-0.053995	0.997845	-0.828379	-0.556829	-0.061070
593	352876													8.179060	-0.319203	5.755413	0.562862	-0.826197	-0.024211	-0.036560	-0.054148	0.997863	-0.825742	-0.560774	-0.060684
594	353042													8.157591	-0.306830	5.762245	0.566131	-0.823952	-0.024462	-0.035955	-0.054330	0.997875	-0.823530	-0.564049	-0.060383
595	353209													8.168432	-0.302417	5.762313	0.568870	-0.822051	-0.024860	-0.035326	-0.054623	0.997882	-0.821668	-0.566787	-0.060113
596	353376													8.137357	-0.278970	5.761047	0.571190	-0.820428	-0.025316	-0.034636	-0.054906	0.997891	-0.820087	-0.569108	-0.059778
597	353542													8.182596	-0.263398	5.749568	0.573249	-0.818976	-0.025773	-0.033936	-0.055158	0.997901	-0.818678	-0.571171	-0.059412
598	353709													8.205036	-0.263002	5.727832	0.575341	-0.817493	-0.026221	-0.033230	-0.055395	0.997911	-0.817238	-0.573268	-0.059037
599	353876													8.194365	-0.258914	5.714439	0.577594	-0.815888	-0.026665	-0.032473	-0.055603	0.997925	-0.815678	-0.575530	-0.058611
600	354042													8.242601	-0.262042	5.708594	0.580081	-0.814109	-0.027072	-0.031728	-0.055793	0.997938	-0.813941	-0.578026	-0.058194
601	354209													8.221426	-0.254031	5.733271	0.582863	-0.812106	-0.027489	-0.030988	-0.056021	0.997949	-0.811980	-0.580815	-0.057818
602	354376													8.146709	-0.200178	5.748763	0.585871	-0.809926	-0.027826	-0.030228	-0.056152	0.997965	-0.809840	-0.583838	-0.057380
603	354542													8.100056	-0.165751	5.762256	0.588951	-0.807684	-0.027977	-0.029568	-0.056129	0.997986	-0.807628	-0.586937	-0.056939
604	354709													8.035947	-0.206134	5.754073	0.591991	-0.805463	-0.027855	-0.029070	-0.055879	0.998014	-0.805420	-0.590006	-0.056495
605	354876													8.007036	-0.235105	5.729401	0.594949	-0.803288	-0.027633	-0.028690	-0.055582	0.998042	-0.803251	-0.592992	-0.056115
606	355042													8.073821	-0.248167	5.718204	0.597864	-0.801131	-0.027342	-0.028472	-0.055311	0.998063	-0.801092	-0.595927	-0.055878
607	355209													8.184716	-0.213425	5.753772	0.601043	-0.798762	-0.026973	-0.028230	-0.054946	0.998090	-0.798718	-0.599133	-0.055574
608	355376													8.276102	-0.148311	5.860608	0.604770	-0.795964	-0.026360	-0.027870	-0.054231	0.998139	-0.795912	-0.602911	-0.054980
609	355542													8.205716	-0.217037	6.029163	0.609093	-0.792686	-0.025594	-0.027378	-0.053267	0.998205	-0.792626	-0.607299	-0.054147
610	355709													8.102763	-0.269224	6.198514	0.613606	-0.789221	-0.024858	-0.026881	-0.052342	0.998267	-0.789155	-0.611874	-0.053332
611	355876													7.869586	-0.276122	6.325840	0.617923	-0.785859	-0.024437	-0.026372	-0.051780	0.998310	-0.785796	-0.616235	-0.052721
612	356042													7.696929	-0.221524	6.445869	0.621475	-0.783061	-0.024186	-0.025874	-0.051370	0.998344	-0.783007	-0.619820	-0.052187
613	356209													7.680936	-0.185105	6.467847	0.624134	-0.780948	-0.024030	-0.025384	-0.051008	0.998376	-0.780905	-0.622510	-0.051660
614	356376													7.700484	-0.142285	6.460073	0.626011	-0.779447	-0.023920	-0.025037	-0.050747	0.998398	-0.779412	-0.624409	-0.051283
615	356542													7.766663	-0.168176	6.438126	0.627305	-0.778411	-0.023736	-0.024954	-0.050554	0.998410	-0.778373	-0.625715	-0.051137
616	356709													7.831944	-0.187458	6.402337	0.628373	-0.777552	-0.023662	-0.024992	-0.050580	0.998407	-0.777511	-0.626781	-0.051215
617	356876													7.812515	-0.209973	6.343982	0.629406	-0.776716	-0.023685	-0.025053	-0.050746	0.998397	-0.776673	-0.627803	-0.051400
618	357042													7.811803	-0.237736	6.301775	0.630484	-0.775837	-0.023824	-0.025118	-0.051070	0.998379	-0.775796	-0.628863	-0.051686
619	357209													7.822862	-0.240788	6.248678	0.631654	-0.774875	-0.024124	-0.025117	-0.051557	0.998354	-0.774844	-0.630008	-0.052029
620	357376													7.830261	-0.212597	6.260239	0.633005	-0.773759	-0.024549	-0.025049	-0.052165	0.998324	-0.773743	-0.631329	-0.052402
621	357542													7.761748	-0.172097	6.250714	0.634403	-0.772599	-0.024974	-0.024980	-0.052781	0.998294	-0.772599	-0.632697	-0.052784
622	357709													7.824911	-0.166734	6.284622	0.635826	-0.771418	-0.025312	-0.025020	-0.053378	0.998261	-0.771427	-0.634087	-0.053240
623	357876													7.799297	-0.219157	6.313911	0.637393	-0.770114	-0.025570	-0.025139	-0.053950	0.998227	-0.770129	-0.635620	-0.053748
624	358042													7.748576	-0.238865	6.319447	0.638936	-0.768824	-0.025900	-0.025255	-0.054615	0.998188	-0.768845	-0.637124	-0.054312
625	358209													7.703846	-0.164062	6.362926	0.640320	-0.767660	-0.026226	-0.025238	-0.055152	0.998159	-0.767693	-0.638479	-0.054689
626	358376													7.766185	-0.194793	6.381516	0.641501	-0.766669	-0.026346	-0.025168	-0.055360	0.998149	-0.766709	-0.639651	-0.054809
627	358542													7.772702	-0.244709	6.389857	0.642591	-0.765753	-0.026445	-0.025080	-0.055516	0.998143	-0.765799	-0.640734	-0.054880
628	358709													7.743596	-0.232004	6.410402	0.643608	-0.764894	-0.026571	-0.025019	-0.055725	0.998133	-0.764946	-0.641741	-0.055002
629	358876													7.717676	-0.231239	6.387899	0.644513	-0.764124	-0.026767	-0.024937	-0.055996	0.998120	-0.764186	-0.642634	-0.055145
630	359042													7.738277	-0.184181	6.410225	0.645295	-0.763456	-0.026995	-0.024773	-0.056231	0.998110	-0.763532	-0.643407	-0.055199
631	359209													7.734513	-0.190093	6.401888	0.645976	-0.762872	-0.027214	-0.024525	-0.056372	0.998109	-0.762963	-0.644087	-0.055124
632	359376													7.723968	-0.182460	6.369759	0.646621	-0.762321	-0.027333	-0.024276	-0.056379	0.998114	-0.762425	-0.644738	-0.054962
633	359542													7.741325	-0.187541	6.366000	0.647296	-0.761744	-0.027452	-0.024023	-0.056384	0.998120	-0.761860	-0.645420	-0.054797
634	359709													7.700281	-0.161994	6.339628	0.648032	-0.761116	-0.027517	-0.023824	-0.056370	0.998126	-0.761240	-0.646162	-0.054662
635	359876													7.709468	-0.174055	6.353721	0.648799	-0.760463	-0.027505	-0.023664	-0.056291	0.998134	-0.760592	-0.646937	-0.054518
636	360042													7.760561	-0.166605	6.368594	0.649684	-0.759707	-0.027491	-0.023525	-0.056237	0.998140	-0.759841	-0.647829	-0.054408
637	360209													7.710459	-0.141936	6.398968	0.650702	-0.758837	-0.027430	-0.023430	-0.056172	0.998146	-0.758971	-0.648853	-0.054330
638	360376													7.699575	-0.168777	6.429286	0.651808	-0.757891	-0.027346	-0.023453	-0.056186	0.998145	-0.758021	-0.649958	-0.054397
639	360542													7.675522	-0.185667	6.464769	0.652919	-0.756935	-0.027318	-0.023529	-0.056319	0.998136	-0.757063	-0.651059	-0.054582
640	360709													7.636510	-0.181107	6.489896	0.653996	-0.756003	-0.027366	-0.023592	-0.056540	0.998122	-0.756130	-0.652122	-0.054813
641	360876													7.625224	-0.192175	6.535588	0.654949	-0.755175	-0.027450	-0.023610	-0.056757	0.998109	-0.755305	-0.653062	-0.055002
642	361042													7.631744	-0.222856	6.565122	0.655836	-0.754399	-0.027596	-0.023537	-0.056972	0.998098	-0.754536	-0.653940	-0.055120
643	361209													7.634409	-0.230926	6.557319	0.656632	-0.753696	-0.027871	-0.023404	-0.057298	0.998083	-0.753848	-0.654721	-0.055263
644	361376													7.610626	-0.185366	6.585749	0.657364	-0.753045	-0.028223	-0.023268	-0.057717	0.998062	-0.753214	-0.655433	-0.055463
645	361542													7.568831	-0.157142	6.588972	0.657921	-0.752546	-0.028535	-0.023159	-0.058090	0.998043	-0.752731	-0.655972	-0.055647
646	361709													7.593573	-0.159288	6.580280	0.658284	-0.752221	-0.028743	-0.023112	-0.058361	0.998028	-0.752415	-0.656321	-0.055803
647	361876													7.619465	-0.168265	6.548582	0.658561	-0.751973	-0.028867	-0.023113	-0.058554	0.998017	-0.752172	-0.656588	-0.055941
648	362042													7.623915	-0.168649	6.544079	0.658788	-0.751776	-0.028826	-0.023212	-0.058608	0.998011	-0.751970	-0.656809	-0.056060
649	362209													7.626323	-0.239212	6.532761	0.659041	-0.751558	-0.028736	-0.023388	-0.058668	0.998004	-0.751744	-0.657053	-0.056242
650	362376													7.608560	-0.272076	6.504054	0.659317	-0.751314	-0.028773	-0.023483	-0.058827	0.997992	-0.751498	-0.657318	-0.056429
651	362542													7.615654	-0.255578	6.500508	0.659681	-0.750985	-0.029013	-0.023344	-0.059061	0.997981	-0.751183	-0.657673	-0.056492
652	362709													7.570203	-0.254556	6.498655	0.660089	-0.750613	-0.029349	-0.023019	-0.059264	0.997977	-0.750834	-0.658078	-0.056398
653	362876													7.539361	-0.247591	6.489727	0.660493	-0.750242	-0.029773	-0.022611	-0.059509	0.997972	-0.750492	-0.658480	-0.056269
654	363042													7.617800	-0.239145	6.462043	0.660858	-0.749900	-0.030286	-0.022196	-0.059865	0.997960	-0.750183	-0.658837	-0.056207
655	363209													7.674238	-0.188608	6.554117	0.661263	-0.749519	-0.030857	-0.021739	-0.060264	0.997946	-0.749839	-0.659234	-0.056145
656	363376													7.717361	-0.124932	6.584623	0.661842	-0.748986	-0.031384	-0.021139	-0.060496	0.997945	-0.749345	-0.659818	-0.055871
657	363542													7.605789	-0.106449	6.627330	0.662412	-0.748469	-0.031691	-0.020620	-0.060504	0.997955	-0.748856	-0.660404	-0.055512
658	363709													7.534163	-0.135040	6.678257	0.662771	-0.748143	-0.031893	-0.020231	-0.060466	0.997965	-0.748549	-0.660777	-0.055211
659	363876													7.512785	-0.046824	6.717419	0.662788	-0.748129	-0.031856	-0.020100	-0.060302	0.997978	-0.748537	-0.660808	-0.055004
660	364043													7.495228	-0.077305	6.708812	0.662454	-0.748441	-0.031461	-0.020176	-0.059809	0.998006	-0.748830	-0.660499	-0.054722
661	364209													7.549878	-0.139059	6.670876	0.661845	-0.749004	-0.030885	-0.020318	-0.059107	0.998045	-0.749365	-0.659924	-0.054338
662	364376													7.564554	-0.201152	6.626705	0.661109	-0.749680	-0.030240	-0.020443	-0.058288	0.998090	-0.750011	-0.659228	-0.053860
663	364543													7.546773	-0.221225	6.561639	0.660303	-0.750412	-0.029703	-0.020510	-0.057556	0.998132	-0.750719	-0.658460	-0.053395
664	364709													7.580334	-0.209601	6.592395	0.659476	-0.751153	-0.029334	-0.020476	-0.056957	0.998167	-0.751446	-0.657667	-0.052943
665	364876													7.593594	-0.242971	6.603912	0.658683	-0.751858	-0.029099	-0.020365	-0.056474	0.998196	-0.752145	-0.656902	-0.052510
666	365043													7.551642	-0.267543	6.619209	0.657768	-0.752656	-0.029159	-0.020050	-0.056195	0.998218	-0.752954	-0.656011	-0.052054
667	365209													7.506199	-0.233288	6.639900	0.656562	-0.753695	-0.029521	-0.019540	-0.056121	0.998233	-0.754019	-0.654824	-0.051574
668	365376													7.529464	-0.191919	6.656494	0.654922	-0.755097	-0.030097	-0.018938	-0.056214	0.998239	-0.755460	-0.653198	-0.051116
669	365543													7.568056	-0.179699	6.690824	0.652902	-0.756818	-0.030751	-0.018298	-0.056346	0.998244	-0.757222	-0.651192	-0.050637
670	365709													7.623142	-0.143978	6.713714	0.650543	-0.758816	-0.031488	-0.017600	-0.056511	0.998247	-0.759265	-0.648848	-0.050118
671	365876													7.595139	-0.074328	6.782291	0.647787	-0.761146	-0.032063	-0.016983	-0.056505	0.998258	-0.761632	-0.646114	-0.049530
672	366043													7.530051	-0.057555	6.794597	0.644425	-0.763985	-0.032301	-0.016562	-0.056177	0.998283	-0.764488	-0.642784	-0.048855
673	366209													7.556725	-0.026254	6.782346	0.640325	-0.767434	-0.032072	-0.016346	-0.055360	0.998333	-0.767930	-0.638733	-0.047993
674	366376													7.648010	-0.069768	6.680274	0.635613	-0.771368	-0.031436	-0.016411	-0.054211	0.998395	-0.771833	-0.634077	-0.047116
675	366543													7.692286	-0.108326	6.558096	0.630537	-0.775559	-0.030508	-0.016697	-0.052851	0.998463	-0.775979	-0.629059	-0.046274
676	366709													7.726192	-0.123535	6.443314	0.625191	-0.779915	-0.029464	-0.016985	-0.051338	0.998537	-0.780287	-0.623776	-0.045343
677	366876													7.647012	-0.177599	6.371703	0.619442	-0.784528	-0.028415	-0.017189	-0.049741	0.998614	-0.784854	-0.618095	-0.044297
678	367043													7.611070	-0.219798	6.336381	0.612920	-0.789667	-0.027485	-0.017211	-0.048120	0.998693	-0.789958	-0.611646	-0.043085
679	367209													7.800414	-0.263168	6.233945	0.605743	-0.795208	-0.026829	-0.017074	-0.046703	0.998763	-0.795477	-0.604536	-0.041867
680	367376													8.017015	-0.176927	6.075185	0.598432	-0.800733	-0.026574	-0.016736	-0.045656	0.998817	-0.800999	-0.597279	-0.040723
681	367543													8.143560	-0.122628	5.941081	0.591407	-0.805939	-0.026476	-0.016333	-0.044799	0.998863	-0.806208	-0.590301	-0.039657
682	367709													8.183143	-0.109028	5.856770	0.584749	-0.810780	-0.026529	-0.015820	-0.044094	0.998902	-0.811060	-0.583688	-0.038610
683	367876													8.037957	-0.029891	5.779207	0.578215	-0.815451	-0.026597	-0.015284	-0.043419	0.998940	-0.815742	-0.577195	-0.037569
684	368043													7.988258	-0.010043	5.728789	0.571172	-0.820406	-0.026399	-0.014959	-0.042560	0.998982	-0.820694	-0.570196	-0.036581
685	368209													8.214260	-0.035524	5.617398	0.563681	-0.825580	-0.026103	-0.014881	-0.041747	0.999017	-0.825858	-0.562739	-0.035817
686	368376													8.405525	-0.015413	5.547550	0.556206	-0.830646	-0.025721	-0.014968	-0.040958	0.999049	-0.830909	-0.555292	-0.035214
687	368543													8.505265	-0.042505	5.451565	0.549050	-0.835410	-0.025186	-0.015199	-0.040110	0.999080	-0.835651	-0.548162	-0.034720
688	368709													8.488719	-0.024075	5.337030	0.542238	-0.839868	-0.024513	-0.015447	-0.039134	0.999115	-0.840083	-0.541379	-0.034193
689	368876													8.397381	-0.037693	5.214981	0.535500	-0.844205	-0.023616	-0.015700	-0.037909	0.999158	-0.844389	-0.534678	-0.033554
690	369043													8.476626	-0.076716	5.070597	0.528713	-0.848501	-0.022551	-0.016001	-0.036527	0.999205	-0.848650	-0.527932	-0.032889
691	369209													8.617388	-0.094263	4.973914	0.522109	-0.852609	-0.021447	-0.016296	-0.035115	0.999250	-0.852723	-0.521368	-0.032228
692	369376													8.734845	-0.136553	4.919588	0.515920	-0.856394	-0.020394	-0.016544	-0.033764	0.999293	-0.856477	-0.515218	-0.031588
693	369543													8.741758	-0.149717	4.918517	0.510219	-0.859824	-0.019464	-0.016665	-0.032511	0.999332	-0.859883	-0.509554	-0.030917
694	369709													8.574571	-0.143142	4.933629	0.504659	-0.863119	-0.018597	-0.016658	-0.031273	0.999372	-0.863158	-0.504032	-0.030160
695	369876													8.506117	-0.146206	4.905169	0.498726	-0.866577	-0.017798	-0.016574	-0.030065	0.999411	-0.866601	-0.498137	-0.029357
696	370043													8.580174	-0.129321	4.839032	0.492336	-0.870238	-0.017075	-0.016550	-0.028973	0.999443	-0.870248	-0.491779	-0.028667
697	370209													8.714355	-0.093321	4.820686	0.485698	-0.873973	-0.016396	-0.016627	-0.027991	0.999470	-0.873969	-0.485168	-0.028127
698	370376													8.746749	-0.100379	4.779162	0.478994	-0.877677	-0.015730	-0.016836	-0.027101	0.999491	-0.877657	-0.478485	-0.027758
699	370543													8.626357	-0.138710	4.735323	0.471964	-0.881489	-0.015042	-0.017025	-0.026172	0.999512	-0.881453	-0.471478	-0.027360
700	370709													8.738430	-0.210013	4.675048	0.464414	-0.885502	-0.014365	-0.017131	-0.025199	0.999536	-0.885453	-0.463952	-0.026872
701	370876													8.847182	-0.201354	4.563630	0.456818	-0.889451	-0.013956	-0.017213	-0.024524	0.999551	-0.889394	-0.456372	-0.026513
702	371043													8.917460	-0.200334	4.469743	0.449291	-0.893279	-0.013754	-0.017333	-0.024109	0.999559	-0.893217	-0.448855	-0.026315
703	371209													8.851235	-0.149967	4.422194	0.441761	-0.897028	-0.013741	-0.017414	-0.023887	0.999563	-0.896964	-0.441329	-0.026173
704	371376													8.771683	-0.085125	4.360287	0.433793	-0.900909	-0.013637	-0.017254	-0.023439	0.999576	-0.900847	-0.433374	-0.025712
705	371543													8.880991	-0.167306	4.250074	0.425319	-0.904945	-0.013367	-0.017033	-0.022771	0.999596	-0.904883	-0.424920	-0.025099
706	371709													9.060105	-0.209790	4.134161	0.416734	-0.908930	-0.013372	-0.016673	-0.022350	0.999611	-0.908876	-0.416349	-0.024469
707	371876													9.189032	-0.182746	4.035808	0.408466	-0.912672	-0.013637	-0.016342	-0.022250	0.999619	-0.912627	-0.408087	-0.024003
708	372043													9.223083	-0.095324	3.979352	0.400736	-0.916084	-0.014195	-0.016190	-0.022572	0.999614	-0.916051	-0.400351	-0.023877
709	372209													8.987100	-0.018119	3.915640	0.393222	-0.919325	-0.014750	-0.016108	-0.022928	0.999607	-0.919302	-0.392830	-0.023824
710	372376													8.966371	-0.037128	3.824957	0.385188	-0.922716	-0.015042	-0.016130	-0.023029	0.999605	-0.922697	-0.384793	-0.023754
711	372543													9.202299	-0.113531	3.761200	0.376902	-0.926127	-0.015267	-0.016375	-0.023142	0.999598	-0.926108	-0.376500	-0.023888
712	372709													9.379149	-0.156677	3.682043	0.368907	-0.929333	-0.015730	-0.016842	-0.023605	0.999579	-0.929314	-0.368487	-0.024360
713	372876													9.395754	-0.156508	3.634865	0.361359	-0.932282	-0.016412	-0.017473	-0.024369	0.999550	-0.932263	-0.360909	-0.025096
714	373043													9.188709	-0.134391	3.556775	0.354012	-0.935083	-0.017168	-0.018013	-0.025170	0.999521	-0.935067	-0.353533	-0.025754
715	373209													9.091870	-0.136356	3.505211	0.346154	-0.938008	-0.017840	-0.018492	-0.025833	0.999495	-0.937995	-0.345649	-0.026288
716	373376													9.262553	-0.133753	3.425878	0.337736	-0.941061	-0.018421	-0.019071	-0.026409	0.999469	-0.941048	-0.337205	-0.026867
717	373543													9.371211	-0.130558	3.315301	0.329227	-0.944061	-0.018957	-0.019713	-0.026944	0.999443	-0.944045	-0.328669	-0.027481
718	373709													9.415085	-0.124238	3.244368	0.320750	-0.946965	-0.019391	-0.020413	-0.027380	0.999417	-0.946944	-0.320167	-0.028113
719	373876													9.335782	-0.144099	3.143429	0.312349	-0.949762	-0.019736	-0.021087	-0.027702	0.999394	-0.949733	-0.311744	-0.028680
720	374043													9.208486	-0.110694	3.063088	0.303639	-0.952578	-0.019946	-0.021785	-0.027870	0.999374	-0.952538	-0.303014	-0.029215
721	374209													9.271404	-0.143361	2.973364	0.294294	-0.955507	-0.019943	-0.022539	-0.027800	0.999359	-0.955449	-0.293656	-0.029717
722	374376													9.440673	-0.228497	2.870550	0.284660	-0.958421	-0.019941	-0.023331	-0.027722	0.999343	-0.958345	-0.284007	-0.030252
723	374543													9.548808	-0.256954	2.780424	0.275109	-0.961204	-0.020030	-0.024169	-0.027742	0.999323	-0.961109	-0.274438	-0.030864
724	374709													9.512128	-0.228791	2.663467	0.265667	-0.963852	-0.020236	-0.024860	-0.027833	0.999303	-0.963744	-0.264979	-0.031356
725	374876													9.509561	-0.253311	2.537915	0.256222	-0.966402	-0.020442	-0.025458	-0.027887	0.999287	-0.966283	-0.255519	-0.031748
726	375043													9.529843	-0.255200	2.396045	0.246804	-0.968845	-0.020666	-0.026008	-0.027941	0.999271	-0.968716	-0.246086	-0.032094
727	375209													9.598826	-0.236986	2.282448	0.237501	-0.971162	-0.020932	-0.026561	-0.028033	0.999254	-0.971024	-0.236768	-0.032453
728	375376													9.669394	-0.236067	2.230610	0.228531	-0.973306	-0.021188	-0.027048	-0.028103	0.999239	-0.973161	-0.227784	-0.032748
729	375543													9.627845	-0.233558	2.145746	0.219756	-0.975322	-0.021307	-0.027376	-0.027998	0.999233	-0.975171	-0.219004	-0.032854
730	375709													9.647568	-0.235338	2.047453	0.210955	-0.977265	-0.021260	-0.027664	-0.027710	0.999233	-0.977104	-0.210205	-0.032880
731	375876													9.732492	-0.225282	1.934264	0.202361	-0.979082	-0.021162	-0.027986	-0.027382	0.999233	-0.978911	-0.201614	-0.032941
732	376043													9.745184	-0.217891	1.842540	0.194047	-0.980769	-0.020940	-0.028390	-0.026951	0.999234	-0.980581	-0.193303	-0.033073
733	376209													9.718134	-0.222091	1.775169	0.185946	-0.982343	-0.020621	-0.028893	-0.026445	0.999233	-0.982135	-0.185208	-0.033301
734	376376													9.640254	-0.263619	1.731456	0.177823	-0.983856	-0.020161	-0.029391	-0.025788	0.999235	-0.983624	-0.177094	-0.033502
735	376543													9.782621	-0.313597	1.627636	0.169660	-0.985304	-0.019780	-0.029974	-0.025221	0.999232	-0.985047	-0.168937	-0.033812
736	376709													9.963973	-0.426255	1.593053	0.161977	-0.986599	-0.019646	-0.030605	-0.024922	0.999221	-0.986320	-0.161250	-0.034232
737	376876													9.801080	-0.388645	1.584038	0.154845	-0.987738	-0.019900	-0.031082	-0.025004	0.999204	-0.987450	-0.154103	-0.034573
738	377043													9.595445	-0.339279	1.563060	0.147376	-0.988872	-0.020297	-0.031103	-0.025144	0.999200	-0.988591	-0.146627	-0.034462
739	377209													9.592935	-0.330086	1.436259	0.139410	-0.990019	-0.020661	-0.030852	-0.025197	0.999206	-0.989754	-0.138662	-0.034057
740	377376													9.686056	-0.328170	1.339951	0.131092	-0.991146	-0.021076	-0.030521	-0.025284	0.999214	-0.990900	-0.130346	-0.033565
741	377543													9.860524	-0.261790	1.263515	0.123011	-0.992170	-0.021618	-0.030225	-0.025519	0.999217	-0.991945	-0.122261	-0.033128
742	377709													9.703220	-0.211246	1.198754	0.115120	-0.993108	-0.022004	-0.030032	-0.025621	0.999221	-0.992898	-0.114369	-0.032775
743	377876													9.583152	-0.170195	1.117276	0.106957	-0.994016	-0.022179	-0.029879	-0.025510	0.999228	-0.993815	-0.106212	-0.032429
744	378043													9.624243	-0.183038	0.991462	0.098281	-0.994918	-0.021901	-0.029701	-0.024930	0.999248	-0.994715	-0.097557	-0.032001
745	378209													9.839916	-0.246847	0.852914	0.089614	-0.995746	-0.021432	-0.029582	-0.024170	0.999270	-0.995537	-0.088914	-0.031622
746	378376													10.052433	-0.278310	0.768182	0.081566	-0.996446	-0.021032	-0.029553	-0.023511	0.999287	-0.996230	-0.080886	-0.031366
747	378543													9.984118	-0.223245	0.699567	0.074318	-0.997021	-0.020638	-0.029584	-0.022890	0.999300	-0.996796	-0.073655	-0.031197
748	378709													9.763223	-0.257470	0.579312	0.067317	-0.997531	-0.020027	-0.029629	-0.022063	0.999317	-0.997292	-0.066678	-0.031041
749	378876													9.718491	-0.277437	0.459237	0.060274	-0.997994	-0.019356	-0.029716	-0.021177	0.999334	-0.997739	-0.059658	-0.030933
750	379043													9.848094	-0.330377	0.335566	0.053398	-0.998397	-0.018749	-0.029941	-0.020369	0.999344	-0.998124	-0.052802	-0.030981
751	379209													10.009157	-0.323552	0.278241	0.047029	-0.998725	-0.018352	-0.030223	-0.019787	0.999347	-0.998436	-0.046444	-0.031115
752	379376													9.991626	-0.238053	0.246542	0.041284	-0.998984	-0.018058	-0.030431	-0.019322	0.999350	-0.998684	-0.040708	-0.031198
753	379543													9.974238	-0.261885	0.178649	0.036029	-0.999194	-0.017672	-0.030556	-0.018776	0.999357	-0.998884	-0.035466	-0.031208
754	379709													9.927157	-0.284092	0.142973	0.031193	-0.999364	-0.017302	-0.030790	-0.018263	0.999359	-0.999039	-0.030640	-0.031340
755	379876													9.891922	-0.265340	0.125430	0.026723	-0.999499	-0.016980	-0.031140	-0.017810	0.999356	-0.999158	-0.026177	-0.031600
756	380043													9.871942	-0.234755	0.142671	0.022543	-0.999607	-0.016663	-0.031592	-0.017371	0.999350	-0.999247	-0.022001	-0.031971
757	380209													9.764622	-0.271404	0.152227	0.018440	-0.999697	-0.016297	-0.032158	-0.016884	0.999340	-0.999313	-0.017904	-0.032459
758	380376													9.780561	-0.310281	0.152699	0.014244	-0.999772	-0.015930	-0.032769	-0.016390	0.999329	-0.999361	-0.013713	-0.032995
759	380543													9.635153	-0.343529	0.150908	0.009849	-0.999829	-0.015669	-0.033507	-0.015991	0.999311	-0.999390	-0.009318	-0.033658
760	380710													9.580584	-0.367153	0.094376	0.004814	-0.999868	-0.015550	-0.034262	-0.015706	0.999289	-0.999401	-0.004278	-0.034333
761	380876													9.763173	-0.387780	0.101189	-0.000693	-0.999878	-0.015636	-0.035059	-0.015602	0.999263	-0.999385	0.001240	-0.035044
762	381043													9.811970	-0.344950	0.068874	-0.006287	-0.999854	-0.015899	-0.035815	-0.015664	0.999236	-0.999339	0.006851	-0.035712
763	381210													9.778620	-0.336716	0.052912	-0.012061	-0.999796	-0.016230	-0.036485	-0.015780	0.999210	-0.999261	0.012644	-0.036287
764	381376													9.635181	-0.340224	-0.038723	-0.018207	-0.999698	-0.016502	-0.037058	-0.015819	0.999188	-0.999147	0.018804	-0.036759
765	381543													9.657091	-0.394708	-0.131513	-0.024863	-0.999552	-0.016688	-0.037627	-0.015746	0.999168	-0.998983	0.025470	-0.037218
766	381710													9.819350	-0.412104	-0.213462	-0.031496	-0.999360	-0.016987	-0.038274	-0.015777	0.999143	-0.998771	0.032119	-0.037752
767	381876													9.829333	-0.397469	-0.288119	-0.037899	-0.999129	-0.017456	-0.039046	-0.015974	0.999110	-0.998518	0.038547	-0.038407
768	382043													9.770912	-0.401441	-0.333360	-0.044187	-0.998861	-0.018028	-0.039771	-0.016272	0.999076	-0.998231	0.044863	-0.039007
769	382210													9.702756	-0.356308	-0.430232	-0.050694	-0.998542	-0.018533	-0.040281	-0.016498	0.999052	-0.997902	0.051393	-0.039386
770	382376													9.830714	-0.393570	-0.518630	-0.057247	-0.998180	-0.018961	-0.040647	-0.016646	0.999035	-0.997532	0.057962	-0.039620
771	382543													9.974009	-0.430831	-0.569188	-0.063370	-0.997800	-0.019467	-0.041058	-0.016883	0.999014	-0.997145	0.064107	-0.039898
772	382710													9.959737	-0.446368	-0.623395	-0.068953	-0.997417	-0.020138	-0.041660	-0.017289	0.998982	-0.996750	0.069722	-0.040360
773	382876													9.776421	-0.428163	-0.632379	-0.074262	-0.997019	-0.020911	-0.042283	-0.017802	0.998947	-0.996342	0.075068	-0.040835
774	383043													9.663098	-0.424625	-0.736786	-0.079784	-0.996577	-0.021668	-0.042751	-0.018297	0.998918	-0.995895	0.080624	-0.041145
775	383210													9.713872	-0.388493	-0.819260	-0.085489	-0.996088	-0.022378	-0.043095	-0.018742	0.998895	-0.995407	0.086359	-0.041324
776	383376													9.801785	-0.381152	-0.879109	-0.091005	-0.995584	-0.023031	-0.043407	-0.019140	0.998874	-0.994904	0.091903	-0.041473
777	383543													9.832094	-0.386679	-0.898557	-0.096163	-0.995086	-0.023580	-0.043746	-0.019442	0.998853	-0.994404	0.097084	-0.041662
778	383710													9.705290	-0.373985	-0.936821	-0.101188	-0.994578	-0.024009	-0.043959	-0.019639	0.998840	-0.993896	0.102126	-0.041733
779	383876													9.650847	-0.373721	-1.014925	-0.106405	-0.994028	-0.024199	-0.043990	-0.019607	0.998840	-0.993349	0.107346	-0.041641
780	384043													9.689445	-0.366103	-1.102417	-0.111780	-0.993437	-0.024245	-0.043842	-0.019444	0.998849	-0.992765	0.112714	-0.041380
781	384210													9.719419	-0.397745	-1.130378	-0.117095	-0.992827	-0.024165	-0.043612	-0.019169	0.998865	-0.992163	0.118016	-0.041055
782	384376													9.701372	-0.415062	-1.193112	-0.122323	-0.992198	-0.024074	-0.043572	-0.018864	0.998872	-0.991533	0.123234	-0.040924
783	384543													9.664693	-0.420796	-1.219079	-0.127609	-0.991534	-0.024020	-0.043627	-0.018583	0.998875	-0.990865	0.128513	-0.040886
784	384710													9.628659	-0.417577	-1.254637	-0.133067	-0.990817	-0.023984	-0.043619	-0.018321	0.998880	-0.990147	0.133964	-0.040780
785	384876													9.654388	-0.439217	-1.315744	-0.138757	-0.990036	-0.023994	-0.043539	-0.018107	0.998888	-0.989369	0.139648	-0.040592
786	385043													9.666829	-0.501212	-1.367419	-0.144415	-0.989223	-0.024145	-0.043558	-0.018022	0.998888	-0.988558	0.145306	-0.040486
787	385210													9.680754	-0.540453	-1.460119	-0.150061	-0.988369	-0.024684	-0.043734	-0.018306	0.998875	-0.987709	0.150971	-0.040478
788	385376													9.708143	-0.497045	-1.494689	-0.155540	-0.987500	-0.025510	-0.044083	-0.018860	0.998850	-0.986846	0.156485	-0.040599
789	385543													9.643551	-0.468738	-1.554247	-0.160923	-0.986610	-0.026550	-0.044409	-0.019635	0.998820	-0.985967	0.161912	-0.040654
790	385710													9.629228	-0.451508	-1.574445	-0.166290	-0.985688	-0.027671	-0.044624	-0.020511	0.998793	-0.985067	0.167325	-0.040574
791	385876													9.636090	-0.451765	-1.664026	-0.171584	-0.984747	-0.028859	-0.044806	-0.021463	0.998765	-0.984150	0.172665	-0.040440
792	386043													9.632725	-0.419144	-1.702070	-0.176791	-0.983789	-0.030076	-0.045007	-0.022445	0.998735	-0.983219	0.177921	-0.040309
793	386210													9.650154	-0.445134	-1.767554	-0.181770	-0.982843	-0.031292	-0.045287	-0.023421	0.998699	-0.982298	0.182951	-0.040253
794	386376													9.608192	-0.445955	-1.820118	-0.186528	-0.981913	-0.032479	-0.045628	-0.024366	0.998661	-0.981389	0.187761	-0.040258
795	386543													9.684107	-0.466591	-1.871602	-0.191084	-0.980998	-0.033606	-0.045942	-0.025261	0.998625	-0.980498	0.192365	-0.040242
796	386710													9.785716	-0.418579	-1.888108	-0.195227	-0.980144	-0.034686	-0.046238	-0.026129	0.998589	-0.979667	0.196556	-0.040219
797	386876													9.711087	-0.350087	-1.914497	-0.198953	-0.979365	-0.035534	-0.046399	-0.026805	0.998563	-0.978910	0.200316	-0.040109
798	387043													9.643645	-0.393445	-1.980622	-0.202407	-0.978636	-0.036093	-0.046566	-0.027196	0.998545	-0.978194	0.203793	-0.040066
799	387210													9.570732	-0.453030	-2.010015	-0.205632	-0.977946	-0.036576	-0.046872	-0.027490	0.998523	-0.977506	0.207042	-0.040186
800	387376													9.553285	-0.424912	-1.990503	-0.208779	-0.977265	-0.036950	-0.047140	-0.027683	0.998505	-0.976826	0.210209	-0.040288
801	387543													9.521692	-0.446307	-2.011353	-0.211856	-0.976592	-0.037221	-0.047316	-0.027791	0.998493	-0.976155	0.213298	-0.040321
802	387710													9.523850	-0.454981	-2.050649	-0.214985	-0.975902	-0.037381	-0.047430	-0.027798	0.998488	-0.975465	0.216433	-0.040311
803	387876													9.496909	-0.481896	-2.089151	-0.218204	-0.975181	-0.037529	-0.047539	-0.027789	0.998483	-0.974745	0.219657	-0.040296
804	388043													9.474467	-0.484771	-2.094383	-0.221469	-0.974437	-0.037744	-0.047701	-0.027834	0.998474	-0.974000	0.222931	-0.040317
805	388210													9.429567	-0.495369	-2.101872	-0.224867	-0.973648	-0.038018	-0.047853	-0.027935	0.998464	-0.973214	0.226340	-0.040310
806	388376													9.448319	-0.496013	-2.147474	-0.228453	-0.972799	-0.038354	-0.047967	-0.028101	0.998454	-0.972372	0.229940	-0.040242
807	388543													9.481400	-0.503271	-2.220360	-0.232185	-0.971899	-0.038752	-0.048133	-0.028311	0.998440	-0.971480	0.233688	-0.040207
808	388710													9.472258	-0.503753	-2.258593	-0.235887	-0.970990	-0.039184	-0.048364	-0.028542	0.998422	-0.970576	0.237410	-0.040229
809	388876													9.490180	-0.471650	-2.279383	-0.239563	-0.970070	-0.039676	-0.048674	-0.028814	0.998399	-0.969660	0.241110	-0.040314
810	389043													9.477575	-0.439621	-2.290374	-0.243087	-0.969175	-0.040094	-0.048916	-0.029033	0.998381	-0.968770	0.244655	-0.040350
811	389210													9.420158	-0.520517	-2.353020	-0.246577	-0.968276	-0.040514	-0.049224	-0.029238	0.998360	-0.967872	0.248166	-0.040453
812	389376													9.447000	-0.530051	-2.397601	-0.250058	-0.967361	-0.041038	-0.049660	-0.029515	0.998330	-0.966957	0.251678	-0.040659
813	389543													9.449595	-0.466706	-2.465965	-0.253462	-0.966450	-0.041607	-0.050106	-0.029837	0.998298	-0.966047	0.255116	-0.040862
814	389710													9.463647	-0.473584	-2.515416	-0.256765	-0.965556	-0.042104	-0.050484	-0.030106	0.998271	-0.965154	0.258447	-0.041015
815	389876													9.480098	-0.500217	-2.570755	-0.259920	-0.964693	-0.042543	-0.050868	-0.030318	0.998245	-0.964289	0.261628	-0.041192
816	390043													9.465911	-0.535747	-2.585938	-0.262805	-0.963889	-0.043032	-0.051298	-0.030578	0.998215	-0.963484	0.264544	-0.041409
817	390210													9.446204	-0.607462	-2.608466	-0.265462	-0.963132	-0.043670	-0.051727	-0.031002	0.998180	-0.962733	0.267237	-0.041590
818	390376													9.466346	-0.555977	-2.616045	-0.267886	-0.962426	-0.044422	-0.051991	-0.031599	0.998148	-0.962047	0.269699	-0.041572
819	390543													9.402159	-0.511071	-2.641469	-0.270085	-0.961777	-0.045167	-0.052119	-0.032237	0.998120	-0.961425	0.271931	-0.041420
820	390710													9.338136	-0.498804	-2.671058	-0.272223	-0.961144	-0.045779	-0.052101	-0.032783	0.998104	-0.960823	0.274092	-0.041152
821	390876													9.298918	-0.490167	-2.714491	-0.274425	-0.960494	-0.046281	-0.052018	-0.033230	0.998093	-0.960200	0.276309	-0.040844
822	391043													9.332397	-0.492296	-2.739830	-0.276686	-0.959825	-0.046692	-0.051944	-0.033580	0.998085	-0.959555	0.278582	-0.040566
823	391210													9.413015	-0.453390	-2.784904	-0.278839	-0.959191	-0.046925	-0.051771	-0.033778	0.998088	-0.958941	0.280735	-0.040240
824	391376													9.448454	-0.476884	-2.819392	-0.280750	-0.958629	-0.047018	-0.051567	-0.033852	0.998096	-0.958395	0.282639	-0.039929
825	391543													9.463821	-0.498606	-2.823685	-0.282280	-0.958179	-0.047023	-0.051403	-0.033839	0.998105	-0.957954	0.284162	-0.039702
826	391710													9.442338	-0.515396	-2.835469	-0.283408	-0.957845	-0.047030	-0.051349	-0.033814	0.998108	-0.957624	0.285287	-0.039601
827	391876													9.422896	-0.516103	-2.855542	-0.284225	-0.957601	-0.047086	-0.051354	-0.033835	0.998107	-0.957381	0.286105	-0.039560
828	392043													9.461701	-0.515936	-2.837344	-0.284630	-0.957476	-0.047166	-0.051469	-0.033866	0.998100	-0.957255	0.286517	-0.039641
829	392210													9.435015	-0.514747	-2.832134	-0.284660	-0.957460	-0.047326	-0.051654	-0.033977	0.998087	-0.957236	0.286560	-0.039784
830	392376													9.386435	-0.539219	-2.820250	-0.284339	-0.957544	-0.047548	-0.051914	-0.034145	0.998068	-0.957317	0.286258	-0.040001
831	392543													9.317768	-0.550974	-2.824767	-0.283875	-0.957665	-0.047889	-0.052233	-0.034426	0.998041	-0.957438	0.285821	-0.040249
832	392710													9.312652	-0.562598	-2.785142	-0.283379	-0.957789	-0.048342	-0.052586	-0.034814	0.998009	-0.957565	0.285357	-0.040500
833	392876													9.310985	-0.541414	-2.779566	-0.282903	-0.957901	-0.048902	-0.052985	-0.035299	0.997971	-0.957684	0.284920	-0.040768
834	393043													9.331463	-0.534864	-2.741898	-0.282404	-0.958017	-0.049508	-0.053403	-0.035829	0.997930	-0.957808	0.284463	-0.041043
835	393210													9.362559	-0.534982	-2.751958	-0.281855	-0.958147	-0.050121	-0.053823	-0.036367	0.997888	-0.957946	0.283957	-0.041320
836	393376													9.338197	-0.521068	-2.725508	-0.281256	-0.958292	-0.050708	-0.054214	-0.036890	0.997848	-0.958100	0.283399	-0.041577
837	393543													9.352642	-0.545543	-2.714633	-0.280625	-0.958446	-0.051288	-0.054599	-0.037408	0.997807	-0.958263	0.282809	-0.041833
838	393710													9.319079	-0.544394	-2.692602	-0.279981	-0.958604	-0.051848	-0.055021	-0.037896	0.997766	-0.958428	0.282208	-0.042133
839	393876													9.335556	-0.559103	-2.693891	-0.279394	-0.958748	-0.052361	-0.055457	-0.038328	0.997725	-0.958574	0.281663	-0.042461
840	394043													9.360586	-0.496286	-2.695576	-0.278853	-0.958882	-0.052783	-0.055749	-0.038707	0.997694	-0.958714	0.281153	-0.042663
841	394210													9.405235	-0.475499	-2.685889	-0.278252	-0.959048	-0.052941	-0.055813	-0.038881	0.997684	-0.958885	0.280562	-0.042708
842	394376													9.424890	-0.552480	-2.665035	-0.277536	-0.959256	-0.052932	-0.055817	-0.038903	0.997683	-0.959092	0.279848	-0.042746
843	394543													9.398330	-0.585405	-2.647402	-0.276615	-0.959522	-0.052939	-0.055873	-0.038937	0.997678	-0.959355	0.278930	-0.042841
844	394710													9.373715	-0.565075	-2.642210	-0.275553	-0.959827	-0.052943	-0.055954	-0.038967	0.997673	-0.959656	0.277875	-0.042968
845	394876													9.359384	-0.548091	-2.641110	-0.274425	-0.960152	-0.052897	-0.055899	-0.038987	0.997675	-0.959982	0.276744	-0.042973
846	395043													9.344793	-0.550798	-2.625110	-0.273298	-0.960481	-0.052778	-0.055701	-0.038973	0.997687	-0.960315	0.275605	-0.042848
847	395210													9.307738	-0.580633	-2.607115	-0.272243	-0.960786	-0.052662	-0.055501	-0.038959	0.997698	-0.960626	0.274540	-0.042718
848	395376													9.316710	-0.565940	-2.605167	-0.271359	-0.961041	-0.052569	-0.055356	-0.038944	0.997707	-0.960885	0.273647	-0.042632
849	395543													9.360693	-0.550881	-2.619207	-0.270552	-0.961276	-0.052441	-0.055192	-0.038895	0.997718	-0.961122	0.272829	-0.042532
850	395710													9.356993	-0.549896	-2.606931	-0.269820	-0.961489	-0.052313	-0.055053	-0.038835	0.997728	-0.961336	0.272087	-0.042455
851	395876													9.380034	-0.555907	-2.585273	-0.269135	-0.961691	-0.052119	-0.054872	-0.038716	0.997743	-0.961538	0.271387	-0.042350
852	396043													9.376682	-0.572574	-2.589375	-0.268507	-0.961876	-0.051941	-0.054686	-0.038613	0.997757	-0.961724	0.270745	-0.042233
853	396210													9.402032	-0.551158	-2.576895	-0.267914	-0.962049	-0.051804	-0.054548	-0.038537	0.997767	-0.961897	0.270142	-0.042153
854	396376													9.429446	-0.553934	-2.582257	-0.267234	-0.962245	-0.051684	-0.054453	-0.038470	0.997775	-0.962092	0.269454	-0.042116
855	396543													9.403088	-0.580264	-2.564020	-0.266401	-0.962484	-0.051537	-0.054396	-0.038371	0.997782	-0.962326	0.268613	-0.042134
856	396710													9.399750	-0.587776	-2.576858	-0.265500	-0.962734	-0.051510	-0.054450	-0.038369	0.997779	-0.962572	0.267715	-0.042234
