// Start Time: Unknown
// Update Rate: 60.0Hz
//Filter Profile: human (46.1)
// Option Flags: AHS Disabled ICC Disabled
// Firmware Version: 4.0.2
0	sampleTimeFine	Year	Month	Day	Second	UTC_Nano	UTC_Year	UTC_Month	UTC_Day	UTC_Hour	UTC_Minute	UTC_Second	UTC_Valid	Acc_X	Acc_Y	Acc_Z	Mat[1][1]	Mat[2][1]	Mat[3][1]	Mat[1][2]	Mat[2][2]	Mat[3][2]	Mat[1][3]	Mat[2][3]	Mat[3][3]
0	252040													0.000000	0.000000	0.000000	0.315422	-0.668037	-0.673970	-0.017252	-0.714145	0.699785	-0.948795	-0.209100	-0.236782
1	252207													9.295897	-0.213407	3.122973	0.315516	-0.668976	-0.672994	-0.017982	-0.713309	0.700619	-0.948750	-0.208955	-0.237089
2	252374													9.299934	-0.184443	3.101380	0.316018	-0.669568	-0.672169	-0.018934	-0.712786	0.701126	-0.948564	-0.208842	-0.237930
3	252540													9.310678	-0.168643	3.112899	0.316208	-0.669306	-0.672341	-0.019339	-0.713105	0.700791	-0.948493	-0.208593	-0.238434
4	253374													9.328694	-0.185426	3.102020	0.315871	-0.669598	-0.672209	-0.018951	-0.712792	0.701119	-0.948613	-0.208724	-0.237840
5	253540													9.321195	-0.168550	3.095336	0.315704	-0.669795	-0.672090	-0.018906	-0.712615	0.701301	-0.948669	-0.208697	-0.237639
6	253707													9.312312	-0.176745	3.098275	0.315497	-0.669626	-0.672356	-0.018857	-0.712828	0.701085	-0.948739	-0.208512	-0.237522
7	253874													9.317276	-0.188184	3.104809	0.315333	-0.669605	-0.672454	-0.018802	-0.712876	0.701038	-0.948795	-0.208417	-0.237383
8	254040													9.322939	-0.167056	3.114630	0.315159	-0.669628	-0.672513	-0.018763	-0.712883	0.701032	-0.948854	-0.208318	-0.237236
9	254207													9.297454	-0.154072	3.080297	0.314921	-0.669705	-0.672547	-0.018730	-0.712849	0.701067	-0.948933	-0.208184	-0.237035
10	254374													9.309123	-0.163343	3.075049	0.314735	-0.669722	-0.672617	-0.018733	-0.712875	0.701041	-0.948995	-0.208042	-0.236913
11	254540													9.326455	-0.175034	3.066122	0.314532	-0.669690	-0.672745	-0.018649	-0.712937	0.700980	-0.949064	-0.207934	-0.236731
12	254707													9.319271	-0.139261	3.085202	0.314390	-0.669662	-0.672839	-0.018622	-0.712992	0.700925	-0.949111	-0.207834	-0.236628
13	254874													9.334291	-0.165700	3.101349	0.314272	-0.669480	-0.673075	-0.018636	-0.713212	0.700701	-0.949150	-0.207667	-0.236619
14	255040													9.329370	-0.164946	3.102475	0.314121	-0.669527	-0.673099	-0.018651	-0.713201	0.700712	-0.949200	-0.207554	-0.236519
15	255207													9.320988	-0.162610	3.083635	0.313970	-0.669453	-0.673242	-0.018632	-0.713307	0.700604	-0.949250	-0.207424	-0.236431
16	255374													9.320713	-0.165546	3.091467	0.313830	-0.669469	-0.673292	-0.018621	-0.713320	0.700591	-0.949297	-0.207329	-0.236327
17	255540													9.318423	-0.172233	3.067628	0.313715	-0.669407	-0.673407	-0.018555	-0.713396	0.700515	-0.949336	-0.207267	-0.236224
18	255707													9.327707	-0.165424	3.071007	0.313607	-0.669255	-0.673608	-0.018446	-0.713555	0.700356	-0.949374	-0.207211	-0.236121
19	255874													9.316406	-0.152182	3.082415	0.313503	-0.669160	-0.673751	-0.018340	-0.713654	0.700258	-0.949410	-0.207177	-0.236005
20	256040													9.309987	-0.144167	3.093130	0.313367	-0.669028	-0.673945	-0.018234	-0.713799	0.700113	-0.949457	-0.207103	-0.235880
21	256207													9.314898	-0.130882	3.074780	0.313222	-0.669043	-0.673999	-0.018116	-0.713792	0.700124	-0.949507	-0.207084	-0.235695
22	256374													9.337521	-0.125593	3.097968	0.313089	-0.668950	-0.674152	-0.018016	-0.713896	0.700020	-0.949553	-0.207023	-0.235565
23	256540													9.330225	-0.138517	3.084043	0.312972	-0.668943	-0.674214	-0.017983	-0.713923	0.699993	-0.949592	-0.206954	-0.235468
24	256707													9.332791	-0.168568	3.073761	0.312887	-0.668994	-0.674202	-0.017991	-0.713891	0.700026	-0.949620	-0.206899	-0.235403
25	256874													9.325590	-0.181310	3.079229	0.312806	-0.669098	-0.674137	-0.018026	-0.713809	0.700109	-0.949646	-0.206846	-0.235345
26	257040													9.308589	-0.183349	3.094099	0.312726	-0.669096	-0.674176	-0.018069	-0.713838	0.700078	-0.949672	-0.206751	-0.235325
27	257207													9.333174	-0.179913	3.086583	0.312625	-0.669165	-0.674154	-0.018153	-0.713807	0.700107	-0.949703	-0.206633	-0.235301
28	257374													9.318966	-0.183842	3.083872	0.312522	-0.669062	-0.674304	-0.018209	-0.713949	0.699960	-0.949736	-0.206475	-0.235308
29	257540													9.338830	-0.193223	3.107195	0.312412	-0.668950	-0.674467	-0.018259	-0.714102	0.699803	-0.949771	-0.206312	-0.235308
30	257707													9.320142	-0.174791	3.093258	0.312296	-0.668847	-0.674622	-0.018300	-0.714243	0.699658	-0.949809	-0.206155	-0.235295
31	257874													9.322161	-0.171464	3.081223	0.312169	-0.668775	-0.674752	-0.018351	-0.714357	0.699540	-0.949849	-0.205993	-0.235273
32	258040													9.327788	-0.146946	3.084013	0.312042	-0.668759	-0.674827	-0.018417	-0.714417	0.699478	-0.949890	-0.205838	-0.235244
33	258207													9.330239	-0.159932	3.066025	0.311899	-0.668798	-0.674854	-0.018440	-0.714414	0.699480	-0.949936	-0.205723	-0.235158
34	258374													9.334532	-0.148792	3.068490	0.311758	-0.668732	-0.674985	-0.018503	-0.714528	0.699362	-0.949981	-0.205543	-0.235133
35	258540													9.319764	-0.149242	3.083553	0.311644	-0.668699	-0.675070	-0.018586	-0.714605	0.699281	-0.950017	-0.205380	-0.235131
36	258707													9.315852	-0.158183	3.075595	0.311520	-0.668860	-0.674968	-0.018675	-0.714486	0.699400	-0.950056	-0.205272	-0.235068
37	258874													9.325018	-0.160260	3.092553	0.311394	-0.668899	-0.674988	-0.018767	-0.714494	0.699390	-0.950096	-0.205118	-0.235042
38	259040													9.325887	-0.161122	3.080895	0.311296	-0.668873	-0.675058	-0.018814	-0.714552	0.699329	-0.950127	-0.204998	-0.235022
39	259207													9.338644	-0.171375	3.099967	0.311178	-0.668944	-0.675042	-0.018869	-0.714517	0.699364	-0.950164	-0.204889	-0.234965
40	259374													9.308209	-0.161141	3.060200	0.311085	-0.668923	-0.675107	-0.018910	-0.714569	0.699310	-0.950194	-0.204778	-0.234941
41	259540													9.343643	-0.156188	3.076926	0.310976	-0.668938	-0.675141	-0.018881	-0.714570	0.699309	-0.950230	-0.204721	-0.234844
42	259707													9.323416	-0.183792	3.061573	0.310888	-0.668953	-0.675167	-0.018861	-0.714571	0.699309	-0.950259	-0.204672	-0.234769
43	259874													9.320745	-0.194409	3.036642	0.310785	-0.668930	-0.675237	-0.018934	-0.714633	0.699243	-0.950292	-0.204529	-0.234763
44	260040													9.331985	-0.143063	3.048896	0.310765	-0.668869	-0.675307	-0.018987	-0.714712	0.699161	-0.950297	-0.204453	-0.234807
45	260207													9.381479	-0.168729	3.055784	0.310815	-0.668795	-0.675357	-0.018995	-0.714779	0.699092	-0.950281	-0.204460	-0.234868
46	260374													9.367914	-0.168318	3.057621	0.310859	-0.668847	-0.675285	-0.018980	-0.714712	0.699161	-0.950266	-0.204524	-0.234870
47	260540													9.344872	-0.183749	3.084250	0.310959	-0.668926	-0.675161	-0.019067	-0.714627	0.699246	-0.950232	-0.204564	-0.234974
48	260707													9.323505	-0.185037	3.081639	0.311010	-0.668894	-0.675170	-0.019166	-0.714671	0.699199	-0.950214	-0.204517	-0.235090
49	260874													9.300406	-0.181317	3.085302	0.311026	-0.668914	-0.675142	-0.019202	-0.714654	0.699215	-0.950207	-0.204510	-0.235121
50	261040													9.307294	-0.160668	3.066133	0.311013	-0.668894	-0.675168	-0.019224	-0.714682	0.699185	-0.950211	-0.204476	-0.235134
51	261207													9.300349	-0.162467	3.098891	0.311004	-0.668880	-0.675186	-0.019226	-0.714699	0.699168	-0.950214	-0.204463	-0.235135
52	261374													9.317307	-0.155944	3.084615	0.311003	-0.668846	-0.675220	-0.019250	-0.714739	0.699126	-0.950214	-0.204433	-0.235161
53	261540													9.316942	-0.171011	3.082140	0.311019	-0.668806	-0.675252	-0.019290	-0.714786	0.699077	-0.950208	-0.204401	-0.235213
54	261707													9.320776	-0.170442	3.073503	0.311019	-0.668858	-0.675200	-0.019331	-0.714741	0.699123	-0.950207	-0.204388	-0.235228
55	261874													9.328008	-0.174326	3.084754	0.311025	-0.668865	-0.675191	-0.019376	-0.714741	0.699120	-0.950204	-0.204361	-0.235262
56	262040													9.336834	-0.155558	3.077205	0.311026	-0.668900	-0.675156	-0.019445	-0.714720	0.699141	-0.950202	-0.204323	-0.235303
57	262207													9.340598	-0.177520	3.061527	0.310992	-0.668988	-0.675084	-0.019541	-0.714657	0.699202	-0.950212	-0.204254	-0.235325
58	262374													9.337463	-0.166126	3.082619	0.310960	-0.669013	-0.675074	-0.019597	-0.714650	0.699207	-0.950221	-0.204196	-0.235339
59	262540													9.324585	-0.165657	3.100307	0.310927	-0.668966	-0.675136	-0.019645	-0.714717	0.699138	-0.950231	-0.204118	-0.235367
60	262707													9.313574	-0.157196	3.105747	0.310827	-0.668939	-0.675209	-0.019680	-0.714775	0.699078	-0.950263	-0.204004	-0.235337
61	262874													9.291333	-0.146671	3.067241	0.310741	-0.668916	-0.675272	-0.019767	-0.714837	0.699012	-0.950289	-0.203864	-0.235352
62	263040													9.323916	-0.159731	3.069516	0.310674	-0.668955	-0.675263	-0.019797	-0.714817	0.699031	-0.950310	-0.203803	-0.235319
63	263207													9.321238	-0.141471	3.092543	0.310635	-0.668983	-0.675254	-0.019749	-0.714787	0.699064	-0.950324	-0.203818	-0.235249
64	263374													9.348002	-0.150476	3.078166	0.310637	-0.669025	-0.675212	-0.019810	-0.714756	0.699093	-0.950322	-0.203788	-0.235283
65	263540													9.344114	-0.167524	3.068368	0.310608	-0.669057	-0.675193	-0.019873	-0.714743	0.699105	-0.950330	-0.203729	-0.235301
66	263707													9.327993	-0.181085	3.099724	0.310550	-0.669161	-0.675117	-0.019911	-0.714656	0.699192	-0.950349	-0.203692	-0.235260
67	263874													9.312623	-0.161097	3.091209	0.310465	-0.669460	-0.674859	-0.019986	-0.714381	0.699471	-0.950375	-0.203674	-0.235170
68	264041													9.313195	-0.167063	3.093462	0.310395	-0.669491	-0.674860	-0.020026	-0.714373	0.699479	-0.950397	-0.203600	-0.235145
69	264207													9.325329	-0.163207	3.066190	0.310310	-0.669571	-0.674820	-0.020022	-0.714308	0.699545	-0.950425	-0.203564	-0.235063
70	264374													9.313377	-0.153036	3.090272	0.310269	-0.669550	-0.674860	-0.019989	-0.714332	0.699521	-0.950438	-0.203551	-0.235019
71	264541													9.312762	-0.168507	3.075778	0.310219	-0.669547	-0.674885	-0.019925	-0.714332	0.699523	-0.950456	-0.203558	-0.234940
72	264707													9.321466	-0.151946	3.112581	0.310137	-0.669538	-0.674933	-0.019880	-0.714351	0.699505	-0.950484	-0.203525	-0.234857
73	264874													9.325933	-0.126984	3.099681	0.310009	-0.669534	-0.674996	-0.019815	-0.714369	0.699488	-0.950527	-0.203473	-0.234727
74	265041													9.320380	-0.142483	3.075270	0.309840	-0.669569	-0.675038	-0.019794	-0.714366	0.699493	-0.950583	-0.203369	-0.234592
75	265207													9.323319	-0.159763	3.067667	0.309712	-0.669718	-0.674950	-0.019804	-0.714242	0.699618	-0.950624	-0.203313	-0.234472
76	265374													9.323001	-0.163669	3.076339	0.309549	-0.669845	-0.674898	-0.019865	-0.714159	0.699701	-0.950676	-0.203185	-0.234374
77	265541													9.320258	-0.170649	3.073879	0.309407	-0.670041	-0.674768	-0.019929	-0.714001	0.699861	-0.950721	-0.203095	-0.234270
78	265707													9.335600	-0.156577	3.078127	0.309276	-0.670079	-0.674790	-0.019976	-0.714001	0.699860	-0.950762	-0.202971	-0.234209
79	265874													9.320158	-0.149960	3.105124	0.309159	-0.670041	-0.674882	-0.020001	-0.714071	0.699787	-0.950800	-0.202847	-0.234163
80	266041													9.312717	-0.183323	3.114240	0.308969	-0.670202	-0.674810	-0.020029	-0.713953	0.699907	-0.950861	-0.202734	-0.234012
81	266207													9.318008	-0.210091	3.091036	0.308743	-0.670216	-0.674899	-0.020078	-0.713998	0.699859	-0.950933	-0.202527	-0.233899
82	266374													9.367353	-0.238662	3.084539	0.308562	-0.670115	-0.675082	-0.020115	-0.714151	0.699703	-0.950991	-0.202322	-0.233839
83	266541													9.356494	-0.179065	3.037708	0.308361	-0.669903	-0.675384	-0.020070	-0.714405	0.699445	-0.951058	-0.202126	-0.233739
84	266707													9.313299	-0.168082	3.043239	0.308195	-0.669804	-0.675558	-0.020044	-0.714539	0.699309	-0.951112	-0.201982	-0.233643
85	266874													9.305928	-0.139561	3.034265	0.308042	-0.669656	-0.675774	-0.020002	-0.714716	0.699128	-0.951162	-0.201844	-0.233557
86	267041													9.323360	-0.124772	3.036219	0.307832	-0.669587	-0.675939	-0.019974	-0.714828	0.699015	-0.951231	-0.201678	-0.233421
87	267207													9.327780	-0.132600	3.048558	0.307616	-0.669678	-0.675947	-0.019912	-0.714768	0.699078	-0.951302	-0.201588	-0.233209
88	267374													9.337959	-0.140314	3.023935	0.307393	-0.669789	-0.675938	-0.019837	-0.714686	0.699164	-0.951376	-0.201509	-0.232976
89	267541													9.360646	-0.151073	3.035484	0.307226	-0.669904	-0.675900	-0.019794	-0.714595	0.699259	-0.951431	-0.201451	-0.232802
90	267707													9.350624	-0.141321	3.039462	0.307097	-0.670031	-0.675833	-0.019792	-0.714492	0.699364	-0.951473	-0.201396	-0.232680
91	267874													9.335890	-0.157417	3.052994	0.306986	-0.670146	-0.675769	-0.019813	-0.714401	0.699456	-0.951508	-0.201334	-0.232589
92	268041													9.348514	-0.169183	3.043731	0.306885	-0.670272	-0.675690	-0.019846	-0.714300	0.699558	-0.951540	-0.201274	-0.232510
93	268207													9.341868	-0.170435	3.054195	0.306773	-0.670345	-0.675669	-0.019877	-0.714255	0.699603	-0.951575	-0.201189	-0.232439
94	268374													9.335564	-0.158047	3.034863	0.306671	-0.670434	-0.675626	-0.019907	-0.714192	0.699667	-0.951607	-0.201118	-0.232369
95	268541													9.348170	-0.145788	3.034537	0.306611	-0.670568	-0.675520	-0.019902	-0.714065	0.699797	-0.951627	-0.201121	-0.232286
96	268707													9.359460	-0.160518	3.028751	0.306631	-0.670593	-0.675487	-0.019888	-0.714032	0.699831	-0.951621	-0.201155	-0.232281
97	268874													9.334766	-0.186331	3.021259	0.306566	-0.670628	-0.675482	-0.019911	-0.714015	0.699848	-0.951641	-0.201100	-0.232245
98	269041													9.334727	-0.161173	3.041443	0.306628	-0.670561	-0.675520	-0.019969	-0.714082	0.699777	-0.951620	-0.201082	-0.232348
99	269207													9.328308	-0.140324	3.054782	0.306730	-0.670587	-0.675448	-0.019980	-0.714036	0.699824	-0.951587	-0.201162	-0.232415
100	269374													9.373861	-0.120568	3.034111	0.306891	-0.670568	-0.675394	-0.019952	-0.714014	0.699847	-0.951535	-0.201302	-0.232504
101	269541													9.369958	-0.142148	3.067406	0.307089	-0.670601	-0.675271	-0.020070	-0.713962	0.699897	-0.951469	-0.201378	-0.232708
102	269707													9.324892	-0.144235	3.104160	0.307259	-0.670556	-0.675238	-0.020205	-0.713999	0.699855	-0.951411	-0.201394	-0.232932
103	269874													9.297889	-0.149514	3.088169	0.307362	-0.670568	-0.675179	-0.020258	-0.713976	0.699877	-0.951377	-0.201437	-0.233034
104	270041													9.313895	-0.135166	3.074022	0.307455	-0.670653	-0.675053	-0.020335	-0.713883	0.699969	-0.951345	-0.201482	-0.233125
105	270207													9.313570	-0.145430	3.084157	0.307533	-0.670622	-0.675048	-0.020382	-0.713908	0.699942	-0.951319	-0.201497	-0.233219
106	270374													9.306650	-0.150126	3.074233	0.307646	-0.670546	-0.675072	-0.020472	-0.713982	0.699865	-0.951281	-0.201491	-0.233381
107	270541													9.334600	-0.157639	3.074180	0.307750	-0.670565	-0.675006	-0.020570	-0.713960	0.699884	-0.951245	-0.201504	-0.233514
108	270707													9.330580	-0.173672	3.057936	0.307848	-0.670631	-0.674895	-0.020674	-0.713891	0.699951	-0.951211	-0.201526	-0.233635
109	270874													9.341073	-0.160862	3.068350	0.307961	-0.670570	-0.674904	-0.020788	-0.713954	0.699884	-0.951172	-0.201506	-0.233810
110	271041													9.337744	-0.176865	3.074209	0.308012	-0.670513	-0.674937	-0.020870	-0.714019	0.699815	-0.951153	-0.201465	-0.233921
111	271207													9.356594	-0.173971	3.068576	0.308047	-0.670447	-0.674987	-0.020978	-0.714103	0.699726	-0.951140	-0.201389	-0.234041
112	271374													9.334921	-0.164739	3.071880	0.308073	-0.670375	-0.675047	-0.021079	-0.714193	0.699631	-0.951129	-0.201309	-0.234154
113	271541													9.325694	-0.156108	3.078657	0.308094	-0.670392	-0.675020	-0.021181	-0.714193	0.699628	-0.951120	-0.201253	-0.234238
114	271707													9.343357	-0.156261	3.101975	0.308106	-0.670338	-0.675069	-0.021259	-0.714263	0.699554	-0.951115	-0.201185	-0.234319
115	271874													9.322053	-0.152118	3.070188	0.308081	-0.670358	-0.675060	-0.021365	-0.714270	0.699544	-0.951120	-0.201093	-0.234375
116	272041													9.309829	-0.155196	3.056000	0.308066	-0.670303	-0.675122	-0.021489	-0.714357	0.699452	-0.951122	-0.200969	-0.234474
117	272207													9.328476	-0.145076	3.051978	0.308042	-0.670290	-0.675145	-0.021509	-0.714379	0.699428	-0.951130	-0.200931	-0.234476
118	272374													9.321362	-0.140916	3.086611	0.308095	-0.670280	-0.675132	-0.021556	-0.714388	0.699417	-0.951111	-0.200933	-0.234548
119	272541													9.363208	-0.167737	3.071647	0.308123	-0.670297	-0.675102	-0.021699	-0.714395	0.699407	-0.951099	-0.200854	-0.234666
120	272707													9.337588	-0.194810	3.095397	0.308147	-0.670350	-0.675038	-0.021798	-0.714355	0.699444	-0.951089	-0.200817	-0.234739
121	272874													9.315326	-0.187669	3.073461	0.308145	-0.670408	-0.674982	-0.021909	-0.714319	0.699477	-0.951087	-0.200753	-0.234802
122	273041													9.323852	-0.173178	3.089997	0.308150	-0.670521	-0.674867	-0.021976	-0.714215	0.699581	-0.951084	-0.200745	-0.234821
123	273207													9.317687	-0.175445	3.072313	0.308145	-0.670569	-0.674821	-0.021999	-0.714171	0.699626	-0.951085	-0.200741	-0.234820
124	273374													9.316807	-0.169058	3.079758	0.308141	-0.670479	-0.674913	-0.021988	-0.714263	0.699532	-0.951086	-0.200715	-0.234836
125	273541													9.320719	-0.160533	3.090970	0.308141	-0.670443	-0.674948	-0.021919	-0.714286	0.699511	-0.951088	-0.200754	-0.234796
126	273707													9.322801	-0.165425	3.084980	0.308143	-0.670374	-0.675016	-0.021843	-0.714341	0.699457	-0.951089	-0.200788	-0.234762
127	273874													9.318745	-0.138975	3.075163	0.308112	-0.670396	-0.675008	-0.021770	-0.714309	0.699492	-0.951101	-0.200827	-0.234681
128	274041													9.315662	-0.146453	3.064767	0.308042	-0.670483	-0.674954	-0.021688	-0.714217	0.699588	-0.951126	-0.200864	-0.234550
129	274207													9.331587	-0.154506	3.062846	0.307965	-0.670570	-0.674903	-0.021659	-0.714138	0.699670	-0.951151	-0.200856	-0.234454
130	274374													9.324317	-0.179114	3.050051	0.307875	-0.670627	-0.674887	-0.021640	-0.714094	0.699715	-0.951181	-0.200821	-0.234364
131	274541													9.330900	-0.171029	3.077655	0.307786	-0.670655	-0.674900	-0.021629	-0.714083	0.699727	-0.951210	-0.200769	-0.234290
132	274707													9.333518	-0.171050	3.064956	0.307726	-0.670743	-0.674840	-0.021611	-0.714001	0.699811	-0.951229	-0.200766	-0.234212
133	274874													9.325043	-0.170435	3.091188	0.307657	-0.670728	-0.674886	-0.021574	-0.714024	0.699789	-0.951253	-0.200735	-0.234144
134	275041													9.319063	-0.185369	3.082186	0.307599	-0.670738	-0.674902	-0.021512	-0.714012	0.699803	-0.951273	-0.200741	-0.234058
135	275207													9.313789	-0.172781	3.084796	0.307537	-0.670743	-0.674926	-0.021425	-0.714003	0.699815	-0.951295	-0.200758	-0.233953
136	275374													9.317136	-0.165943	3.101230	0.307486	-0.670785	-0.674907	-0.021341	-0.713953	0.699869	-0.951313	-0.200796	-0.233846
137	275541													9.325733	-0.138747	3.081256	0.307408	-0.670735	-0.674993	-0.021248	-0.714002	0.699821	-0.951340	-0.200788	-0.233742
138	275707													9.321170	-0.141407	3.051198	0.307326	-0.670747	-0.675018	-0.021195	-0.713996	0.699829	-0.951368	-0.200769	-0.233646
139	275874													9.331223	-0.143756	3.047025	0.307242	-0.670710	-0.675093	-0.021129	-0.714038	0.699788	-0.951397	-0.200740	-0.233554
140	276041													9.339183	-0.145913	3.046335	0.307184	-0.670721	-0.675108	-0.021082	-0.714030	0.699798	-0.951417	-0.200734	-0.233479
141	276207													9.339880	-0.146199	3.035277	0.307158	-0.670702	-0.675139	-0.021050	-0.714049	0.699779	-0.951426	-0.200731	-0.233444
142	276374													9.337627	-0.138671	3.057103	0.307149	-0.670695	-0.675150	-0.021028	-0.714054	0.699775	-0.951429	-0.200738	-0.233424
143	276541													9.340281	-0.141922	3.051456	0.307166	-0.670681	-0.675156	-0.021019	-0.714062	0.699767	-0.951424	-0.200754	-0.233433
144	276707													9.325161	-0.140431	3.074219	0.307189	-0.670649	-0.675178	-0.021020	-0.714091	0.699737	-0.951416	-0.200759	-0.233458
145	276874													9.319102	-0.153809	3.043431	0.307197	-0.670630	-0.675193	-0.021028	-0.714110	0.699717	-0.951413	-0.200753	-0.233475
146	277041													9.331476	-0.166337	3.070135	0.307229	-0.670548	-0.675260	-0.021041	-0.714191	0.699634	-0.951403	-0.200740	-0.233530
147	277207													9.323817	-0.154323	3.069775	0.307262	-0.670509	-0.675283	-0.021090	-0.714234	0.699589	-0.951391	-0.200715	-0.233598
148	277374													9.333748	-0.159239	3.066126	0.307300	-0.670447	-0.675328	-0.021131	-0.714299	0.699522	-0.951378	-0.200693	-0.233671
149	277541													9.324444	-0.141997	3.039812	0.307322	-0.670386	-0.675378	-0.021169	-0.714365	0.699453	-0.951370	-0.200661	-0.233731
150	277707													9.352787	-0.159140	3.053114	0.307399	-0.670262	-0.675466	-0.021215	-0.714487	0.699327	-0.951344	-0.200642	-0.233853
151	277874													9.319074	-0.164507	3.055792	0.307488	-0.670148	-0.675539	-0.021249	-0.714593	0.699218	-0.951315	-0.200647	-0.233969
152	278041													9.321043	-0.156820	3.045467	0.307587	-0.670002	-0.675638	-0.021393	-0.714752	0.699051	-0.951280	-0.200565	-0.234181
153	278207													9.303961	-0.135561	3.075405	0.307750	-0.669962	-0.675604	-0.021583	-0.714799	0.698997	-0.951222	-0.200535	-0.234439
154	278374													9.356980	-0.141518	3.103596	0.307912	-0.669902	-0.675590	-0.021688	-0.714848	0.698944	-0.951168	-0.200561	-0.234639
155	278541													9.380542	-0.130428	3.100196	0.308086	-0.669902	-0.675510	-0.021793	-0.714831	0.698957	-0.951109	-0.200618	-0.234828
156	278707													9.319361	-0.164156	3.114555	0.308239	-0.669819	-0.675523	-0.022029	-0.714934	0.698845	-0.951054	-0.200530	-0.235127
157	278874													9.299557	-0.182967	3.096514	0.308418	-0.669738	-0.675521	-0.022248	-0.715024	0.698745	-0.950991	-0.200477	-0.235427
158	279041													9.291889	-0.186804	3.083610	0.308513	-0.669786	-0.675430	-0.022386	-0.714983	0.698783	-0.950957	-0.200464	-0.235575
159	279207													9.300950	-0.152085	3.114655	0.308548	-0.669801	-0.675400	-0.022450	-0.714974	0.698790	-0.950944	-0.200447	-0.235641
160	279374													9.313823	-0.165178	3.099292	0.308545	-0.669751	-0.675451	-0.022503	-0.715038	0.698724	-0.950943	-0.200388	-0.235693
161	279541													9.309288	-0.171069	3.078827	0.308578	-0.669751	-0.675436	-0.022595	-0.715050	0.698709	-0.950931	-0.200345	-0.235781
162	279707													9.324427	-0.187048	3.075199	0.308644	-0.669701	-0.675455	-0.022671	-0.715103	0.698652	-0.950908	-0.200321	-0.235895
163	279874													9.321288	-0.201816	3.103318	0.308702	-0.669727	-0.675403	-0.022735	-0.715077	0.698676	-0.950887	-0.200327	-0.235972
164	280041													9.322356	-0.201728	3.071674	0.308717	-0.669747	-0.675376	-0.022811	-0.715069	0.698681	-0.950880	-0.200289	-0.236031
165	280207													9.334029	-0.185529	3.098511	0.308703	-0.669747	-0.675383	-0.022905	-0.715092	0.698655	-0.950883	-0.200207	-0.236092
166	280374													9.331150	-0.180461	3.110296	0.308653	-0.669722	-0.675430	-0.022991	-0.715146	0.698597	-0.950897	-0.200095	-0.236130
167	280541													9.325922	-0.181201	3.074608	0.308602	-0.669630	-0.675544	-0.023075	-0.715270	0.698467	-0.950911	-0.199961	-0.236185
168	280708													9.324926	-0.186632	3.085460	0.308565	-0.669671	-0.675521	-0.023117	-0.715245	0.698492	-0.950922	-0.199914	-0.236180
169	280874													9.313077	-0.189925	3.068962	0.308471	-0.669773	-0.675462	-0.023145	-0.715165	0.698572	-0.950952	-0.199856	-0.236109
170	281041													9.306299	-0.190594	3.059382	0.308326	-0.669820	-0.675482	-0.023200	-0.715160	0.698576	-0.950998	-0.199718	-0.236042
171	281208													9.313470	-0.188749	3.058841	0.308232	-0.669902	-0.675444	-0.023241	-0.715104	0.698631	-0.951027	-0.199643	-0.235987
172	281374													9.318466	-0.164173	3.054296	0.308152	-0.669980	-0.675402	-0.023199	-0.715032	0.698707	-0.951054	-0.199640	-0.235881
173	281541													9.328058	-0.184686	3.084253	0.308129	-0.669987	-0.675407	-0.023280	-0.715047	0.698688	-0.951060	-0.199562	-0.235924
174	281708													9.348302	-0.195113	3.074684	0.308073	-0.670042	-0.675377	-0.023383	-0.715024	0.698709	-0.951075	-0.199462	-0.235947
175	281874													9.324864	-0.203983	3.110935	0.307981	-0.670089	-0.675373	-0.023415	-0.715002	0.698730	-0.951104	-0.199382	-0.235897
176	282041													9.330214	-0.186714	3.096313	0.307871	-0.670180	-0.675333	-0.023440	-0.714937	0.698796	-0.951139	-0.199309	-0.235817
177	282208													9.328615	-0.175027	3.087644	0.307771	-0.670296	-0.675263	-0.023430	-0.714836	0.698899	-0.951172	-0.199279	-0.235711
178	283708													9.316778	-0.195011	3.082608	0.307153	-0.670722	-0.675121	-0.023019	-0.714443	0.699315	-0.951382	-0.199257	-0.234882
179	283874													9.343761	-0.180693	3.059210	0.307111	-0.670661	-0.675202	-0.023073	-0.714527	0.699227	-0.951394	-0.199161	-0.234913
180	284041													9.333780	-0.193893	3.060018	0.307085	-0.670624	-0.675250	-0.023137	-0.714584	0.699167	-0.951401	-0.199080	-0.234954
181	284208													9.319639	-0.195253	3.071667	0.307016	-0.670588	-0.675317	-0.023207	-0.714651	0.699096	-0.951421	-0.198961	-0.234972
182	284374													9.327803	-0.209291	3.052590	0.306946	-0.670534	-0.675403	-0.023264	-0.714734	0.699009	-0.951443	-0.198845	-0.234984
183	284541													9.309255	-0.188230	3.062716	0.306919	-0.670466	-0.675482	-0.023335	-0.714825	0.698914	-0.951450	-0.198748	-0.235039
184	284708													9.337455	-0.181790	3.035022	0.306883	-0.670446	-0.675518	-0.023441	-0.714876	0.698858	-0.951459	-0.198633	-0.235099
185	284874													9.351462	-0.178256	3.043897	0.306861	-0.670389	-0.675585	-0.023540	-0.714960	0.698769	-0.951463	-0.198522	-0.235174
186	285041													9.323795	-0.181117	3.079835	0.306860	-0.670370	-0.675604	-0.023619	-0.714996	0.698729	-0.951462	-0.198455	-0.235237
187	285208													9.342529	-0.170883	3.045941	0.306828	-0.670387	-0.675601	-0.023740	-0.715011	0.698711	-0.951469	-0.198345	-0.235300
188	285374													9.332978	-0.187905	3.070991	0.306803	-0.670417	-0.675583	-0.023858	-0.715010	0.698707	-0.951474	-0.198248	-0.235361
189	285541													9.340911	-0.176294	3.076315	0.306775	-0.670380	-0.675633	-0.023963	-0.715076	0.698636	-0.951480	-0.198134	-0.235432
190	285708													9.321830	-0.190982	3.061615	0.306741	-0.670409	-0.675619	-0.024043	-0.715070	0.698640	-0.951489	-0.198057	-0.235460
191	285874													9.320011	-0.182104	3.039919	0.306751	-0.670361	-0.675663	-0.024092	-0.715128	0.698578	-0.951485	-0.198012	-0.235516
192	286041													9.356678	-0.187891	3.033983	0.306790	-0.670321	-0.675684	-0.024054	-0.715152	0.698555	-0.951473	-0.198057	-0.235526
193	286208													9.308490	-0.212516	3.039079	0.306849	-0.670259	-0.675719	-0.024082	-0.715210	0.698495	-0.951454	-0.198059	-0.235603
194	286374													9.291731	-0.190208	3.038017	0.306878	-0.670237	-0.675728	-0.024149	-0.715240	0.698461	-0.951442	-0.198025	-0.235677
195	286541													9.342234	-0.171465	3.048731	0.307002	-0.670236	-0.675673	-0.024151	-0.715215	0.698487	-0.951403	-0.198118	-0.235759
196	286708													9.374152	-0.178764	3.060994	0.307154	-0.670267	-0.675573	-0.024104	-0.715141	0.698565	-0.951355	-0.198283	-0.235814
197	286874													9.365997	-0.191924	3.072102	0.307308	-0.670217	-0.675553	-0.024063	-0.715151	0.698556	-0.951306	-0.198416	-0.235900
198	287041													9.328508	-0.220269	3.078896	0.307461	-0.670151	-0.675548	-0.024095	-0.715192	0.698512	-0.951256	-0.198488	-0.236041
199	287208													9.305385	-0.235729	3.072141	0.307595	-0.670145	-0.675493	-0.024082	-0.715167	0.698538	-0.951212	-0.198600	-0.236120
200	287374													9.312795	-0.198830	3.090959	0.307683	-0.670167	-0.675432	-0.023966	-0.715101	0.698610	-0.951187	-0.198763	-0.236086
201	287541													9.314260	-0.185162	3.077491	0.307757	-0.670152	-0.675412	-0.023846	-0.715075	0.698641	-0.951166	-0.198906	-0.236050
202	287708													9.302971	-0.187039	3.078160	0.307818	-0.670129	-0.675408	-0.023725	-0.715061	0.698659	-0.951149	-0.199036	-0.236007
203	287874													9.313627	-0.187282	3.080287	0.307889	-0.670137	-0.675368	-0.023647	-0.715021	0.698703	-0.951128	-0.199152	-0.235994
204	288041													9.327761	-0.192597	3.074076	0.307941	-0.670128	-0.675353	-0.023543	-0.714997	0.698731	-0.951114	-0.199268	-0.235954
205	288208													9.330622	-0.186821	3.064545	0.307995	-0.670193	-0.675263	-0.023451	-0.714898	0.698835	-0.951099	-0.199402	-0.235902
206	288374													9.334173	-0.176776	3.080445	0.308008	-0.670297	-0.675154	-0.023359	-0.714769	0.698970	-0.951097	-0.199518	-0.235812
207	288541													9.343603	-0.205968	3.076404	0.307990	-0.670364	-0.675096	-0.023280	-0.714687	0.699057	-0.951105	-0.199586	-0.235723
208	288708													9.342347	-0.193323	3.046664	0.307981	-0.670442	-0.675022	-0.023190	-0.714589	0.699160	-0.951110	-0.199674	-0.235627
209	288874													9.337960	-0.179908	3.088105	0.307981	-0.670478	-0.674987	-0.023104	-0.714534	0.699219	-0.951112	-0.199751	-0.235553
210	289041													9.326841	-0.189643	3.106294	0.307985	-0.670496	-0.674967	-0.023003	-0.714493	0.699264	-0.951113	-0.199837	-0.235477
211	289208													9.306475	-0.188380	3.071240	0.307903	-0.670501	-0.674999	-0.022897	-0.714483	0.699278	-0.951142	-0.199855	-0.235344
212	289374													9.303063	-0.198486	3.076580	0.307871	-0.670558	-0.674958	-0.022824	-0.714417	0.699348	-0.951154	-0.199903	-0.235253
213	289541													9.329044	-0.179458	3.065053	0.307800	-0.670634	-0.674914	-0.022638	-0.714314	0.699459	-0.951182	-0.200015	-0.235048
214	289708													9.318462	-0.172523	3.067116	0.307758	-0.670639	-0.674928	-0.022467	-0.714281	0.699498	-0.951199	-0.200112	-0.234893
215	289874													9.359468	-0.177555	3.045151	0.307725	-0.670655	-0.674927	-0.022399	-0.714258	0.699524	-0.951212	-0.200143	-0.234817
216	290041													9.344154	-0.173750	3.074369	0.307696	-0.670690	-0.674906	-0.022281	-0.714203	0.699584	-0.951224	-0.200222	-0.234700
217	290208													9.331966	-0.175427	3.069201	0.307644	-0.670782	-0.674838	-0.022206	-0.714103	0.699688	-0.951242	-0.200270	-0.234585
218	290374													9.325451	-0.171712	3.062704	0.307614	-0.670967	-0.674668	-0.022107	-0.713897	0.699901	-0.951254	-0.200385	-0.234437
219	290541													9.315509	-0.164320	3.060608	0.307613	-0.671104	-0.674532	-0.021985	-0.713729	0.700076	-0.951258	-0.200522	-0.234307
220	290708													9.333465	-0.165099	3.082605	0.307612	-0.671149	-0.674487	-0.021825	-0.713649	0.700164	-0.951261	-0.200658	-0.234175
221	290874													9.325190	-0.176804	3.071476	0.307559	-0.671156	-0.674505	-0.021644	-0.713616	0.700203	-0.951283	-0.200755	-0.234005
222	291041													9.318201	-0.166401	3.044994	0.307487	-0.671186	-0.674508	-0.021496	-0.713568	0.700256	-0.951309	-0.200821	-0.233841
223	291208													9.332808	-0.147515	3.064301	0.307412	-0.671253	-0.674476	-0.021322	-0.713479	0.700352	-0.951338	-0.200915	-0.233644
224	291374													9.364673	-0.156227	3.033224	0.307333	-0.671317	-0.674448	-0.021195	-0.713403	0.700433	-0.951366	-0.200971	-0.233481
225	291541													9.356273	-0.170453	3.057786	0.307266	-0.671449	-0.674347	-0.021118	-0.713265	0.700576	-0.951389	-0.201022	-0.233342
226	291708													9.334090	-0.188573	3.055608	0.307205	-0.671597	-0.674227	-0.021085	-0.713117	0.700728	-0.951410	-0.201051	-0.233233
227	291874													9.329005	-0.178435	3.037738	0.307129	-0.671695	-0.674164	-0.021089	-0.713032	0.700814	-0.951434	-0.201023	-0.233158
228	292041													9.328206	-0.190094	3.062399	0.307048	-0.671784	-0.674113	-0.021085	-0.712958	0.700890	-0.951461	-0.200993	-0.233077
229	292208													9.335208	-0.187373	3.051220	0.306939	-0.671800	-0.674146	-0.021080	-0.712963	0.700884	-0.951496	-0.200918	-0.232998
230	292374													9.335573	-0.173628	3.040345	0.306836	-0.671768	-0.674224	-0.021067	-0.713016	0.700831	-0.951529	-0.200837	-0.232931
231	292541													9.335687	-0.152080	3.053340	0.306747	-0.671765	-0.674269	-0.021057	-0.713038	0.700810	-0.951558	-0.200773	-0.232868
232	292708													9.327313	-0.174263	3.062980	0.306638	-0.671811	-0.674272	-0.021038	-0.713009	0.700839	-0.951594	-0.200719	-0.232769
233	292874													9.337940	-0.159211	3.041999	0.306529	-0.671769	-0.674364	-0.021024	-0.713074	0.700773	-0.951629	-0.200630	-0.232701
234	293041													9.341404	-0.164263	3.043442	0.306433	-0.671787	-0.674389	-0.021020	-0.713075	0.700773	-0.951660	-0.200565	-0.232631
235	293208													9.332599	-0.153869	3.018632	0.306319	-0.671793	-0.674435	-0.021030	-0.713096	0.700751	-0.951696	-0.200470	-0.232563
236	293374													9.343483	-0.154355	3.038536	0.306230	-0.671806	-0.674462	-0.021050	-0.713106	0.700740	-0.951725	-0.200390	-0.232516
237	293541													9.336790	-0.150512	3.047355	0.306158	-0.671806	-0.674496	-0.021108	-0.713135	0.700709	-0.951747	-0.200290	-0.232512
238	293708													9.338244	-0.155629	3.058981	0.306085	-0.671826	-0.674508	-0.021161	-0.713140	0.700702	-0.951769	-0.200202	-0.232498
239	293874													9.330146	-0.159034	3.039891	0.306048	-0.671861	-0.674490	-0.021186	-0.713117	0.700725	-0.951780	-0.200166	-0.232482
240	294041													9.344738	-0.165539	3.041964	0.306014	-0.671922	-0.674445	-0.021232	-0.713072	0.700770	-0.951790	-0.200126	-0.232476
241	294208													9.324971	-0.185577	3.034119	0.305934	-0.671932	-0.674472	-0.021267	-0.713086	0.700754	-0.951815	-0.200041	-0.232447
242	294374													9.354150	-0.180255	3.008456	0.305902	-0.671953	-0.674465	-0.021255	-0.713068	0.700772	-0.951826	-0.200032	-0.232411
243	294541													9.367818	-0.189149	3.004940	0.305917	-0.671885	-0.674526	-0.021223	-0.713129	0.700711	-0.951822	-0.200044	-0.232418
244	294708													9.346507	-0.202231	3.007841	0.305894	-0.671839	-0.674583	-0.021227	-0.713183	0.700656	-0.951829	-0.200007	-0.232419
245	294874													9.315763	-0.175289	3.008023	0.305942	-0.671751	-0.674648	-0.021281	-0.713275	0.700561	-0.951812	-0.199973	-0.232516
246	295041													9.353799	-0.164416	3.037573	0.306044	-0.671755	-0.674598	-0.021277	-0.713248	0.700589	-0.951780	-0.200058	-0.232578
247	295208													9.398041	-0.156120	3.044150	0.306183	-0.671730	-0.674559	-0.021210	-0.713229	0.700611	-0.951736	-0.200208	-0.232626
248	295374													9.378972	-0.161019	3.041242	0.306351	-0.671745	-0.674468	-0.021243	-0.713183	0.700656	-0.951681	-0.200319	-0.232754
249	295541													9.341773	-0.189306	3.043388	0.306485	-0.671681	-0.674471	-0.021322	-0.713237	0.700598	-0.951637	-0.200341	-0.232918
250	295708													9.312219	-0.180398	3.052726	0.306596	-0.671563	-0.674538	-0.021312	-0.713333	0.700501	-0.951601	-0.200395	-0.233018
251	295874													9.322590	-0.180202	3.043356	0.306698	-0.671597	-0.674458	-0.021303	-0.713274	0.700562	-0.951568	-0.200493	-0.233067
252	296041													9.317132	-0.159163	3.052747	0.306801	-0.671601	-0.674407	-0.021269	-0.713241	0.700597	-0.951536	-0.200600	-0.233107
253	296208													9.333550	-0.173807	3.038171	0.306896	-0.671547	-0.674418	-0.021271	-0.713276	0.700561	-0.951505	-0.200653	-0.233186
254	296374													9.348111	-0.177230	3.047614	0.307043	-0.671450	-0.674448	-0.021308	-0.713353	0.700481	-0.951457	-0.200707	-0.233337
255	296541													9.353094	-0.182934	3.024613	0.307183	-0.671409	-0.674424	-0.021307	-0.713364	0.700470	-0.951412	-0.200803	-0.233439
256	296708													9.349572	-0.184279	3.051470	0.307308	-0.671332	-0.674445	-0.021319	-0.713420	0.700413	-0.951371	-0.200864	-0.233552
257	296874													9.346060	-0.178489	3.067366	0.307414	-0.671299	-0.674429	-0.021343	-0.713435	0.700396	-0.951337	-0.200917	-0.233647
258	297041													9.345814	-0.187912	3.042572	0.307490	-0.671334	-0.674359	-0.021375	-0.713389	0.700442	-0.951311	-0.200965	-0.233709
259	297208													9.338261	-0.186657	3.051338	0.307578	-0.671319	-0.674334	-0.021408	-0.713392	0.700438	-0.951282	-0.201003	-0.233795
260	297375													9.338311	-0.173968	3.065393	0.307670	-0.671281	-0.674330	-0.021445	-0.713419	0.700409	-0.951251	-0.201034	-0.233893
261	297541													9.326287	-0.169394	3.070417	0.307740	-0.671235	-0.674344	-0.021456	-0.713454	0.700373	-0.951228	-0.201064	-0.233961
262	297708													9.324678	-0.170767	3.049457	0.307777	-0.671217	-0.674345	-0.021441	-0.713462	0.700366	-0.951217	-0.201098	-0.233979
263	297875													9.318172	-0.184511	3.040116	0.307838	-0.671190	-0.674344	-0.021469	-0.713482	0.700344	-0.951196	-0.201115	-0.234047
264	298041													9.336677	-0.177591	3.026108	0.307902	-0.671197	-0.674308	-0.021378	-0.713441	0.700389	-0.951178	-0.201235	-0.234019
265	298208													9.351567	-0.148970	3.036568	0.308036	-0.671184	-0.674259	-0.021324	-0.713414	0.700419	-0.951136	-0.201376	-0.234070
266	298375													9.358119	-0.184454	3.050973	0.308135	-0.671162	-0.674236	-0.021304	-0.713411	0.700422	-0.951104	-0.201461	-0.234125
267	298541													9.341122	-0.189192	3.059102	0.308199	-0.671197	-0.674172	-0.021256	-0.713351	0.700485	-0.951084	-0.201559	-0.234121
268	298708													9.335535	-0.180151	3.062296	0.308280	-0.671236	-0.674096	-0.021226	-0.713285	0.700552	-0.951059	-0.201658	-0.234139
269	298875													9.321863	-0.177029	3.051814	0.308374	-0.671293	-0.673997	-0.021189	-0.713198	0.700642	-0.951029	-0.201779	-0.234156
270	299041													9.320790	-0.199467	3.067946	0.308444	-0.671308	-0.673949	-0.021107	-0.713149	0.700694	-0.951008	-0.201899	-0.234136
271	299208													9.326448	-0.190372	3.050387	0.308506	-0.671307	-0.673922	-0.021018	-0.713118	0.700729	-0.950990	-0.202015	-0.234111
272	299375													9.332292	-0.168668	3.061917	0.308529	-0.671314	-0.673905	-0.020902	-0.713081	0.700770	-0.950985	-0.202121	-0.234038
273	299541													9.328583	-0.162589	3.042183	0.308548	-0.671253	-0.673957	-0.020791	-0.713116	0.700737	-0.950982	-0.202199	-0.233986
274	299708													9.339742	-0.154650	3.054807	0.308532	-0.671241	-0.673976	-0.020668	-0.713106	0.700752	-0.950989	-0.202275	-0.233889
275	299875													9.330689	-0.154911	3.073897	0.308511	-0.671304	-0.673922	-0.020540	-0.713018	0.700845	-0.950999	-0.202376	-0.233762
276	300041													9.340836	-0.165149	3.062185	0.308488	-0.671375	-0.673862	-0.020458	-0.712932	0.700935	-0.951008	-0.202445	-0.233666
277	300208													9.333096	-0.182566	3.063515	0.308466	-0.671441	-0.673807	-0.020426	-0.712862	0.701007	-0.951016	-0.202473	-0.233608
278	300375													9.328770	-0.196226	3.063766	0.308407	-0.671487	-0.673788	-0.020398	-0.712821	0.701050	-0.951036	-0.202464	-0.233536
279	300541													9.320272	-0.182801	3.077201	0.308362	-0.671503	-0.673792	-0.020390	-0.712812	0.701059	-0.951050	-0.202441	-0.233497
280	300708													9.324550	-0.191281	3.056456	0.308292	-0.671528	-0.673800	-0.020381	-0.712800	0.701071	-0.951073	-0.202402	-0.233436
281	300875													9.327653	-0.183163	3.050984	0.308232	-0.671518	-0.673837	-0.020368	-0.712821	0.701051	-0.951093	-0.202362	-0.233392
282	301041													9.332933	-0.171215	3.051786	0.308142	-0.671478	-0.673918	-0.020311	-0.712870	0.701002	-0.951124	-0.202320	-0.233303
283	301208													9.327394	-0.170120	3.039915	0.308047	-0.671450	-0.673990	-0.020265	-0.712911	0.700962	-0.951155	-0.202270	-0.233217
284	301375													9.338146	-0.168321	3.066186	0.307938	-0.671498	-0.673992	-0.020225	-0.712876	0.700998	-0.951191	-0.202232	-0.233103
285	301541													9.346850	-0.163665	3.038056	0.307834	-0.671506	-0.674031	-0.020162	-0.712877	0.700999	-0.951226	-0.202202	-0.232987
286	301708													9.360412	-0.150909	3.027596	0.307726	-0.671569	-0.674017	-0.020123	-0.712827	0.701051	-0.951262	-0.202169	-0.232869
287	301875													9.353194	-0.152507	3.017722	0.307618	-0.671639	-0.673998	-0.020102	-0.712775	0.701105	-0.951298	-0.202124	-0.232764
288	302041													9.347030	-0.158794	3.028883	0.307532	-0.671658	-0.674018	-0.020078	-0.712769	0.701112	-0.951326	-0.202082	-0.232685
289	302208													9.342062	-0.163300	3.037738	0.307480	-0.671687	-0.674012	-0.020076	-0.712749	0.701132	-0.951343	-0.202052	-0.232641
290	302375													9.350613	-0.180706	3.021062	0.307432	-0.671708	-0.674013	-0.020078	-0.712738	0.701143	-0.951358	-0.202021	-0.232605
291	302541													9.335428	-0.171940	3.039319	0.307373	-0.671760	-0.673988	-0.020068	-0.712695	0.701187	-0.951377	-0.202001	-0.232544
292	302708													9.343396	-0.170489	3.017493	0.307338	-0.671778	-0.673986	-0.020017	-0.712673	0.701211	-0.951390	-0.202017	-0.232479
293	302875													9.336665	-0.179840	3.029588	0.307312	-0.671784	-0.673992	-0.019983	-0.712665	0.701219	-0.951399	-0.202025	-0.232435
294	303041													9.335607	-0.180151	3.044128	0.307305	-0.671785	-0.673994	-0.019958	-0.712661	0.701225	-0.951402	-0.202038	-0.232411
295	303208													9.319821	-0.166927	3.042676	0.307298	-0.671775	-0.674008	-0.019921	-0.712665	0.701221	-0.951405	-0.202058	-0.232383
296	303375													9.334491	-0.178757	3.027066	0.307289	-0.671754	-0.674033	-0.019901	-0.712684	0.701202	-0.951408	-0.202058	-0.232368
297	303541													9.327381	-0.170024	3.028604	0.307275	-0.671727	-0.674066	-0.019923	-0.712721	0.701165	-0.951412	-0.202021	-0.232384
298	303708													9.323276	-0.155402	3.028901	0.307255	-0.671664	-0.674138	-0.019937	-0.712793	0.701091	-0.951418	-0.201974	-0.232400
299	303875													9.360600	-0.165831	3.043429	0.307279	-0.671580	-0.674210	-0.019936	-0.712875	0.701008	-0.951410	-0.201964	-0.232441
300	304041													9.349103	-0.186342	3.015511	0.307268	-0.671518	-0.674277	-0.019967	-0.712949	0.700932	-0.951414	-0.201910	-0.232474
301	304208													9.331461	-0.170857	3.052929	0.307304	-0.671482	-0.674297	-0.020069	-0.713000	0.700877	-0.951400	-0.201850	-0.232584
302	304375													9.336573	-0.147837	3.043223	0.307351	-0.671489	-0.674269	-0.020106	-0.712990	0.700886	-0.951384	-0.201861	-0.232639
303	304541													9.379909	-0.142780	3.029040	0.307464	-0.671430	-0.674276	-0.020079	-0.713021	0.700855	-0.951348	-0.201949	-0.232709
304	304708													9.377644	-0.146169	3.031790	0.307569	-0.671348	-0.674309	-0.020139	-0.713095	0.700778	-0.951313	-0.201958	-0.232846
305	304875													9.336084	-0.179329	3.043822	0.307630	-0.671327	-0.674303	-0.020227	-0.713123	0.700747	-0.951291	-0.201932	-0.232957
306	305041													9.298851	-0.182161	3.073968	0.307615	-0.671300	-0.674337	-0.020245	-0.713158	0.700711	-0.951296	-0.201897	-0.232968
307	305208													9.330068	-0.158601	3.059596	0.307567	-0.671366	-0.674292	-0.020250	-0.713101	0.700769	-0.951311	-0.201879	-0.232921
308	305375													9.312280	-0.164734	3.045491	0.307523	-0.671409	-0.674270	-0.020251	-0.713066	0.700804	-0.951325	-0.201859	-0.232881
309	305541													9.324346	-0.179293	3.050680	0.307469	-0.671424	-0.674279	-0.020274	-0.713067	0.700803	-0.951342	-0.201805	-0.232858
310	305708													9.340023	-0.174462	3.047215	0.307428	-0.671462	-0.674260	-0.020301	-0.713042	0.700827	-0.951355	-0.201765	-0.232841
311	305875													9.337208	-0.194650	3.028722	0.307395	-0.671492	-0.674245	-0.020266	-0.713010	0.700861	-0.951366	-0.201777	-0.232784
312	306041													9.344169	-0.187200	3.035925	0.307391	-0.671548	-0.674191	-0.020264	-0.712953	0.700919	-0.951368	-0.201794	-0.232763
313	306208													9.352301	-0.185001	3.020018	0.307380	-0.671567	-0.674178	-0.020273	-0.712938	0.700934	-0.951371	-0.201785	-0.232757
314	306375													9.349135	-0.200840	3.025829	0.307355	-0.671527	-0.674229	-0.020265	-0.712983	0.700888	-0.951379	-0.201758	-0.232747
315	306541													9.353334	-0.202055	3.007211	0.307319	-0.671483	-0.674289	-0.020250	-0.713033	0.700838	-0.951391	-0.201726	-0.232726
316	306708													9.348996	-0.169220	3.026618	0.307262	-0.671446	-0.674352	-0.020213	-0.713077	0.700794	-0.951410	-0.201697	-0.232674
317	306875													9.343628	-0.177611	3.063990	0.307176	-0.671449	-0.674388	-0.020186	-0.713087	0.700785	-0.951439	-0.201651	-0.232597
318	307041													9.329509	-0.180338	3.029205	0.307044	-0.671423	-0.674474	-0.020104	-0.713126	0.700748	-0.951483	-0.201601	-0.232460
319	307208													9.327611	-0.175287	3.017323	0.306972	-0.671397	-0.674533	-0.020071	-0.713162	0.700712	-0.951507	-0.201561	-0.232397
320	307375													9.359989	-0.176700	3.007358	0.306947	-0.671351	-0.674589	-0.020024	-0.713205	0.700670	-0.951516	-0.201560	-0.232359
321	307541													9.347530	-0.132667	3.018945	0.306992	-0.671288	-0.674632	-0.019939	-0.713242	0.700634	-0.951503	-0.201638	-0.232345
322	307708													9.360295	-0.170737	3.031122	0.307043	-0.671226	-0.674670	-0.019936	-0.713294	0.700581	-0.951487	-0.201658	-0.232394
323	307875													9.360950	-0.175798	3.046967	0.307086	-0.671166	-0.674711	-0.019902	-0.713341	0.700535	-0.951474	-0.201696	-0.232414
324	308041													9.369295	-0.187154	3.022971	0.307131	-0.671134	-0.674722	-0.019880	-0.713359	0.700517	-0.951459	-0.201737	-0.232437
325	308208													9.350674	-0.159974	3.022210	0.307191	-0.671109	-0.674719	-0.019878	-0.713371	0.700504	-0.951440	-0.201777	-0.232482
326	308375													9.350813	-0.178821	3.027703	0.307310	-0.671088	-0.674687	-0.019837	-0.713359	0.700518	-0.951403	-0.201892	-0.232535
327	308541													9.338482	-0.166487	3.032881	0.307431	-0.670984	-0.674735	-0.019816	-0.713436	0.700440	-0.951364	-0.201966	-0.232629
328	308708													9.339330	-0.145852	3.014664	0.307570	-0.670902	-0.674753	-0.019758	-0.713478	0.700399	-0.951320	-0.202090	-0.232700
329	308875													9.337094	-0.141643	3.037713	0.307709	-0.670817	-0.674774	-0.019686	-0.713520	0.700358	-0.951277	-0.202223	-0.232762
330	309041													9.328368	-0.136765	3.036672	0.307847	-0.670741	-0.674786	-0.019651	-0.713561	0.700318	-0.951233	-0.202331	-0.232849
331	309208													9.325819	-0.123626	3.011224	0.307933	-0.670730	-0.674758	-0.019595	-0.713542	0.700339	-0.951206	-0.202436	-0.232866
332	309375													9.367350	-0.145609	3.005248	0.308051	-0.670705	-0.674729	-0.019576	-0.713537	0.700344	-0.951168	-0.202533	-0.232936
333	309541													9.352457	-0.164605	3.042030	0.308159	-0.670681	-0.674704	-0.019621	-0.713547	0.700332	-0.951133	-0.202575	-0.233045
334	309708													9.346117	-0.163422	3.013108	0.308298	-0.670650	-0.674671	-0.019696	-0.713565	0.700312	-0.951086	-0.202617	-0.233200
335	309875													9.332610	-0.187361	3.050895	0.308486	-0.670548	-0.674687	-0.019780	-0.713648	0.700226	-0.951023	-0.202664	-0.233414
336	310041													9.341224	-0.178275	3.037770	0.308695	-0.670437	-0.674701	-0.019907	-0.713743	0.700125	-0.950953	-0.202694	-0.233675
337	310208													9.338199	-0.187430	3.058790	0.308894	-0.670311	-0.674736	-0.020031	-0.713857	0.700005	-0.950886	-0.202712	-0.233933
338	310375													9.332235	-0.204482	3.059011	0.309029	-0.670264	-0.674720	-0.020146	-0.713900	0.699958	-0.950839	-0.202714	-0.234119
339	310541													9.343722	-0.190366	3.054422	0.309152	-0.670204	-0.674723	-0.020267	-0.713961	0.699892	-0.950797	-0.202698	-0.234305
340	310708													9.329341	-0.188270	3.027822	0.309303	-0.670121	-0.674736	-0.020392	-0.714040	0.699808	-0.950745	-0.202694	-0.234520
341	310875													9.345654	-0.175822	3.014130	0.309504	-0.670047	-0.674718	-0.020530	-0.714102	0.699740	-0.950676	-0.202720	-0.234774
342	311041													9.333765	-0.174605	3.051484	0.309719	-0.669938	-0.674728	-0.020688	-0.714201	0.699635	-0.950603	-0.202731	-0.235061
343	311208													9.334140	-0.182047	3.042564	0.309913	-0.669841	-0.674735	-0.020835	-0.714290	0.699539	-0.950536	-0.202739	-0.235324
344	311375													9.335840	-0.180658	3.047208	0.310104	-0.669779	-0.674708	-0.020959	-0.714338	0.699487	-0.950471	-0.202773	-0.235557
345	311541													9.346477	-0.173066	3.042090	0.310302	-0.669645	-0.674750	-0.021091	-0.714462	0.699357	-0.950404	-0.202781	-0.235822
346	311708													9.332814	-0.185444	3.035844	0.310484	-0.669530	-0.674781	-0.021227	-0.714570	0.699242	-0.950342	-0.202780	-0.236075
347	311875													9.317620	-0.191246	3.054564	0.310611	-0.669498	-0.674754	-0.021353	-0.714601	0.699206	-0.950297	-0.202773	-0.236259
348	312041													9.342636	-0.211244	3.072525	0.310741	-0.669434	-0.674758	-0.021432	-0.714656	0.699147	-0.950253	-0.202792	-0.236421
349	312208													9.333652	-0.211915	3.069731	0.310849	-0.669380	-0.674762	-0.021496	-0.714702	0.699098	-0.950216	-0.202810	-0.236553
350	312375													9.308931	-0.209185	3.068714	0.310965	-0.669273	-0.674814	-0.021525	-0.714793	0.699005	-0.950178	-0.202840	-0.236682
351	312541													9.325774	-0.198394	3.062153	0.311118	-0.669153	-0.674863	-0.021508	-0.714880	0.698916	-0.950128	-0.202930	-0.236804
352	312708													9.325075	-0.196572	3.075395	0.311269	-0.668991	-0.674954	-0.021454	-0.715003	0.698792	-0.950079	-0.203032	-0.236911
353	312875													9.293187	-0.225569	3.066142	0.311406	-0.668860	-0.675021	-0.021428	-0.715103	0.698691	-0.950035	-0.203112	-0.237020
354	313041													9.280741	-0.185169	3.049079	0.311571	-0.668703	-0.675100	-0.021451	-0.715233	0.698556	-0.949981	-0.203168	-0.237190
355	313208													9.334242	-0.173931	3.073324	0.311803	-0.668618	-0.675076	-0.021483	-0.715276	0.698511	-0.949904	-0.203295	-0.237389
356	313375													9.374788	-0.171150	3.081013	0.312039	-0.668627	-0.674959	-0.021458	-0.715210	0.698580	-0.949827	-0.203501	-0.237521
357	313541													9.357346	-0.201126	3.114484	0.312247	-0.668595	-0.674894	-0.021486	-0.715203	0.698587	-0.949758	-0.203630	-0.237685
358	313708													9.311130	-0.231707	3.077802	0.312432	-0.668581	-0.674823	-0.021585	-0.715198	0.698589	-0.949695	-0.203696	-0.237882
359	313875													9.305391	-0.245739	3.087172	0.312550	-0.668544	-0.674804	-0.021601	-0.715213	0.698573	-0.949656	-0.203763	-0.237981
360	314042													9.307269	-0.187547	3.081736	0.312679	-0.668467	-0.674821	-0.021540	-0.715251	0.698536	-0.949614	-0.203882	-0.238043
361	314208													9.314342	-0.180405	3.059467	0.312801	-0.668415	-0.674816	-0.021492	-0.715267	0.698521	-0.949575	-0.203995	-0.238102
362	314375													9.303425	-0.203111	3.070907	0.312928	-0.668340	-0.674832	-0.021452	-0.715308	0.698480	-0.949535	-0.204097	-0.238177
363	314542													9.325275	-0.204327	3.090394	0.312990	-0.668272	-0.674871	-0.021418	-0.715358	0.698430	-0.949515	-0.204147	-0.238212
364	314708													9.316721	-0.197013	3.095039	0.313017	-0.668237	-0.674892	-0.021386	-0.715381	0.698407	-0.949507	-0.204180	-0.238217
365	314875													9.320580	-0.178106	3.069584	0.313038	-0.668199	-0.674920	-0.021343	-0.715407	0.698382	-0.949501	-0.204215	-0.238211
366	315042													9.350248	-0.172913	3.079865	0.313044	-0.668224	-0.674893	-0.021309	-0.715372	0.698419	-0.949500	-0.204254	-0.238182
367	315208													9.335878	-0.188731	3.088420	0.313029	-0.668217	-0.674907	-0.021279	-0.715376	0.698415	-0.949505	-0.204263	-0.238153
368	315375													9.331820	-0.189953	3.082093	0.312975	-0.668216	-0.674933	-0.021261	-0.715385	0.698407	-0.949523	-0.204234	-0.238105
369	315542													9.322661	-0.199728	3.094789	0.312966	-0.668263	-0.674890	-0.021260	-0.715338	0.698455	-0.949526	-0.204244	-0.238084
370	315708													9.306171	-0.198937	3.117970	0.312903	-0.668307	-0.674876	-0.021218	-0.715298	0.698497	-0.949548	-0.204242	-0.237998
371	315875													9.284137	-0.188935	3.079464	0.312795	-0.668386	-0.674848	-0.021212	-0.715239	0.698558	-0.949584	-0.204191	-0.237901
372	316042													9.296677	-0.185008	3.103886	0.312708	-0.668466	-0.674809	-0.021230	-0.715179	0.698619	-0.949612	-0.204137	-0.237834
373	316208													9.341063	-0.185523	3.073782	0.312584	-0.668531	-0.674802	-0.021098	-0.715111	0.698692	-0.949656	-0.204163	-0.237637
374	316375													9.336497	-0.186789	3.089907	0.312496	-0.668544	-0.674830	-0.021057	-0.715109	0.698696	-0.949686	-0.204129	-0.237546
375	316542													9.336820	-0.195064	3.069351	0.312439	-0.668555	-0.674845	-0.021092	-0.715117	0.698686	-0.949704	-0.204063	-0.237531
376	316708													9.327603	-0.207674	3.078921	0.312371	-0.668654	-0.674779	-0.021107	-0.715033	0.698772	-0.949726	-0.204034	-0.237468
377	316875													9.316356	-0.181289	3.076357	0.312286	-0.668814	-0.674659	-0.021116	-0.714888	0.698920	-0.949753	-0.204017	-0.237372
378	317042													9.314665	-0.189886	3.077559	0.312207	-0.668912	-0.674599	-0.021071	-0.714794	0.699017	-0.949780	-0.204024	-0.237259
379	317208													9.319253	-0.187358	3.060443	0.312161	-0.668983	-0.674550	-0.020986	-0.714713	0.699103	-0.949797	-0.204076	-0.237145
380	317375													9.321906	-0.185687	3.067131	0.312112	-0.668966	-0.674589	-0.020880	-0.714719	0.699100	-0.949816	-0.204112	-0.237040
381	317542													9.324850	-0.179737	3.075606	0.312059	-0.668963	-0.674616	-0.020748	-0.714705	0.699118	-0.949836	-0.204169	-0.236910
382	317708													9.329470	-0.173257	3.066233	0.311919	-0.669005	-0.674640	-0.020635	-0.714669	0.699158	-0.949885	-0.204160	-0.236723
383	317875													9.330346	-0.167352	3.071837	0.311785	-0.669076	-0.674632	-0.020472	-0.714590	0.699244	-0.949932	-0.204203	-0.236496
384	318042													9.335370	-0.155929	3.041873	0.311632	-0.669214	-0.674565	-0.020318	-0.714447	0.699394	-0.949985	-0.204248	-0.236242
385	318208													9.334233	-0.163780	3.043996	0.311513	-0.669319	-0.674516	-0.020204	-0.714341	0.699506	-0.950027	-0.204278	-0.236049
386	318375													9.342011	-0.184175	3.026534	0.311463	-0.669391	-0.674467	-0.020125	-0.714260	0.699591	-0.950045	-0.204323	-0.235936
387	318542													9.318452	-0.196727	3.057693	0.311429	-0.669444	-0.674431	-0.020073	-0.714202	0.699652	-0.950057	-0.204354	-0.235861
388	318708													9.332974	-0.212273	3.058934	0.311398	-0.669428	-0.674461	-0.020036	-0.714218	0.699637	-0.950068	-0.204352	-0.235819
389	318875													9.335883	-0.213721	3.082955	0.311354	-0.669435	-0.674474	-0.020023	-0.714217	0.699638	-0.950083	-0.204330	-0.235778
390	319042													9.329367	-0.196226	3.071100	0.311246	-0.669463	-0.674496	-0.020012	-0.714209	0.699646	-0.950119	-0.204264	-0.235692
391	319208													9.309125	-0.188184	3.068844	0.311164	-0.669472	-0.674525	-0.019931	-0.714201	0.699656	-0.950147	-0.204263	-0.235577
392	319375													9.325161	-0.190895	3.066365	0.311095	-0.669459	-0.674570	-0.019913	-0.714226	0.699632	-0.950170	-0.204219	-0.235523
393	319542													9.327950	-0.182612	3.086700	0.311040	-0.669453	-0.674601	-0.019869	-0.714236	0.699623	-0.950189	-0.204207	-0.235458
394	319708													9.343589	-0.172531	3.079951	0.310951	-0.669525	-0.674570	-0.019848	-0.714176	0.699685	-0.950219	-0.204179	-0.235363
395	319875													9.335235	-0.150472	3.046099	0.310823	-0.669606	-0.674549	-0.019802	-0.714111	0.699752	-0.950261	-0.204142	-0.235222
396	320042													9.344052	-0.158626	3.056713	0.310707	-0.669734	-0.674476	-0.019765	-0.713996	0.699871	-0.950300	-0.204124	-0.235081
397	320208													9.333410	-0.141146	3.032280	0.310613	-0.669860	-0.674394	-0.019737	-0.713880	0.699990	-0.950331	-0.204115	-0.234962
398	320375													9.333652	-0.151560	3.031944	0.310565	-0.669932	-0.674344	-0.019716	-0.713811	0.700061	-0.950348	-0.204119	-0.234893
399	320542													9.341786	-0.158537	3.035428	0.310555	-0.669952	-0.674330	-0.019687	-0.713787	0.700086	-0.950351	-0.204140	-0.234859
400	320708													9.312026	-0.191817	3.052114	0.310468	-0.669989	-0.674333	-0.019671	-0.713764	0.700110	-0.950380	-0.204097	-0.234780
401	320875													9.297642	-0.164745	3.043828	0.310384	-0.670054	-0.674306	-0.019637	-0.713707	0.700169	-0.950408	-0.204080	-0.234681
402	321042													9.360065	-0.147222	3.064702	0.310387	-0.670128	-0.674232	-0.019605	-0.713624	0.700255	-0.950408	-0.204132	-0.234637
403	321208													9.394553	-0.177083	3.044186	0.310482	-0.670266	-0.674051	-0.019532	-0.713443	0.700441	-0.950379	-0.204309	-0.234603
404	321375													9.349065	-0.169222	3.072552	0.310578	-0.670315	-0.673958	-0.019452	-0.713354	0.700534	-0.950349	-0.204460	-0.234591
405	321542													9.317826	-0.198508	3.060722	0.310661	-0.670356	-0.673879	-0.019447	-0.713292	0.700597	-0.950322	-0.204543	-0.234628
406	321708													9.310817	-0.208261	3.052851	0.310649	-0.670392	-0.673849	-0.019386	-0.713244	0.700648	-0.950327	-0.204593	-0.234564
407	321875													9.312094	-0.181382	3.019492	0.310634	-0.670405	-0.673842	-0.019266	-0.713207	0.700688	-0.950334	-0.204675	-0.234462
408	322042													9.319810	-0.162074	3.069401	0.310638	-0.670451	-0.673795	-0.019167	-0.713138	0.700762	-0.950335	-0.204769	-0.234378
409	322208													9.323377	-0.169012	3.064895	0.310607	-0.670474	-0.673786	-0.019074	-0.713100	0.700803	-0.950347	-0.204823	-0.234282
410	322375													9.327965	-0.170528	3.081482	0.310609	-0.670518	-0.673741	-0.019035	-0.713045	0.700859	-0.950347	-0.204869	-0.234241
411	322542													9.335749	-0.170056	3.057861	0.310583	-0.670621	-0.673651	-0.019002	-0.712937	0.700970	-0.950356	-0.204909	-0.234169
412	322708													9.338109	-0.174111	3.053258	0.310557	-0.670696	-0.673589	-0.018943	-0.712853	0.701058	-0.950366	-0.204958	-0.234086
413	322875													9.341465	-0.179032	3.071340	0.310541	-0.670725	-0.673567	-0.018911	-0.712819	0.701093	-0.950372	-0.204980	-0.234044
414	323042													9.325010	-0.183935	3.080777	0.310518	-0.670768	-0.673535	-0.018933	-0.712785	0.701127	-0.950379	-0.204961	-0.234032
415	323208													9.324707	-0.195175	3.053083	0.310453	-0.670746	-0.673587	-0.018931	-0.712821	0.701090	-0.950400	-0.204904	-0.233995
416	323375													9.335625	-0.183034	3.066187	0.310384	-0.670748	-0.673616	-0.018936	-0.712836	0.701075	-0.950423	-0.204847	-0.233954
417	323542													9.329928	-0.177433	3.055022	0.310289	-0.670794	-0.673614	-0.018893	-0.712800	0.701113	-0.950454	-0.204821	-0.233848
418	323708													9.323004	-0.165048	3.024931	0.310143	-0.670818	-0.673657	-0.018876	-0.712804	0.701109	-0.950502	-0.204728	-0.233734
419	323875													9.314640	-0.177841	3.056999	0.310076	-0.670848	-0.673659	-0.018861	-0.712785	0.701129	-0.950525	-0.204697	-0.233670
420	324042													9.337899	-0.143324	3.046618	0.310015	-0.670887	-0.673647	-0.018728	-0.712729	0.701190	-0.950547	-0.204764	-0.233521
421	324208													9.326595	-0.136990	3.049514	0.309988	-0.670859	-0.673688	-0.018673	-0.712752	0.701168	-0.950557	-0.204774	-0.233472
422	324375													9.376862	-0.173421	3.037749	0.309937	-0.670820	-0.673750	-0.018649	-0.712799	0.701120	-0.950574	-0.204738	-0.233433
423	324542													9.341318	-0.164384	3.053777	0.309858	-0.670881	-0.673726	-0.018596	-0.712742	0.701180	-0.950601	-0.204737	-0.233324
424	324708													9.336705	-0.154989	3.047926	0.309764	-0.670993	-0.673657	-0.018534	-0.712633	0.701292	-0.950633	-0.204749	-0.233184
425	324875													9.320966	-0.143295	3.051617	0.309623	-0.671117	-0.673599	-0.018434	-0.712514	0.701416	-0.950681	-0.204758	-0.232982
426	325042													9.325728	-0.144064	3.021616	0.309512	-0.671154	-0.673613	-0.018333	-0.712478	0.701455	-0.950719	-0.204760	-0.232825
427	325208													9.358373	-0.159692	3.020837	0.309426	-0.671188	-0.673619	-0.018181	-0.712430	0.701508	-0.950750	-0.204817	-0.232647
428	325375													9.339741	-0.144972	3.021463	0.309366	-0.671174	-0.673660	-0.018023	-0.712424	0.701518	-0.950772	-0.204885	-0.232496
429	325542													9.340114	-0.140824	3.023255	0.309311	-0.671162	-0.673698	-0.017862	-0.712414	0.701532	-0.950793	-0.204958	-0.232346
430	325708													9.345681	-0.143996	3.045423	0.309223	-0.671213	-0.673688	-0.017708	-0.712348	0.701603	-0.950825	-0.205022	-0.232160
431	325875													9.352959	-0.136228	3.042873	0.309158	-0.671322	-0.673608	-0.017578	-0.712220	0.701736	-0.950848	-0.205107	-0.231989
432	326042													9.337470	-0.150283	3.033843	0.309102	-0.671410	-0.673547	-0.017531	-0.712132	0.701827	-0.950867	-0.205128	-0.231892
433	326208													9.335058	-0.172699	3.026401	0.309073	-0.671486	-0.673483	-0.017520	-0.712056	0.701904	-0.950877	-0.205141	-0.231842
434	326375													9.351174	-0.172813	3.021602	0.309075	-0.671515	-0.673454	-0.017550	-0.712032	0.701927	-0.950876	-0.205129	-0.231857
435	326542													9.322196	-0.170106	3.015837	0.309082	-0.671512	-0.673454	-0.017582	-0.712040	0.701918	-0.950873	-0.205110	-0.231885
436	326708													9.346872	-0.191434	3.021702	0.309084	-0.671487	-0.673478	-0.017614	-0.712073	0.701884	-0.950872	-0.205079	-0.231918
437	326875													9.352539	-0.178153	3.044675	0.309082	-0.671406	-0.673560	-0.017638	-0.712164	0.701792	-0.950872	-0.205031	-0.231959
438	327042													9.331449	-0.177911	3.034601	0.309088	-0.671328	-0.673634	-0.017641	-0.712243	0.701711	-0.950870	-0.205007	-0.231989
439	327208													9.340188	-0.153519	3.023730	0.309059	-0.671295	-0.673681	-0.017626	-0.712282	0.701672	-0.950880	-0.204984	-0.231969
440	327375													9.335839	-0.157153	3.047444	0.309025	-0.671286	-0.673705	-0.017636	-0.712300	0.701653	-0.950890	-0.204947	-0.231958
441	327542													9.355480	-0.151817	3.020164	0.308980	-0.671297	-0.673715	-0.017652	-0.712303	0.701651	-0.950905	-0.204904	-0.231937
442	327708													9.337327	-0.154353	3.046163	0.309010	-0.671281	-0.673717	-0.017699	-0.712323	0.701629	-0.950894	-0.204887	-0.231996
443	327875													9.343928	-0.151002	3.044418	0.309031	-0.671316	-0.673672	-0.017758	-0.712294	0.701656	-0.950886	-0.204870	-0.232043
444	328042													9.334409	-0.143735	3.046235	0.309023	-0.671374	-0.673618	-0.017817	-0.712248	0.701702	-0.950888	-0.204841	-0.232063
445	328208													9.331276	-0.161069	3.060511	0.308982	-0.671434	-0.673577	-0.017833	-0.712198	0.701752	-0.950901	-0.204817	-0.232030
446	328375													9.338864	-0.172073	3.050337	0.308923	-0.671515	-0.673524	-0.017868	-0.712135	0.701815	-0.950919	-0.204772	-0.231994
447	328542													9.324049	-0.167821	3.019231	0.308859	-0.671579	-0.673489	-0.017891	-0.712087	0.701863	-0.950939	-0.204728	-0.231950
448	328708													9.354790	-0.174444	3.020454	0.308830	-0.671600	-0.673482	-0.017894	-0.712073	0.701877	-0.950949	-0.204709	-0.231927
449	328875													9.340263	-0.179125	3.046710	0.308822	-0.671550	-0.673535	-0.017854	-0.712118	0.701833	-0.950952	-0.204716	-0.231908
450	329042													9.344279	-0.186678	3.008892	0.308786	-0.671537	-0.673565	-0.017850	-0.712139	0.701812	-0.950964	-0.204687	-0.231886
451	329208													9.315967	-0.144783	3.031640	0.308849	-0.671502	-0.673570	-0.017860	-0.712163	0.701787	-0.950943	-0.204717	-0.231944
452	329375													9.349401	-0.154549	3.026076	0.308977	-0.671518	-0.673496	-0.017795	-0.712103	0.701849	-0.950903	-0.204870	-0.231973
453	329542													9.395329	-0.137680	3.043821	0.309152	-0.671549	-0.673385	-0.017707	-0.712013	0.701943	-0.950848	-0.205084	-0.232012
454	329708													9.366234	-0.158090	3.014224	0.309339	-0.671500	-0.673348	-0.017709	-0.712023	0.701933	-0.950787	-0.205211	-0.232148
455	329875													9.334952	-0.182140	3.057064	0.309519	-0.671488	-0.673277	-0.017747	-0.712002	0.701953	-0.950728	-0.205319	-0.232295
456	330042													9.302080	-0.178828	3.043002	0.309598	-0.671530	-0.673199	-0.017739	-0.711939	0.702017	-0.950702	-0.205401	-0.232327
457	330208													9.339111	-0.154528	3.028357	0.309680	-0.671610	-0.673081	-0.017702	-0.711830	0.702129	-0.950676	-0.205520	-0.232329
458	330375													9.322676	-0.150516	3.039876	0.309780	-0.671627	-0.673018	-0.017669	-0.711782	0.702178	-0.950644	-0.205629	-0.232362
459	330542													9.339344	-0.163476	3.039408	0.309947	-0.671607	-0.672961	-0.017659	-0.711763	0.702198	-0.950590	-0.205760	-0.232469
460	330709													9.346268	-0.155418	3.070381	0.310156	-0.671581	-0.672891	-0.017689	-0.711750	0.702210	-0.950521	-0.205892	-0.232633
461	330875													9.352362	-0.162167	3.054285	0.310356	-0.671596	-0.672784	-0.017678	-0.711686	0.702275	-0.950456	-0.206061	-0.232749
462	331042													9.349715	-0.174633	3.068071	0.310545	-0.671647	-0.672645	-0.017648	-0.711583	0.702380	-0.950395	-0.206250	-0.232832
463	331209													9.346640	-0.156123	3.058862	0.310700	-0.671738	-0.672483	-0.017642	-0.711452	0.702514	-0.950344	-0.206407	-0.232898
464	331375													9.336162	-0.170818	3.065067	0.310836	-0.671825	-0.672333	-0.017639	-0.711330	0.702637	-0.950300	-0.206545	-0.232958
465	331542													9.332070	-0.159992	3.075106	0.311008	-0.671904	-0.672175	-0.017643	-0.711209	0.702759	-0.950244	-0.206704	-0.233046
466	331709													9.337131	-0.159903	3.088334	0.311205	-0.672012	-0.671976	-0.017620	-0.711046	0.702924	-0.950179	-0.206913	-0.233122
467	331875													9.336528	-0.171928	3.096621	0.311390	-0.672171	-0.671731	-0.017531	-0.710818	0.703157	-0.950121	-0.207180	-0.233125
468	332042													9.336719	-0.149014	3.056034	0.311583	-0.672338	-0.671474	-0.017361	-0.710562	0.703420	-0.950060	-0.207517	-0.233071
469	332209													9.331265	-0.163956	3.041196	0.311843	-0.672576	-0.671115	-0.017244	-0.710227	0.703761	-0.949977	-0.207890	-0.233077
470	332375													9.355265	-0.139991	3.005793	0.312178	-0.672758	-0.670777	-0.017042	-0.709916	0.704080	-0.949871	-0.208367	-0.233086
471	332542													9.370933	-0.147695	2.985953	0.312653	-0.672851	-0.670462	-0.016849	-0.709665	0.704338	-0.949718	-0.208917	-0.233216
472	332709													9.373929	-0.174834	3.028332	0.313255	-0.672934	-0.670098	-0.016695	-0.709405	0.704603	-0.949522	-0.209533	-0.233459
473	332875													9.389589	-0.162283	3.041758	0.313878	-0.673001	-0.669739	-0.016534	-0.709154	0.704860	-0.949319	-0.210167	-0.233715
474	333042													9.340207	-0.146540	3.069069	0.314491	-0.673042	-0.669410	-0.016364	-0.708930	0.705089	-0.949120	-0.210789	-0.233966
475	333209													9.330733	-0.154115	3.071480	0.315131	-0.673072	-0.669079	-0.016209	-0.708714	0.705310	-0.948910	-0.211420	-0.234247
476	333375													9.340262	-0.162836	3.074623	0.315800	-0.673022	-0.668814	-0.016007	-0.708565	0.705464	-0.948691	-0.212080	-0.234538
477	333542													9.322843	-0.123794	3.086497	0.316537	-0.672913	-0.668575	-0.015790	-0.708457	0.705578	-0.948449	-0.212785	-0.234878
478	333709													9.310353	-0.140804	3.146748	0.317297	-0.672786	-0.668343	-0.015554	-0.708358	0.705682	-0.948199	-0.213516	-0.235225
479	333875													9.305548	-0.135620	3.163883	0.318027	-0.672667	-0.668115	-0.015277	-0.708246	0.705800	-0.947958	-0.214257	-0.235518
480	334042													9.291788	-0.123997	3.167469	0.318762	-0.672564	-0.667869	-0.014989	-0.708114	0.705939	-0.947716	-0.215016	-0.235801
481	334209													9.313295	-0.126763	3.176106	0.319523	-0.672461	-0.667609	-0.014693	-0.707973	0.706086	-0.947465	-0.215801	-0.236094
482	334375													9.326423	-0.128153	3.153647	0.320300	-0.672393	-0.667305	-0.014421	-0.707795	0.706270	-0.947207	-0.216595	-0.236403
483	334542													9.299626	-0.129967	3.176751	0.321084	-0.672279	-0.667043	-0.014124	-0.707658	0.706414	-0.946946	-0.217397	-0.236712
484	334709													9.295899	-0.124988	3.192845	0.321921	-0.672158	-0.666761	-0.013801	-0.707507	0.706572	-0.946666	-0.218259	-0.237038
485	334875													9.293611	-0.115196	3.196859	0.322824	-0.671929	-0.666555	-0.013413	-0.707439	0.706647	-0.946364	-0.219182	-0.237391
486	335042													9.297391	-0.103947	3.148754	0.323767	-0.671632	-0.666397	-0.013015	-0.707429	0.706664	-0.946047	-0.220122	-0.237783
487	335209													9.292109	-0.093724	3.163079	0.324824	-0.671348	-0.666169	-0.012825	-0.707425	0.706672	-0.945687	-0.221001	-0.238399
488	335375													9.355615	-0.111451	3.164849	0.325919	-0.671050	-0.665934	-0.012583	-0.707413	0.706689	-0.945314	-0.221944	-0.239003
489	335542													9.339503	-0.087947	3.119083	0.327179	-0.670631	-0.665739	-0.012302	-0.707477	0.706629	-0.944882	-0.223004	-0.239722
490	335709													9.320955	-0.094807	3.149854	0.328548	-0.670058	-0.665641	-0.011994	-0.707668	0.706443	-0.944411	-0.224116	-0.240540
491	335875													9.307298	-0.106511	3.191294	0.329955	-0.669594	-0.665413	-0.011577	-0.707706	0.706412	-0.943926	-0.225380	-0.241263
492	336042													9.311502	-0.123238	3.199260	0.331449	-0.669070	-0.665196	-0.011053	-0.707756	0.706371	-0.943408	-0.226774	-0.241980
493	336209													9.292004	-0.111718	3.175619	0.333020	-0.668333	-0.665153	-0.010444	-0.707989	0.706146	-0.942862	-0.228213	-0.242755
494	336375													9.300557	-0.091117	3.185348	0.334665	-0.667592	-0.665072	-0.009962	-0.708236	0.705906	-0.942285	-0.229616	-0.243672
495	336542													9.275582	-0.096573	3.249415	0.336463	-0.666579	-0.665180	-0.009429	-0.708713	0.705434	-0.941649	-0.231080	-0.244741
496	336709													9.259248	-0.081182	3.275767	0.338369	-0.665709	-0.665085	-0.009135	-0.709066	0.705083	-0.940969	-0.232503	-0.246007
497	336875													9.235165	-0.081095	3.294568	0.340511	-0.664759	-0.664942	-0.008787	-0.709423	0.704728	-0.940199	-0.234125	-0.247408
498	337042													9.227160	-0.075283	3.319460	0.342718	-0.664045	-0.664521	-0.008639	-0.709558	0.704594	-0.939399	-0.235736	-0.248915
499	337209													9.212117	-0.073468	3.380211	0.345039	-0.663333	-0.664031	-0.008613	-0.709687	0.704465	-0.938549	-0.237349	-0.250583
500	337375													9.203426	-0.091046	3.456846	0.347255	-0.662820	-0.663388	-0.008701	-0.709657	0.704494	-0.937730	-0.238866	-0.252199
501	337542													9.169978	-0.069560	3.503798	0.349403	-0.662182	-0.662897	-0.008690	-0.709748	0.704402	-0.936932	-0.240359	-0.253743
502	337709													9.170233	-0.083149	3.473601	0.351556	-0.661528	-0.662412	-0.008669	-0.709849	0.704301	-0.936127	-0.241859	-0.255287
503	337875													9.154660	-0.047206	3.528861	0.353626	-0.661003	-0.661834	-0.008763	-0.709861	0.704287	-0.935346	-0.243255	-0.256817
504	338042													9.178740	-0.116453	3.541806	0.355730	-0.660370	-0.661338	-0.008794	-0.709958	0.704189	-0.934548	-0.244685	-0.258360
505	338209													9.138849	-0.042538	3.568022	0.357712	-0.659921	-0.660717	-0.008825	-0.709890	0.704257	-0.933790	-0.246091	-0.259760
506	338375													9.161238	-0.102050	3.576086	0.359726	-0.659337	-0.660205	-0.008809	-0.709940	0.704207	-0.933016	-0.247506	-0.261192
507	338542													9.162068	-0.112466	3.598204	0.361656	-0.658718	-0.659769	-0.008819	-0.710056	0.704090	-0.932270	-0.248820	-0.262605
508	338709													9.084842	-0.059963	3.600006	0.363633	-0.658200	-0.659200	-0.008869	-0.710058	0.704088	-0.931500	-0.250183	-0.264038
509	338875													9.173364	-0.071807	3.631198	0.365720	-0.657601	-0.658642	-0.008812	-0.710080	0.704066	-0.930683	-0.251687	-0.265485
510	339042													9.175583	-0.057194	3.640001	0.367637	-0.657100	-0.658075	-0.008626	-0.710010	0.704139	-0.929929	-0.253191	-0.266694
511	339209													9.174060	-0.087478	3.633333	0.369690	-0.656363	-0.657660	-0.008452	-0.710150	0.703999	-0.929117	-0.254703	-0.268083
512	339375													9.111093	-0.096732	3.648870	0.371851	-0.655634	-0.657169	-0.008322	-0.710259	0.703891	-0.928255	-0.256274	-0.269567
513	339542													9.080516	-0.078322	3.633201	0.373806	-0.654972	-0.656720	-0.008131	-0.710336	0.703816	-0.927471	-0.257751	-0.270854
514	339709													9.137522	-0.080014	3.670640	0.375661	-0.654327	-0.656304	-0.007852	-0.710395	0.703760	-0.926724	-0.259222	-0.272005
515	339875													9.126014	-0.071165	3.686776	0.377826	-0.653557	-0.655828	-0.007591	-0.710495	0.703662	-0.925846	-0.260883	-0.273404
516	340042													9.075007	-0.081085	3.696454	0.379661	-0.652884	-0.655439	-0.007318	-0.710583	0.703575	-0.925097	-0.262324	-0.274558
517	340209													9.123485	-0.069369	3.783038	0.381864	-0.652074	-0.654965	-0.007067	-0.710709	0.703451	-0.924191	-0.263994	-0.276003
518	340375													9.068639	-0.068599	3.730882	0.384196	-0.651390	-0.654282	-0.006958	-0.710694	0.703466	-0.923226	-0.265716	-0.277578
519	340542													9.099016	-0.054317	3.775210	0.386648	-0.650613	-0.653610	-0.006795	-0.710721	0.703442	-0.922202	-0.267543	-0.279220
520	340709													9.080245	-0.053067	3.805832	0.389111	-0.649901	-0.652856	-0.006739	-0.710698	0.703465	-0.921166	-0.269326	-0.280920
521	340875													9.051813	-0.106576	3.794965	0.391534	-0.649324	-0.651981	-0.006811	-0.710575	0.703588	-0.920138	-0.271039	-0.282637
522	341042													9.079724	-0.074780	3.852489	0.394215	-0.648591	-0.651095	-0.006815	-0.710511	0.703653	-0.918993	-0.272953	-0.284514
523	341209													9.038011	-0.042000	3.880408	0.397009	-0.647776	-0.650208	-0.006754	-0.710473	0.703692	-0.917790	-0.274981	-0.286440
524	341375													9.037755	-0.058695	3.903651	0.399857	-0.646860	-0.649373	-0.006638	-0.710501	0.703664	-0.916553	-0.277055	-0.288393
525	341542													9.000299	-0.053957	3.981128	0.402817	-0.645949	-0.648451	-0.006551	-0.710489	0.703678	-0.915257	-0.279206	-0.290429
526	341709													8.986389	-0.057244	4.009630	0.405678	-0.645051	-0.647560	-0.006400	-0.710465	0.703703	-0.913994	-0.281333	-0.292348
527	341875													8.983612	-0.022764	3.966690	0.408662	-0.644107	-0.646623	-0.006242	-0.710440	0.703730	-0.912664	-0.283552	-0.294350
528	342042													9.019529	-0.056678	4.034941	0.411655	-0.643225	-0.645601	-0.006081	-0.710332	0.703841	-0.911319	-0.285814	-0.296323
529	342209													8.979488	-0.067030	4.075803	0.414713	-0.642273	-0.644591	-0.005863	-0.710251	0.703925	-0.909933	-0.288148	-0.298316
530	342375													8.973894	-0.105629	4.114690	0.418049	-0.641283	-0.643421	-0.005730	-0.710130	0.704047	-0.908406	-0.290640	-0.300543
531	342542													8.910134	-0.060587	4.094155	0.421223	-0.640374	-0.642256	-0.005552	-0.709951	0.704229	-0.906940	-0.293072	-0.302603
532	342709													8.919305	-0.036658	4.112212	0.424371	-0.639494	-0.641059	-0.005341	-0.709726	0.704458	-0.905473	-0.295528	-0.304602
533	342875													8.918390	-0.037811	4.160805	0.427484	-0.638513	-0.639967	-0.004923	-0.709544	0.704644	-0.904009	-0.298074	-0.306463
534	343042													8.901092	-0.014880	4.226302	0.430699	-0.637430	-0.638890	-0.004522	-0.709430	0.704761	-0.902484	-0.300651	-0.308433
535	343209													8.839478	-0.017763	4.259479	0.434089	-0.636330	-0.637692	-0.004157	-0.709269	0.704925	-0.900860	-0.303349	-0.310531
536	343375													8.801165	-0.013347	4.272988	0.437527	-0.635142	-0.636526	-0.003700	-0.709142	0.705056	-0.899198	-0.306126	-0.312619
537	343542													8.863963	-0.017324	4.338838	0.440744	-0.633930	-0.635513	-0.003112	-0.709063	0.705138	-0.897627	-0.308808	-0.314488
538	343709													8.826935	-0.020947	4.393295	0.443985	-0.632618	-0.634565	-0.002518	-0.709071	0.705133	-0.896031	-0.311470	-0.316410
539	343875													8.803779	-0.020820	4.446089	0.447335	-0.631267	-0.633556	-0.001996	-0.709088	0.705117	-0.894364	-0.314159	-0.318460
540	344042													8.757635	-0.009639	4.415023	0.450765	-0.629880	-0.632505	-0.001529	-0.709120	0.705087	-0.892642	-0.316861	-0.320609
541	344209													8.756165	-0.017041	4.444421	0.454169	-0.628549	-0.631393	-0.001170	-0.709121	0.705086	-0.890915	-0.319489	-0.322796
542	344375													8.752415	-0.018135	4.521723	0.457658	-0.627260	-0.630154	-0.000867	-0.709047	0.705161	-0.889128	-0.322177	-0.325045
543	344542													8.730864	-0.041355	4.575906	0.461218	-0.625867	-0.628943	-0.000615	-0.709063	0.705144	-0.887286	-0.324838	-0.327418
544	344709													8.709303	-0.038801	4.591913	0.464900	-0.624344	-0.627744	-0.000368	-0.709161	0.705047	-0.885363	-0.327546	-0.329919
545	344875													8.708435	-0.016715	4.644989	0.468733	-0.622710	-0.626516	-0.000086	-0.709290	0.704917	-0.883340	-0.330365	-0.332521
546	345042													8.678127	-0.029362	4.682436	0.472757	-0.620914	-0.625273	0.000249	-0.709481	0.704724	-0.881193	-0.333319	-0.335258
547	345209													8.702560	-0.005912	4.672370	0.476605	-0.619169	-0.624081	0.000680	-0.709635	0.704569	-0.879117	-0.336225	-0.337795
548	345375													8.673149	-0.054616	4.734668	0.480469	-0.617355	-0.622914	0.001184	-0.709812	0.704391	-0.877011	-0.339176	-0.340311
549	345542													8.629888	0.026689	4.750426	0.484234	-0.615428	-0.621905	0.001827	-0.710086	0.704113	-0.874936	-0.342092	-0.342723
550	345709													8.583867	0.042721	4.757736	0.488146	-0.613373	-0.620876	0.002482	-0.710414	0.703780	-0.872759	-0.345088	-0.345263
551	345875													8.551463	0.053139	4.821233	0.492349	-0.611145	-0.619753	0.003059	-0.710815	0.703373	-0.870392	-0.348201	-0.348099
552	346042													8.510488	0.067649	4.817472	0.496785	-0.608924	-0.618398	0.003467	-0.711146	0.703036	-0.867866	-0.351402	-0.351176
553	346209													8.528080	0.067540	4.864069	0.501285	-0.606688	-0.616963	0.003786	-0.711475	0.702702	-0.865274	-0.354589	-0.354354
554	346375													8.502915	0.089208	4.875554	0.505582	-0.604581	-0.615524	0.004084	-0.711735	0.702436	-0.862769	-0.357653	-0.357371
555	346542													8.504094	0.063449	4.908219	0.509484	-0.602668	-0.614180	0.004369	-0.711944	0.702223	-0.860469	-0.360455	-0.360091
556	346709													8.415787	0.052437	5.006695	0.513262	-0.600787	-0.612876	0.004598	-0.712180	0.701982	-0.858220	-0.363119	-0.362773
557	346875													8.336531	0.095744	5.042094	0.517101	-0.599019	-0.611377	0.004613	-0.712328	0.701832	-0.855912	-0.365738	-0.365582
558	347042													8.318206	0.065209	5.048651	0.521082	-0.597259	-0.609717	0.004468	-0.712449	0.701710	-0.853495	-0.368372	-0.368576
559	347209													8.290093	0.086095	5.086809	0.524962	-0.595653	-0.607957	0.004101	-0.712520	0.701640	-0.851115	-0.370828	-0.371603
560	347376													8.331516	0.012490	5.169325	0.528649	-0.594304	-0.606080	0.003629	-0.712420	0.701744	-0.848833	-0.373175	-0.374463
561	347542													8.320343	0.055175	5.247496	0.532373	-0.592725	-0.604365	0.003277	-0.712500	0.701664	-0.846504	-0.375528	-0.377373
562	347709													8.337758	0.051604	5.273080	0.536069	-0.591106	-0.602680	0.002907	-0.712632	0.701532	-0.844169	-0.377822	-0.380301
563	347876													8.273611	-0.000470	5.309926	0.539755	-0.589434	-0.601026	0.002577	-0.712798	0.701365	-0.841818	-0.380114	-0.383217
564	348042													8.216918	0.006989	5.325304	0.543435	-0.587648	-0.599456	0.002216	-0.713098	0.701061	-0.839448	-0.382310	-0.386220
565	348209													8.210648	0.041704	5.366812	0.547015	-0.585922	-0.597888	0.001845	-0.713372	0.700783	-0.837121	-0.384442	-0.389144
566	348376													8.184263	0.033101	5.376865	0.550661	-0.584146	-0.596276	0.001518	-0.713634	0.700518	-0.834727	-0.386653	-0.392084
567	348542													8.137694	0.036223	5.424951	0.554412	-0.582260	-0.594643	0.001222	-0.713937	0.700209	-0.832242	-0.388931	-0.395104
568	348709													8.149464	0.059605	5.466323	0.558248	-0.580381	-0.592889	0.000798	-0.714229	0.699912	-0.829674	-0.391198	-0.398254
569	348876													8.156160	0.023157	5.541073	0.562154	-0.578626	-0.590911	0.000232	-0.714384	0.699753	-0.827033	-0.393506	-0.401459
570	349042													8.145713	0.024527	5.566533	0.566054	-0.576882	-0.588889	-0.000327	-0.714509	0.699627	-0.824368	-0.395834	-0.404639
571	349209													8.131706	0.073997	5.607834	0.569788	-0.575439	-0.586695	-0.001039	-0.714427	0.699710	-0.821791	-0.398077	-0.407670
572	349376													8.088558	0.025369	5.621205	0.573137	-0.574426	-0.584422	-0.001849	-0.714084	0.700057	-0.819457	-0.400148	-0.410330
573	349542													8.020223	-0.015353	5.664515	0.576306	-0.573488	-0.582223	-0.002627	-0.713727	0.700419	-0.817230	-0.402126	-0.412832
574	349709													7.957657	-0.048979	5.690193	0.579387	-0.572527	-0.580107	-0.003323	-0.713395	0.700754	-0.815046	-0.404080	-0.415235
575	349876													7.929803	-0.045784	5.699680	0.582419	-0.571438	-0.578140	-0.003930	-0.713188	0.700961	-0.812879	-0.405981	-0.417621
576	350042													7.873965	-0.054680	5.711489	0.585401	-0.570355	-0.576196	-0.004574	-0.713012	0.701137	-0.810731	-0.407811	-0.420007
577	350209													7.879023	-0.118813	5.768359	0.588349	-0.569288	-0.574245	-0.005237	-0.712833	0.701315	-0.808590	-0.409610	-0.422375
578	350376													7.874331	-0.076764	5.792720	0.591187	-0.568103	-0.572500	-0.005692	-0.712749	0.701396	-0.806514	-0.411398	-0.424602
579	350542													7.884222	-0.054765	5.855637	0.594084	-0.566870	-0.570721	-0.006127	-0.712665	0.701478	-0.804379	-0.413240	-0.426856
580	350709													7.876103	-0.109142	5.926424	0.597070	-0.565613	-0.568849	-0.006553	-0.712536	0.701605	-0.802162	-0.415180	-0.429140
581	350876													7.857395	-0.130770	5.947079	0.600120	-0.564222	-0.567018	-0.006846	-0.712449	0.701690	-0.799881	-0.417216	-0.431418
582	351042													7.834619	-0.123200	5.965769	0.603122	-0.562791	-0.565252	-0.007011	-0.712360	0.701779	-0.797618	-0.419295	-0.433586
583	351209													7.815128	-0.088575	5.972178	0.606127	-0.561293	-0.563524	-0.006998	-0.712244	0.701897	-0.795337	-0.421495	-0.435638
584	351376													7.803289	-0.103000	5.991042	0.609187	-0.559724	-0.561783	-0.006839	-0.712085	0.702060	-0.792997	-0.423844	-0.437621
585	351542													7.771498	-0.108577	6.016953	0.612321	-0.558112	-0.559977	-0.006614	-0.711876	0.702274	-0.790581	-0.426314	-0.439588
586	351709													7.742131	-0.113965	6.034857	0.615633	-0.556393	-0.558053	-0.006345	-0.711636	0.702520	-0.788007	-0.428954	-0.441637
587	351876													7.708610	-0.067756	6.076427	0.619153	-0.554396	-0.556143	-0.005967	-0.711519	0.702641	-0.785248	-0.431723	-0.443847
588	352042													7.702680	-0.014557	6.114776	0.622857	-0.552242	-0.554147	-0.005549	-0.711424	0.702741	-0.782316	-0.434632	-0.446180
589	352209													7.704062	-0.000006	6.166494	0.626587	-0.550048	-0.552120	-0.005071	-0.711298	0.702873	-0.779335	-0.437611	-0.448479
590	352376													7.681924	-0.066119	6.145995	0.630157	-0.547974	-0.550115	-0.004639	-0.711129	0.703047	-0.776454	-0.440477	-0.450665
591	352542													7.619500	-0.071107	6.188560	0.633476	-0.545981	-0.548282	-0.004170	-0.710991	0.703189	-0.773751	-0.443167	-0.452673
592	352709													7.578820	-0.090486	6.193481	0.636440	-0.544118	-0.546699	-0.003644	-0.710892	0.703292	-0.771318	-0.445611	-0.454423
593	352876													7.537404	-0.088811	6.229232	0.639143	-0.542415	-0.545236	-0.003214	-0.710816	0.703371	-0.769081	-0.447802	-0.456056
594	353042													7.508765	-0.059468	6.253335	0.641611	-0.540728	-0.544011	-0.002761	-0.710867	0.703321	-0.767025	-0.449757	-0.457593
595	353209													7.467069	-0.033991	6.261439	0.643862	-0.539121	-0.542946	-0.002314	-0.710971	0.703218	-0.765138	-0.451519	-0.459015
596	353376													7.426806	-0.008336	6.317626	0.645959	-0.537482	-0.542080	-0.001808	-0.711187	0.703001	-0.763370	-0.453129	-0.460369
597	353542													7.411207	-0.006198	6.387815	0.647934	-0.535890	-0.541299	-0.001305	-0.711429	0.702757	-0.761696	-0.454633	-0.461658
598	353709													7.405276	0.028626	6.423344	0.649806	-0.534326	-0.540599	-0.000760	-0.711678	0.702506	-0.760099	-0.456082	-0.462859
599	353876													7.385530	0.038441	6.454038	0.651648	-0.532818	-0.539870	-0.000257	-0.711895	0.702286	-0.758521	-0.457504	-0.464042
600	354042													7.391553	0.017720	6.492007	0.653512	-0.531333	-0.539080	0.000232	-0.712066	0.702113	-0.756916	-0.458964	-0.465220
601	354209													7.375934	0.023130	6.503545	0.655404	-0.529847	-0.538245	0.000748	-0.712188	0.701988	-0.755278	-0.460489	-0.466375
602	354376													7.375314	0.025974	6.519632	0.657315	-0.528361	-0.537375	0.001305	-0.712262	0.701912	-0.753615	-0.462079	-0.467491
603	354542													7.349895	0.038789	6.499625	0.659382	-0.526747	-0.536425	0.001871	-0.712362	0.701810	-0.751805	-0.463764	-0.468734
604	354709													7.320786	0.034184	6.489930	0.661596	-0.525053	-0.535360	0.002395	-0.712462	0.701706	-0.749857	-0.465528	-0.470105
605	354876													7.305984	0.038139	6.464574	0.664004	-0.523261	-0.534132	0.002875	-0.712546	0.701619	-0.747724	-0.467414	-0.471629
606	355042													7.280773	0.011495	6.484479	0.666653	-0.521343	-0.532705	0.003292	-0.712621	0.701541	-0.745361	-0.469439	-0.473355
607	355209													7.335177	0.092946	6.554335	0.669529	-0.519411	-0.530983	0.003578	-0.712590	0.701571	-0.742777	-0.471623	-0.475241
608	355376													7.367440	0.123485	6.644814	0.672645	-0.517295	-0.529107	0.003924	-0.712540	0.701621	-0.739955	-0.474017	-0.477256
609	355542													7.361876	0.123200	6.739844	0.675772	-0.515176	-0.527187	0.004257	-0.712467	0.701692	-0.737098	-0.476428	-0.479272
610	355709													7.288710	0.027075	6.739428	0.678740	-0.513272	-0.525227	0.004467	-0.712301	0.701860	-0.734365	-0.478727	-0.481174
611	355876													7.205642	-0.025165	6.694268	0.681386	-0.511526	-0.523502	0.004715	-0.712158	0.702003	-0.731909	-0.480803	-0.482842
612	356042													7.121059	0.014713	6.693156	0.683714	-0.509960	-0.521993	0.004980	-0.712026	0.702135	-0.729733	-0.482659	-0.484283
613	356209													7.078753	0.045010	6.713705	0.685724	-0.508603	-0.520678	0.005215	-0.711902	0.702260	-0.727843	-0.484271	-0.485516
614	356376													7.023892	0.054828	6.717855	0.687407	-0.507521	-0.519513	0.005364	-0.711747	0.702415	-0.726253	-0.485631	-0.486538
615	356542													7.028119	0.015930	6.775469	0.688804	-0.506693	-0.518470	0.005342	-0.711616	0.702549	-0.724928	-0.486688	-0.487457
616	356709													7.030076	-0.004017	6.829901	0.689921	-0.506054	-0.517608	0.005238	-0.711534	0.702633	-0.723866	-0.487472	-0.488251
617	356876													7.019897	0.015363	6.875552	0.690776	-0.505494	-0.517014	0.005158	-0.711565	0.702601	-0.723050	-0.488007	-0.488925
618	357042													7.022576	0.023277	6.872670	0.691465	-0.505037	-0.516540	0.005015	-0.711650	0.702516	-0.722392	-0.488356	-0.489549
619	357209													7.056809	0.000879	6.829600	0.692073	-0.504588	-0.516165	0.004880	-0.711794	0.702372	-0.721811	-0.488611	-0.490151
620	357376													7.038791	0.034099	6.858090	0.692639	-0.504098	-0.515885	0.004823	-0.711977	0.702186	-0.721269	-0.488850	-0.490712
621	357542													7.036183	0.026352	6.857061	0.693230	-0.503573	-0.515602	0.004764	-0.712186	0.701975	-0.720700	-0.489086	-0.491310
622	357709													7.047303	0.048287	6.861447	0.693913	-0.502981	-0.515262	0.004689	-0.712412	0.701746	-0.720044	-0.489367	-0.491993
623	357876													7.061032	0.070271	6.837855	0.694610	-0.502407	-0.514882	0.004600	-0.712608	0.701548	-0.719372	-0.489670	-0.492674
624	358042													7.066338	0.038488	6.840865	0.695247	-0.502023	-0.514397	0.004346	-0.712714	0.701442	-0.718758	-0.489911	-0.493330
625	358209													7.003785	0.052300	6.831974	0.695896	-0.501487	-0.514042	0.004274	-0.712889	0.701264	-0.718130	-0.490204	-0.493954
626	358376													7.028725	0.112855	6.812274	0.696519	-0.500985	-0.513688	0.004206	-0.713040	0.701110	-0.717526	-0.490498	-0.494539
627	358542													7.043431	0.040688	6.854015	0.697149	-0.500523	-0.513283	0.004101	-0.713154	0.700995	-0.716915	-0.490803	-0.495122
628	358709													7.059511	0.048331	6.864219	0.697722	-0.500050	-0.512966	0.004094	-0.713268	0.700879	-0.716357	-0.491119	-0.495616
629	358876													7.038575	0.032532	6.856821	0.698239	-0.499683	-0.512620	0.004043	-0.713321	0.700826	-0.715853	-0.491417	-0.496049
630	359042													7.029032	0.040173	6.861299	0.698740	-0.499284	-0.512327	0.004076	-0.713374	0.700772	-0.715364	-0.491746	-0.496427
631	359209													7.030115	0.068983	6.826275	0.699184	-0.498864	-0.512130	0.004196	-0.713448	0.700695	-0.714929	-0.492064	-0.496738
632	359376													7.032071	0.070366	6.856407	0.699597	-0.498372	-0.512044	0.004432	-0.713569	0.700571	-0.714524	-0.492386	-0.497002
633	359542													7.030232	0.071664	6.859570	0.700040	-0.497857	-0.511940	0.004687	-0.713680	0.700457	-0.714088	-0.492747	-0.497271
634	359709													7.004599	0.054283	6.874315	0.700495	-0.497410	-0.511752	0.004859	-0.713743	0.700391	-0.713641	-0.493107	-0.497557
635	359876													6.996033	0.080342	6.878008	0.701014	-0.496962	-0.511477	0.005004	-0.713765	0.700367	-0.713130	-0.493526	-0.497873
636	360042													7.004319	0.060972	6.870691	0.701598	-0.496526	-0.511099	0.005107	-0.713736	0.700396	-0.712555	-0.494007	-0.498220
637	360209													6.995430	0.063673	6.886576	0.702196	-0.496063	-0.510727	0.005178	-0.713753	0.700378	-0.711965	-0.494448	-0.498626
638	360376													6.993872	0.050145	6.911325	0.702819	-0.495648	-0.510273	0.005118	-0.713770	0.700361	-0.711350	-0.494839	-0.499114
639	360542													6.968143	0.048333	6.921282	0.703463	-0.495166	-0.509854	0.005103	-0.713826	0.700304	-0.710714	-0.495240	-0.499623
640	360709													6.957818	0.027424	6.936955	0.704073	-0.494688	-0.509475	0.005056	-0.713931	0.700198	-0.710110	-0.495566	-0.500158
641	360876													6.947717	0.043901	6.936262	0.704679	-0.494124	-0.509185	0.005039	-0.714137	0.699987	-0.709508	-0.495832	-0.500748
642	361042													6.943935	0.041873	6.925027	0.705228	-0.493542	-0.508990	0.005066	-0.714391	0.699729	-0.708963	-0.496047	-0.501307
643	361209													6.942021	0.031594	6.967834	0.705716	-0.493009	-0.508829	0.005093	-0.714635	0.699479	-0.708477	-0.496225	-0.501818
644	361376													6.937996	0.041031	6.952639	0.706135	-0.492545	-0.508697	0.005169	-0.714815	0.699294	-0.708058	-0.496425	-0.502210
645	361542													6.918254	0.057106	6.962977	0.706460	-0.492194	-0.508585	0.005199	-0.714963	0.699143	-0.707734	-0.496561	-0.502534
646	361709													6.926522	0.061848	6.940447	0.706736	-0.491858	-0.508527	0.005255	-0.715120	0.698982	-0.707458	-0.496668	-0.502816
647	361876													6.928724	0.060046	6.926032	0.706967	-0.491574	-0.508480	0.005288	-0.715264	0.698834	-0.707226	-0.496742	-0.503069
648	362042													6.929341	0.058131	6.946478	0.707132	-0.491363	-0.508455	0.005301	-0.715385	0.698710	-0.707062	-0.496776	-0.503267
649	362209													6.929266	0.042338	6.989347	0.707282	-0.491259	-0.508348	0.005246	-0.715423	0.698672	-0.706912	-0.496825	-0.503429
650	362376													6.918425	0.015282	6.963711	0.707473	-0.491150	-0.508187	0.005222	-0.715405	0.698691	-0.706721	-0.496958	-0.503565
651	362542													6.930838	0.011946	6.964335	0.707677	-0.490949	-0.508097	0.005296	-0.715432	0.698662	-0.706516	-0.497118	-0.503695
652	362709													6.917717	0.013410	6.967264	0.707919	-0.490565	-0.508130	0.005536	-0.715556	0.698534	-0.706272	-0.497319	-0.503840
653	362876													6.897056	0.010193	6.915968	0.708247	-0.489963	-0.508254	0.005927	-0.715791	0.698289	-0.705939	-0.497574	-0.504053
654	363042													6.896244	0.031967	6.936675	0.708622	-0.489308	-0.508363	0.006331	-0.716043	0.698028	-0.705560	-0.497856	-0.504306
655	363209													6.943394	0.021115	6.951752	0.709058	-0.488675	-0.508364	0.006695	-0.716232	0.697830	-0.705118	-0.498205	-0.504579
656	363376													6.969698	0.113153	7.020994	0.709539	-0.487894	-0.508442	0.007210	-0.716472	0.697578	-0.704629	-0.498625	-0.504848
657	363542													6.963723	0.124135	6.998232	0.709911	-0.487293	-0.508500	0.007642	-0.716630	0.697411	-0.704250	-0.498986	-0.505020
658	363709													6.933144	0.106751	7.003720	0.710161	-0.486933	-0.508496	0.007918	-0.716685	0.697352	-0.703995	-0.499258	-0.505106
659	363876													6.884120	0.124774	6.965200	0.710274	-0.486790	-0.508474	0.008099	-0.716642	0.697394	-0.703879	-0.499459	-0.505070
660	364043													6.872644	0.156945	6.960283	0.710224	-0.486922	-0.508418	0.008154	-0.716472	0.697569	-0.703929	-0.499575	-0.504885
661	364209													6.847969	0.150717	6.979249	0.710036	-0.487249	-0.508368	0.008133	-0.716221	0.697827	-0.704119	-0.499616	-0.504579
662	364376													6.862360	0.103529	7.015055	0.709749	-0.487738	-0.508300	0.008083	-0.715864	0.698193	-0.704409	-0.499650	-0.504141
663	364543													6.855783	0.049918	6.993843	0.709395	-0.488290	-0.508263	0.008027	-0.715490	0.698577	-0.704766	-0.499647	-0.503645
664	364709													6.865023	0.031593	7.004568	0.709001	-0.488800	-0.508323	0.008067	-0.715145	0.698930	-0.705162	-0.499642	-0.503095
665	364876													6.885814	0.032459	6.976241	0.708521	-0.489303	-0.508508	0.008149	-0.714863	0.699217	-0.705642	-0.499554	-0.502508
666	365043													6.878200	0.025971	6.949782	0.707900	-0.489802	-0.508893	0.008303	-0.714672	0.699410	-0.706264	-0.499338	-0.501849
667	365209													6.880797	0.013526	6.952199	0.707138	-0.490262	-0.509508	0.008595	-0.714572	0.699509	-0.707023	-0.499029	-0.501087
668	365376													6.864563	0.022073	6.928237	0.706209	-0.490689	-0.510385	0.009056	-0.714561	0.699515	-0.707945	-0.498626	-0.500186
669	365543													6.892141	0.065352	6.936333	0.705063	-0.491147	-0.511528	0.009620	-0.714641	0.699426	-0.709080	-0.498060	-0.499142
670	365709													6.896739	0.096597	6.967042	0.703673	-0.491713	-0.512896	0.010259	-0.714750	0.699305	-0.710450	-0.497344	-0.497906
671	365876													6.901513	0.113223	6.937393	0.701871	-0.492627	-0.514485	0.010852	-0.714805	0.699240	-0.712221	-0.496360	-0.496355
672	366043													6.908331	0.137373	6.922467	0.699538	-0.493970	-0.516371	0.011364	-0.714826	0.699210	-0.714505	-0.494992	-0.494435
673	366209													6.900998	0.183660	6.917810	0.696828	-0.495544	-0.518524	0.011953	-0.714821	0.699205	-0.717139	-0.493424	-0.492184
674	366376													6.917216	0.198687	6.927958	0.693714	-0.497604	-0.520721	0.012402	-0.714613	0.699410	-0.720143	-0.491649	-0.489566
675	366543													6.966580	0.135316	6.913528	0.690236	-0.500187	-0.522864	0.012663	-0.714142	0.699886	-0.723473	-0.489708	-0.486593
676	366709													6.991696	0.115770	6.861521	0.686420	-0.503017	-0.525169	0.012897	-0.713639	0.700395	-0.727091	-0.487538	-0.483369
677	366876													7.007071	0.127294	6.766847	0.682231	-0.506025	-0.527731	0.013211	-0.713146	0.700891	-0.731018	-0.485142	-0.479845
678	367043													7.020335	0.089764	6.680323	0.677845	-0.508957	-0.530556	0.013729	-0.712755	0.701279	-0.735077	-0.482642	-0.476149
679	367209													7.069024	0.074484	6.644210	0.673342	-0.511707	-0.533635	0.014542	-0.712475	0.701547	-0.739188	-0.480141	-0.472297
680	367376													7.173025	0.083355	6.635527	0.668696	-0.514523	-0.536761	0.015432	-0.712143	0.701865	-0.743376	-0.477617	-0.468266
681	367543													7.272937	0.088845	6.656667	0.663840	-0.517391	-0.540021	0.016326	-0.711877	0.702115	-0.747697	-0.474908	-0.464125
682	367709													7.324229	0.144732	6.570792	0.658701	-0.520311	-0.543497	0.017212	-0.711737	0.702235	-0.752208	-0.471918	-0.459866
683	367876													7.369568	0.158104	6.505828	0.653333	-0.523244	-0.547149	0.018135	-0.711695	0.702254	-0.756854	-0.468728	-0.455485
684	368043													7.369323	0.206423	6.399053	0.648051	-0.525939	-0.550834	0.019077	-0.711825	0.702098	-0.761358	-0.465504	-0.451265
685	368209													7.432050	0.211978	6.312396	0.642994	-0.528591	-0.554212	0.019793	-0.711925	0.701977	-0.765616	-0.462336	-0.447301
686	368376													7.516167	0.204272	6.318781	0.637929	-0.531426	-0.557344	0.020290	-0.711884	0.702004	-0.769827	-0.459138	-0.443349
687	368543													7.620893	0.240672	6.299532	0.632732	-0.534446	-0.560372	0.020608	-0.711771	0.702109	-0.774096	-0.455795	-0.439347
688	368709													7.676797	0.257321	6.214096	0.627292	-0.537657	-0.563409	0.020840	-0.711599	0.702276	-0.778505	-0.452274	-0.435176
689	368876													7.707487	0.268268	6.177645	0.621873	-0.540851	-0.566352	0.021014	-0.711416	0.702457	-0.782836	-0.448741	-0.431045
690	369043													7.735524	0.249645	6.052214	0.616648	-0.543908	-0.569130	0.021195	-0.711212	0.702658	-0.786953	-0.445355	-0.427040
691	369209													7.802586	0.237355	5.985425	0.611643	-0.546780	-0.571772	0.021415	-0.711018	0.702848	-0.790844	-0.442137	-0.423180
692	369376													7.868596	0.227973	5.933788	0.606783	-0.549584	-0.574258	0.021604	-0.710787	0.703075	-0.794574	-0.439020	-0.419420
693	369543													7.914180	0.231929	5.879995	0.601951	-0.552437	-0.576601	0.021795	-0.710439	0.703421	-0.798236	-0.435992	-0.415609
694	369709													7.938637	0.215036	5.834292	0.597078	-0.555211	-0.578998	0.022061	-0.710139	0.703715	-0.801880	-0.432946	-0.411760
695	369876													7.907763	0.202212	5.772738	0.592364	-0.557690	-0.581452	0.022452	-0.709993	0.703851	-0.805357	-0.429991	-0.408054
696	370043													7.911220	0.190808	5.691903	0.587917	-0.559874	-0.583862	0.022915	-0.709962	0.703867	-0.808596	-0.427195	-0.404570
697	370209													7.946707	0.190793	5.690657	0.583616	-0.561982	-0.586147	0.023297	-0.709945	0.703872	-0.811696	-0.424446	-0.401243
698	370376													7.996847	0.192977	5.636966	0.579189	-0.564102	-0.588497	0.023635	-0.709988	0.703817	-0.814851	-0.421552	-0.397885
699	370543													8.001900	0.223081	5.612073	0.574581	-0.566234	-0.590961	0.023959	-0.710105	0.703688	-0.818097	-0.418485	-0.394446
700	370709													8.009016	0.215059	5.589541	0.570045	-0.568278	-0.593388	0.024232	-0.710279	0.703503	-0.821256	-0.415407	-0.391121
701	370876													8.061333	0.160424	5.555888	0.565484	-0.570255	-0.595850	0.024537	-0.710502	0.703267	-0.824394	-0.412307	-0.387785
702	371043													8.096784	0.212462	5.539663	0.560785	-0.572353	-0.598274	0.024692	-0.710705	0.703057	-0.827593	-0.409036	-0.384421
703	371209													8.141825	0.203052	5.464724	0.555971	-0.574653	-0.600558	0.024692	-0.710781	0.702980	-0.830835	-0.405665	-0.380985
704	371376													8.166413	0.277935	5.429354	0.551238	-0.576682	-0.602972	0.024925	-0.710981	0.702769	-0.833976	-0.402422	-0.377545
705	371543													8.206429	0.287734	5.379370	0.546761	-0.578646	-0.605163	0.025029	-0.711146	0.702599	-0.836915	-0.399300	-0.374344
706	371709													8.248460	0.219874	5.404219	0.542509	-0.580483	-0.607226	0.025115	-0.711314	0.702426	-0.839674	-0.396323	-0.371315
707	371876													8.269448	0.174598	5.358613	0.538197	-0.582339	-0.609282	0.025164	-0.711486	0.702250	-0.842443	-0.393281	-0.368266
708	372043													8.294085	0.235054	5.321721	0.533684	-0.584332	-0.611341	0.025147	-0.711610	0.702124	-0.845310	-0.390086	-0.365080
709	372209													8.314880	0.241672	5.261711	0.528869	-0.586448	-0.613495	0.025139	-0.711719	0.702014	-0.848331	-0.386696	-0.361664
710	372376													8.305540	0.270143	5.186891	0.524307	-0.588478	-0.615463	0.024945	-0.711850	0.701889	-0.851164	-0.383358	-0.358549
711	372543													8.358150	0.243163	5.107626	0.520051	-0.590362	-0.617268	0.024618	-0.712021	0.701726	-0.853781	-0.380129	-0.355754
712	372709													8.443413	0.220341	5.118435	0.515827	-0.592356	-0.618900	0.024168	-0.712080	0.701683	-0.856352	-0.376904	-0.352994
713	372876													8.447397	0.218843	5.084945	0.511415	-0.594656	-0.620354	0.023547	-0.711933	0.701853	-0.859011	-0.373546	-0.350091
714	373043													8.488165	0.205584	5.054030	0.506698	-0.597058	-0.621916	0.023006	-0.711755	0.702051	-0.861817	-0.370036	-0.346909
715	373209													8.486489	0.256620	4.938255	0.502134	-0.599294	-0.623464	0.022428	-0.711676	0.702150	-0.864499	-0.366556	-0.343916
716	373376													8.505157	0.241960	4.909782	0.497875	-0.601361	-0.624888	0.021835	-0.711621	0.702225	-0.866974	-0.363264	-0.341168
717	373543													8.521129	0.214614	4.858667	0.493639	-0.603462	-0.626223	0.021247	-0.711488	0.702376	-0.869408	-0.360025	-0.338397
718	373709													8.569386	0.218496	4.849760	0.489289	-0.605573	-0.627596	0.020676	-0.711364	0.702520	-0.871876	-0.356712	-0.335542
719	373876													8.573519	0.206491	4.779820	0.484638	-0.607736	-0.629113	0.020152	-0.711273	0.702627	-0.874483	-0.353198	-0.332462
720	374043													8.677280	0.199800	4.718624	0.480055	-0.609786	-0.630641	0.019565	-0.711272	0.702645	-0.877020	-0.349647	-0.329519
721	374209													8.555473	0.200432	4.648156	0.475661	-0.611557	-0.632254	0.019059	-0.711439	0.702489	-0.879422	-0.346197	-0.326748
722	374376													8.717994	0.213310	4.658047	0.471406	-0.613338	-0.633713	0.018412	-0.711563	0.702381	-0.881724	-0.342775	-0.324143
723	374543													8.697498	0.145822	4.662784	0.467278	-0.615224	-0.634942	0.017588	-0.711559	0.702406	-0.883936	-0.339386	-0.321676
724	374709													8.735958	0.145046	4.596969	0.463052	-0.617151	-0.636166	0.016849	-0.711494	0.702491	-0.886171	-0.336009	-0.319060
725	374876													8.687108	0.129047	4.533071	0.459150	-0.618913	-0.637282	0.016063	-0.711469	0.702534	-0.888214	-0.332805	-0.316729
726	375043													8.825279	0.148712	4.564517	0.455331	-0.620460	-0.638516	0.015368	-0.711590	0.702427	-0.890189	-0.329650	-0.314474
727	375209													8.740124	0.143322	4.476859	0.451629	-0.621867	-0.639775	0.014772	-0.711761	0.702266	-0.892083	-0.326615	-0.312266
728	375376													8.744473	0.173019	4.405446	0.447815	-0.623310	-0.641051	0.014327	-0.711864	0.702172	-0.894012	-0.323627	-0.309853
729	375543													8.779825	0.174849	4.329473	0.443931	-0.625064	-0.642044	0.013751	-0.711681	0.702368	-0.895955	-0.320631	-0.307342
730	375709													8.892832	0.126277	4.323631	0.440448	-0.626502	-0.643041	0.013150	-0.711680	0.702381	-0.897682	-0.317818	-0.305219
731	375876													8.884668	0.130953	4.322590	0.436891	-0.627840	-0.644161	0.012709	-0.711740	0.702328	-0.899425	-0.315027	-0.302973
732	376043													8.892797	0.126004	4.260831	0.433066	-0.629107	-0.645506	0.012550	-0.711867	0.702202	-0.901275	-0.312201	-0.300390
733	376209													8.864863	0.132291	4.191168	0.429621	-0.630311	-0.646633	0.012220	-0.711962	0.702111	-0.902927	-0.309544	-0.298171
734	376376													8.954805	0.130707	4.137879	0.425992	-0.631787	-0.647593	0.011723	-0.711874	0.702210	-0.904651	-0.306727	-0.295846
735	376543													8.931382	0.113370	4.121641	0.422602	-0.632978	-0.648650	0.011378	-0.711938	0.702150	-0.906244	-0.304111	-0.293664
736	376709													8.963680	0.100451	4.117538	0.419180	-0.634260	-0.649617	0.011084	-0.711886	0.702208	-0.907836	-0.301552	-0.291378
737	376876													8.928677	0.078391	4.074688	0.415491	-0.635840	-0.650441	0.010645	-0.711639	0.702464	-0.909535	-0.298791	-0.288912
738	377043													8.826468	0.133279	3.996175	0.411395	-0.637553	-0.651368	0.010254	-0.711362	0.702751	-0.911399	-0.295788	-0.286114
739	377209													9.092902	0.089386	3.975628	0.406948	-0.639178	-0.652568	0.010008	-0.711236	0.702882	-0.913397	-0.292567	-0.283039
740	377376													9.047993	0.053165	3.996528	0.403097	-0.640061	-0.654091	0.010038	-0.711596	0.702517	-0.915102	-0.289748	-0.280417
741	377543													8.969058	0.089351	3.924376	0.399309	-0.640834	-0.655656	0.010129	-0.712017	0.702089	-0.916760	-0.286992	-0.277824
742	377709													8.965296	0.101505	3.946949	0.395412	-0.642002	-0.656873	0.010048	-0.712089	0.702017	-0.918449	-0.284186	-0.275118
743	377876													8.970535	0.109235	3.888303	0.391518	-0.643321	-0.657915	0.009869	-0.712016	0.702094	-0.920117	-0.281375	-0.272419
744	378043													9.074673	0.127443	3.832582	0.387775	-0.644597	-0.658882	0.009668	-0.711930	0.702184	-0.921703	-0.278660	-0.269837
745	378209													9.127297	0.117935	3.772757	0.384366	-0.645560	-0.659936	0.009502	-0.712046	0.702068	-0.923132	-0.276122	-0.267552
746	378376													9.050171	0.094392	3.761722	0.381066	-0.646455	-0.660973	0.009352	-0.712183	0.701931	-0.924501	-0.273663	-0.265343
747	378543													9.018745	0.101828	3.733279	0.377611	-0.647468	-0.661963	0.009178	-0.712239	0.701877	-0.925919	-0.271112	-0.263006
748	378709													9.094664	0.054239	3.714985	0.373986	-0.648570	-0.662941	0.008952	-0.712255	0.701864	-0.927391	-0.268422	-0.260567
749	378876													9.195614	0.048539	3.649441	0.370619	-0.649386	-0.664033	0.008795	-0.712462	0.701655	-0.928743	-0.265887	-0.258340
750	379043													9.176099	0.054985	3.585285	0.367654	-0.649937	-0.665141	0.008632	-0.712818	0.701296	-0.929923	-0.263576	-0.256460
751	379209													9.149697	0.119790	3.541816	0.365052	-0.650340	-0.666179	0.008491	-0.713207	0.700902	-0.930948	-0.261522	-0.254836
752	379376													9.215775	0.103742	3.532415	0.362628	-0.650809	-0.667045	0.008406	-0.713451	0.700655	-0.931896	-0.259684	-0.253247
753	379543													9.287902	0.070922	3.558489	0.360316	-0.651264	-0.667853	0.008257	-0.713688	0.700415	-0.932794	-0.257885	-0.251776
754	379709													9.251226	0.020206	3.528979	0.358195	-0.651540	-0.668724	0.007975	-0.714088	0.700010	-0.933613	-0.256074	-0.250587
755	379876													9.191794	0.045819	3.507867	0.356180	-0.651556	-0.669784	0.007807	-0.714694	0.699394	-0.934385	-0.254339	-0.249473
756	380043													9.165278	0.091436	3.437343	0.354237	-0.651434	-0.670932	0.007702	-0.715398	0.698675	-0.935124	-0.252664	-0.248403
757	380209													9.196335	0.100125	3.393256	0.352149	-0.651274	-0.672185	0.007575	-0.716183	0.697872	-0.935913	-0.250847	-0.247269
758	380376													9.232293	0.091607	3.383375	0.350171	-0.651283	-0.673209	0.007360	-0.716779	0.697262	-0.936657	-0.249115	-0.246202
759	380543													9.244525	0.052873	3.397288	0.348325	-0.651379	-0.674073	0.007056	-0.717266	0.696764	-0.937347	-0.247457	-0.245246
760	380710													9.191922	0.075050	3.377636	0.346383	-0.651572	-0.674887	0.006765	-0.717671	0.696350	-0.938069	-0.245769	-0.244181
761	380876													9.264429	0.046480	3.293601	0.344686	-0.651630	-0.675699	0.006547	-0.718124	0.695884	-0.938695	-0.244286	-0.243261
762	381043													9.190662	0.064615	3.319458	0.342915	-0.651910	-0.676330	0.006291	-0.718376	0.695627	-0.939346	-0.242795	-0.242240
763	381210													9.210886	0.065603	3.369924	0.340867	-0.652541	-0.676757	0.005902	-0.718369	0.695637	-0.940093	-0.241114	-0.241017
764	381376													9.296278	0.047887	3.336586	0.338539	-0.653267	-0.677225	0.005451	-0.718349	0.695662	-0.940936	-0.239200	-0.239629
765	381543													9.279435	0.053823	3.344049	0.336349	-0.653988	-0.677620	0.005035	-0.718283	0.695733	-0.941724	-0.237421	-0.238301
766	381710													9.256025	0.049032	3.345306	0.334381	-0.654510	-0.678090	0.004749	-0.718327	0.695690	-0.942426	-0.235845	-0.237087
767	381876													9.130076	0.044013	3.313786	0.332349	-0.655085	-0.678533	0.004473	-0.718325	0.695693	-0.943146	-0.234248	-0.235805
768	382043													9.137325	0.033968	3.279054	0.330028	-0.655694	-0.679078	0.004190	-0.718359	0.695660	-0.943962	-0.232432	-0.234331
769	382210													9.318801	0.018688	3.191869	0.327729	-0.656100	-0.679799	0.004027	-0.718561	0.695452	-0.944763	-0.230657	-0.232851
770	382376													9.379066	0.015916	3.264419	0.325643	-0.656220	-0.680685	0.003898	-0.718988	0.695012	-0.945485	-0.228979	-0.231575
771	382543													9.297835	0.027100	3.276952	0.323650	-0.656289	-0.681568	0.003666	-0.719464	0.694520	-0.946170	-0.227280	-0.230449
772	382710													9.232841	0.030025	3.261898	0.321624	-0.656439	-0.682382	0.003362	-0.719877	0.694093	-0.946861	-0.225532	-0.229323
773	382876													9.219282	0.024045	3.258458	0.319204	-0.657037	-0.682943	0.002953	-0.719949	0.694021	-0.947682	-0.223551	-0.227870
774	383043													9.328015	0.055450	3.161587	0.316586	-0.657868	-0.683362	0.002551	-0.719824	0.694152	-0.948560	-0.221502	-0.226208
775	383210													9.411470	0.032640	3.094117	0.314397	-0.658398	-0.683862	0.002260	-0.719870	0.694105	-0.949289	-0.219770	-0.224837
776	383376													9.363923	0.053170	3.110959	0.312536	-0.658687	-0.684436	0.002051	-0.720061	0.693908	-0.949904	-0.218275	-0.223694
777	383543													9.279890	0.064749	3.103410	0.310764	-0.658860	-0.685076	0.001850	-0.720342	0.693617	-0.950485	-0.216819	-0.222637
778	383710													9.282502	0.060382	3.088695	0.308759	-0.659152	-0.685701	0.001617	-0.720561	0.693390	-0.951139	-0.215199	-0.221414
779	383876													9.358015	0.061897	3.018228	0.306707	-0.659478	-0.686309	0.001407	-0.720746	0.693198	-0.951803	-0.213575	-0.220129
780	384043													9.436131	0.052546	2.979825	0.304847	-0.659760	-0.686866	0.001199	-0.720928	0.693009	-0.952400	-0.212085	-0.218982
781	384210													9.398942	0.052238	2.966231	0.303201	-0.659846	-0.687512	0.001006	-0.721252	0.692672	-0.952926	-0.210711	-0.218020
782	384376													9.354321	0.007402	2.935881	0.301553	-0.659809	-0.688272	0.000858	-0.721688	0.692218	-0.953449	-0.209331	-0.217061
783	384543													9.319225	-0.006515	2.950602	0.299800	-0.659971	-0.688882	0.000723	-0.721940	0.691956	-0.954002	-0.207946	-0.215960
784	384710													9.381741	-0.004143	2.907721	0.297824	-0.660544	-0.689190	0.000505	-0.721842	0.692057	-0.954621	-0.206459	-0.214648
785	384876													9.475644	0.001748	2.837270	0.296046	-0.660878	-0.689635	0.000302	-0.721935	0.691961	-0.955174	-0.205061	-0.213526
786	385043													9.447016	-0.011926	2.891710	0.294485	-0.660793	-0.690385	0.000114	-0.722395	0.691480	-0.955656	-0.203709	-0.212659
787	385210													9.367376	-0.035266	2.909513	0.292956	-0.660450	-0.691362	0.000037	-0.723079	0.690765	-0.956126	-0.202389	-0.211806
788	385376													9.384322	-0.017168	2.906979	0.291591	-0.660189	-0.692189	-0.000083	-0.723653	0.690164	-0.956543	-0.201188	-0.211066
789	385543													9.405326	-0.007975	2.910964	0.290179	-0.660158	-0.692812	-0.000218	-0.724008	0.689792	-0.956972	-0.200012	-0.210236
790	385710													9.367281	0.017204	2.828708	0.288721	-0.660309	-0.693276	-0.000425	-0.724202	0.689587	-0.957413	-0.198804	-0.209373
791	385876													9.417833	0.025796	2.801494	0.287355	-0.660315	-0.693837	-0.000669	-0.724527	0.689246	-0.957824	-0.197595	-0.208638
792	386043													9.431756	0.000017	2.840918	0.286130	-0.660155	-0.694497	-0.000915	-0.724988	0.688761	-0.958190	-0.196440	-0.208044
793	386210													9.416690	-0.025171	2.855994	0.285052	-0.660058	-0.695032	-0.001166	-0.725354	0.688376	-0.958511	-0.195413	-0.207533
794	386376													9.369349	0.013045	2.820138	0.283993	-0.659989	-0.695531	-0.001512	-0.725705	0.688004	-0.958825	-0.194336	-0.207093
795	386543													9.388399	0.016906	2.798915	0.283031	-0.659999	-0.695913	-0.001854	-0.725956	0.687739	-0.959109	-0.193361	-0.206692
796	386710													9.455053	0.029403	2.747039	0.282171	-0.660013	-0.696249	-0.002063	-0.726156	0.687527	-0.959362	-0.192564	-0.206262
797	386876													9.466911	0.005080	2.806386	0.281141	-0.660065	-0.696616	-0.002194	-0.726334	0.687338	-0.959664	-0.191710	-0.205650
798	387043													9.456826	-0.037896	2.807465	0.280159	-0.660130	-0.696950	-0.002462	-0.726516	0.687145	-0.959950	-0.190794	-0.205165
799	387210													9.417871	-0.041133	2.824833	0.279260	-0.660163	-0.697280	-0.002785	-0.726724	0.686924	-0.960212	-0.189888	-0.204783
800	387376													9.323833	-0.004446	2.801316	0.278149	-0.660338	-0.697557	-0.003097	-0.726828	0.686813	-0.960533	-0.188876	-0.204212
801	387543													9.374769	0.009572	2.757436	0.276851	-0.660517	-0.697904	-0.003351	-0.726952	0.686680	-0.960907	-0.187769	-0.203471
802	387710													9.449734	-0.009512	2.694789	0.275417	-0.660639	-0.698357	-0.003535	-0.727143	0.686477	-0.961318	-0.186599	-0.202603
803	387876													9.492751	-0.055555	2.696934	0.274162	-0.660711	-0.698782	-0.003681	-0.727339	0.686268	-0.961676	-0.185577	-0.201841
804	388043													9.465607	-0.051912	2.709357	0.273042	-0.660767	-0.699167	-0.003819	-0.727522	0.686074	-0.961994	-0.184657	-0.201167
805	388210													9.392017	-0.032182	2.694640	0.271845	-0.660871	-0.699535	-0.003982	-0.727676	0.685909	-0.962333	-0.183676	-0.200447
806	388376													9.439709	-0.026466	2.611232	0.270412	-0.660944	-0.700022	-0.004167	-0.727907	0.685663	-0.962736	-0.182494	-0.199589
807	388543													9.531557	-0.052163	2.619674	0.269165	-0.660958	-0.700489	-0.004338	-0.728157	0.685397	-0.963084	-0.181446	-0.198861
808	388710													9.498381	-0.075666	2.640818	0.267982	-0.660941	-0.700959	-0.004485	-0.728418	0.685118	-0.963414	-0.180456	-0.198167
809	388876													9.436508	-0.059440	2.654094	0.266760	-0.661077	-0.701296	-0.004667	-0.728542	0.684985	-0.963752	-0.179454	-0.197431
810	389043													9.437366	-0.045660	2.650360	0.265599	-0.661211	-0.701610	-0.004838	-0.728653	0.684866	-0.964072	-0.178505	-0.196728
811	389210													9.433551	-0.033430	2.617499	0.264287	-0.661297	-0.702024	-0.005053	-0.728845	0.684660	-0.964431	-0.177399	-0.195966
812	389376													9.468096	-0.056640	2.629549	0.263131	-0.661303	-0.702453	-0.005283	-0.729089	0.684399	-0.964746	-0.176376	-0.195340
813	389543													9.523169	-0.053076	2.645746	0.262036	-0.661314	-0.702852	-0.005379	-0.729290	0.684184	-0.965043	-0.175500	-0.194657
814	389710													9.501377	-0.043609	2.586937	0.261160	-0.661266	-0.703223	-0.005506	-0.729514	0.683943	-0.965280	-0.174747	-0.194162
815	389876													9.501064	-0.061006	2.617059	0.260530	-0.661196	-0.703522	-0.005755	-0.729738	0.683703	-0.965449	-0.174076	-0.193924
816	390043													9.508212	-0.057343	2.591805	0.259956	-0.661132	-0.703795	-0.006005	-0.729946	0.683479	-0.965602	-0.173448	-0.193724
817	390210													9.481035	-0.042318	2.586975	0.259380	-0.661094	-0.704043	-0.006311	-0.730137	0.683272	-0.965755	-0.172784	-0.193555
818	390376													9.462761	-0.044163	2.536913	0.258869	-0.661070	-0.704254	-0.006547	-0.730292	0.683104	-0.965890	-0.172223	-0.193378
819	390543													9.473136	-0.052886	2.529930	0.258249	-0.661056	-0.704494	-0.006658	-0.730431	0.682954	-0.966055	-0.171682	-0.193035
820	390710													9.509750	-0.067743	2.544068	0.257613	-0.661030	-0.704752	-0.006772	-0.730587	0.682786	-0.966224	-0.171122	-0.192686
821	390876													9.518723	-0.050567	2.493580	0.257057	-0.660947	-0.705033	-0.006911	-0.730787	0.682571	-0.966371	-0.170587	-0.192422
822	391043													9.533140	-0.041229	2.494763	0.256744	-0.660758	-0.705323	-0.006975	-0.731034	0.682305	-0.966454	-0.170258	-0.192298
823	391210													9.519276	-0.031701	2.485201	0.256665	-0.660601	-0.705499	-0.007041	-0.731211	0.682115	-0.966475	-0.170108	-0.192328
824	391376													9.530840	-0.037254	2.497205	0.256684	-0.660480	-0.705606	-0.007112	-0.731337	0.681979	-0.966469	-0.170034	-0.192420
825	391543													9.516127	-0.067887	2.512751	0.256710	-0.660375	-0.705695	-0.007225	-0.731454	0.681852	-0.966462	-0.169940	-0.192542
826	391710													9.511661	-0.077873	2.534743	0.256727	-0.660315	-0.705744	-0.007310	-0.731524	0.681777	-0.966456	-0.169872	-0.192629
827	391876													9.498322	-0.079308	2.553263	0.256763	-0.660245	-0.705796	-0.007407	-0.731602	0.681691	-0.966446	-0.169805	-0.192739
828	392043													9.499272	-0.100030	2.496609	0.256728	-0.660194	-0.705857	-0.007466	-0.731668	0.681620	-0.966455	-0.169722	-0.192769
829	392210													9.491040	-0.099781	2.487394	0.256589	-0.660202	-0.705900	-0.007530	-0.731695	0.681590	-0.966491	-0.169573	-0.192716
830	392376													9.493812	-0.096422	2.502851	0.256338	-0.660201	-0.705993	-0.007571	-0.731747	0.681535	-0.966558	-0.169358	-0.192573
831	392543													9.512047	-0.100783	2.513247	0.256031	-0.660142	-0.706159	-0.007572	-0.731855	0.681419	-0.966639	-0.169118	-0.192376
832	392710													9.523846	-0.078949	2.497822	0.255845	-0.660091	-0.706275	-0.007603	-0.731942	0.681325	-0.966688	-0.168944	-0.192282
833	392876													9.517701	-0.065684	2.495936	0.255819	-0.660028	-0.706343	-0.007696	-0.732023	0.681237	-0.966694	-0.168838	-0.192345
834	393043													9.490135	-0.052127	2.509443	0.255904	-0.660041	-0.706300	-0.007805	-0.732015	0.681244	-0.966671	-0.168820	-0.192477
835	393210													9.483804	-0.049541	2.486276	0.256043	-0.660062	-0.706229	-0.007920	-0.731991	0.681269	-0.966633	-0.168840	-0.192649
836	393376													9.517215	-0.062959	2.500827	0.256220	-0.660049	-0.706177	-0.008010	-0.731990	0.681269	-0.966585	-0.168898	-0.192838
837	393543													9.507144	-0.091446	2.519989	0.256376	-0.660055	-0.706115	-0.008131	-0.731978	0.681280	-0.966543	-0.168923	-0.193029
838	393710													9.480092	-0.094633	2.526796	0.256557	-0.660082	-0.706024	-0.008289	-0.731950	0.681308	-0.966494	-0.168942	-0.193258
839	393876													9.485679	-0.068614	2.493359	0.256801	-0.660089	-0.705929	-0.008443	-0.731929	0.681329	-0.966427	-0.169006	-0.193533
840	394043													9.545787	-0.046179	2.521297	0.257155	-0.660106	-0.705784	-0.008468	-0.731857	0.681406	-0.966333	-0.169250	-0.193790
841	394210													9.532469	-0.051153	2.523050	0.257597	-0.660114	-0.705615	-0.008451	-0.731771	0.681498	-0.966216	-0.169589	-0.194080
842	394376													9.494221	-0.074757	2.583470	0.258076	-0.660071	-0.705480	-0.008534	-0.731746	0.681524	-0.966087	-0.169864	-0.194480
843	394543													9.466100	-0.093578	2.608213	0.258529	-0.660042	-0.705342	-0.008650	-0.731717	0.681553	-0.965965	-0.170100	-0.194879
844	394710													9.436275	-0.078744	2.624205	0.258932	-0.660056	-0.705181	-0.008695	-0.731643	0.681633	-0.965856	-0.170365	-0.195185
845	394876													9.447642	-0.062941	2.585601	0.259178	-0.660174	-0.704980	-0.008718	-0.731491	0.681795	-0.965790	-0.170560	-0.195341
846	395043													9.468871	-0.075590	2.571576	0.259423	-0.660271	-0.704799	-0.008771	-0.731365	0.681930	-0.965724	-0.170727	-0.195524
847	395210													9.468646	-0.081960	2.544982	0.259680	-0.660307	-0.704671	-0.008839	-0.731298	0.682001	-0.965654	-0.170873	-0.195740
848	395376													9.494816	-0.097663	2.545722	0.260068	-0.660311	-0.704524	-0.008884	-0.731235	0.682067	-0.965549	-0.171125	-0.196037
849	395543													9.497631	-0.093479	2.544219	0.260539	-0.660322	-0.704340	-0.008894	-0.731146	0.682163	-0.965422	-0.171466	-0.196364
850	395710													9.484263	-0.099144	2.581485	0.261036	-0.660340	-0.704138	-0.008897	-0.731043	0.682273	-0.965288	-0.171833	-0.196704
851	395876													9.485137	-0.091527	2.596053	0.261416	-0.660441	-0.703903	-0.008964	-0.730892	0.682434	-0.965185	-0.172089	-0.196987
852	396043													9.508877	-0.104324	2.544326	0.261781	-0.660478	-0.703733	-0.009022	-0.730804	0.682528	-0.965085	-0.172324	-0.197270
853	396210													9.497129	-0.102784	2.595740	0.262163	-0.660526	-0.703545	-0.009041	-0.730693	0.682646	-0.964981	-0.172604	-0.197533
854	396376													9.497128	-0.110386	2.608346	0.262549	-0.660572	-0.703359	-0.009036	-0.730582	0.682766	-0.964876	-0.172904	-0.197783
855	396543													9.455864	-0.116330	2.619724	0.262860	-0.660641	-0.703177	-0.009051	-0.730462	0.682893	-0.964791	-0.173141	-0.197989
856	396710													9.453398	-0.103496	2.592368	0.263177	-0.660726	-0.702979	-0.009090	-0.730332	0.683032	-0.964705	-0.173368	-0.198212
857	396876													9.477718	-0.093058	2.575893	0.263542	-0.660803	-0.702769	-0.008954	-0.730168	0.683209	-0.964606	-0.173762	-0.198347
858	397043													9.480862	-0.082418	2.578270	0.263952	-0.660843	-0.702578	-0.008835	-0.730036	0.683351	-0.964495	-0.174165	-0.198533
859	397210													9.476243	-0.101207	2.611646	0.264479	-0.660885	-0.702340	-0.008828	-0.729901	0.683495	-0.964351	-0.174570	-0.198877
860	397377													9.492453	-0.099586	2.620976	0.265006	-0.660969	-0.702063	-0.008780	-0.729718	0.683692	-0.964207	-0.175019	-0.199183
861	397543													9.468647	-0.097322	2.654868	0.265524	-0.661131	-0.701714	-0.008659	-0.729446	0.683983	-0.964065	-0.175538	-0.199410
862	397710													9.446622	-0.080916	2.636572	0.266060	-0.661337	-0.701317	-0.008466	-0.729116	0.684338	-0.963919	-0.176138	-0.199587
863	397877													9.422589	-0.083689	2.654466	0.266556	-0.661540	-0.700937	-0.008242	-0.728787	0.684690	-0.963784	-0.176731	-0.199715
