// Start Time: Unknown
// Update Rate: 60.0Hz
//Filter Profile: human (46.1)
// Option Flags: AHS Disabled ICC Disabled
// Firmware Version: 4.0.2
0	sampleTimeFine	Year	Month	Day	Second	UTC_Nano	UTC_Year	UTC_Month	UTC_Day	UTC_Hour	UTC_Minute	UTC_Second	UTC_Valid	Acc_X	Acc_Y	Acc_Z	Mat[1][1]	Mat[2][1]	Mat[3][1]	Mat[1][2]	Mat[2][2]	Mat[3][2]	Mat[1][3]	Mat[2][3]	Mat[3][3]
0	1552647													-0.457116	-0.179037	-0.305243	0.061716	-0.870276	0.488683	-0.039054	0.487136	0.872453	-0.997329	-0.072929	-0.003924
1	1552814													9.862098	-0.335992	0.629242	0.062407	-0.869511	0.489955	-0.038299	0.488464	0.871743	-0.997316	-0.073168	-0.002818
2	1552980													9.749806	-0.291292	0.700852	0.063123	-0.869147	0.490509	-0.037510	0.489076	0.871434	-0.997301	-0.073407	-0.001730
3	1553147													9.751237	-0.217714	0.748323	0.064486	-0.869155	0.490317	-0.036532	0.488954	0.871544	-0.997250	-0.074114	-0.000222
4	1553314													9.803574	-0.261605	0.767378	0.065988	-0.869184	0.490066	-0.035142	0.488808	0.871684	-0.997201	-0.074742	0.001711
5	1553480													9.870374	-0.336743	0.787230	0.067411	-0.868631	0.490852	-0.034287	0.489663	0.871237	-0.997136	-0.075561	0.003226
6	1553647													9.897602	-0.420241	0.778899	0.068798	-0.868177	0.491463	-0.034275	0.490282	0.870889	-0.997042	-0.076760	0.003974
7	1553814													9.870657	-0.446454	0.795295	0.070066	-0.867932	0.491716	-0.034992	0.490486	0.870746	-0.996928	-0.078216	0.003996
8	1553980													9.799143	-0.470047	0.774334	0.071152	-0.867249	0.492764	-0.035996	0.491461	0.870155	-0.996816	-0.079651	0.003751
9	1554147													9.711221	-0.519507	0.715798	0.071826	-0.866664	0.493695	-0.036937	0.492323	0.869628	-0.996733	-0.080698	0.003349
10	1554314													9.731709	-0.558579	0.702636	0.071970	-0.866277	0.494352	-0.037751	0.492916	0.869257	-0.996692	-0.081223	0.002772
11	1554481													9.776883	-0.557376	0.684967	0.071753	-0.866013	0.494847	-0.038558	0.493347	0.868978	-0.996677	-0.081432	0.002007
12	1554647													9.815294	-0.544359	0.653752	0.071385	-0.865860	0.495167	-0.039444	0.493594	0.868797	-0.996669	-0.081551	0.001083
13	1554814													9.829422	-0.496729	0.635686	0.070944	-0.865929	0.495110	-0.040344	0.493463	0.868830	-0.996664	-0.081613	0.000073
14	1554981													9.844184	-0.429955	0.615217	0.070488	-0.865916	0.495198	-0.041222	0.493480	0.868780	-0.996660	-0.081652	-0.000910
15	1555147													9.828247	-0.410415	0.585624	0.070060	-0.865992	0.495125	-0.042088	0.493337	0.868819	-0.996654	-0.081709	-0.001885
16	1555314													9.829147	-0.390622	0.558578	0.069621	-0.866149	0.494913	-0.042950	0.493054	0.868938	-0.996649	-0.081752	-0.002874
17	1555481													9.779991	-0.387224	0.537914	0.069150	-0.866269	0.494770	-0.043895	0.492835	0.869015	-0.996640	-0.081810	-0.003946
18	1555647													9.820327	-0.396486	0.555387	0.068596	-0.866409	0.494600	-0.044904	0.492584	0.869106	-0.996633	-0.081827	-0.005115
19	1555814													9.868515	-0.389182	0.551602	0.068191	-0.866465	0.494559	-0.046000	0.492455	0.869121	-0.996611	-0.082016	-0.006277
20	1555981													9.919068	-0.375073	0.552607	0.068015	-0.866513	0.494500	-0.047071	0.492308	0.869147	-0.996573	-0.082392	-0.007303
21	1556147													9.893417	-0.408626	0.563295	0.067998	-0.866451	0.494610	-0.048091	0.492334	0.869077	-0.996526	-0.082882	-0.008191
22	1556314													9.867914	-0.466318	0.548042	0.068099	-0.866242	0.494962	-0.049164	0.492597	0.868868	-0.996466	-0.083504	-0.009043
23	1556481													9.840570	-0.515287	0.562819	0.068178	-0.866120	0.495165	-0.050268	0.492707	0.868742	-0.996406	-0.084120	-0.009946
24	1556647													9.838396	-0.553644	0.578493	0.068228	-0.865929	0.495492	-0.051441	0.492935	0.868544	-0.996343	-0.084747	-0.010912
25	1556814													9.830928	-0.597537	0.565940	0.068250	-0.865996	0.495372	-0.052599	0.492716	0.868599	-0.996281	-0.085338	-0.011923
26	1556981													9.779528	-0.631731	0.613633	0.068220	-0.865923	0.495503	-0.053719	0.492751	0.868511	-0.996223	-0.085868	-0.012901
27	1557147													9.768511	-0.650159	0.616245	0.068107	-0.865884	0.495587	-0.054791	0.492745	0.868447	-0.996172	-0.086301	-0.013883
28	1557314													9.798723	-0.665183	0.649050	0.067953	-0.865930	0.495528	-0.055843	0.492596	0.868464	-0.996124	-0.086686	-0.014883
29	1557481													9.761749	-0.684024	0.613720	0.067771	-0.866077	0.495296	-0.056775	0.492285	0.868581	-0.996084	-0.086985	-0.015808
30	1557647													9.766097	-0.680760	0.596882	0.067482	-0.866278	0.494983	-0.057602	0.491904	0.868742	-0.996056	-0.087136	-0.016704
31	1557814													9.783578	-0.670411	0.612547	0.067177	-0.866437	0.494747	-0.058340	0.491608	0.868860	-0.996034	-0.087231	-0.017523
32	1557981													9.820291	-0.658188	0.592637	0.066902	-0.866686	0.494348	-0.058994	0.491156	0.869072	-0.996014	-0.087306	-0.018270
33	1558147													9.827557	-0.605790	0.613003	0.066755	-0.866830	0.494115	-0.059563	0.490874	0.869192	-0.995990	-0.087454	-0.018862
34	1558314													9.845840	-0.613473	0.594542	0.066657	-0.866945	0.493927	-0.059975	0.490652	0.869289	-0.995972	-0.087567	-0.019290
35	1558481													9.830259	-0.579723	0.606153	0.066749	-0.866960	0.493888	-0.060283	0.490583	0.869307	-0.995947	-0.087798	-0.019517
36	1558647													9.828872	-0.599714	0.628823	0.066900	-0.866838	0.494080	-0.060485	0.490756	0.869195	-0.995925	-0.088034	-0.019599
37	1558814													9.856979	-0.581146	0.623680	0.067070	-0.866647	0.494393	-0.060623	0.491053	0.869018	-0.995905	-0.088256	-0.019604
38	1558981													9.871449	-0.560615	0.664945	0.067368	-0.866373	0.494834	-0.060603	0.491491	0.868771	-0.995886	-0.088516	-0.019394
39	1559147													9.870711	-0.564525	0.708947	0.067845	-0.866003	0.495415	-0.060424	0.492081	0.868450	-0.995864	-0.088855	-0.018942
40	1559314													9.817568	-0.593762	0.711350	0.068434	-0.865525	0.496168	-0.060255	0.492840	0.868031	-0.995834	-0.089299	-0.018426
41	1559481													9.771878	-0.579725	0.728367	0.069034	-0.865015	0.496975	-0.060157	0.493647	0.867579	-0.995799	-0.089789	-0.017958
42	1559647													9.765761	-0.592344	0.740420	0.069579	-0.864577	0.497661	-0.060068	0.494333	0.867194	-0.995766	-0.090232	-0.017538
43	1559814													9.795597	-0.621085	0.762734	0.070041	-0.864190	0.498267	-0.059983	0.494941	0.866854	-0.995739	-0.090603	-0.017171
44	1559981													9.800223	-0.603006	0.762344	0.070500	-0.863962	0.498597	-0.059860	0.495275	0.866671	-0.995714	-0.090946	-0.016800
45	1560147													9.786180	-0.593492	0.771075	0.070909	-0.863779	0.498857	-0.059814	0.495534	0.866527	-0.995688	-0.091284	-0.016528
46	1560314													9.776576	-0.591093	0.753609	0.071254	-0.863577	0.499157	-0.059888	0.495822	0.866356	-0.995659	-0.091625	-0.016389
47	1560481													9.752324	-0.591709	0.776571	0.071508	-0.863467	0.499311	-0.060111	0.495952	0.866267	-0.995627	-0.091959	-0.016440
48	1560647													9.774938	-0.608464	0.770266	0.071649	-0.863482	0.499265	-0.060431	0.495874	0.866289	-0.995598	-0.092239	-0.016652
49	1560814													9.811533	-0.612601	0.776550	0.071751	-0.863553	0.499127	-0.060716	0.495708	0.866365	-0.995573	-0.092468	-0.016864
50	1560981													9.800572	-0.606161	0.769711	0.071804	-0.863658	0.498938	-0.060888	0.495500	0.866471	-0.995559	-0.092596	-0.017008
51	1561147													9.801560	-0.571615	0.765956	0.071805	-0.863790	0.498709	-0.060994	0.495261	0.866600	-0.995552	-0.092645	-0.017123
52	1561314													9.766496	-0.562175	0.741981	0.071731	-0.863956	0.498432	-0.061094	0.494975	0.866757	-0.995551	-0.092624	-0.017277
53	1561481													9.727919	-0.529539	0.719161	0.071466	-0.864044	0.498318	-0.061227	0.494853	0.866817	-0.995562	-0.092458	-0.017538
54	1561647													9.788335	-0.513462	0.669485	0.070997	-0.864152	0.498197	-0.061201	0.494742	0.866882	-0.995597	-0.092036	-0.017762
55	1561814													9.835587	-0.524521	0.660024	0.070571	-0.864152	0.498259	-0.061113	0.494820	0.866844	-0.995633	-0.091624	-0.017890
56	1561981													9.836396	-0.505604	0.631728	0.070311	-0.864136	0.498322	-0.061021	0.494896	0.866807	-0.995657	-0.091355	-0.017934
57	1562147													9.832929	-0.493624	0.622132	0.070199	-0.864154	0.498307	-0.060980	0.494888	0.866815	-0.995667	-0.091236	-0.017956
58	1562314													9.832549	-0.499267	0.613087	0.070223	-0.864178	0.498262	-0.061035	0.494837	0.866840	-0.995662	-0.091283	-0.017996
59	1562481													9.829142	-0.498756	0.630557	0.070312	-0.864098	0.498388	-0.061147	0.494952	0.866766	-0.995649	-0.091419	-0.018036
60	1562647													9.785669	-0.512077	0.632241	0.070431	-0.863984	0.498569	-0.061246	0.495122	0.866662	-0.995635	-0.091575	-0.018043
61	1562814													9.811557	-0.563961	0.613463	0.070474	-0.863801	0.498881	-0.061352	0.495424	0.866482	-0.995625	-0.091671	-0.018081
62	1562981													9.798946	-0.593829	0.613277	0.070526	-0.863778	0.498913	-0.061426	0.495448	0.866463	-0.995617	-0.091755	-0.018116
63	1563147													9.810123	-0.571313	0.625178	0.070573	-0.863748	0.498957	-0.061436	0.495491	0.866438	-0.995613	-0.091801	-0.018097
64	1563314													9.833891	-0.552631	0.636712	0.070632	-0.863768	0.498915	-0.061361	0.495455	0.866464	-0.995613	-0.091814	-0.018007
65	1563481													9.878239	-0.521268	0.650961	0.070798	-0.863768	0.498892	-0.061236	0.495440	0.866481	-0.995609	-0.091895	-0.017817
66	1563647													9.837090	-0.476761	0.678470	0.071074	-0.863777	0.498836	-0.061089	0.495393	0.866518	-0.995599	-0.092061	-0.017558
67	1563814													9.819329	-0.479938	0.664117	0.071352	-0.863694	0.498940	-0.060998	0.495501	0.866463	-0.995584	-0.092258	-0.017329
68	1563981													9.824071	-0.487280	0.650551	0.071540	-0.863632	0.499020	-0.060970	0.495580	0.866420	-0.995573	-0.092409	-0.017202
69	1564147													9.807798	-0.478128	0.679165	0.071657	-0.863505	0.499223	-0.060932	0.495785	0.866305	-0.995566	-0.092495	-0.017089
70	1564314													9.827168	-0.514395	0.680288	0.071705	-0.863376	0.499439	-0.060864	0.496008	0.866182	-0.995567	-0.092507	-0.016982
71	1564481													9.835042	-0.506784	0.689110	0.071774	-0.863166	0.499793	-0.060838	0.496364	0.865980	-0.995564	-0.092561	-0.016887
72	1564647													9.834721	-0.530247	0.703919	0.071913	-0.863012	0.500039	-0.060876	0.496605	0.865839	-0.995551	-0.092705	-0.016824
73	1564814													9.820242	-0.535235	0.700323	0.072102	-0.862917	0.500175	-0.060996	0.496727	0.865761	-0.995530	-0.092932	-0.016819
74	1564981													9.824850	-0.506775	0.721155	0.072323	-0.862729	0.500468	-0.061147	0.497003	0.865592	-0.995505	-0.093204	-0.016808
75	1565147													9.817068	-0.525344	0.735465	0.072591	-0.862677	0.500519	-0.061373	0.497028	0.865561	-0.995472	-0.093550	-0.016866
76	1565314													9.821561	-0.538009	0.759425	0.072872	-0.862650	0.500524	-0.061667	0.497001	0.865556	-0.995433	-0.093940	-0.016980
77	1565481													9.810010	-0.548430	0.778674	0.073119	-0.862710	0.500385	-0.062022	0.496824	0.865632	-0.995393	-0.094329	-0.017180
78	1565647													9.799150	-0.576691	0.758928	0.073351	-0.862630	0.500489	-0.062400	0.496888	0.865568	-0.995352	-0.094721	-0.017380
79	1565814													9.773992	-0.592566	0.761149	0.073505	-0.862767	0.500231	-0.062780	0.496590	0.865712	-0.995317	-0.095038	-0.017663
80	1565981													9.769004	-0.585793	0.783898	0.073521	-0.862891	0.500014	-0.063143	0.496337	0.865830	-0.995293	-0.095229	-0.017994
81	1566147													9.790869	-0.592571	0.801128	0.073479	-0.863058	0.499731	-0.063466	0.496023	0.865987	-0.995275	-0.095348	-0.018328
82	1566314													9.789938	-0.591814	0.782049	0.073403	-0.863249	0.499413	-0.063757	0.495678	0.866163	-0.995262	-0.095420	-0.018654
83	1566481													9.800999	-0.579422	0.795534	0.073261	-0.863534	0.498941	-0.063993	0.495184	0.866428	-0.995258	-0.095404	-0.018983
84	1566647													9.764053	-0.547634	0.756692	0.073015	-0.863807	0.498504	-0.064175	0.494733	0.866672	-0.995264	-0.095272	-0.019312
85	1566814													9.762189	-0.537157	0.746099	0.072629	-0.864090	0.498069	-0.064309	0.494291	0.866914	-0.995284	-0.094994	-0.019669
86	1566981													9.811291	-0.547119	0.739852	0.072194	-0.864463	0.497486	-0.064407	0.493706	0.867241	-0.995309	-0.094651	-0.020035
87	1567147													9.839612	-0.535422	0.754645	0.071793	-0.864671	0.497182	-0.064479	0.493403	0.867408	-0.995333	-0.094331	-0.020330
88	1567314													9.842181	-0.542098	0.753092	0.071488	-0.864791	0.497017	-0.064459	0.493245	0.867499	-0.995357	-0.094052	-0.020482
89	1567481													9.810650	-0.543203	0.742965	0.071276	-0.864865	0.496919	-0.064368	0.493159	0.867554	-0.995378	-0.093822	-0.020519
90	1567647													9.789588	-0.532554	0.744791	0.071024	-0.864856	0.496970	-0.064247	0.493227	0.867525	-0.995403	-0.093544	-0.020533
91	1567814													9.785978	-0.538740	0.729415	0.070696	-0.864834	0.497055	-0.064042	0.493339	0.867476	-0.995440	-0.093159	-0.020508
92	1567981													9.813549	-0.543465	0.696679	0.070324	-0.864784	0.497195	-0.063803	0.493509	0.867397	-0.995482	-0.092722	-0.020470
93	1568147													9.775471	-0.507092	0.676389	0.069926	-0.864809	0.497208	-0.063533	0.493555	0.867391	-0.995527	-0.092242	-0.020432
94	1568314													9.754939	-0.524196	0.679503	0.069371	-0.864819	0.497269	-0.063312	0.493648	0.867354	-0.995580	-0.091653	-0.020508
95	1568481													9.808584	-0.496131	0.654845	0.068704	-0.864851	0.497306	-0.063087	0.493720	0.867330	-0.995640	-0.090963	-0.020640
96	1568647													9.902133	-0.453403	0.669482	0.068121	-0.864869	0.497354	-0.062749	0.493811	0.867302	-0.995702	-0.090290	-0.020631
97	1568814													9.895852	-0.486879	0.682309	0.067765	-0.864790	0.497539	-0.062404	0.494035	0.867199	-0.995748	-0.089814	-0.020488
98	1568981													9.828609	-0.495481	0.662053	0.067592	-0.864713	0.497697	-0.062219	0.494213	0.867111	-0.995771	-0.089576	-0.020396
99	1569147													9.766427	-0.451197	0.678429	0.067413	-0.864596	0.497925	-0.062077	0.494459	0.866981	-0.995792	-0.089355	-0.020339
100	1569314													9.774566	-0.461410	0.659347	0.067140	-0.864433	0.498245	-0.061900	0.494801	0.866799	-0.995822	-0.089038	-0.020287
101	1569481													9.804373	-0.476861	0.616343	0.066798	-0.864317	0.498493	-0.061726	0.495072	0.866657	-0.995855	-0.088661	-0.020281
102	1569647													9.824638	-0.470859	0.637505	0.066452	-0.864191	0.498756	-0.061562	0.495357	0.866505	-0.995889	-0.088285	-0.020284
103	1569814													9.848281	-0.488626	0.633089	0.066208	-0.864145	0.498869	-0.061491	0.495482	0.866439	-0.995909	-0.088041	-0.020332
104	1569981													9.809619	-0.489304	0.649707	0.066013	-0.864201	0.498797	-0.061527	0.495411	0.866477	-0.995920	-0.087888	-0.020468
105	1570147													9.796362	-0.465676	0.634376	0.065825	-0.864130	0.498945	-0.061591	0.495557	0.866389	-0.995929	-0.087761	-0.020602
106	1570314													9.800217	-0.459598	0.621696	0.065567	-0.864111	0.499012	-0.061615	0.495628	0.866347	-0.995944	-0.087551	-0.020745
107	1570481													9.827744	-0.473445	0.608203	0.065261	-0.864119	0.499038	-0.061675	0.495655	0.866327	-0.995960	-0.087316	-0.020948
108	1570647													9.869654	-0.460977	0.635664	0.065051	-0.864135	0.499038	-0.061723	0.495655	0.866323	-0.995971	-0.087158	-0.021094
109	1570814													9.820444	-0.499224	0.598614	0.064965	-0.864208	0.498923	-0.061810	0.495534	0.866386	-0.995971	-0.087123	-0.021224
110	1570981													9.778829	-0.487688	0.597424	0.064811	-0.864235	0.498896	-0.061987	0.495495	0.866396	-0.995970	-0.087077	-0.021458
111	1571148													9.789859	-0.433551	0.613970	0.064567	-0.864255	0.498894	-0.062062	0.495492	0.866393	-0.995982	-0.086903	-0.021645
112	1571314													9.842539	-0.459080	0.595793	0.064304	-0.864343	0.498775	-0.062022	0.495381	0.866459	-0.996001	-0.086651	-0.021753
113	1571481													9.845903	-0.475096	0.598671	0.064152	-0.864372	0.498744	-0.062072	0.495350	0.866473	-0.996008	-0.086544	-0.021876
114	1571648													9.814190	-0.504245	0.599475	0.064004	-0.864423	0.498675	-0.062205	0.495272	0.866508	-0.996009	-0.086480	-0.022072
115	1571814													9.851753	-0.511153	0.607397	0.063894	-0.864476	0.498597	-0.062374	0.495181	0.866548	-0.996006	-0.086467	-0.022281
116	1571981													9.799074	-0.505689	0.600683	0.063863	-0.864563	0.498451	-0.062503	0.495024	0.866628	-0.995999	-0.086500	-0.022424
117	1572148													9.800757	-0.534291	0.597560	0.063728	-0.864645	0.498326	-0.062533	0.494900	0.866697	-0.996006	-0.086395	-0.022530
118	1572314													9.815269	-0.519973	0.626659	0.063600	-0.864669	0.498300	-0.062504	0.494879	0.866711	-0.996016	-0.086269	-0.022571
119	1572481													9.793592	-0.489976	0.623119	0.063481	-0.864886	0.497938	-0.062397	0.494529	0.866919	-0.996031	-0.086102	-0.022573
120	1572648													9.840314	-0.486884	0.614261	0.063347	-0.864987	0.497779	-0.062279	0.494382	0.867011	-0.996046	-0.085924	-0.022553
121	1572814													9.854983	-0.452387	0.618630	0.063295	-0.865018	0.497733	-0.062169	0.494347	0.867039	-0.996057	-0.085823	-0.022488
122	1572981													9.823323	-0.448038	0.634565	0.063306	-0.865006	0.497751	-0.062033	0.494377	0.867031	-0.996064	-0.085765	-0.022362
123	1573148													9.799788	-0.453059	0.633321	0.063286	-0.864985	0.497792	-0.061907	0.494429	0.867011	-0.996074	-0.085686	-0.022259
124	1573314													9.798937	-0.455870	0.604079	0.063226	-0.864897	0.497951	-0.061785	0.494600	0.866922	-0.996085	-0.085578	-0.022166
125	1573481													9.817522	-0.451031	0.613588	0.063130	-0.864796	0.498138	-0.061724	0.494795	0.866815	-0.996095	-0.085469	-0.022142
126	1573648													9.833033	-0.477188	0.587932	0.063061	-0.864694	0.498325	-0.061692	0.494987	0.866708	-0.996101	-0.085398	-0.022131
127	1573814													9.825208	-0.500919	0.597030	0.063055	-0.864547	0.498580	-0.061669	0.495244	0.866562	-0.996103	-0.085387	-0.022088
128	1573981													9.815595	-0.491078	0.605176	0.063108	-0.864429	0.498778	-0.061639	0.495444	0.866450	-0.996101	-0.085424	-0.022016
129	1574148													9.797874	-0.465704	0.615769	0.063189	-0.864284	0.499019	-0.061634	0.495684	0.866313	-0.996097	-0.085498	-0.021947
130	1574314													9.810839	-0.470604	0.601758	0.063259	-0.864170	0.499208	-0.061670	0.495869	0.866205	-0.996090	-0.085581	-0.021926
131	1574481													9.838675	-0.465951	0.626054	0.063352	-0.864153	0.499225	-0.061722	0.495879	0.866195	-0.996081	-0.085689	-0.021922
132	1574648													9.859172	-0.468891	0.620469	0.063467	-0.864101	0.499300	-0.061853	0.495941	0.866150	-0.996065	-0.085856	-0.021971
133	1574814													9.816605	-0.494988	0.656967	0.063600	-0.864052	0.499370	-0.062031	0.495992	0.866108	-0.996046	-0.086061	-0.022053
134	1574981													9.805366	-0.495213	0.635496	0.063705	-0.864008	0.499432	-0.062212	0.496037	0.866070	-0.996028	-0.086244	-0.022152
135	1575148													9.806695	-0.523042	0.640476	0.063778	-0.864036	0.499374	-0.062328	0.495967	0.866101	-0.996016	-0.086363	-0.022222
136	1575314													9.812215	-0.507936	0.653852	0.063841	-0.863965	0.499489	-0.062394	0.496075	0.866035	-0.996008	-0.086453	-0.022237
137	1575481													9.794713	-0.506108	0.644078	0.063856	-0.864004	0.499419	-0.062413	0.496003	0.866075	-0.996005	-0.086475	-0.022253
138	1575648													9.802445	-0.486021	0.640842	0.063845	-0.864007	0.499416	-0.062415	0.496000	0.866077	-0.996006	-0.086465	-0.022260
139	1575814													9.801283	-0.477695	0.621366	0.063789	-0.864013	0.499413	-0.062400	0.496000	0.866078	-0.996011	-0.086409	-0.022275
140	1575981													9.811571	-0.472074	0.661112	0.063760	-0.863972	0.499487	-0.062371	0.496077	0.866036	-0.996014	-0.086372	-0.022257
141	1576148													9.848285	-0.463623	0.644622	0.063789	-0.863948	0.499524	-0.062231	0.496126	0.866018	-0.996021	-0.086328	-0.022117
142	1576314													9.848907	-0.440732	0.640831	0.063911	-0.863932	0.499536	-0.062058	0.496150	0.866016	-0.996024	-0.086349	-0.021905
143	1576481													9.798994	-0.422164	0.636719	0.064020	-0.863788	0.499771	-0.061836	0.496402	0.865887	-0.996031	-0.086338	-0.021634
144	1576648													9.808763	-0.421393	0.665275	0.064085	-0.863617	0.500058	-0.061614	0.496708	0.865728	-0.996041	-0.086291	-0.021379
145	1576814													9.820737	-0.462457	0.659476	0.064112	-0.863457	0.500331	-0.061451	0.496996	0.865575	-0.996049	-0.086240	-0.021197
146	1576981													9.819668	-0.451006	0.641803	0.064203	-0.863275	0.500634	-0.061373	0.497303	0.865403	-0.996048	-0.086287	-0.021054
147	1577148													9.790694	-0.462278	0.622185	0.064245	-0.863155	0.500835	-0.061354	0.497506	0.865288	-0.996046	-0.086318	-0.020996
148	1577314													9.789187	-0.477801	0.615361	0.064094	-0.863156	0.500853	-0.061378	0.497525	0.865275	-0.996055	-0.086200	-0.021090
149	1577481													9.823998	-0.442538	0.636629	0.063924	-0.863145	0.500893	-0.061334	0.497573	0.865251	-0.996068	-0.086032	-0.021133
150	1577648													9.855727	-0.459750	0.626745	0.063848	-0.863043	0.501080	-0.061210	0.497772	0.865145	-0.996081	-0.085908	-0.021045
151	1577814													9.837028	-0.485263	0.648610	0.063867	-0.863026	0.501107	-0.061204	0.497799	0.865130	-0.996080	-0.085923	-0.021028
152	1577981													9.804393	-0.444234	0.650395	0.063973	-0.863073	0.501012	-0.061297	0.497694	0.865184	-0.996067	-0.086059	-0.021065
153	1578314													9.807468	-0.420524	0.636670	0.064023	-0.863013	0.501108	-0.061399	0.497781	0.865127	-0.996058	-0.086156	-0.021119
154	1578481													9.845152	-0.426017	0.639782	0.064058	-0.862974	0.501172	-0.061479	0.497837	0.865089	-0.996051	-0.086227	-0.021164
155	1578648													9.824919	-0.420613	0.676837	0.064142	-0.862944	0.501212	-0.061596	0.497865	0.865064	-0.996038	-0.086359	-0.021220
156	1578814													9.803830	-0.439986	0.660743	0.064198	-0.862885	0.501307	-0.061781	0.497943	0.865006	-0.996023	-0.086503	-0.021343
157	1578981													9.798807	-0.477103	0.675617	0.064232	-0.862795	0.501458	-0.062082	0.498067	0.864913	-0.996002	-0.086687	-0.021572
158	1579148													9.792749	-0.493683	0.665209	0.064231	-0.862735	0.501560	-0.062462	0.498137	0.864846	-0.995978	-0.086878	-0.021893
159	1579314													9.768109	-0.526081	0.650365	0.064168	-0.862747	0.501547	-0.062804	0.498095	0.864845	-0.995961	-0.086995	-0.022223
160	1579481													9.793520	-0.551538	0.657037	0.064011	-0.862782	0.501508	-0.063069	0.498037	0.864859	-0.995954	-0.086990	-0.022535
161	1579648													9.835163	-0.548991	0.640582	0.063829	-0.862965	0.501215	-0.063245	0.497732	0.865022	-0.995955	-0.086912	-0.022808
162	1579814													9.837136	-0.528378	0.647331	0.063725	-0.863119	0.500965	-0.063403	0.497469	0.865161	-0.995951	-0.086895	-0.023023
163	1579981													9.798778	-0.528168	0.612792	0.063587	-0.863297	0.500675	-0.063595	0.497166	0.865322	-0.995948	-0.086864	-0.023288
164	1580148													9.749307	-0.475016	0.606403	0.063323	-0.863499	0.500360	-0.063760	0.496841	0.865496	-0.995954	-0.086709	-0.023595
165	1580314													9.802904	-0.467845	0.613112	0.062920	-0.863586	0.500260	-0.063779	0.496749	0.865548	-0.995979	-0.086366	-0.023824
166	1580481													9.867639	-0.478829	0.606469	0.062604	-0.863666	0.500161	-0.063748	0.496661	0.865601	-0.996000	-0.086074	-0.023964
167	1580648													9.837089	-0.490491	0.584014	0.062378	-0.863723	0.500091	-0.063756	0.496595	0.865638	-0.996014	-0.085881	-0.024091
168	1580814													9.811201	-0.495511	0.595500	0.062156	-0.863738	0.500093	-0.063793	0.496599	0.865633	-0.996026	-0.085707	-0.024234
169	1580981													9.825870	-0.495333	0.584864	0.061997	-0.863696	0.500185	-0.063789	0.496695	0.865578	-0.996036	-0.085570	-0.024300
170	1581148													9.832320	-0.490563	0.557706	0.061886	-0.863624	0.500323	-0.063684	0.496846	0.865499	-0.996049	-0.085425	-0.024251
171	1581314													9.816957	-0.495044	0.575612	0.061829	-0.863605	0.500363	-0.063541	0.496899	0.865479	-0.996062	-0.085305	-0.024151
172	1581481													9.776821	-0.513175	0.540583	0.061796	-0.863555	0.500454	-0.063416	0.497002	0.865429	-0.996072	-0.085217	-0.024051
173	1581648													9.811773	-0.484062	0.606409	0.061485	-0.863525	0.500545	-0.063276	0.497112	0.865376	-0.996100	-0.084880	-0.024075
174	1581814													9.932147	-0.472939	0.558400	0.061481	-0.863393	0.500772	-0.063118	0.497353	0.865249	-0.996111	-0.084804	-0.023918
175	1581981													9.807903	-0.468923	0.583121	0.061617	-0.863258	0.500988	-0.062945	0.497582	0.865130	-0.996113	-0.084841	-0.023678
176	1582148													9.826631	-0.461009	0.561944	0.061656	-0.863149	0.501171	-0.062759	0.497780	0.865030	-0.996122	-0.084788	-0.023479
177	1582314													9.834247	-0.455880	0.577079	0.061818	-0.863041	0.501337	-0.062613	0.497955	0.864940	-0.996122	-0.084859	-0.023255
178	1582481													9.824609	-0.465102	0.581851	0.061966	-0.862951	0.501473	-0.062521	0.498096	0.864865	-0.996118	-0.084945	-0.023088
179	1582648													9.840361	-0.466546	0.586315	0.062151	-0.862751	0.501794	-0.062460	0.498419	0.864683	-0.996110	-0.085084	-0.022910
180	1582814													9.798107	-0.473545	0.593638	0.062415	-0.862640	0.501952	-0.062398	0.498576	0.864597	-0.996098	-0.085285	-0.022708
181	1582981													9.821510	-0.476744	0.603130	0.062626	-0.862500	0.502166	-0.062354	0.498790	0.864477	-0.996087	-0.085450	-0.022543
182	1583148													9.848770	-0.491139	0.615384	0.062917	-0.862471	0.502181	-0.062335	0.498799	0.864473	-0.996070	-0.085693	-0.022379
183	1583314													9.803408	-0.482825	0.617809	0.063238	-0.862537	0.502026	-0.062338	0.498637	0.864566	-0.996050	-0.085969	-0.022236
184	1583481													9.819247	-0.462239	0.631482	0.063536	-0.862587	0.501904	-0.062355	0.498506	0.864641	-0.996030	-0.086232	-0.022114
185	1583648													9.831640	-0.462513	0.641946	0.063804	-0.862602	0.501844	-0.062408	0.498435	0.864678	-0.996009	-0.086489	-0.022031
186	1583814													9.804525	-0.448160	0.642084	0.064078	-0.862586	0.501837	-0.062527	0.498412	0.864683	-0.995984	-0.086785	-0.021997
187	1583981													9.800837	-0.466962	0.636027	0.064332	-0.862561	0.501847	-0.062667	0.498405	0.864677	-0.995959	-0.087076	-0.021990
188	1584148													9.839443	-0.478107	0.633500	0.064598	-0.862572	0.501793	-0.062836	0.498330	0.864708	-0.995931	-0.087389	-0.022009
189	1584314													9.839819	-0.494997	0.628319	0.064929	-0.862546	0.501795	-0.063010	0.498309	0.864707	-0.995899	-0.087763	-0.021994
190	1584481													9.810694	-0.504726	0.658416	0.065252	-0.862571	0.501710	-0.063181	0.498202	0.864756	-0.995867	-0.088125	-0.021990
191	1584648													9.811585	-0.500966	0.682955	0.065562	-0.862645	0.501542	-0.063320	0.498014	0.864854	-0.995837	-0.088459	-0.021971
192	1584814													9.848200	-0.478848	0.658173	0.065906	-0.862676	0.501444	-0.063450	0.497896	0.864912	-0.995806	-0.088820	-0.021922
193	1584981													9.816723	-0.509308	0.665611	0.066265	-0.862773	0.501230	-0.063513	0.497669	0.865039	-0.995779	-0.089156	-0.021819
194	1585148													9.781215	-0.485504	0.677117	0.066586	-0.862822	0.501103	-0.063593	0.497527	0.865114	-0.995752	-0.089471	-0.021741
195	1585314													9.791450	-0.480880	0.657386	0.066822	-0.862875	0.500980	-0.063656	0.497392	0.865187	-0.995732	-0.089704	-0.021691
196	1585481													9.830776	-0.478811	0.689366	0.067057	-0.862899	0.500908	-0.063694	0.497312	0.865230	-0.995714	-0.089924	-0.021613
197	1585648													9.841562	-0.466526	0.693442	0.067365	-0.862903	0.500860	-0.063728	0.497254	0.865261	-0.995691	-0.090207	-0.021494
198	1585814													9.814754	-0.479145	0.702351	0.067738	-0.862917	0.500785	-0.063723	0.497171	0.865309	-0.995666	-0.090526	-0.021311
199	1585981													9.805438	-0.479658	0.716062	0.068060	-0.862872	0.500819	-0.063709	0.497200	0.865294	-0.995645	-0.090799	-0.021133
200	1586148													9.804156	-0.489155	0.699200	0.068382	-0.862771	0.500950	-0.063698	0.497325	0.865223	-0.995624	-0.091075	-0.020949
201	1586314													9.803872	-0.485565	0.710327	0.068648	-0.862655	0.501113	-0.063663	0.497486	0.865133	-0.995608	-0.091292	-0.020768
202	1586481													9.802260	-0.496575	0.734032	0.068891	-0.862537	0.501283	-0.063629	0.497655	0.865038	-0.995593	-0.091490	-0.020598
203	1586648													9.748866	-0.499813	0.724062	0.069081	-0.862402	0.501488	-0.063613	0.497858	0.864922	-0.995581	-0.091651	-0.020468
204	1586814													9.802770	-0.520251	0.686543	0.069141	-0.862343	0.501582	-0.063665	0.497946	0.864868	-0.995573	-0.091731	-0.020472
205	1586981													9.817540	-0.497729	0.704452	0.069166	-0.862281	0.501684	-0.063620	0.498052	0.864810	-0.995575	-0.091732	-0.020410
206	1587148													9.832457	-0.531896	0.720473	0.069247	-0.862240	0.501744	-0.063481	0.498124	0.864779	-0.995578	-0.091734	-0.020242
207	1587314													9.832979	-0.562805	0.695219	0.069395	-0.862235	0.501731	-0.063454	0.498110	0.864789	-0.995569	-0.091849	-0.020146
208	1587481													9.806926	-0.540985	0.719381	0.069615	-0.862324	0.501548	-0.063497	0.497918	0.864896	-0.995551	-0.092057	-0.020092
209	1587648													9.801709	-0.502558	0.723417	0.069864	-0.862412	0.501363	-0.063507	0.497726	0.865006	-0.995533	-0.092273	-0.019996
210	1587815													9.816154	-0.498919	0.731074	0.070126	-0.862526	0.501131	-0.063460	0.497492	0.865144	-0.995518	-0.092470	-0.019848
211	1587981													9.805554	-0.480472	0.747167	0.070402	-0.862666	0.500851	-0.063402	0.497211	0.865310	-0.995502	-0.092674	-0.019690
212	1588148													9.804041	-0.460464	0.751138	0.070670	-0.862775	0.500625	-0.063400	0.496980	0.865443	-0.995483	-0.092900	-0.019578
213	1588315													9.801391	-0.495824	0.763667	0.070933	-0.862896	0.500378	-0.063448	0.496723	0.865587	-0.995461	-0.093147	-0.019515
214	1588481													9.796442	-0.486483	0.769754	0.071158	-0.862988	0.500188	-0.063587	0.496514	0.865696	-0.995436	-0.093407	-0.019544
215	1588648													9.801929	-0.500906	0.773649	0.071359	-0.863062	0.500031	-0.063704	0.496343	0.865786	-0.995414	-0.093635	-0.019562
216	1588815													9.781253	-0.528445	0.754290	0.071473	-0.863088	0.499971	-0.063758	0.496274	0.865821	-0.995403	-0.093760	-0.019558
217	1588981													9.794063	-0.535245	0.768218	0.071501	-0.863177	0.499813	-0.063789	0.496113	0.865912	-0.995399	-0.093796	-0.019589
218	1589148													9.823353	-0.523696	0.748094	0.071528	-0.863268	0.499652	-0.063745	0.495955	0.866005	-0.995400	-0.093794	-0.019555
219	1589315													9.792874	-0.541106	0.738523	0.071493	-0.863409	0.499414	-0.063725	0.495719	0.866142	-0.995403	-0.093748	-0.019580
220	1589481													9.767360	-0.511810	0.725420	0.071390	-0.863561	0.499166	-0.063718	0.495472	0.866284	-0.995411	-0.093650	-0.019652
221	1589648													9.813123	-0.501192	0.713715	0.071176	-0.863669	0.499009	-0.063580	0.495332	0.866374	-0.995435	-0.093392	-0.019656
222	1589815													9.845224	-0.491135	0.706491	0.071052	-0.863752	0.498882	-0.063375	0.495226	0.866449	-0.995457	-0.093179	-0.019553
223	1589981													9.816482	-0.476033	0.716668	0.070967	-0.863845	0.498733	-0.063231	0.495092	0.866537	-0.995473	-0.093031	-0.019487
224	1590148													9.820383	-0.474191	0.709580	0.070953	-0.863870	0.498693	-0.063202	0.495055	0.866560	-0.995475	-0.093004	-0.019472
225	1590315													9.791680	-0.469500	0.725436	0.070870	-0.863875	0.498696	-0.063221	0.495058	0.866557	-0.995480	-0.092941	-0.019530
226	1590481													9.812258	-0.463448	0.726886	0.070786	-0.863879	0.498701	-0.063198	0.495066	0.866554	-0.995488	-0.092857	-0.019552
227	1590648													9.819962	-0.482652	0.720166	0.070757	-0.863819	0.498809	-0.063088	0.495186	0.866493	-0.995497	-0.092779	-0.019459
228	1590815													9.786456	-0.510883	0.718743	0.070742	-0.863735	0.498957	-0.062943	0.495348	0.866411	-0.995507	-0.092698	-0.019324
229	1590981													9.790525	-0.496192	0.703540	0.070624	-0.863669	0.499087	-0.062798	0.495494	0.866338	-0.995524	-0.092526	-0.019243
230	1591148													9.812237	-0.474981	0.706279	0.070471	-0.863592	0.499241	-0.062662	0.495665	0.866251	-0.995544	-0.092329	-0.019184
231	1591315													9.837545	-0.474981	0.699735	0.070316	-0.863488	0.499445	-0.062497	0.495887	0.866135	-0.995565	-0.092117	-0.019097
232	1591481													9.867833	-0.479293	0.703945	0.070251	-0.863378	0.499644	-0.062409	0.496096	0.866022	-0.995575	-0.092022	-0.019031
233	1591648													9.836784	-0.473675	0.706206	0.070277	-0.863294	0.499784	-0.062346	0.496242	0.865943	-0.995577	-0.092016	-0.018948
234	1591815													9.811234	-0.469953	0.694654	0.070286	-0.863171	0.499995	-0.062300	0.496458	0.865822	-0.995580	-0.092005	-0.018881
235	1591981													9.813051	-0.509724	0.697015	0.070274	-0.863086	0.500145	-0.062285	0.496610	0.865736	-0.995581	-0.091990	-0.018859
236	1592148													9.795247	-0.491632	0.704380	0.070182	-0.863023	0.500265	-0.062315	0.496729	0.865666	-0.995586	-0.091928	-0.018917
237	1592315													9.820650	-0.485448	0.704391	0.070031	-0.863060	0.500224	-0.062357	0.496687	0.865687	-0.995594	-0.091817	-0.019035
238	1592481													9.828189	-0.483326	0.701528	0.069917	-0.863078	0.500208	-0.062443	0.496665	0.865693	-0.995597	-0.091761	-0.019168
239	1592648													9.824524	-0.483690	0.693216	0.069795	-0.863162	0.500080	-0.062569	0.496527	0.865763	-0.995597	-0.091715	-0.019352
240	1592815													9.815644	-0.490331	0.695536	0.069653	-0.863236	0.499971	-0.062712	0.496408	0.865821	-0.995598	-0.091661	-0.019559
241	1592981													9.802559	-0.469788	0.695139	0.069506	-0.863314	0.499858	-0.062950	0.496276	0.865880	-0.995593	-0.091650	-0.019852
242	1593148													9.779132	-0.476535	0.709013	0.069356	-0.863405	0.499721	-0.063226	0.496116	0.865951	-0.995586	-0.091654	-0.020182
243	1593315													9.801833	-0.486223	0.701057	0.069163	-0.863523	0.499544	-0.063516	0.495915	0.866045	-0.995581	-0.091627	-0.020548
244	1593481													9.801274	-0.508123	0.690698	0.068938	-0.863634	0.499384	-0.063751	0.495738	0.866129	-0.995582	-0.091546	-0.020883
245	1593648													9.805337	-0.503154	0.678000	0.068667	-0.863755	0.499212	-0.063958	0.495552	0.866220	-0.995587	-0.091409	-0.021216
246	1593815													9.824101	-0.503922	0.682790	0.068403	-0.863846	0.499089	-0.064160	0.495417	0.866283	-0.995593	-0.091278	-0.021536
247	1593981													9.815624	-0.503299	0.666144	0.068218	-0.863962	0.498914	-0.064421	0.495221	0.866375	-0.995588	-0.091243	-0.021874
248	1594148													9.829223	-0.513165	0.654092	0.068079	-0.864038	0.498803	-0.064677	0.495089	0.866432	-0.995581	-0.091247	-0.022178
249	1594315													9.800621	-0.516521	0.681719	0.067939	-0.864096	0.498721	-0.064908	0.494989	0.866471	-0.995576	-0.091239	-0.022457
250	1594481													9.810019	-0.535660	0.651391	0.067806	-0.864224	0.498517	-0.065121	0.494768	0.866582	-0.995571	-0.091223	-0.022731
251	1594648													9.829721	-0.532839	0.674826	0.067726	-0.864304	0.498390	-0.065284	0.494627	0.866650	-0.995566	-0.091232	-0.022926
252	1594815													9.872154	-0.532351	0.648111	0.067756	-0.864335	0.498331	-0.065445	0.494553	0.866680	-0.995553	-0.091336	-0.023057
253	1594981													9.832327	-0.528219	0.681749	0.067878	-0.864335	0.498315	-0.065552	0.494524	0.866688	-0.995538	-0.091495	-0.023091
254	1595148													9.809260	-0.500902	0.678726	0.067999	-0.864356	0.498261	-0.065631	0.494460	0.866719	-0.995524	-0.091637	-0.023106
255	1595315													9.794505	-0.500936	0.723525	0.068091	-0.864301	0.498345	-0.065728	0.494533	0.866670	-0.995512	-0.091768	-0.023135
256	1595481													9.791529	-0.530711	0.722641	0.068148	-0.864175	0.498555	-0.065799	0.494736	0.866549	-0.995503	-0.091858	-0.023146
257	1595648													9.796585	-0.535253	0.694717	0.068151	-0.864013	0.498836	-0.065837	0.495014	0.866387	-0.995500	-0.091887	-0.023149
258	1595815													9.773892	-0.566873	0.677230	0.068080	-0.863902	0.499037	-0.065828	0.495218	0.866271	-0.995506	-0.091826	-0.023154
259	1595981													9.781330	-0.603120	0.662876	0.067834	-0.863831	0.499193	-0.065832	0.495380	0.866178	-0.995522	-0.091619	-0.023264
260	1596148													9.834888	-0.578838	0.697077	0.067494	-0.863816	0.499266	-0.065811	0.495463	0.866133	-0.995547	-0.091316	-0.023408
261	1596315													9.884530	-0.567866	0.703393	0.067302	-0.863857	0.499221	-0.065694	0.495433	0.866158	-0.995568	-0.091090	-0.023407
262	1596481													9.857240	-0.582221	0.694693	0.067291	-0.863914	0.499124	-0.065669	0.495338	0.866215	-0.995570	-0.091066	-0.023401
263	1596648													9.776240	-0.536414	0.663401	0.067316	-0.864069	0.498853	-0.065785	0.495055	0.866368	-0.995561	-0.091138	-0.023518
264	1596815													9.743806	-0.516369	0.680631	0.067227	-0.864181	0.498670	-0.065976	0.494857	0.866466	-0.995554	-0.091150	-0.023748
265	1596981													9.786367	-0.532757	0.673577	0.067042	-0.864265	0.498550	-0.066164	0.494723	0.866528	-0.995554	-0.091080	-0.024016
266	1597148													9.833261	-0.551114	0.680087	0.066828	-0.864367	0.498400	-0.066364	0.494560	0.866606	-0.995555	-0.090989	-0.024312
267	1597315													9.855162	-0.554418	0.683818	0.066754	-0.864434	0.498296	-0.066565	0.494439	0.866660	-0.995547	-0.091022	-0.024535
268	1597481													9.816779	-0.565052	0.692589	0.066737	-0.864392	0.498370	-0.066704	0.494501	0.866614	-0.995538	-0.091078	-0.024657
269	1597648													9.784564	-0.565101	0.682963	0.066675	-0.864360	0.498434	-0.066710	0.494566	0.866576	-0.995542	-0.091029	-0.024686
270	1597815													9.773154	-0.573168	0.684229	0.066478	-0.864215	0.498711	-0.066549	0.494863	0.866419	-0.995566	-0.090787	-0.024615
271	1597981													9.775656	-0.571389	0.657912	0.066115	-0.864049	0.499047	-0.066232	0.495238	0.866229	-0.995611	-0.090324	-0.024485
272	1598148													9.843249	-0.562769	0.651470	0.065710	-0.863889	0.499378	-0.065822	0.495617	0.866044	-0.995665	-0.089778	-0.024296
273	1598315													9.838330	-0.583840	0.652693	0.065429	-0.863691	0.499757	-0.065438	0.496039	0.865831	-0.995709	-0.089354	-0.024063
274	1598481													9.775343	-0.610691	0.644210	0.065097	-0.863525	0.500086	-0.065209	0.496397	0.865643	-0.995746	-0.088961	-0.023996
275	1598648													9.779618	-0.598128	0.601715	0.064674	-0.863453	0.500265	-0.065052	0.496601	0.865538	-0.995784	-0.088521	-0.024052
276	1598815													9.825214	-0.598943	0.616705	0.064256	-0.863458	0.500311	-0.064789	0.496680	0.865512	-0.995828	-0.088029	-0.024028
277	1598981													9.864528	-0.611327	0.622593	0.063960	-0.863558	0.500176	-0.064529	0.496575	0.865592	-0.995864	-0.087639	-0.023964
278	1599148													9.832474	-0.580443	0.620029	0.063761	-0.863727	0.499910	-0.064416	0.496322	0.865745	-0.995884	-0.087403	-0.023992
279	1599315													9.834259	-0.562718	0.623150	0.063599	-0.863874	0.499677	-0.064391	0.496095	0.865877	-0.995896	-0.087243	-0.024074
280	1599481													9.824664	-0.527384	0.620276	0.063507	-0.864025	0.499427	-0.064435	0.495843	0.866019	-0.995899	-0.087179	-0.024184
281	1599648													9.830806	-0.550857	0.619791	0.063431	-0.864166	0.499194	-0.064472	0.495608	0.866150	-0.995901	-0.087125	-0.024278
282	1599815													9.824614	-0.571091	0.630299	0.063413	-0.864305	0.498955	-0.064506	0.495366	0.866286	-0.995900	-0.087120	-0.024340
283	1599981													9.826787	-0.572297	0.625995	0.063373	-0.864414	0.498771	-0.064488	0.495184	0.866391	-0.995904	-0.087070	-0.024364
284	1600148													9.806020	-0.573953	0.633949	0.063357	-0.864543	0.498549	-0.064461	0.494965	0.866519	-0.995907	-0.087037	-0.024370
285	1600315													9.786077	-0.538441	0.644723	0.063243	-0.864663	0.498355	-0.064382	0.494779	0.866630	-0.995919	-0.086894	-0.024378
286	1600481													9.781156	-0.511342	0.611482	0.063075	-0.864785	0.498165	-0.064256	0.494604	0.866740	-0.995938	-0.086680	-0.024370
287	1600648													9.793008	-0.509410	0.646817	0.062792	-0.864828	0.498127	-0.064033	0.494592	0.866763	-0.995970	-0.086322	-0.024321
288	1600815													9.816407	-0.515242	0.646807	0.062443	-0.864800	0.498219	-0.063788	0.494714	0.866711	-0.996008	-0.085900	-0.024272
289	1600981													9.848990	-0.506722	0.616854	0.062140	-0.864747	0.498348	-0.063588	0.494869	0.866638	-0.996040	-0.085542	-0.024237
290	1601148													9.833459	-0.524813	0.602979	0.061889	-0.864659	0.498533	-0.063421	0.495075	0.866533	-0.996066	-0.085246	-0.024198
291	1601315													9.814098	-0.539887	0.604829	0.061724	-0.864561	0.498723	-0.063261	0.495283	0.866425	-0.996086	-0.085029	-0.024122
292	1601481													9.821746	-0.531031	0.615601	0.061577	-0.864509	0.498832	-0.063116	0.495407	0.866365	-0.996105	-0.084833	-0.024059
293	1601648													9.829158	-0.567179	0.631755	0.061442	-0.864484	0.498890	-0.062969	0.495482	0.866333	-0.996122	-0.084644	-0.023993
294	1601815													9.829485	-0.562784	0.605398	0.061376	-0.864509	0.498856	-0.062846	0.495460	0.866355	-0.996134	-0.084525	-0.023922
295	1601981													9.807116	-0.570148	0.598257	0.061341	-0.864572	0.498751	-0.062754	0.495363	0.866417	-0.996142	-0.084445	-0.023869
296	1602148													9.820806	-0.546781	0.577178	0.061276	-0.864669	0.498591	-0.062685	0.495209	0.866509	-0.996150	-0.084351	-0.023857
297	1602315													9.801673	-0.525080	0.629706	0.061202	-0.864780	0.498408	-0.062556	0.495039	0.866616	-0.996163	-0.084217	-0.023800
298	1602481													9.809715	-0.507636	0.633516	0.061109	-0.864914	0.498187	-0.062404	0.494833	0.866745	-0.996178	-0.084055	-0.023735
299	1602648													9.797799	-0.515972	0.631215	0.060999	-0.865017	0.498020	-0.062222	0.494684	0.866843	-0.996197	-0.083864	-0.023648
300	1602815													9.820336	-0.492562	0.641983	0.060900	-0.865092	0.497903	-0.062003	0.494587	0.866914	-0.996216	-0.083667	-0.023518
301	1602981													9.817072	-0.512442	0.607319	0.060796	-0.865161	0.497796	-0.061804	0.494498	0.866978	-0.996235	-0.083474	-0.023407
302	1603148													9.843200	-0.492125	0.597770	0.060721	-0.865162	0.497803	-0.061573	0.494527	0.866979	-0.996254	-0.083296	-0.023242
303	1603315													9.796276	-0.507399	0.612004	0.060732	-0.865146	0.497829	-0.061357	0.494571	0.866969	-0.996266	-0.083198	-0.023046
304	1603481													9.822472	-0.497880	0.605345	0.060682	-0.865152	0.497825	-0.061093	0.494590	0.866977	-0.996286	-0.083023	-0.022841
305	1603648													9.830407	-0.522817	0.619996	0.060659	-0.865126	0.497872	-0.060822	0.494660	0.866955	-0.996304	-0.082870	-0.022613
306	1603815													9.809022	-0.514777	0.602079	0.060642	-0.865124	0.497879	-0.060575	0.494688	0.866957	-0.996320	-0.082733	-0.022406
307	1603981													9.759713	-0.503902	0.596862	0.060549	-0.865122	0.497894	-0.060378	0.494721	0.866952	-0.996337	-0.082555	-0.022279
308	1604148													9.785844	-0.509652	0.582024	0.060366	-0.865152	0.497863	-0.060233	0.494707	0.866970	-0.996357	-0.082323	-0.022247
309	1604315													9.828798	-0.487613	0.599858	0.060058	-0.865205	0.497809	-0.060058	0.494674	0.867001	-0.996387	-0.081967	-0.022254
310	1604482													9.859129	-0.489889	0.591618	0.059829	-0.865241	0.497773	-0.059764	0.494667	0.867025	-0.996418	-0.081622	-0.022115
311	1604648													9.873121	-0.517763	0.591433	0.059765	-0.865292	0.497693	-0.059557	0.494605	0.867075	-0.996434	-0.081461	-0.021974
312	1604815													9.833879	-0.479938	0.583844	0.059795	-0.865341	0.497604	-0.059425	0.494526	0.867129	-0.996440	-0.081420	-0.021853
313	1604982													9.805212	-0.459775	0.597953	0.059848	-0.865359	0.497567	-0.059301	0.494497	0.867154	-0.996444	-0.081404	-0.021722
314	1605148													9.803003	-0.465969	0.608828	0.059841	-0.865343	0.497595	-0.059161	0.494537	0.867141	-0.996453	-0.081329	-0.021601
315	1605315													9.829853	-0.464993	0.629252	0.059820	-0.865319	0.497639	-0.059008	0.494595	0.867118	-0.996464	-0.081236	-0.021474
316	1605482													9.822618	-0.484165	0.613852	0.059852	-0.865300	0.497669	-0.058868	0.494635	0.867105	-0.996470	-0.081195	-0.021333
317	1605648													9.822573	-0.503144	0.602323	0.059890	-0.865314	0.497640	-0.058790	0.494611	0.867124	-0.996472	-0.081188	-0.021249
318	1605815													9.818791	-0.476633	0.604243	0.059920	-0.865317	0.497631	-0.058755	0.494605	0.867130	-0.996472	-0.081197	-0.021205
319	1605982													9.816736	-0.462582	0.587231	0.059967	-0.865323	0.497614	-0.058766	0.494586	0.867139	-0.996469	-0.081243	-0.021193
320	1606148													9.806290	-0.474842	0.595081	0.059980	-0.865352	0.497562	-0.058778	0.494533	0.867169	-0.996468	-0.081259	-0.021202
321	1606315													9.834536	-0.487181	0.579421	0.059969	-0.865422	0.497442	-0.058801	0.494411	0.867237	-0.996467	-0.081258	-0.021239
322	1606482													9.870522	-0.494123	0.601812	0.060046	-0.865485	0.497322	-0.058877	0.494283	0.867305	-0.996458	-0.081359	-0.021278
323	1606648													9.817987	-0.528159	0.589134	0.060145	-0.865555	0.497189	-0.059053	0.494133	0.867378	-0.996441	-0.081529	-0.021394
324	1606815													9.769052	-0.494017	0.565684	0.060182	-0.865675	0.496976	-0.059288	0.493899	0.867496	-0.996425	-0.081672	-0.021600
325	1606982													9.798855	-0.468249	0.562947	0.060071	-0.865747	0.496864	-0.059395	0.493780	0.867556	-0.996425	-0.081626	-0.021759
326	1607148													9.873636	-0.513012	0.581655	0.060026	-0.865860	0.496672	-0.059390	0.493590	0.867665	-0.996428	-0.081580	-0.021795
327	1607315													9.851025	-0.494831	0.600090	0.060088	-0.865956	0.496497	-0.059420	0.493410	0.867765	-0.996423	-0.081644	-0.021807
328	1607482													9.831429	-0.491000	0.594301	0.060217	-0.866033	0.496347	-0.059545	0.493247	0.867849	-0.996408	-0.081814	-0.021866
329	1607648													9.826938	-0.460036	0.595520	0.060359	-0.866119	0.496180	-0.059678	0.493066	0.867943	-0.996391	-0.081999	-0.021928
330	1607815													9.848549	-0.473783	0.631772	0.060553	-0.866145	0.496111	-0.059790	0.492984	0.867982	-0.996373	-0.082221	-0.021936
331	1607982													9.828168	-0.508834	0.611240	0.060778	-0.866111	0.496143	-0.059852	0.493006	0.867965	-0.996355	-0.082448	-0.021874
332	1608148													9.787230	-0.516850	0.591669	0.060976	-0.866102	0.496134	-0.059915	0.492987	0.867971	-0.996339	-0.082652	-0.021832
333	1608315													9.786464	-0.522104	0.593714	0.061051	-0.866113	0.496105	-0.059982	0.492951	0.867987	-0.996331	-0.082748	-0.021856
334	1608482													9.818587	-0.517934	0.588030	0.061080	-0.866163	0.496015	-0.060054	0.492853	0.868038	-0.996325	-0.082808	-0.021913
335	1608648													9.835238	-0.503120	0.605330	0.061169	-0.866215	0.495913	-0.060118	0.492744	0.868095	-0.996315	-0.082914	-0.021934
336	1608815													9.839673	-0.501205	0.587820	0.061351	-0.866250	0.495830	-0.060175	0.492652	0.868143	-0.996301	-0.083098	-0.021902
337	1608982													9.840809	-0.502363	0.591454	0.061583	-0.866263	0.495778	-0.060251	0.492589	0.868174	-0.996282	-0.083336	-0.021858
338	1609148													9.819131	-0.496557	0.585982	0.061857	-0.866249	0.495769	-0.060367	0.492564	0.868180	-0.996258	-0.083631	-0.021824
339	1609315													9.821218	-0.501015	0.592606	0.062126	-0.866262	0.495713	-0.060520	0.492488	0.868212	-0.996232	-0.083939	-0.021830
340	1609482													9.842726	-0.510168	0.611683	0.062400	-0.866236	0.495723	-0.060679	0.492479	0.868206	-0.996205	-0.084256	-0.021832
341	1609648													9.826750	-0.525697	0.639097	0.062707	-0.866223	0.495707	-0.060843	0.492442	0.868216	-0.996176	-0.084604	-0.021824
342	1609815													9.803977	-0.522461	0.619481	0.063063	-0.866194	0.495713	-0.060990	0.492428	0.868214	-0.996144	-0.084986	-0.021775
343	1609982													9.811034	-0.537212	0.607927	0.063401	-0.866183	0.495689	-0.061106	0.492387	0.868229	-0.996116	-0.085336	-0.021711
344	1610148													9.828227	-0.540837	0.631617	0.063779	-0.866181	0.495643	-0.061222	0.492323	0.868257	-0.996084	-0.085721	-0.021630
345	1610315													9.822214	-0.551175	0.656542	0.064152	-0.866201	0.495561	-0.061316	0.492224	0.868306	-0.996055	-0.086089	-0.021535
346	1610482													9.815454	-0.547083	0.664561	0.064484	-0.866233	0.495461	-0.061446	0.492106	0.868364	-0.996025	-0.086440	-0.021494
347	1610648													9.835472	-0.539613	0.662500	0.064813	-0.866301	0.495300	-0.061607	0.491923	0.868456	-0.995994	-0.086801	-0.021487
348	1610815													9.817818	-0.545584	0.676382	0.065145	-0.866375	0.495126	-0.061756	0.491729	0.868556	-0.995963	-0.087159	-0.021470
349	1610982													9.814728	-0.560158	0.680158	0.065478	-0.866449	0.494952	-0.061881	0.491536	0.868656	-0.995933	-0.087506	-0.021432
350	1611148													9.790269	-0.561140	0.667643	0.065821	-0.866576	0.494686	-0.061983	0.491253	0.868809	-0.995904	-0.087848	-0.021378
351	1611315													9.776181	-0.575728	0.693290	0.066076	-0.866760	0.494329	-0.062106	0.490879	0.869011	-0.995880	-0.088121	-0.021396
352	1611482													9.765436	-0.552617	0.696421	0.066245	-0.866950	0.493974	-0.062240	0.490507	0.869212	-0.995860	-0.088326	-0.021466
353	1611648													9.772742	-0.549408	0.710474	0.066310	-0.867154	0.493605	-0.062368	0.490125	0.869418	-0.995848	-0.088437	-0.021582
354	1611815													9.790970	-0.547377	0.698497	0.066295	-0.867401	0.493174	-0.062544	0.489677	0.869658	-0.995838	-0.088499	-0.021788
355	1611982													9.829562	-0.532371	0.703819	0.066286	-0.867586	0.492850	-0.062696	0.489339	0.869837	-0.995829	-0.088557	-0.021958
356	1612148													9.821790	-0.540229	0.720028	0.066314	-0.867713	0.492622	-0.062894	0.489092	0.869962	-0.995815	-0.088673	-0.022140
357	1612315													9.814901	-0.538445	0.705163	0.066362	-0.867819	0.492429	-0.063082	0.488881	0.870067	-0.995800	-0.088803	-0.022301
358	1612482													9.808959	-0.545590	0.671180	0.066358	-0.867915	0.492261	-0.063234	0.488699	0.870158	-0.995790	-0.088869	-0.022452
359	1612648													9.817941	-0.549185	0.689734	0.066299	-0.867960	0.492188	-0.063375	0.488614	0.870195	-0.995785	-0.088886	-0.022612
360	1612815													9.819654	-0.572790	0.684209	0.066260	-0.868007	0.492111	-0.063439	0.488532	0.870236	-0.995784	-0.088881	-0.022696
361	1612982													9.810503	-0.575431	0.682624	0.066213	-0.868027	0.492082	-0.063474	0.488501	0.870252	-0.995785	-0.088857	-0.022752
362	1613148													9.813463	-0.570452	0.688105	0.066163	-0.868051	0.492047	-0.063467	0.488468	0.870271	-0.995788	-0.088808	-0.022774
363	1613315													9.766741	-0.573373	0.692929	0.066101	-0.868048	0.492061	-0.063444	0.488485	0.870263	-0.995794	-0.088743	-0.022783
364	1613482													9.797484	-0.576732	0.645814	0.065904	-0.868069	0.492050	-0.063450	0.488478	0.870266	-0.995807	-0.088574	-0.022886
365	1613648													9.836677	-0.558121	0.646879	0.065726	-0.868051	0.492106	-0.063368	0.488546	0.870234	-0.995824	-0.088381	-0.022897
366	1613815													9.854600	-0.553922	0.674559	0.065605	-0.867983	0.492241	-0.063137	0.488704	0.870162	-0.995846	-0.088165	-0.022741
367	1613982													9.861921	-0.581670	0.665754	0.065612	-0.867868	0.492443	-0.062849	0.488933	0.870054	-0.995864	-0.088036	-0.022465
368	1614148													9.836000	-0.565148	0.649443	0.065735	-0.867769	0.492601	-0.062628	0.489108	0.869972	-0.995870	-0.088038	-0.022195
369	1614315													9.799362	-0.541238	0.679454	0.065841	-0.867679	0.492746	-0.062408	0.489270	0.869897	-0.995877	-0.088026	-0.021936
370	1614482													9.845953	-0.533647	0.711329	0.065933	-0.867556	0.492949	-0.062147	0.489495	0.869789	-0.995887	-0.087983	-0.021642
371	1614648													9.818048	-0.537774	0.692270	0.066063	-0.867435	0.493145	-0.061882	0.489712	0.869685	-0.995895	-0.087971	-0.021327
372	1614815													9.767735	-0.545000	0.690065	0.066133	-0.867373	0.493245	-0.061640	0.489832	0.869635	-0.995905	-0.087915	-0.021071
373	1614982													9.792121	-0.577704	0.670871	0.066191	-0.867328	0.493316	-0.061491	0.489915	0.869599	-0.995910	-0.087894	-0.020905
374	1615148													9.812801	-0.587363	0.702764	0.066236	-0.867302	0.493356	-0.061427	0.489960	0.869578	-0.995911	-0.087902	-0.020823
375	1615315													9.796034	-0.545636	0.695026	0.066260	-0.867381	0.493214	-0.061384	0.489821	0.869660	-0.995912	-0.087899	-0.020787
376	1615482													9.778548	-0.551750	0.698542	0.066300	-0.867494	0.493009	-0.061321	0.489620	0.869777	-0.995914	-0.087898	-0.020734
377	1615648													9.828860	-0.537185	0.691320	0.066185	-0.867685	0.492688	-0.061248	0.489307	0.869958	-0.995926	-0.087755	-0.020759
378	1615815													9.800162	-0.515602	0.692236	0.066049	-0.867877	0.492369	-0.061200	0.488994	0.870138	-0.995938	-0.087605	-0.020816
379	1615982													9.817286	-0.517834	0.683924	0.065812	-0.868062	0.492074	-0.061225	0.488701	0.870300	-0.995952	-0.087404	-0.020985
380	1616148													9.770488	-0.516471	0.689328	0.065563	-0.868199	0.491865	-0.061354	0.488486	0.870412	-0.995960	-0.087245	-0.021241
381	1616315													9.778219	-0.509099	0.670453	0.065122	-0.868321	0.491708	-0.061367	0.488337	0.870495	-0.995989	-0.086863	-0.021485
382	1616482													9.875933	-0.515416	0.640922	0.064766	-0.868394	0.491627	-0.061267	0.488271	0.870539	-0.996018	-0.086502	-0.021581
383	1616648													9.819832	-0.523911	0.627461	0.064546	-0.868422	0.491607	-0.061174	0.488264	0.870549	-0.996038	-0.086264	-0.021610
384	1616815													9.827724	-0.525025	0.632345	0.064270	-0.868444	0.491604	-0.061129	0.488272	0.870548	-0.996059	-0.086002	-0.021706
385	1616982													9.858733	-0.517361	0.628087	0.064100	-0.868463	0.491593	-0.061108	0.488266	0.870553	-0.996071	-0.085843	-0.021773
386	1617148													9.812429	-0.516587	0.619428	0.064051	-0.868395	0.491718	-0.061112	0.488392	0.870482	-0.996074	-0.085805	-0.021788
387	1617315													9.803235	-0.538130	0.602233	0.063954	-0.868350	0.491811	-0.061052	0.488492	0.870430	-0.996084	-0.085693	-0.021774
388	1617482													9.794206	-0.549320	0.608492	0.063848	-0.868303	0.491909	-0.060947	0.488602	0.870376	-0.996097	-0.085552	-0.021724
389	1617648													9.821918	-0.538942	0.622854	0.063720	-0.868274	0.491976	-0.060785	0.488686	0.870340	-0.996115	-0.085363	-0.021639
390	1617815													9.846651	-0.520045	0.616349	0.063673	-0.868254	0.492017	-0.060582	0.488745	0.870321	-0.996130	-0.085223	-0.021481
391	1617982													9.859096	-0.494221	0.625264	0.063679	-0.868238	0.492044	-0.060414	0.488787	0.870309	-0.996140	-0.085147	-0.021328
392	1618148													9.809980	-0.503852	0.613760	0.063672	-0.868192	0.492126	-0.060315	0.488877	0.870265	-0.996147	-0.085094	-0.021237
393	1618315													9.787800	-0.483452	0.628409	0.063549	-0.868132	0.492248	-0.060313	0.489003	0.870194	-0.996155	-0.084989	-0.021284
394	1618482													9.822547	-0.497934	0.607120	0.063380	-0.868076	0.492369	-0.060328	0.489126	0.870124	-0.996164	-0.084852	-0.021368
395	1618648													9.823013	-0.524050	0.623773	0.063264	-0.868009	0.492501	-0.060318	0.489262	0.870048	-0.996172	-0.084749	-0.021404
396	1618815													9.834205	-0.556350	0.615002	0.063178	-0.867938	0.492638	-0.060336	0.489399	0.869970	-0.996177	-0.084687	-0.021449
397	1618982													9.828520	-0.573191	0.609962	0.063166	-0.867924	0.492664	-0.060379	0.489422	0.869955	-0.996175	-0.084698	-0.021490
398	1619148													9.824721	-0.556018	0.609321	0.063224	-0.867961	0.492592	-0.060377	0.489349	0.869996	-0.996171	-0.084746	-0.021466
399	1619315													9.830079	-0.551744	0.635582	0.063305	-0.868023	0.492473	-0.060314	0.489233	0.870065	-0.996170	-0.084783	-0.021383
400	1619482													9.842042	-0.520285	0.617097	0.063460	-0.868118	0.492284	-0.060252	0.489046	0.870175	-0.996164	-0.084882	-0.021271
401	1619648													9.810523	-0.496919	0.620228	0.063620	-0.868215	0.492094	-0.060186	0.488857	0.870285	-0.996158	-0.084985	-0.021153
402	1619815													9.812627	-0.468219	0.640645	0.063738	-0.868269	0.491982	-0.060183	0.488743	0.870350	-0.996150	-0.085084	-0.021103
403	1619982													9.800190	-0.484328	0.649142	0.063782	-0.868275	0.491966	-0.060278	0.488718	0.870357	-0.996142	-0.085167	-0.021167
404	1620148													9.812528	-0.498098	0.621294	0.063829	-0.868264	0.491979	-0.060413	0.488719	0.870347	-0.996131	-0.085276	-0.021260
405	1620315													9.812286	-0.520471	0.635582	0.063849	-0.868229	0.492039	-0.060584	0.488763	0.870310	-0.996119	-0.085378	-0.021394
406	1620482													9.831909	-0.537797	0.620328	0.063922	-0.868237	0.492014	-0.060759	0.488722	0.870321	-0.996104	-0.085527	-0.021513
407	1620648													9.835814	-0.530441	0.627129	0.064054	-0.868246	0.491982	-0.060911	0.488674	0.870338	-0.996086	-0.085716	-0.021584
408	1620815													9.824759	-0.493631	0.642915	0.064256	-0.868248	0.491951	-0.061049	0.488627	0.870355	-0.996064	-0.085958	-0.021608
409	1620982													9.802521	-0.510124	0.630278	0.064518	-0.868208	0.491988	-0.061270	0.488639	0.870332	-0.996034	-0.086296	-0.021669
410	1621149													9.795949	-0.534068	0.616733	0.064659	-0.868166	0.492044	-0.061569	0.488666	0.870296	-0.996006	-0.086567	-0.021856
411	1621315													9.809893	-0.546728	0.634653	0.064773	-0.868140	0.492075	-0.061904	0.488665	0.870273	-0.995978	-0.086831	-0.022089
412	1621482													9.851934	-0.580905	0.647094	0.064974	-0.868096	0.492126	-0.062257	0.488681	0.870239	-0.995943	-0.087181	-0.022294
413	1621649													9.853969	-0.585052	0.661095	0.065245	-0.868052	0.492167	-0.062502	0.488694	0.870213	-0.995910	-0.087538	-0.022370
414	1621815													9.804243	-0.605827	0.651945	0.065586	-0.867994	0.492224	-0.062663	0.488729	0.870182	-0.995877	-0.087916	-0.022337
415	1621982													9.775975	-0.591161	0.651614	0.065813	-0.867987	0.492206	-0.062754	0.488698	0.870193	-0.995857	-0.088158	-0.022307
416	1622149													9.776636	-0.590321	0.672863	0.065950	-0.867988	0.492187	-0.062745	0.488677	0.870206	-0.995848	-0.088272	-0.022234
417	1622315													9.800435	-0.585464	0.669906	0.066046	-0.868000	0.492153	-0.062720	0.488643	0.870226	-0.995843	-0.088343	-0.022167
418	1622482													9.789156	-0.565806	0.687869	0.066139	-0.867966	0.492199	-0.062708	0.488688	0.870202	-0.995838	-0.088420	-0.022107
419	1622649													9.796125	-0.632978	0.666534	0.066165	-0.867928	0.492263	-0.062719	0.488751	0.870166	-0.995836	-0.088449	-0.022098
420	1622815													9.811462	-0.629072	0.633483	0.066087	-0.867985	0.492173	-0.062765	0.488659	0.870215	-0.995838	-0.088401	-0.022185
421	1622982													9.888624	-0.628075	0.655076	0.066065	-0.868056	0.492051	-0.062631	0.488549	0.870286	-0.995848	-0.088314	-0.022091
422	1623149													9.887365	-0.639839	0.678816	0.066262	-0.868123	0.491906	-0.062430	0.488417	0.870374	-0.995847	-0.088382	-0.021834
423	1623315													9.807183	-0.636702	0.665129	0.066545	-0.868243	0.491657	-0.062320	0.488170	0.870520	-0.995835	-0.088569	-0.021624
424	1623482													9.768021	-0.577554	0.698632	0.066769	-0.868398	0.491352	-0.062216	0.487869	0.870697	-0.995827	-0.088705	-0.021454
425	1623649													9.767736	-0.564666	0.690842	0.066888	-0.868530	0.491103	-0.062070	0.487630	0.870841	-0.995828	-0.088732	-0.021293
426	1623815													9.802760	-0.544960	0.698237	0.066930	-0.868657	0.490872	-0.061880	0.487415	0.870975	-0.995837	-0.088670	-0.021130
427	1623982													9.800778	-0.548998	0.712270	0.067008	-0.868725	0.490741	-0.061704	0.487297	0.871053	-0.995843	-0.088648	-0.020951
428	1624149													9.805863	-0.566528	0.711612	0.067108	-0.868774	0.490640	-0.061636	0.487200	0.871113	-0.995840	-0.088700	-0.020853
429	1624315													9.793983	-0.577969	0.717165	0.067175	-0.868823	0.490545	-0.061626	0.487104	0.871167	-0.995836	-0.088751	-0.020820
430	1624482													9.772486	-0.568578	0.716475	0.067198	-0.868829	0.490531	-0.061565	0.487094	0.871177	-0.995838	-0.088741	-0.020757
431	1624649													9.787993	-0.583072	0.718782	0.067119	-0.868854	0.490497	-0.061436	0.487074	0.871197	-0.995852	-0.088608	-0.020687
432	1624815													9.846558	-0.580000	0.722702	0.067049	-0.868877	0.490466	-0.061257	0.487060	0.871218	-0.995867	-0.088459	-0.020568
433	1624982													9.863612	-0.549921	0.735751	0.067072	-0.868918	0.490390	-0.061008	0.487006	0.871266	-0.995881	-0.088355	-0.020346
434	1625149													9.773374	-0.564579	0.694503	0.067089	-0.868934	0.490360	-0.060781	0.486996	0.871287	-0.995894	-0.088258	-0.020142
435	1625315													9.723721	-0.535845	0.684701	0.066907	-0.868984	0.490296	-0.060568	0.486953	0.871325	-0.995919	-0.087994	-0.020052
436	1625482													9.770245	-0.475561	0.679268	0.066534	-0.868990	0.490337	-0.060203	0.487034	0.871305	-0.995966	-0.087491	-0.019911
437	1625649													9.839713	-0.517928	0.687996	0.066159	-0.868921	0.490510	-0.059792	0.487251	0.871212	-0.996016	-0.086967	-0.019719
438	1625815													9.843027	-0.513491	0.669441	0.065864	-0.868821	0.490725	-0.059510	0.487497	0.871094	-0.996052	-0.086577	-0.019595
439	1625982													9.832596	-0.491621	0.674228	0.065628	-0.868718	0.490940	-0.059280	0.487737	0.870976	-0.996082	-0.086263	-0.019488
440	1626149													9.847723	-0.500981	0.648427	0.065462	-0.868575	0.491215	-0.059054	0.488035	0.870824	-0.996106	-0.086014	-0.019345
441	1626315													9.799905	-0.511592	0.651001	0.065260	-0.868404	0.491545	-0.058851	0.488388	0.870640	-0.996131	-0.085745	-0.019234
442	1626482													9.778334	-0.519712	0.629131	0.064975	-0.868268	0.491821	-0.058580	0.488694	0.870486	-0.996166	-0.085370	-0.019110
443	1626649													9.830428	-0.545979	0.613837	0.064659	-0.868181	0.492017	-0.058276	0.488922	0.870379	-0.996204	-0.084951	-0.018981
444	1626815													9.855158	-0.520078	0.622017	0.064424	-0.868174	0.492060	-0.058011	0.488992	0.870357	-0.996235	-0.084617	-0.018860
445	1626982													9.819754	-0.503691	0.627982	0.064264	-0.868189	0.492054	-0.057793	0.489008	0.870363	-0.996258	-0.084371	-0.018750
446	1627149													9.830479	-0.466391	0.611353	0.064038	-0.868202	0.492061	-0.057572	0.489038	0.870361	-0.996285	-0.084065	-0.018667
447	1627315													9.788362	-0.450327	0.610341	0.063822	-0.868193	0.492105	-0.057419	0.489099	0.870337	-0.996308	-0.083803	-0.018636
448	1627482													9.834916	-0.465724	0.623686	0.063545	-0.868185	0.492155	-0.057281	0.489166	0.870308	-0.996334	-0.083495	-0.018647
449	1627649													9.823975	-0.465581	0.615961	0.063354	-0.868144	0.492252	-0.057193	0.489274	0.870253	-0.996351	-0.083288	-0.018655
450	1627815													9.800383	-0.499465	0.646609	0.063197	-0.868075	0.492393	-0.057190	0.489419	0.870172	-0.996361	-0.083153	-0.018716
451	1627982													9.821844	-0.502301	0.629196	0.062988	-0.868005	0.492544	-0.057209	0.489572	0.870084	-0.996373	-0.082983	-0.018820
452	1628149													9.825983	-0.500337	0.630541	0.062779	-0.867969	0.492634	-0.057279	0.489660	0.870030	-0.996382	-0.082837	-0.018976
453	1628315													9.820528	-0.512843	0.652258	0.062603	-0.868014	0.492577	-0.057373	0.489599	0.870058	-0.996388	-0.082729	-0.019150
454	1628482													9.818942	-0.515309	0.658125	0.062406	-0.868074	0.492496	-0.057473	0.489513	0.870100	-0.996395	-0.082605	-0.019342
455	1628649													9.813413	-0.520293	0.660268	0.062149	-0.868166	0.492368	-0.057684	0.489372	0.870165	-0.996399	-0.082482	-0.019666
456	1628815													9.815945	-0.521250	0.636885	0.061836	-0.868298	0.492174	-0.057954	0.489162	0.870265	-0.996402	-0.082337	-0.020074
457	1628982													9.798739	-0.528014	0.663900	0.061489	-0.868456	0.491938	-0.058220	0.488911	0.870389	-0.996408	-0.082160	-0.020499
458	1629149													9.802384	-0.534520	0.601247	0.061080	-0.868627	0.491688	-0.058458	0.488649	0.870520	-0.996420	-0.081914	-0.020931
459	1629315													9.797461	-0.541875	0.629147	0.060642	-0.868842	0.491361	-0.058647	0.488315	0.870695	-0.996435	-0.081618	-0.021342
460	1629482													9.792310	-0.530548	0.617886	0.060184	-0.869042	0.491064	-0.058810	0.488014	0.870852	-0.996453	-0.081290	-0.021738
461	1629649													9.804643	-0.515383	0.613008	0.059658	-0.869237	0.490783	-0.058889	0.487738	0.871001	-0.996480	-0.080864	-0.022091
462	1629815													9.827533	-0.507961	0.589410	0.059104	-0.869372	0.490610	-0.058928	0.487574	0.871091	-0.996511	-0.080395	-0.022413
463	1629982													9.833876	-0.506687	0.580452	0.058570	-0.869462	0.490516	-0.058963	0.487488	0.871136	-0.996540	-0.079945	-0.022714
464	1630149													9.830284	-0.521959	0.576610	0.058079	-0.869533	0.490447	-0.059011	0.487427	0.871167	-0.996566	-0.079538	-0.023002
465	1630315													9.834005	-0.509908	0.545851	0.057545	-0.869541	0.490496	-0.059037	0.487487	0.871132	-0.996596	-0.079087	-0.023283
466	1630482													9.843704	-0.558436	0.541012	0.057095	-0.869550	0.490534	-0.059022	0.487537	0.871105	-0.996623	-0.078688	-0.023487
467	1630649													9.837718	-0.587166	0.509873	0.056753	-0.869548	0.490577	-0.058991	0.487590	0.871077	-0.996644	-0.078376	-0.023623
468	1630815													9.839447	-0.563020	0.496814	0.056575	-0.869568	0.490561	-0.058907	0.487585	0.871086	-0.996659	-0.078179	-0.023639
469	1630982													9.830106	-0.561572	0.461706	0.056497	-0.869615	0.490487	-0.058779	0.487523	0.871130	-0.996671	-0.078046	-0.023571
470	1631149													9.862079	-0.559165	0.458367	0.056513	-0.869687	0.490358	-0.058710	0.487399	0.871204	-0.996674	-0.078023	-0.023515
471	1631315													9.894505	-0.511183	0.473182	0.056687	-0.869771	0.490189	-0.058561	0.487236	0.871305	-0.996673	-0.078098	-0.023315
472	1631482													9.942004	-0.526154	0.480401	0.057160	-0.869786	0.490107	-0.058346	0.487160	0.871361	-0.996659	-0.078403	-0.022903
473	1631649													9.965091	-0.526191	0.480240	0.058027	-0.869785	0.490007	-0.058263	0.487046	0.871431	-0.996613	-0.079115	-0.022414
474	1631815													9.908905	-0.492842	0.481534	0.059245	-0.869716	0.489983	-0.058276	0.486995	0.871458	-0.996541	-0.080184	-0.021832
475	1631982													9.847394	-0.499484	0.508644	0.060617	-0.869595	0.490031	-0.058267	0.487014	0.871449	-0.996459	-0.081377	-0.021147
476	1632149													9.857013	-0.526781	0.522663	0.062121	-0.869458	0.490086	-0.058171	0.487045	0.871437	-0.996372	-0.082644	-0.020322
477	1632315													9.871371	-0.537841	0.552384	0.063831	-0.869279	0.490183	-0.058058	0.487118	0.871404	-0.996270	-0.084082	-0.019375
478	1632482													9.877060	-0.554141	0.591417	0.065746	-0.869085	0.490274	-0.057936	0.487184	0.871376	-0.996153	-0.085694	-0.018321
479	1632649													9.887035	-0.544380	0.578596	0.067880	-0.868886	0.490336	-0.057805	0.487219	0.871365	-0.996018	-0.087492	-0.017154
480	1632815													9.887376	-0.525535	0.612352	0.070265	-0.868668	0.490387	-0.057677	0.487242	0.871360	-0.995860	-0.089510	-0.015866
481	1632982													9.847499	-0.510659	0.656793	0.072828	-0.868405	0.490478	-0.057517	0.487309	0.871334	-0.995685	-0.091668	-0.014458
482	1633149													9.850522	-0.519450	0.683948	0.075446	-0.868114	0.490598	-0.057314	0.487412	0.871289	-0.995501	-0.093853	-0.012982
483	1633315													9.893063	-0.501072	0.696206	0.078156	-0.867810	0.490711	-0.057108	0.487512	0.871247	-0.995304	-0.096116	-0.011457
484	1633482													9.925487	-0.598982	0.720936	0.081059	-0.867469	0.490843	-0.056872	0.487636	0.871193	-0.995085	-0.098533	-0.009808
485	1633649													9.906960	-0.612843	0.743243	0.084350	-0.867211	0.490744	-0.056595	0.487535	0.871267	-0.994828	-0.101265	-0.007957
486	1633815													9.849028	-0.568809	0.754547	0.087791	-0.867029	0.490462	-0.056285	0.487259	0.871442	-0.994548	-0.104110	-0.006024
487	1633982													9.968089	-0.421103	0.781705	0.091488	-0.866805	0.490182	-0.055931	0.486997	0.871611	-0.994234	-0.107159	-0.003927
488	1634149													9.916178	-0.460122	0.820581	0.095602	-0.866439	0.490045	-0.055729	0.486869	0.871695	-0.993858	-0.110645	-0.001740
489	1634315													9.811236	-0.472370	0.836902	0.099894	-0.866000	0.489964	-0.055548	0.486805	0.871743	-0.993446	-0.114298	0.000524
490	1634482													9.833454	-0.469753	0.911875	0.104276	-0.865501	0.489933	-0.055443	0.486794	0.871756	-0.993002	-0.118067	0.002775
491	1634649													9.861541	-0.473361	0.967138	0.108858	-0.864935	0.489936	-0.055383	0.486823	0.871743	-0.992513	-0.122030	0.005092
492	1634815													9.850710	-0.489211	0.989893	0.113640	-0.864282	0.490002	-0.055294	0.486931	0.871688	-0.991982	-0.126153	0.007546
493	1634982													9.864413	-0.481240	1.018926	0.118637	-0.863585	0.490048	-0.055168	0.487038	0.871637	-0.991404	-0.130444	0.010138
494	1635149													9.890257	-0.498363	1.051210	0.123917	-0.862804	0.490117	-0.055041	0.487186	0.871562	-0.990765	-0.134978	0.012881
495	1635315													9.884754	-0.485638	1.098209	0.129563	-0.861901	0.490245	-0.054916	0.487416	0.871441	-0.990049	-0.139829	0.015818
496	1635482													9.843026	-0.502806	1.148216	0.135512	-0.860953	0.490302	-0.054752	0.487603	0.871347	-0.989262	-0.144923	0.018938
497	1635649													9.716953	-0.507345	1.197804	0.141525	-0.859939	0.490383	-0.054491	0.487851	0.871225	-0.988434	-0.150021	0.022185
498	1635815													9.647786	-0.489266	1.284955	0.147383	-0.858921	0.490442	-0.054157	0.488105	0.871103	-0.987596	-0.154947	0.025422
499	1635982													9.682631	-0.462806	1.325326	0.152983	-0.857908	0.490499	-0.053740	0.488385	0.870972	-0.986767	-0.159603	0.028610
500	1636149													9.718362	-0.459848	1.367371	0.158525	-0.856834	0.490617	-0.053372	0.488738	0.870797	-0.985911	-0.164228	0.031746
501	1636315													9.818394	-0.428878	1.468618	0.164144	-0.855700	0.490749	-0.053053	0.489119	0.870602	-0.985009	-0.168940	0.034889
502	1636482													9.911595	-0.429388	1.509871	0.170182	-0.854400	0.490956	-0.052770	0.489607	0.870345	-0.983999	-0.174025	0.038236
503	1636649													9.827024	-0.438287	1.579115	0.176704	-0.852937	0.491196	-0.052492	0.490173	0.870043	-0.982863	-0.179524	0.041843
504	1636815													9.764271	-0.434520	1.633142	0.183458	-0.851367	0.491444	-0.052202	0.490786	0.869715	-0.981641	-0.185210	0.045596
505	1636982													9.744550	-0.455820	1.682546	0.190397	-0.849718	0.491658	-0.051967	0.491394	0.869386	-0.980331	-0.191079	0.049403
506	1637149													9.744639	-0.456785	1.740159	0.197486	-0.847984	0.491856	-0.051811	0.492007	0.869048	-0.978936	-0.197109	0.053230
507	1637315													9.777244	-0.451145	1.788333	0.204850	-0.846185	0.491942	-0.051692	0.492546	0.868750	-0.977427	-0.203393	0.057157
508	1637482													9.790835	-0.467218	1.827261	0.212577	-0.844281	0.491935	-0.051684	0.493022	0.868480	-0.975776	-0.210044	0.061170
509	1637649													9.846100	-0.464620	1.905750	0.220846	-0.842208	0.491845	-0.051740	0.493470	0.868222	-0.973935	-0.217192	0.065405
510	1637816													9.941092	-0.456075	2.026536	0.229904	-0.839908	0.491629	-0.051845	0.493874	0.867987	-0.971832	-0.225042	0.069999
511	1637982													9.834197	-0.473487	2.143938	0.239856	-0.837303	0.491317	-0.051927	0.494301	0.867739	-0.969419	-0.233645	0.075083
512	1638149													9.745621	-0.508956	2.230481	0.250378	-0.834493	0.490849	-0.051984	0.494678	0.867520	-0.966752	-0.242724	0.080476
513	1638316													9.620572	-0.534017	2.345744	0.261236	-0.831529	0.490220	-0.051931	0.495013	0.867332	-0.963877	-0.252036	0.086133
514	1638482													9.536929	-0.549889	2.391589	0.272192	-0.828473	0.489432	-0.051823	0.495277	0.867188	-0.960846	-0.261406	0.091877
515	1638649													9.519757	-0.547382	2.491760	0.283315	-0.825328	0.488433	-0.051674	0.495423	0.867113	-0.957634	-0.270905	0.097712
516	1638816													9.558110	-0.540708	2.553645	0.294611	-0.822068	0.487246	-0.051490	0.495480	0.867092	-0.954229	-0.280543	0.103645
517	1638982													9.571027	-0.483753	2.736029	0.306300	-0.818596	0.485881	-0.051292	0.495480	0.867103	-0.950552	-0.290516	0.109779
518	1639149													9.599116	-0.444758	2.872622	0.318538	-0.814766	0.484447	-0.051085	0.495571	0.867064	-0.946532	-0.300941	0.116236
519	1639316													9.497547	-0.432263	3.000547	0.331405	-0.810521	0.482935	-0.050840	0.495777	0.866961	-0.942118	-0.311868	0.123096
520	1639482													9.419335	-0.434168	3.086556	0.344751	-0.805907	0.481313	-0.050570	0.496057	0.866816	-0.937331	-0.323175	0.130261
521	1639649													9.430512	-0.429351	3.223618	0.358511	-0.800955	0.479522	-0.050340	0.496334	0.866671	-0.932167	-0.334850	0.137621
522	1639816													9.503589	-0.431836	3.469903	0.372780	-0.795628	0.477506	-0.050214	0.496547	0.866556	-0.926560	-0.347013	0.145151
523	1639982													9.229316	-0.445959	3.632660	0.387695	-0.789800	0.475299	-0.050182	0.496779	0.866425	-0.920421	-0.359760	0.152965
524	1640149													8.856930	-0.477532	3.814052	0.402310	-0.783849	0.472997	-0.050116	0.497022	0.866290	-0.914131	-0.372222	0.160673
525	1640316													8.707662	-0.495112	3.944913	0.416130	-0.778063	0.470588	-0.049983	0.497171	0.866212	-0.907930	-0.383978	0.167998
526	1640482													8.653035	-0.512210	4.032748	0.429111	-0.772553	0.468002	-0.049838	0.497090	0.866266	-0.901876	-0.395048	0.174804
527	1640649													8.632162	-0.437687	4.126482	0.441226	-0.767348	0.465292	-0.049711	0.496795	0.866443	-0.896018	-0.405427	0.181054
528	1640816													8.784852	-0.378472	4.262922	0.452729	-0.762299	0.462533	-0.049515	0.496445	0.866655	-0.890272	-0.415262	0.187010
529	1640982													9.034089	-0.313104	4.400095	0.464338	-0.756966	0.459775	-0.049356	0.496211	0.866798	-0.884282	-0.425180	0.193049
530	1641149													9.055921	-0.334377	4.507500	0.476691	-0.750974	0.456950	-0.049366	0.496121	0.866849	-0.877684	-0.435776	0.199424
531	1641316													8.840994	-0.378887	4.629264	0.489632	-0.744441	0.453947	-0.049693	0.495952	0.866927	-0.870512	-0.447033	0.205841
532	1641482													8.630901	-0.346119	4.674912	0.502730	-0.737699	0.450626	-0.050281	0.495453	0.867178	-0.862980	-0.458614	0.211987
533	1641649													8.528672	-0.374017	4.779656	0.515782	-0.730793	0.447114	-0.051008	0.494769	0.867526	-0.855200	-0.470261	0.217917
534	1641816													8.584110	-0.446612	4.967267	0.528802	-0.723719	0.443394	-0.051823	0.493905	0.867970	-0.847161	-0.481963	0.223673
535	1641982													8.604519	-0.520046	5.190404	0.542038	-0.716410	0.439263	-0.052824	0.492632	0.868633	-0.838692	-0.494035	0.229182
536	1642149													8.298219	-0.426385	5.328910	0.555419	-0.708843	0.434799	-0.053858	0.491104	0.869435	-0.829824	-0.506318	0.234591
537	1642316													7.897101	-0.402690	5.472331	0.568307	-0.701236	0.430460	-0.054810	0.489730	0.870150	-0.820989	-0.518105	0.239882
538	1642482													7.831096	-0.428486	5.630476	0.580280	-0.693947	0.426277	-0.055568	0.488458	0.870816	-0.812519	-0.529005	0.244881
539	1642649													7.929556	-0.381365	5.721058	0.591605	-0.686829	0.422219	-0.056280	0.487237	0.871454	-0.804261	-0.539320	0.249597
540	1642816													8.090072	-0.382071	5.840960	0.602674	-0.679568	0.418296	-0.057109	0.486114	0.872027	-0.795942	-0.549437	0.254158
541	1642982													8.171465	-0.444672	5.884099	0.614053	-0.671808	0.414262	-0.058139	0.484944	0.872611	-0.787120	-0.559914	0.258723
542	1643149													7.908039	-0.436309	5.940102	0.625880	-0.663538	0.409867	-0.059330	0.483496	0.873334	-0.777659	-0.570920	0.263243
543	1643316													7.715587	-0.386964	6.011840	0.637684	-0.654971	0.405427	-0.060638	0.482009	0.874066	-0.767907	-0.581962	0.267653
544	1643482													7.670547	-0.408013	6.058889	0.649609	-0.645954	0.400938	-0.062022	0.480580	0.874755	-0.757734	-0.593115	0.272126
545	1643649													7.602115	-0.491318	6.104546	0.661724	-0.636456	0.396289	-0.063588	0.479017	0.875499	-0.747046	-0.604538	0.276506
546	1643816													7.762661	-0.501311	6.204434	0.674320	-0.626260	0.391268	-0.065286	0.477222	0.876354	-0.735547	-0.616488	0.280915
547	1643982													7.781548	-0.457938	6.211181	0.688156	-0.614542	0.385720	-0.067297	0.475261	0.877267	-0.722435	-0.629654	0.285697
548	1644149													7.349441	-0.409449	6.396891	0.702700	-0.601441	0.380108	-0.069606	0.473568	0.878002	-0.708073	-0.643430	0.290912
549	1644316													6.827574	-0.580381	6.609589	0.717150	-0.587506	0.374877	-0.072105	0.472471	0.878392	-0.693179	-0.656969	0.296470
550	1644482													6.442687	-0.822090	6.869301	0.730850	-0.573623	0.369885	-0.074710	0.471437	0.878730	-0.678436	-0.669854	0.301695
551	1644649													6.184673	-0.959864	7.239078	0.743346	-0.560500	0.365070	-0.077252	0.470184	0.879181	-0.664431	-0.681738	0.306209
552	1644816													6.207237	-0.915954	7.772839	0.754446	-0.548582	0.360374	-0.079383	0.468755	0.879754	-0.651545	-0.692334	0.310102
553	1644982													6.301191	-0.825519	8.081767	0.764808	-0.537002	0.355946	-0.081012	0.467944	0.880037	-0.639145	-0.701895	0.314384
554	1645149													6.027521	-0.975939	8.257782	0.774421	-0.525745	0.351942	-0.082339	0.467795	0.879993	-0.627289	-0.710464	0.318981
555	1645316													5.786551	-1.097126	8.404965	0.782977	-0.515492	0.348160	-0.083448	0.467594	0.879996	-0.616428	-0.718069	0.323098
556	1645482													5.601839	-1.022812	8.485620	0.790418	-0.506525	0.344487	-0.084335	0.467028	0.880211	-0.606735	-0.724787	0.326430
557	1645649													5.570306	-1.001983	8.635000	0.796633	-0.499043	0.341074	-0.084830	0.466374	0.880511	-0.598481	-0.730377	0.329195
558	1645816													6.066463	-0.978820	8.762275	0.802040	-0.492707	0.337596	-0.084275	0.466220	0.880645	-0.591295	-0.734764	0.332405
559	1645982													5.845406	-0.906553	8.754512	0.807174	-0.486766	0.333960	-0.083038	0.466481	0.880625	-0.584444	-0.738549	0.336112
560	1646149													5.454067	-0.760091	8.720400	0.811519	-0.481814	0.330593	-0.081704	0.466646	0.880662	-0.578585	-0.741685	0.339326
561	1646316													5.437154	-0.643070	8.795438	0.814758	-0.478094	0.328018	-0.080810	0.466583	0.880778	-0.574142	-0.744128	0.341518
562	1646482													5.640656	-0.569960	8.799667	0.817232	-0.475279	0.325946	-0.080222	0.466253	0.881006	-0.570698	-0.746135	0.342909
563	1646649													5.685339	-0.580173	8.794463	0.819262	-0.472929	0.324264	-0.079789	0.465972	0.881195	-0.567841	-0.747802	0.344019
564	1646816													5.582963	-0.617931	8.735218	0.820886	-0.471125	0.322782	-0.079298	0.465696	0.881385	-0.565560	-0.749112	0.344924
565	1646982													5.425205	-0.599228	8.731824	0.822009	-0.469846	0.321785	-0.078890	0.465657	0.881442	-0.563983	-0.749939	0.345708
566	1647149													5.548646	-0.734778	8.654115	0.822490	-0.469287	0.321371	-0.078753	0.465614	0.881477	-0.563301	-0.750315	0.346006
567	1647316													5.631011	-0.734983	8.574064	0.822631	-0.469283	0.321018	-0.078670	0.465224	0.881690	-0.563107	-0.750560	0.345789
568	1647482													5.693256	-0.719909	8.493893	0.822536	-0.469644	0.320732	-0.078553	0.464734	0.881959	-0.563262	-0.750638	0.345368
569	1647649													5.619006	-0.615038	8.406320	0.822363	-0.470101	0.320507	-0.078368	0.464359	0.882173	-0.563541	-0.750583	0.345031
570	1647816													5.730267	-0.500619	8.383120	0.821983	-0.470573	0.320789	-0.078374	0.464444	0.882128	-0.564094	-0.750235	0.344885
571	1647982													5.875378	-0.741961	8.297782	0.821675	-0.470660	0.321447	-0.078725	0.464859	0.881878	-0.564493	-0.749923	0.344910
572	1648149													5.747819	-0.991835	8.229075	0.821571	-0.470784	0.321535	-0.078812	0.464788	0.881908	-0.564633	-0.749890	0.344753
573	1648316													5.601676	-0.896971	8.219841	0.821475	-0.471478	0.320760	-0.078125	0.464140	0.882310	-0.564867	-0.749855	0.344445
574	1648482													5.723302	-0.588908	8.283014	0.821263	-0.472499	0.319798	-0.077108	0.463450	0.882762	-0.565315	-0.749639	0.344181
575	1648649													5.766626	-0.414987	8.311631	0.820987	-0.473182	0.319500	-0.076821	0.462959	0.883045	-0.565756	-0.749512	0.343733
576	1648816													5.775272	-0.526784	8.287155	0.820764	-0.473351	0.319821	-0.077367	0.462582	0.883194	-0.566004	-0.749638	0.343048
577	1648982													5.649279	-0.757316	8.247179	0.820488	-0.473534	0.320256	-0.077914	0.462358	0.883263	-0.566329	-0.749660	0.342464
578	1649149													5.639573	-0.912179	8.246089	0.820102	-0.474257	0.320177	-0.077902	0.461793	0.883560	-0.566890	-0.749552	0.341772
579	1649316													5.752516	-0.710854	8.294149	0.819569	-0.475459	0.319759	-0.077541	0.460895	0.884060	-0.567710	-0.749342	0.340868
580	1649482													5.990315	-0.626493	8.347980	0.819086	-0.476438	0.319538	-0.077220	0.460368	0.884363	-0.568449	-0.749045	0.340290
581	1649649													5.925809	-0.791578	8.309172	0.818890	-0.477038	0.319145	-0.076805	0.459969	0.884607	-0.568788	-0.748908	0.340026
582	1649816													5.613359	-0.802356	8.399633	0.818539	-0.478072	0.318497	-0.075958	0.459495	0.884926	-0.569407	-0.748539	0.339801
583	1649982													5.566809	-0.770683	8.593692	0.817644	-0.479969	0.317945	-0.074662	0.459189	0.885195	-0.570863	-0.747512	0.339618
584	1650149													5.526000	-0.815687	8.742598	0.816069	-0.482821	0.317670	-0.073056	0.459062	0.885395	-0.573318	-0.745752	0.339353
585	1650316													5.730285	-0.741401	8.674006	0.814105	-0.486423	0.317215	-0.071283	0.458411	0.885877	-0.576326	-0.743809	0.338521
586	1650482													5.653669	-0.355161	8.528788	0.811979	-0.490084	0.317029	-0.069883	0.457617	0.886399	-0.579488	-0.741892	0.337327
587	1650649													5.720229	-0.283535	8.419287	0.809340	-0.493854	0.317928	-0.069189	0.457366	0.886583	-0.583252	-0.739544	0.335996
588	1650816													5.899735	-0.417648	8.491136	0.806249	-0.497765	0.319674	-0.069096	0.457442	0.886551	-0.587527	-0.736869	0.334419
589	1650982													6.036654	-0.504684	8.551738	0.802934	-0.501667	0.321912	-0.069365	0.457750	0.886371	-0.592018	-0.734027	0.332745
590	1651149													5.847424	-0.653602	8.530257	0.799285	-0.505802	0.324512	-0.069756	0.458258	0.886078	-0.596890	-0.730865	0.330996
591	1651316													5.681551	-0.716120	8.355165	0.795131	-0.510607	0.327182	-0.070033	0.458591	0.885883	-0.602381	-0.727307	0.328881
592	1651482													5.796981	-0.681657	8.222852	0.790192	-0.516438	0.329983	-0.070058	0.458783	0.885782	-0.608842	-0.723056	0.326346
593	1651649													6.107861	-0.595060	8.143467	0.784669	-0.522970	0.332862	-0.069952	0.458823	0.885770	-0.615956	-0.718321	0.323441
594	1651816													6.462281	-0.634851	8.196303	0.778981	-0.529570	0.335774	-0.069875	0.458837	0.885768	-0.623143	-0.713459	0.320421
595	1651982													6.192033	-0.615987	8.092187	0.773189	-0.536118	0.338757	-0.069852	0.458923	0.885726	-0.630316	-0.708497	0.317385
596	1652149													5.882538	-0.625822	8.037045	0.766396	-0.543585	0.342275	-0.069727	0.459288	0.885547	-0.638573	-0.702545	0.314094
597	1652316													6.222906	-0.675013	7.938803	0.758659	-0.551837	0.346283	-0.069545	0.459892	0.885247	-0.647766	-0.695683	0.310523
598	1652482													6.433815	-0.746081	7.908557	0.750362	-0.560502	0.350419	-0.069181	0.460614	0.884900	-0.657397	-0.688238	0.306851
599	1652649													6.247630	-0.801775	7.847608	0.741263	-0.569901	0.354600	-0.068446	0.461362	0.884568	-0.667715	-0.679968	0.302984
600	1652816													6.436644	-0.771699	7.716969	0.731113	-0.580170	0.358993	-0.067418	0.462174	0.884223	-0.678917	-0.670670	0.298788
601	1652982													6.537494	-0.738227	7.426721	0.720236	-0.590967	0.363342	-0.066192	0.462821	0.883977	-0.690564	-0.660722	0.294224
602	1653149													6.866675	-0.626517	7.266875	0.708720	-0.602097	0.367688	-0.064916	0.463314	0.883813	-0.702496	-0.650245	0.289275
603	1653316													7.207519	-0.545944	7.109675	0.697185	-0.612826	0.371992	-0.063803	0.463794	0.883643	-0.714047	-0.639796	0.284250
604	1653482													6.999651	-0.488119	6.989038	0.685487	-0.623227	0.376424	-0.062890	0.464390	0.883395	-0.725363	-0.629229	0.279139
605	1653649													6.858387	-0.443918	6.819695	0.672841	-0.633946	0.381309	-0.062128	0.465188	0.883029	-0.737173	-0.617829	0.273612
606	1653816													7.145069	-0.546778	6.564719	0.659268	-0.644981	0.386479	-0.061592	0.465947	0.882667	-0.749382	-0.605717	0.267458
607	1653982													7.599378	-0.572118	6.314973	0.645424	-0.655884	0.391464	-0.061329	0.466351	0.882471	-0.761358	-0.593576	0.260770
608	1654149													7.889548	-0.578919	6.132750	0.631829	-0.666235	0.396135	-0.061210	0.466588	0.882354	-0.772687	-0.581745	0.254023
609	1654316													7.580607	-0.546482	5.970331	0.618401	-0.676057	0.400658	-0.061090	0.466934	0.882179	-0.783485	-0.570017	0.247452
610	1654483													7.531547	-0.561074	5.723440	0.604275	-0.685968	0.405340	-0.060808	0.467538	0.881879	-0.794452	-0.557545	0.240809
611	1654649													7.682672	-0.621386	5.609453	0.589332	-0.696100	0.410039	-0.060390	0.468166	0.881575	-0.805630	-0.544303	0.233867
612	1654816													7.991048	-0.614622	5.510909	0.573820	-0.706300	0.414574	-0.059823	0.468706	0.881326	-0.816794	-0.530523	0.226700
613	1654983													8.178814	-0.596191	5.304348	0.558137	-0.716171	0.419025	-0.059086	0.469416	0.880998	-0.827643	-0.516476	0.219683
614	1655149													8.020947	-0.653914	5.114246	0.542160	-0.725870	0.423291	-0.058163	0.470126	0.880681	-0.838260	-0.502090	0.212664
615	1655316													8.072598	-0.593271	4.870064	0.525565	-0.735613	0.427381	-0.057105	0.470720	0.880433	-0.848835	-0.487130	0.205386
616	1655483													7.940609	-0.571972	4.732698	0.507933	-0.745567	0.431433	-0.056102	0.471157	0.880263	-0.859568	-0.471319	0.197488
617	1655649													8.045841	-0.481093	4.548762	0.488720	-0.755948	0.435540	-0.054984	0.471540	0.880129	-0.870706	-0.454085	0.188886
618	1655816													8.663916	-0.501497	4.331946	0.468468	-0.766334	0.439624	-0.053690	0.471991	0.879967	-0.881847	-0.435840	0.179968
619	1655983													9.334096	-0.496815	4.188700	0.448900	-0.775932	0.443191	-0.052450	0.472236	0.879910	-0.892041	-0.418237	0.171289
620	1656149													9.421792	-0.461830	3.981946	0.430903	-0.784394	0.446148	-0.051421	0.472256	0.879960	-0.900932	-0.402119	0.163162
621	1656316													9.005082	-0.385324	3.879394	0.413822	-0.792039	0.448804	-0.050553	0.472244	0.880017	-0.908953	-0.386859	0.155385
622	1656483													8.766315	-0.338475	3.732462	0.396336	-0.799372	0.451577	-0.049706	0.472454	0.879953	-0.916759	-0.371203	0.147517
623	1656649													8.918317	-0.380359	3.590632	0.378079	-0.806543	0.454472	-0.048753	0.472883	0.879775	-0.924489	-0.354782	0.139466
624	1656816													9.557493	-0.440931	3.547154	0.359860	-0.813335	0.457151	-0.047842	0.473246	0.879630	-0.931779	-0.338415	0.131390
625	1656983													9.849463	-0.378072	3.354332	0.343198	-0.819229	0.459433	-0.047331	0.473437	0.879555	-0.938070	-0.323607	0.123708
626	1657149													9.308251	-0.280559	3.257832	0.327546	-0.824388	0.461625	-0.046942	0.473775	0.879394	-0.943668	-0.309711	0.116484
627	1657316													9.071333	-0.224773	3.044760	0.311487	-0.829196	0.464122	-0.046210	0.474626	0.878974	-0.949126	-0.295236	0.109523
628	1657483													9.222480	-0.242674	2.791753	0.294878	-0.833686	0.466920	-0.045161	0.475942	0.878316	-0.954467	-0.280083	0.102695
629	1657649													9.707145	-0.260855	2.677388	0.278350	-0.837733	0.469813	-0.044143	0.477469	0.877539	-0.959465	-0.265001	0.095924
630	1657816													9.870994	-0.265742	2.497806	0.262977	-0.841069	0.472700	-0.043292	0.479165	0.876657	-0.963830	-0.251005	0.089598
631	1657983													9.786105	-0.306845	2.368546	0.248631	-0.843840	0.475517	-0.042513	0.480953	0.875715	-0.967665	-0.237945	0.083706
632	1658149													9.717487	-0.297936	2.264819	0.235097	-0.846191	0.478216	-0.041770	0.482756	0.874758	-0.971074	-0.225628	0.078149
633	1658316													9.783144	-0.281106	2.141784	0.222163	-0.848209	0.480817	-0.041126	0.484550	0.873796	-0.974142	-0.213899	0.072765
634	1658483													9.670100	-0.322930	2.042063	0.209746	-0.849985	0.483252	-0.040572	0.486254	0.872875	-0.976914	-0.202689	0.067504
635	1658649													9.718194	-0.367194	1.945650	0.197523	-0.851677	0.485418	-0.040080	0.487743	0.872067	-0.979478	-0.191709	0.062205
636	1658816													9.764814	-0.357098	1.889668	0.185610	-0.853263	0.487330	-0.039487	0.489071	0.871350	-0.981830	-0.180974	0.057084
637	1658983													9.541471	-0.372178	1.773180	0.173824	-0.854696	0.489162	-0.038745	0.490403	0.870634	-0.984014	-0.170289	0.052128
638	1659149													9.589929	-0.392352	1.595388	0.161597	-0.856213	0.490699	-0.037954	0.491474	0.870065	-0.986127	-0.159224	0.046924
639	1659316													9.836649	-0.352901	1.521287	0.149575	-0.857736	0.491850	-0.037300	0.492197	0.869684	-0.988047	-0.148429	0.041627
640	1659483													9.755881	-0.346678	1.398034	0.138019	-0.859198	0.492676	-0.036999	0.492617	0.869460	-0.989738	-0.138230	0.036201
641	1659649													9.446267	-0.290953	1.269023	0.126167	-0.860730	0.493179	-0.036932	0.492732	0.869397	-0.991321	-0.127904	0.030378
642	1659816													9.595116	-0.267743	1.121491	0.113573	-0.862324	0.493456	-0.036997	0.492655	0.869438	-0.992841	-0.117001	0.024049
643	1659983													9.875453	-0.265663	1.066714	0.101102	-0.863806	0.493576	-0.037257	0.492482	0.869525	-0.994178	-0.106300	0.017608
644	1660149													9.743957	-0.243974	0.996563	0.089184	-0.865066	0.493668	-0.037750	0.492351	0.869578	-0.995300	-0.096188	0.011253
645	1660316													9.439565	-0.303554	0.809172	0.076771	-0.866205	0.493756	-0.038400	0.492281	0.869589	-0.996309	-0.085720	0.004531
646	1660483													9.480325	-0.331706	0.624798	0.063356	-0.867310	0.493719	-0.039239	0.492166	0.869617	-0.997219	-0.074468	-0.002851
647	1660649													9.854847	-0.299722	0.563198	0.049586	-0.868283	0.493584	-0.040283	0.492052	0.869634	-0.997957	-0.063005	-0.010578
648	1660816													9.805216	-0.336055	0.400162	0.036388	-0.869017	0.493442	-0.041439	0.492033	0.869590	-0.998478	-0.052090	-0.018107
649	1660983													9.649384	-0.398407	0.239946	0.023101	-0.869617	0.493187	-0.042693	0.492010	0.869542	-0.998821	-0.041143	-0.025761
650	1661149													9.716632	-0.397682	0.046230	0.009577	-0.870130	0.492729	-0.043939	0.491909	0.869537	-0.998988	-0.029978	-0.033522
651	1661316													9.853167	-0.413436	-0.192444	-0.003875	-0.870503	0.492149	-0.045138	0.491803	0.869536	-0.998973	-0.018844	-0.041198
652	1661483													9.872424	-0.443688	-0.362970	-0.017001	-0.870752	0.491429	-0.046326	0.491658	0.869555	-0.998782	-0.007983	-0.048697
653	1661649													9.817966	-0.487947	-0.577748	-0.029821	-0.870913	0.490532	-0.047598	0.491431	0.869615	-0.998421	0.002585	-0.056109
654	1661816													9.844176	-0.548801	-0.742861	-0.042381	-0.870994	0.489462	-0.048893	0.491123	0.869717	-0.997904	0.012928	-0.063399
655	1661983													9.915611	-0.580709	-0.855641	-0.054470	-0.870988	0.488276	-0.050134	0.490771	0.869845	-0.997256	0.022901	-0.070398
656	1662149													10.047762	-0.598412	-0.944883	-0.065741	-0.870897	0.487050	-0.051118	0.490404	0.869995	-0.996527	0.032298	-0.076758
657	1662316													10.167381	-0.620988	-1.032184	-0.075844	-0.870746	0.485850	-0.051832	0.490037	0.870159	-0.995772	0.040814	-0.082298
658	1662483													10.190117	-0.645066	-1.122206	-0.084654	-0.870584	0.484682	-0.052354	0.489642	0.870350	-0.995034	0.048303	-0.087029
659	1662649													10.158957	-0.636070	-1.208099	-0.092229	-0.870442	0.483554	-0.052828	0.489217	0.870561	-0.994336	0.054746	-0.091103
660	1662816													10.019318	-0.591688	-1.274977	-0.098784	-0.870343	0.482436	-0.053247	0.488736	0.870805	-0.993683	0.060334	-0.094622
661	1662983													9.881369	-0.534268	-1.299218	-0.104714	-0.870258	0.481338	-0.053611	0.488235	0.871064	-0.993056	0.065408	-0.097780
662	1663149													9.887397	-0.490311	-1.298455	-0.110192	-0.870164	0.480284	-0.053847	0.487743	0.871325	-0.992451	0.070151	-0.100601
663	1663316													9.990322	-0.492118	-1.312232	-0.115048	-0.870052	0.479347	-0.053961	0.487312	0.871559	-0.991893	0.074405	-0.103014
664	1663483													10.036285	-0.504081	-1.336940	-0.119015	-0.869953	0.478558	-0.054101	0.486950	0.871753	-0.991417	0.077861	-0.105020
665	1663649													9.963285	-0.506564	-1.369770	-0.122211	-0.869872	0.477898	-0.054380	0.486653	0.871901	-0.991013	0.080568	-0.106778
666	1663816													9.789501	-0.510114	-1.455370	-0.124893	-0.869774	0.477383	-0.054804	0.486463	0.871981	-0.990655	0.082742	-0.108423
667	1663983													9.476797	-0.505762	-1.421560	-0.127671	-0.869632	0.476906	-0.055394	0.486343	0.872010	-0.990268	0.084913	-0.110264
668	1664149													9.413689	-0.519509	-1.387271	-0.131146	-0.869412	0.476364	-0.056016	0.486245	0.872025	-0.989779	0.087678	-0.112470
669	1664316													9.608822	-0.523436	-1.356959	-0.135060	-0.869124	0.475796	-0.056584	0.486178	0.872026	-0.989220	0.090854	-0.114842
670	1664483													9.841220	-0.553529	-1.326980	-0.138753	-0.868819	0.475290	-0.057105	0.486153	0.872006	-0.988679	0.093852	-0.117069
671	1664649													9.918318	-0.566975	-1.375862	-0.141837	-0.868545	0.474881	-0.057590	0.486159	0.871971	-0.988213	0.096329	-0.118974
672	1664816													9.906332	-0.571163	-1.404429	-0.144265	-0.868335	0.474533	-0.058055	0.486151	0.871944	-0.987835	0.098242	-0.120545
673	1664983													9.895085	-0.608259	-1.443541	-0.146089	-0.868207	0.474209	-0.058497	0.486094	0.871947	-0.987540	0.099642	-0.121800
674	1665149													9.858821	-0.656063	-1.468949	-0.147349	-0.868194	0.473844	-0.058883	0.485923	0.872016	-0.987330	0.100589	-0.122722
675	1665316													9.762442	-0.679549	-1.519992	-0.148225	-0.868296	0.473384	-0.059238	0.485607	0.872168	-0.987178	0.101235	-0.123415
676	1665483													9.719526	-0.674474	-1.529214	-0.148891	-0.868515	0.472772	-0.059534	0.485107	0.872426	-0.987060	0.101750	-0.123934
677	1665649													9.729659	-0.639230	-1.541805	-0.149343	-0.868827	0.472056	-0.059792	0.484472	0.872761	-0.986976	0.102115	-0.124301
678	1665816													9.720309	-0.607839	-1.541007	-0.149550	-0.869191	0.471319	-0.059974	0.483776	0.873134	-0.986934	0.102311	-0.124478
679	1665983													9.729625	-0.571378	-1.560251	-0.149601	-0.869560	0.470622	-0.060120	0.483097	0.873500	-0.986917	0.102383	-0.124549
680	1666149													9.772464	-0.545224	-1.556348	-0.149384	-0.869904	0.470055	-0.060207	0.482510	0.873819	-0.986945	0.102235	-0.124453
681	1666316													9.772824	-0.558980	-1.570251	-0.148859	-0.870215	0.469646	-0.060273	0.482040	0.874074	-0.987020	0.101807	-0.124206
682	1666483													9.769853	-0.531848	-1.559784	-0.148018	-0.870481	0.469418	-0.060317	0.481708	0.874253	-0.987144	0.101092	-0.123806
683	1666649													9.776000	-0.539919	-1.577938	-0.146842	-0.870686	0.469408	-0.060329	0.481552	0.874339	-0.987319	0.100071	-0.123239
684	1666816													9.796550	-0.578913	-1.604627	-0.145320	-0.870852	0.469573	-0.060347	0.481529	0.874350	-0.987543	0.098724	-0.122529
685	1666983													9.829881	-0.568511	-1.596981	-0.143331	-0.871037	0.469842	-0.060460	0.481563	0.874323	-0.987826	0.096911	-0.121685
686	1667149													9.834453	-0.589709	-1.576720	-0.140806	-0.871240	0.470228	-0.060547	0.481649	0.874270	-0.988184	0.094632	-0.120570
687	1667316													9.832968	-0.635077	-1.600925	-0.137795	-0.871487	0.470662	-0.060655	0.481728	0.874219	-0.988602	0.091915	-0.119240
688	1667483													9.833869	-0.669408	-1.595188	-0.134318	-0.871822	0.471047	-0.060833	0.481712	0.874215	-0.989069	0.088767	-0.117738
689	1667649													9.810438	-0.639647	-1.529771	-0.130405	-0.872239	0.471373	-0.061032	0.481594	0.874267	-0.989581	0.085240	-0.116037
690	1667816													9.832140	-0.649025	-1.472729	-0.126040	-0.872736	0.471642	-0.061276	0.481375	0.874370	-0.990131	0.081305	-0.114150
691	1667983													9.864703	-0.666721	-1.427860	-0.121195	-0.873327	0.471818	-0.061538	0.481018	0.874548	-0.990719	0.076956	-0.112040
692	1668149													9.922952	-0.651071	-1.369085	-0.115726	-0.874005	0.471935	-0.061847	0.480546	0.874786	-0.991354	0.072048	-0.109666
693	1668316													9.955939	-0.628301	-1.294946	-0.109553	-0.874745	0.472037	-0.062164	0.479995	0.875066	-0.992035	0.066523	-0.106963
694	1668483													9.927731	-0.606976	-1.222775	-0.102687	-0.875485	0.472209	-0.062393	0.479452	0.875347	-0.992755	0.060424	-0.103858
695	1668649													9.886663	-0.604865	-1.185093	-0.095257	-0.876210	0.472421	-0.062599	0.478912	0.875628	-0.993482	0.053837	-0.100469
696	1668816													9.832938	-0.615027	-1.111198	-0.087368	-0.876899	0.472668	-0.062881	0.478390	0.875893	-0.994190	0.046803	-0.096936
697	1668983													9.789782	-0.594711	-1.041528	-0.079165	-0.877567	0.472873	-0.063232	0.477827	0.876175	-0.994854	0.039461	-0.093318
698	1669149													9.732536	-0.591546	-0.991137	-0.070816	-0.878171	0.473077	-0.063638	0.477279	0.876445	-0.995457	0.031961	-0.089684
699	1669316													9.639174	-0.612594	-0.911042	-0.062448	-0.878756	0.473167	-0.064019	0.476643	0.876763	-0.995993	0.024460	-0.086022
700	1669483													9.623578	-0.654422	-0.809774	-0.054297	-0.879338	0.473092	-0.064599	0.475892	0.877128	-0.996433	0.017064	-0.082644
701	1669649													9.817443	-0.583053	-0.718705	-0.046179	-0.879984	0.472754	-0.065585	0.474909	0.877588	-0.996778	0.009520	-0.079645
702	1669816													9.934896	-0.537470	-0.629429	-0.037528	-0.880584	0.472403	-0.066963	0.473889	0.878035	-0.997049	0.001317	-0.076751
703	1669983													9.949533	-0.453349	-0.563129	-0.028295	-0.881032	0.472210	-0.068543	0.472998	0.878393	-0.997247	-0.007513	-0.073772
704	1670149													10.105405	-0.508204	-0.485545	-0.018383	-0.881241	0.472309	-0.070097	0.472363	0.878613	-0.997371	-0.016956	-0.070456
705	1670316													10.188190	-0.575653	-0.444493	-0.007363	-0.881179	0.472725	-0.071453	0.471993	0.878702	-0.997417	-0.027308	-0.066438
706	1670483													10.185778	-0.655176	-0.349638	0.004923	-0.880849	0.473372	-0.072675	0.471810	0.878700	-0.997344	-0.038728	-0.061693
707	1670649													10.167482	-0.745088	-0.248957	0.018466	-0.880274	0.474107	-0.073752	0.471697	0.878671	-0.997106	-0.051192	-0.056211
708	1670816													10.172706	-0.760759	-0.141931	0.033271	-0.879430	0.474864	-0.074679	0.471611	0.878639	-0.996652	-0.064696	-0.049984
709	1670983													10.147685	-0.772848	-0.001531	0.049411	-0.878281	0.475585	-0.075441	0.471524	0.878620	-0.995925	-0.079292	-0.042960
710	1671150													9.979251	-0.743936	0.182744	0.066779	-0.876720	0.476344	-0.075962	0.471557	0.878558	-0.994872	-0.094853	-0.035107
711	1671316													9.758539	-0.760519	0.434414	0.084739	-0.874740	0.477126	-0.076113	0.471767	0.878432	-0.993492	-0.110753	-0.026602
712	1671483													9.611824	-0.786467	0.657781	0.102780	-0.872398	0.477867	-0.075792	0.472146	0.878256	-0.991812	-0.126486	-0.017594
713	1671650													9.552539	-0.772426	0.846305	0.120582	-0.869733	0.478565	-0.075040	0.472718	0.878013	-0.989863	-0.141784	-0.008263
714	1671816													9.559414	-0.761764	0.961191	0.138169	-0.866759	0.479205	-0.074019	0.473456	0.877702	-0.987639	-0.156741	0.001260
715	1671983													9.640011	-0.747471	1.153756	0.155629	-0.863494	0.479747	-0.072764	0.474324	0.877338	-0.985132	-0.171448	0.010988
716	1672150													9.760838	-0.738894	1.395281	0.173272	-0.859888	0.480177	-0.071314	0.475318	0.876919	-0.982289	-0.186189	0.021037
717	1672316													9.972147	-0.733349	1.621278	0.191574	-0.855857	0.480425	-0.069829	0.476366	0.876470	-0.978991	-0.201456	0.031495
718	1672483													9.894557	-0.737979	1.811242	0.210977	-0.851212	0.480548	-0.068394	0.477554	0.875936	-0.975095	-0.217669	0.042535
719	1672650													9.643867	-0.744671	1.909846	0.230955	-0.846087	0.480414	-0.067049	0.478749	0.875388	-0.970651	-0.234387	0.053840
720	1672816													9.448869	-0.716558	2.010541	0.251087	-0.840600	0.479944	-0.065827	0.479852	0.874877	-0.965724	-0.251264	0.065150
721	1672983													9.328398	-0.676127	2.109843	0.271105	-0.834795	0.479187	-0.064678	0.480906	0.874383	-0.960374	-0.268043	0.076383
722	1673150													9.403761	-0.647641	2.445379	0.290829	-0.828697	0.478205	-0.063573	0.481967	0.873880	-0.954661	-0.284550	0.087488
723	1673316													9.741248	-0.658249	2.792261	0.310994	-0.822081	0.476933	-0.062545	0.483027	0.873369	-0.948352	-0.301443	0.098802
724	1673483													9.381268	-0.698074	3.057822	0.332154	-0.814798	0.475160	-0.061719	0.483907	0.872940	-0.941204	-0.319277	0.110443
725	1673650													8.926362	-0.681645	3.233695	0.353002	-0.807330	0.472871	-0.061033	0.484462	0.872681	-0.933630	-0.336919	0.121742
726	1673816													8.757504	-0.642989	3.393230	0.373009	-0.799889	0.470150	-0.060450	0.484694	0.872593	-0.925856	-0.353905	0.132442
727	1673983													8.704480	-0.612692	3.604857	0.392033	-0.792537	0.467114	-0.059981	0.484659	0.872644	-0.917994	-0.370124	0.142465
728	1674150													8.710625	-0.585051	3.806291	0.410210	-0.785261	0.463781	-0.059623	0.484358	0.872836	-0.910040	-0.385698	0.151869
729	1674316													8.594300	-0.524530	4.019138	0.427635	-0.778000	0.460267	-0.059343	0.483911	0.873103	-0.902002	-0.400683	0.160768
730	1674483													8.670442	-0.490089	4.258019	0.444219	-0.770788	0.456679	-0.059198	0.483367	0.873414	-0.893960	-0.415021	0.169092
731	1674650													8.577412	-0.403305	4.415300	0.460350	-0.763401	0.453096	-0.059335	0.482794	0.873722	-0.885752	-0.429103	0.176958
732	1674816													8.390823	-0.425245	4.539930	0.475760	-0.755923	0.449704	-0.059681	0.482353	0.873942	-0.877548	-0.442625	0.184369
733	1674983													8.338239	-0.460066	4.686832	0.490424	-0.748426	0.446479	-0.060185	0.482010	0.874096	-0.869403	-0.455549	0.191345
734	1675150													8.539480	-0.573564	4.960502	0.504431	-0.740952	0.443328	-0.060848	0.481656	0.874246	-0.861305	-0.467972	0.197877
735	1675316													8.556087	-0.691400	5.156516	0.518524	-0.733193	0.439957	-0.061597	0.481165	0.874463	-0.852842	-0.480530	0.204333
736	1675483													8.253673	-0.632909	5.296661	0.532528	-0.725248	0.436382	-0.062091	0.480705	0.874681	-0.844132	-0.492888	0.210957
737	1675650													8.017050	-0.607545	5.385298	0.546006	-0.717328	0.432802	-0.062201	0.480469	0.874803	-0.835469	-0.504569	0.217720
738	1675816													7.979620	-0.602181	5.438546	0.558896	-0.709505	0.429230	-0.061969	0.480437	0.874837	-0.826919	-0.515542	0.224547
739	1675983													8.073729	-0.570348	5.550592	0.571437	-0.701630	0.425647	-0.061520	0.480588	0.874786	-0.818337	-0.526071	0.231461
740	1676150													8.364007	-0.551536	5.757465	0.584118	-0.693379	0.421937	-0.060950	0.480902	0.874653	-0.809377	-0.536618	0.238642
741	1676316													8.384700	-0.497623	6.054965	0.597682	-0.684202	0.417904	-0.060390	0.481349	0.874446	-0.799455	-0.547878	0.246375
742	1676483													8.148030	-0.465672	6.285369	0.611893	-0.674204	0.413565	-0.059892	0.481881	0.874187	-0.788670	-0.559678	0.254480
743	1676650													7.609661	-0.503282	6.407762	0.626101	-0.663846	0.409032	-0.059721	0.482206	0.874020	-0.777452	-0.571652	0.262264
744	1676816													7.155139	-0.466779	6.499019	0.639364	-0.653929	0.404463	-0.059785	0.482153	0.874045	-0.766577	-0.583013	0.269176
745	1676983													7.069085	-0.465218	6.625003	0.651288	-0.644792	0.400083	-0.060076	0.481769	0.874237	-0.756449	-0.593415	0.275034
746	1677150													7.148846	-0.487484	6.715025	0.662164	-0.636276	0.395844	-0.060646	0.481008	0.874616	-0.746901	-0.603145	0.279919
747	1677316													7.219543	-0.573070	6.797428	0.672354	-0.628199	0.391544	-0.061359	0.479831	0.875213	-0.737683	-0.612477	0.284071
748	1677483													7.209813	-0.545895	6.875986	0.682158	-0.620368	0.387046	-0.062069	0.478288	0.876007	-0.728566	-0.621599	0.287762
749	1677650													7.182146	-0.570502	6.970323	0.691781	-0.612550	0.382388	-0.062636	0.476647	0.876861	-0.719385	-0.630547	0.291368
750	1677816													7.094773	-0.600645	7.018294	0.701340	-0.604655	0.377511	-0.062994	0.474951	0.877755	-0.710038	-0.639386	0.295013
751	1677983													6.851562	-0.581933	7.109194	0.710670	-0.596797	0.372534	-0.063156	0.473268	0.878652	-0.700685	-0.647960	0.298646
752	1678150													6.729822	-0.564474	7.208797	0.719451	-0.589231	0.367691	-0.063110	0.471749	0.879471	-0.691670	-0.655941	0.302214
753	1678316													6.671140	-0.550815	7.315082	0.727745	-0.581899	0.363016	-0.062966	0.470374	0.880218	-0.682952	-0.663431	0.305673
754	1678483													6.651550	-0.549722	7.418652	0.735623	-0.574691	0.358594	-0.062857	0.469180	0.880863	-0.674468	-0.670523	0.309016
755	1678650													6.544116	-0.538996	7.489944	0.743130	-0.567634	0.354328	-0.062846	0.467975	0.881504	-0.666189	-0.677341	0.312093
756	1678816													6.387060	-0.480075	7.571426	0.750149	-0.560836	0.350341	-0.062876	0.466908	0.882068	-0.658272	-0.683711	0.314988
757	1678983													6.320254	-0.431785	7.743754	0.756529	-0.554429	0.346803	-0.062872	0.466192	0.882446	-0.650931	-0.689400	0.317830
758	1679150													6.555566	-0.413575	7.819258	0.762523	-0.548139	0.343659	-0.062955	0.465803	0.882646	-0.643891	-0.694673	0.320677
759	1679316													6.517623	-0.430866	7.885164	0.768560	-0.541462	0.340785	-0.063394	0.465587	0.882729	-0.636629	-0.700034	0.323506
760	1679483													6.157310	-0.507205	7.948383	0.774324	-0.534787	0.338267	-0.064298	0.465305	0.882812	-0.629514	-0.705333	0.325911
761	1679650													6.042062	-0.585335	8.027099	0.779461	-0.528664	0.336088	-0.065391	0.464903	0.882943	-0.623029	-0.710197	0.327804
762	1679816													6.190424	-0.643071	8.098103	0.784100	-0.523108	0.333983	-0.066407	0.464328	0.883170	-0.617071	-0.714673	0.329341
763	1679983													6.221150	-0.619457	8.130316	0.788603	-0.517698	0.331804	-0.067279	0.463719	0.883424	-0.611211	-0.718994	0.330860
764	1680150													6.068232	-0.637014	8.231096	0.792869	-0.512479	0.329733	-0.068005	0.463297	0.883590	-0.605585	-0.722995	0.332483
765	1680316													6.065483	-0.757687	8.155204	0.796925	-0.507494	0.327658	-0.068653	0.462808	0.883796	-0.600164	-0.726814	0.333982
766	1680483													5.959401	-0.856014	8.117730	0.800834	-0.502823	0.325321	-0.069109	0.461991	0.884188	-0.594885	-0.730570	0.335229
767	1680650													5.942790	-0.768615	8.137738	0.804670	-0.498430	0.322605	-0.069205	0.460916	0.884741	-0.589675	-0.734251	0.336391
768	1680816													6.077961	-0.634748	8.174298	0.808538	-0.493898	0.319891	-0.069146	0.460114	0.885163	-0.584367	-0.737807	0.337869
769	1680983													5.946573	-0.598293	8.215516	0.812428	-0.489142	0.317334	-0.068984	0.459795	0.885342	-0.578966	-0.741167	0.339807
770	1681150													5.821411	-0.587514	8.273694	0.816109	-0.484417	0.315130	-0.068940	0.459800	0.885342	-0.573772	-0.744261	0.341851
771	1681316													5.615880	-0.739178	8.336359	0.819390	-0.480076	0.313252	-0.069071	0.459796	0.885334	-0.569060	-0.747071	0.343593
772	1681483													5.649916	-0.819554	8.333790	0.822427	-0.476173	0.311244	-0.069045	0.459528	0.885476	-0.564665	-0.749729	0.345051
773	1681650													5.670896	-0.675688	8.456732	0.825223	-0.472795	0.308986	-0.068689	0.458993	0.885780	-0.560615	-0.752190	0.346296
774	1681816													5.786266	-0.473362	8.484311	0.827956	-0.469367	0.306892	-0.068304	0.458769	0.885927	-0.556617	-0.754470	0.347781
775	1681983													5.592751	-0.366117	8.615326	0.830352	-0.466045	0.305478	-0.068306	0.458940	0.885838	-0.553036	-0.756424	0.349248
776	1682150													5.595541	-0.596611	8.574446	0.832485	-0.462801	0.304604	-0.068876	0.459070	0.885726	-0.549750	-0.758334	0.350293
777	1682316													5.381515	-0.674973	8.584100	0.834388	-0.459952	0.303713	-0.069430	0.458927	0.885757	-0.546787	-0.760152	0.350988
778	1682483													5.408680	-0.628583	8.649947	0.835872	-0.457737	0.302978	-0.069719	0.458950	0.885722	-0.544480	-0.761473	0.351710
779	1682650													5.552011	-0.685506	8.675275	0.837052	-0.455890	0.302502	-0.070019	0.459090	0.885626	-0.542624	-0.762496	0.352361
780	1682816													5.562113	-0.719584	8.676397	0.838160	-0.454236	0.301923	-0.070304	0.458963	0.885670	-0.540875	-0.763559	0.352749
781	1682983													5.399656	-0.650609	8.641500	0.839174	-0.452812	0.301245	-0.070563	0.458567	0.885854	-0.539267	-0.764642	0.352866
782	1683150													5.343951	-0.547430	8.621078	0.839898	-0.451747	0.300826	-0.070935	0.458147	0.886042	-0.538089	-0.765523	0.352752
783	1683316													5.392771	-0.606945	8.654357	0.840219	-0.451069	0.300945	-0.071480	0.458018	0.886064	-0.537515	-0.766000	0.352593
784	1683483													5.492443	-0.757653	8.638383	0.840439	-0.450597	0.301039	-0.072063	0.457655	0.886205	-0.537093	-0.766495	0.352160
785	1683650													5.581125	-0.760060	8.519008	0.840827	-0.450052	0.300771	-0.072488	0.457021	0.886497	-0.536428	-0.767193	0.351653
786	1683816													5.392078	-0.742503	8.482239	0.841204	-0.449672	0.300284	-0.072594	0.456396	0.886811	-0.535822	-0.767788	0.351278
787	1683983													5.443754	-0.703839	8.470519	0.841419	-0.449612	0.299772	-0.072473	0.455838	0.887107	-0.535502	-0.768154	0.350966
788	1684150													5.497083	-0.632086	8.468442	0.841534	-0.449661	0.299375	-0.072384	0.455331	0.887375	-0.535333	-0.768426	0.350629
789	1684316													5.474140	-0.623271	8.447154	0.841590	-0.449703	0.299155	-0.072439	0.454890	0.887597	-0.535237	-0.768663	0.350255
790	1684483													5.650452	-0.634744	8.429612	0.841644	-0.449668	0.299055	-0.072566	0.454580	0.887745	-0.535135	-0.768866	0.349964
791	1684650													5.589595	-0.655586	8.427426	0.841899	-0.449278	0.298922	-0.072856	0.454230	0.887900	-0.534694	-0.769301	0.349683
792	1684816													5.496082	-0.642187	8.409812	0.842178	-0.448833	0.298807	-0.073253	0.453790	0.888093	-0.534201	-0.769820	0.349293
793	1684983													5.390045	-0.624323	8.444159	0.842296	-0.448592	0.298836	-0.073607	0.453491	0.888216	-0.533966	-0.770137	0.348954
794	1685150													5.463127	-0.672178	8.492268	0.842250	-0.448567	0.299003	-0.073975	0.453231	0.888318	-0.533988	-0.770304	0.348551
795	1685316													5.538160	-0.749855	8.485498	0.842261	-0.448479	0.299102	-0.074463	0.452738	0.888529	-0.533902	-0.770646	0.347929
796	1685483													5.466688	-0.730577	8.521916	0.842338	-0.448455	0.298922	-0.074763	0.452046	0.888856	-0.533739	-0.771065	0.347248
797	1685650													5.436380	-0.705703	8.505146	0.842400	-0.448514	0.298659	-0.074845	0.451487	0.889133	-0.533630	-0.771359	0.346764
798	1685816													5.361177	-0.634582	8.547979	0.842285	-0.448804	0.298549	-0.074894	0.451049	0.889351	-0.533804	-0.771447	0.346299
799	1685983													5.420708	-0.585853	8.600213	0.841942	-0.449271	0.298814	-0.075148	0.450767	0.889473	-0.534310	-0.771339	0.345758
800	1686150													5.563373	-0.708524	8.581837	0.841512	-0.449666	0.299430	-0.075692	0.450652	0.889485	-0.534910	-0.771176	0.345193
801	1686316													5.461553	-0.875648	8.481061	0.841142	-0.450201	0.299666	-0.076019	0.450175	0.889698	-0.535445	-0.771143	0.344437
802	1686483													5.409709	-0.728274	8.479913	0.840613	-0.451226	0.299608	-0.075945	0.449498	0.890047	-0.536286	-0.770939	0.343585
803	1686650													5.492629	-0.616039	8.566465	0.839935	-0.452443	0.299674	-0.075762	0.449037	0.890296	-0.537372	-0.770494	0.342884
804	1686816													5.560538	-0.658075	8.661346	0.839142	-0.453680	0.300027	-0.075703	0.448821	0.890409	-0.538619	-0.769892	0.342280
805	1686983													5.546399	-0.777348	8.758048	0.838256	-0.454995	0.300512	-0.075688	0.448693	0.890475	-0.539999	-0.769191	0.341682
806	1687150													5.249543	-0.853680	8.800301	0.837096	-0.456770	0.301052	-0.075501	0.448582	0.890547	-0.541822	-0.768202	0.341020
807	1687316													5.143559	-0.768230	8.804002	0.835223	-0.459594	0.301953	-0.075100	0.448620	0.890562	-0.544758	-0.766495	0.340182
808	1687483													5.087969	-0.692250	8.860302	0.832517	-0.463473	0.303494	-0.074539	0.449133	0.890350	-0.548962	-0.763854	0.339364
809	1687650													5.340423	-0.710891	8.895145	0.829016	-0.468221	0.305780	-0.073901	0.450271	0.889828	-0.554320	-0.760279	0.338680
810	1687817													5.546482	-0.943427	8.959253	0.824993	-0.473568	0.308415	-0.073236	0.451542	0.889239	-0.560378	-0.756203	0.337837
811	1687983													5.568102	-0.982965	8.790244	0.820816	-0.479298	0.310701	-0.072337	0.452345	0.888904	-0.566594	-0.752102	0.336621
812	1688150													5.399593	-0.778104	8.610774	0.816138	-0.485803	0.312913	-0.071098	0.452973	0.888685	-0.573467	-0.747537	0.335148
813	1688317													5.444705	-0.670051	8.463576	0.810890	-0.492889	0.315463	-0.069609	0.454003	0.888277	-0.581044	-0.742254	0.333837
814	1688483													5.412936	-0.593707	8.363550	0.804838	-0.500743	0.318578	-0.067942	0.455519	0.887630	-0.589593	-0.736043	0.332598
815	1688650													5.504142	-0.632215	8.412044	0.797709	-0.509557	0.322508	-0.066325	0.457424	0.886772	-0.599384	-0.728776	0.331095
816	1688817													6.029466	-0.641250	8.331052	0.789862	-0.518915	0.326873	-0.064825	0.459359	0.885882	-0.609849	-0.720914	0.329191
817	1688983													6.165375	-0.544958	8.279901	0.781836	-0.528074	0.331466	-0.063556	0.461364	0.884932	-0.620236	-0.712939	0.327149
818	1689150													6.203469	-0.543267	8.110996	0.773651	-0.536949	0.336377	-0.062520	0.463605	0.883833	-0.630520	-0.704809	0.325099
819	1689317													6.049537	-0.563353	7.957655	0.764991	-0.546001	0.341572	-0.061635	0.465858	0.882710	-0.641085	-0.696319	0.322724
820	1689483													5.933759	-0.555578	7.795342	0.755333	-0.555811	0.347199	-0.060853	0.468024	0.881618	-0.652510	-0.687043	0.319691
821	1689650													6.068162	-0.553721	7.682674	0.744401	-0.566616	0.353291	-0.060072	0.470116	0.880558	-0.665026	-0.676711	0.315916
822	1689817													6.401376	-0.588530	7.555348	0.732438	-0.578092	0.359645	-0.059313	0.472054	0.879572	-0.678245	-0.665564	0.311462
823	1689983													6.716073	-0.613335	7.479796	0.719785	-0.589884	0.365987	-0.058515	0.473778	0.878698	-0.691727	-0.653889	0.306501
824	1690150													6.951141	-0.593798	7.328936	0.706848	-0.601555	0.372153	-0.057705	0.475320	0.877918	-0.705008	-0.642030	0.301267
825	1690317													6.797517	-0.545403	7.191276	0.693433	-0.613240	0.378269	-0.056844	0.476796	0.877174	-0.718275	-0.629764	0.295767
826	1690483													6.698495	-0.516878	6.982227	0.678999	-0.625355	0.384566	-0.055991	0.478194	0.876467	-0.732001	-0.616653	0.289679
827	1690650													6.802562	-0.499597	6.810346	0.663149	-0.638184	0.391095	-0.055104	0.479469	0.875827	-0.746457	-0.602354	0.282793
828	1690817													7.144409	-0.470491	6.545658	0.646107	-0.651440	0.397708	-0.054218	0.480584	0.875271	-0.761319	-0.587081	0.275189
829	1690983													7.666569	-0.437829	6.344456	0.628485	-0.664526	0.404242	-0.053401	0.481621	0.874751	-0.775986	-0.571355	0.267206
830	1691150													7.899700	-0.434817	6.167929	0.611062	-0.676811	0.410524	-0.052647	0.482715	0.874194	-0.789830	-0.555800	0.259337
831	1691317													7.682918	-0.420146	5.935552	0.593531	-0.688550	0.416677	-0.051901	0.483909	0.873578	-0.803136	-0.540122	0.251478
832	1691483													7.432070	-0.393651	5.710598	0.574918	-0.700359	0.423044	-0.051137	0.485268	0.872869	-0.816612	-0.523461	0.243175
833	1691650													7.880634	-0.342373	5.442299	0.555033	-0.712332	0.429560	-0.050189	0.486786	0.872078	-0.830313	-0.505592	0.234431
834	1691817													8.573728	-0.340032	5.150462	0.535192	-0.723557	0.435930	-0.049239	0.488459	0.871196	-0.843294	-0.487722	0.225792
835	1691983													8.663923	-0.330244	4.973338	0.516094	-0.733714	0.441940	-0.048462	0.490125	0.870304	-0.855160	-0.470576	0.217393
836	1692150													8.377631	-0.376856	4.750784	0.497108	-0.743308	0.447635	-0.047878	0.491610	0.869498	-0.866367	-0.453666	0.208795
837	1692317													8.292620	-0.338547	4.501686	0.477504	-0.752796	0.453088	-0.047350	0.492879	0.868809	-0.877353	-0.436313	0.199707
838	1692483													8.768073	-0.368323	4.283408	0.457505	-0.762041	0.458238	-0.046719	0.494022	0.868193	-0.887979	-0.418611	0.190416
839	1692650													9.218243	-0.465214	4.112034	0.438189	-0.770589	0.462799	-0.046102	0.494916	0.867717	-0.897700	-0.401560	0.181342
840	1692817													9.259038	-0.504786	3.985615	0.419832	-0.778436	0.466667	-0.045664	0.495408	0.867459	-0.906453	-0.385496	0.172442
841	1692983													9.171154	-0.404459	3.813823	0.402083	-0.785792	0.469957	-0.045338	0.495560	0.867390	-0.914480	-0.370070	0.163630
842	1693150													9.184345	-0.292036	3.681034	0.384775	-0.792592	0.473018	-0.045000	0.495755	0.867296	-0.921913	-0.355000	0.155087
843	1693317													9.102854	-0.285741	3.488754	0.367914	-0.798809	0.475966	-0.044792	0.496050	0.867138	-0.928780	-0.340352	0.146723
844	1693483													8.907884	-0.349415	3.340760	0.350710	-0.804820	0.478819	-0.044584	0.496365	0.866968	-0.935422	-0.325402	0.138198
845	1693650													9.067245	-0.443709	3.194625	0.332835	-0.810839	0.481415	-0.044195	0.496548	0.866883	-0.941949	-0.309805	0.129434
846	1693817													9.629476	-0.443430	2.966993	0.315053	-0.816600	0.483639	-0.043756	0.496551	0.866904	-0.948065	-0.294283	0.120709
847	1693983													9.587474	-0.446813	2.807576	0.298588	-0.821669	0.485495	-0.043363	0.496496	0.866955	-0.953396	-0.279915	0.112618
848	1694150													9.247121	-0.410060	2.653193	0.282296	-0.826440	0.487141	-0.042923	0.496404	0.867030	-0.958367	-0.265668	0.104659
849	1694317													9.316005	-0.381569	2.418272	0.265676	-0.831053	0.488638	-0.042382	0.496295	0.867119	-0.963130	-0.251082	0.096631
850	1694483													9.658298	-0.345323	2.234822	0.249199	-0.835377	0.489943	-0.041863	0.496139	0.867234	-0.967547	-0.236624	0.088666
851	1694650													9.960973	-0.358606	2.101189	0.233730	-0.839189	0.491052	-0.041476	0.495975	0.867345	-0.971416	-0.223092	0.081118
852	1694817													10.036188	-0.379854	1.877260	0.219714	-0.842470	0.491905	-0.041304	0.495740	0.867488	-0.974690	-0.210917	0.074124
853	1694983													9.760539	-0.418125	1.645621	0.206952	-0.845314	0.492559	-0.041342	0.495453	0.867651	-0.977477	-0.199926	0.067588
854	1695150													9.692112	-0.535831	1.426109	0.194790	-0.847972	0.492950	-0.041523	0.494997	0.867902	-0.979966	-0.189527	0.061210
855	1695317													9.575692	-0.682798	1.275140	0.183126	-0.850624	0.492853	-0.041776	0.494144	0.868376	-0.982201	-0.179611	0.054954
856	1695483													9.402554	-0.686358	1.317832	0.171288	-0.853594	0.491974	-0.041776	0.492612	0.869246	-0.984335	-0.169445	0.048719
857	1695650													9.608353	-0.576629	1.437941	0.158999	-0.856809	0.490508	-0.041385	0.490608	0.870397	-0.986411	-0.158692	0.042547
858	1695817													9.944942	-0.469833	1.401380	0.146824	-0.860008	0.488702	-0.040538	0.488410	0.871672	-0.988332	-0.147793	0.036847
859	1695983													10.258321	-0.332762	1.293678	0.135643	-0.862902	0.486827	-0.039285	0.486298	0.872909	-0.989979	-0.137529	0.032063
860	1696150													10.156442	-0.252105	1.261550	0.125981	-0.865339	0.485094	-0.038042	0.484417	0.874010	-0.991303	-0.128562	0.028109
861	1696317													9.948890	-0.195263	1.179767	0.116954	-0.867383	0.483702	-0.037099	0.482889	0.874895	-0.992444	-0.120268	0.024297
862	1696483													9.829397	-0.197830	1.087797	0.108111	-0.869114	0.482653	-0.036647	0.481684	0.875578	-0.993463	-0.112347	0.020225
863	1696650													9.983659	-0.155996	1.001521	0.099465	-0.870531	0.481958	-0.036525	0.480839	0.876048	-0.994370	-0.104739	0.016031
864	1696817													10.105862	-0.181019	0.942799	0.091619	-0.871528	0.481710	-0.036589	0.480472	0.876247	-0.995122	-0.097906	0.012132
865	1696983													10.143087	-0.175405	0.895672	0.084659	-0.872128	0.481898	-0.036834	0.480564	0.876186	-0.995729	-0.091927	0.008560
866	1697150													9.911119	-0.209806	0.831274	0.078434	-0.872378	0.482498	-0.037119	0.481098	0.875881	-0.996228	-0.086608	0.005353
867	1697317													9.671274	-0.241144	0.794648	0.072153	-0.872392	0.483452	-0.037505	0.481999	0.875369	-0.996688	-0.081293	0.002059
868	1697483													9.725705	-0.289028	0.702217	0.065468	-0.872270	0.484623	-0.038043	0.483130	0.874722	-0.997129	-0.075703	-0.001554
