// Start Time: Unknown
// Update Rate: 60.0Hz
//Filter Profile: human (46.1)
// Option Flags: AHS Disabled ICC Disabled
// Firmware Version: 4.0.2
0	sampleTimeFine	Year	Month	Day	Second	UTC_Nano	UTC_Year	UTC_Month	UTC_Day	UTC_Hour	UTC_Minute	UTC_Second	UTC_Valid	Acc_X	Acc_Y	Acc_Z	Mat[1][1]	Mat[2][1]	Mat[3][1]	Mat[1][2]	Mat[2][2]	Mat[3][2]	Mat[1][3]	Mat[2][3]	Mat[3][3]
0	1552647													0.188453	0.012963	-0.537514	0.235803	-0.813103	-0.532222	-0.041151	-0.555529	0.830478	-0.970929	-0.173928	-0.164456
1	1552814													9.551483	-0.440170	2.389199	0.236567	-0.812633	-0.532601	-0.040902	-0.556004	0.830173	-0.970754	-0.174607	-0.164771
2	1552980													9.507277	-0.413318	2.499007	0.238231	-0.812256	-0.532434	-0.041280	-0.556191	0.830029	-0.970331	-0.175760	-0.166032
3	1553147													9.485120	-0.354399	2.455307	0.241526	-0.811604	-0.531943	-0.041355	-0.556283	0.829963	-0.969513	-0.178459	-0.167921
4	1553314													9.462690	-0.319416	2.465264	0.244146	-0.810585	-0.532301	-0.040688	-0.556991	0.829521	-0.968884	-0.180866	-0.168969
5	1553480													9.493216	-0.367416	2.437873	0.246100	-0.810150	-0.532064	-0.039721	-0.556916	0.829618	-0.968430	-0.183036	-0.169237
6	1553647													9.581813	-0.381212	2.443111	0.247547	-0.810258	-0.531227	-0.039156	-0.556211	0.830118	-0.968084	-0.184692	-0.169415
7	1553814													9.512971	-0.364236	2.525080	0.248539	-0.810692	-0.530100	-0.039013	-0.555207	0.830797	-0.967836	-0.185805	-0.169618
8	1553980													9.419688	-0.373854	2.557824	0.249410	-0.811439	-0.528546	-0.038982	-0.553764	0.831761	-0.967613	-0.186846	-0.169746
9	1554147													9.438023	-0.369050	2.471648	0.250129	-0.812570	-0.526465	-0.038902	-0.551745	0.833105	-0.967431	-0.187903	-0.169618
10	1554314													9.496213	-0.414824	2.424797	0.250575	-0.813395	-0.524977	-0.038829	-0.550285	0.834074	-0.967318	-0.188614	-0.169471
11	1554481													9.502334	-0.458637	2.409261	0.250804	-0.814400	-0.523307	-0.038893	-0.548626	0.835163	-0.967256	-0.189109	-0.169272
12	1554647													9.473251	-0.452512	2.403942	0.250803	-0.815124	-0.522179	-0.039046	-0.547499	0.835895	-0.967250	-0.189256	-0.169142
13	1554814													9.457905	-0.467509	2.421964	0.250637	-0.815770	-0.521249	-0.039302	-0.546566	0.836493	-0.967283	-0.189170	-0.169051
14	1554981													9.512046	-0.484095	2.388336	0.250416	-0.816388	-0.520387	-0.039597	-0.545700	0.837045	-0.967328	-0.189004	-0.168978
15	1555147													9.505630	-0.480947	2.409131	0.250176	-0.817117	-0.519357	-0.039979	-0.544675	0.837694	-0.967375	-0.188808	-0.168932
16	1555314													9.522560	-0.455905	2.430695	0.249910	-0.817508	-0.518869	-0.040498	-0.544229	0.837959	-0.967422	-0.188401	-0.169115
17	1555481													9.504884	-0.428794	2.396956	0.249634	-0.817731	-0.518651	-0.041092	-0.544071	0.838032	-0.967468	-0.187889	-0.169421
18	1555647													9.541028	-0.443175	2.350230	0.249306	-0.817943	-0.518474	-0.041759	-0.543961	0.838071	-0.967524	-0.187285	-0.169769
19	1555814													9.531752	-0.409744	2.378586	0.249159	-0.818193	-0.518151	-0.042522	-0.543751	0.838169	-0.967529	-0.186804	-0.170272
20	1555981													9.497262	-0.389991	2.449444	0.249116	-0.818379	-0.517878	-0.043424	-0.543637	0.838197	-0.967500	-0.186320	-0.170965
21	1556147													9.504931	-0.397556	2.419461	0.249058	-0.818753	-0.517314	-0.044371	-0.543232	0.838410	-0.967472	-0.185859	-0.171625
22	1556314													9.556526	-0.399235	2.387660	0.249081	-0.819025	-0.516872	-0.045302	-0.542962	0.838535	-0.967423	-0.185448	-0.172345
23	1556481													9.548304	-0.394864	2.409038	0.249199	-0.819293	-0.516391	-0.046263	-0.542674	0.838668	-0.967347	-0.185105	-0.173136
24	1556647													9.552567	-0.459731	2.378488	0.249311	-0.819792	-0.515544	-0.047233	-0.542014	0.839041	-0.967271	-0.184831	-0.173851
25	1556814													9.556180	-0.528123	2.385487	0.249480	-0.820112	-0.514952	-0.048230	-0.541629	0.839233	-0.967178	-0.184536	-0.174680
26	1556981													9.519037	-0.545125	2.381166	0.249690	-0.820245	-0.514638	-0.049189	-0.541530	0.839241	-0.967076	-0.184235	-0.175562
27	1557147													9.525317	-0.540541	2.354470	0.249809	-0.820476	-0.514213	-0.050189	-0.541307	0.839325	-0.966994	-0.183863	-0.176402
28	1557314													9.520403	-0.562343	2.386158	0.249939	-0.820726	-0.513751	-0.051137	-0.541039	0.839441	-0.966910	-0.183538	-0.177196
29	1557481													9.453641	-0.583163	2.404531	0.250020	-0.820934	-0.513378	-0.052031	-0.540843	0.839513	-0.966842	-0.183184	-0.177935
30	1557647													9.461311	-0.617257	2.344247	0.249859	-0.821099	-0.513193	-0.052811	-0.540771	0.839511	-0.966841	-0.182657	-0.178479
31	1557814													9.507072	-0.606066	2.374909	0.249747	-0.821222	-0.513051	-0.053511	-0.540736	0.839488	-0.966831	-0.182206	-0.178992
32	1557981													9.484498	-0.581860	2.430217	0.249704	-0.821204	-0.513100	-0.054119	-0.540893	0.839349	-0.966809	-0.181820	-0.179506
33	1558147													9.447787	-0.564481	2.438875	0.249590	-0.821299	-0.513003	-0.054640	-0.540870	0.839329	-0.966809	-0.181458	-0.179872
34	1558314													9.472672	-0.580722	2.433008	0.249488	-0.821329	-0.513005	-0.055000	-0.540920	0.839274	-0.966815	-0.181174	-0.180126
35	1558481													9.508931	-0.586365	2.436942	0.249392	-0.821333	-0.513046	-0.055265	-0.540993	0.839209	-0.966824	-0.180938	-0.180310
36	1558647													9.520288	-0.554972	2.484235	0.249328	-0.821501	-0.512807	-0.055497	-0.540780	0.839331	-0.966828	-0.180809	-0.180423
37	1558814													9.501041	-0.529842	2.435487	0.249426	-0.821476	-0.512800	-0.055663	-0.540823	0.839292	-0.966793	-0.180797	-0.180622
38	1558981													9.489332	-0.529164	2.450542	0.249501	-0.821529	-0.512679	-0.055743	-0.540728	0.839348	-0.966769	-0.180840	-0.180706
39	1559147													9.524037	-0.526704	2.515118	0.249621	-0.821531	-0.512618	-0.055695	-0.540680	0.839383	-0.966741	-0.180977	-0.180720
40	1559314													9.535126	-0.509431	2.541957	0.249919	-0.821738	-0.512140	-0.055582	-0.540228	0.839681	-0.966670	-0.181387	-0.180688
41	1559481													9.487747	-0.525117	2.541578	0.250297	-0.821859	-0.511762	-0.055511	-0.539900	0.839897	-0.966577	-0.181815	-0.180757
42	1559647													9.463346	-0.551661	2.551702	0.250611	-0.821974	-0.511422	-0.055441	-0.539599	0.840095	-0.966499	-0.182183	-0.180801
43	1559814													9.423026	-0.543515	2.533617	0.250884	-0.822143	-0.511016	-0.055264	-0.539204	0.840360	-0.966438	-0.182592	-0.180713
44	1559981													9.433138	-0.571321	2.543241	0.251076	-0.822445	-0.510437	-0.055101	-0.538617	0.840747	-0.966398	-0.182966	-0.180551
45	1560147													9.490789	-0.566543	2.523662	0.251252	-0.822537	-0.510202	-0.055006	-0.538392	0.840897	-0.966358	-0.183213	-0.180516
46	1560314													9.466931	-0.562642	2.519081	0.251515	-0.822556	-0.510042	-0.054982	-0.538274	0.840974	-0.966290	-0.183475	-0.180610
47	1560481													9.428682	-0.544138	2.511728	0.251764	-0.822576	-0.509886	-0.055026	-0.538171	0.841037	-0.966223	-0.183686	-0.180756
48	1560647													9.439803	-0.539918	2.550200	0.251899	-0.822716	-0.509594	-0.055062	-0.537905	0.841205	-0.966186	-0.183839	-0.180798
49	1560814													9.439975	-0.555739	2.549596	0.252069	-0.822863	-0.509271	-0.055076	-0.537610	0.841393	-0.966141	-0.184041	-0.180835
50	1560981													9.424443	-0.569397	2.512747	0.252121	-0.822984	-0.509051	-0.055077	-0.537395	0.841530	-0.966127	-0.184131	-0.180816
51	1561147													9.495643	-0.568721	2.538192	0.252066	-0.823113	-0.508868	-0.055087	-0.537200	0.841654	-0.966141	-0.184121	-0.180753
52	1561314													9.480877	-0.523899	2.581891	0.252012	-0.822979	-0.509112	-0.055064	-0.537434	0.841506	-0.966156	-0.184036	-0.180756
53	1561481													9.449599	-0.511306	2.460172	0.251860	-0.823021	-0.509120	-0.055095	-0.537420	0.841513	-0.966194	-0.183893	-0.180699
54	1561647													9.483068	-0.542583	2.483063	0.251658	-0.823004	-0.509248	-0.055143	-0.537521	0.841446	-0.966244	-0.183675	-0.180654
55	1561814													9.456758	-0.495501	2.454612	0.251521	-0.822975	-0.509362	-0.055056	-0.537594	0.841404	-0.966285	-0.183588	-0.180526
56	1561981													9.468539	-0.489210	2.478916	0.251342	-0.823021	-0.509375	-0.055015	-0.537566	0.841425	-0.966333	-0.183463	-0.180391
57	1562147													9.503619	-0.519706	2.488136	0.251147	-0.823097	-0.509350	-0.055022	-0.537504	0.841464	-0.966384	-0.183306	-0.180281
58	1562314													9.485009	-0.491688	2.463465	0.251032	-0.822980	-0.509594	-0.055020	-0.537732	0.841318	-0.966414	-0.183160	-0.180269
59	1562481													9.451477	-0.474421	2.510141	0.250912	-0.823058	-0.509527	-0.055063	-0.537649	0.841369	-0.966442	-0.183054	-0.180223
60	1562647													9.490473	-0.500342	2.444828	0.250670	-0.823178	-0.509454	-0.055087	-0.537532	0.841442	-0.966504	-0.182860	-0.180090
61	1562814													9.513424	-0.512660	2.431714	0.250505	-0.823322	-0.509301	-0.055084	-0.537344	0.841562	-0.966547	-0.182761	-0.179959
62	1562981													9.503366	-0.512406	2.440744	0.250418	-0.823408	-0.509206	-0.055068	-0.537227	0.841638	-0.966570	-0.182721	-0.179875
63	1563147													9.506274	-0.510357	2.409674	0.250306	-0.823412	-0.509254	-0.055092	-0.537260	0.841615	-0.966598	-0.182606	-0.179843
64	1563314													9.523651	-0.526697	2.399775	0.250190	-0.823434	-0.509275	-0.055056	-0.537252	0.841623	-0.966630	-0.182526	-0.179750
65	1563481													9.551689	-0.504309	2.445572	0.250158	-0.823438	-0.509285	-0.054956	-0.537237	0.841639	-0.966644	-0.182555	-0.179648
66	1563647													9.494226	-0.492248	2.453249	0.250156	-0.823261	-0.509572	-0.054869	-0.537514	0.841468	-0.966650	-0.182538	-0.179634
67	1563814													9.504377	-0.470710	2.456126	0.250132	-0.823066	-0.509899	-0.054707	-0.537813	0.841287	-0.966665	-0.182538	-0.179551
68	1563981													9.510306	-0.472843	2.451263	0.250102	-0.822990	-0.510036	-0.054569	-0.537921	0.841227	-0.966681	-0.182560	-0.179445
69	1564147													9.516234	-0.470976	2.461414	0.250065	-0.823033	-0.509985	-0.054456	-0.537841	0.841286	-0.966696	-0.182604	-0.179315
70	1564314													9.525188	-0.465197	2.422158	0.250066	-0.823060	-0.509941	-0.054318	-0.537769	0.841340	-0.966704	-0.182692	-0.179184
71	1564481													9.517839	-0.483467	2.460495	0.250049	-0.823086	-0.509907	-0.054246	-0.537719	0.841377	-0.966712	-0.182725	-0.179106
72	1564647													9.501006	-0.487591	2.466642	0.250013	-0.823062	-0.509964	-0.054227	-0.537766	0.841349	-0.966723	-0.182694	-0.179081
73	1564814													9.489312	-0.468787	2.494326	0.249990	-0.823121	-0.509879	-0.054264	-0.537682	0.841400	-0.966727	-0.182673	-0.179081
74	1564981													9.483171	-0.485781	2.493890	0.249949	-0.823164	-0.509829	-0.054293	-0.537629	0.841432	-0.966736	-0.182635	-0.179072
75	1565147													9.471185	-0.492480	2.491243	0.249921	-0.823196	-0.509792	-0.054329	-0.537592	0.841453	-0.966741	-0.182601	-0.179079
76	1565314													9.495502	-0.513887	2.505623	0.249964	-0.823193	-0.509776	-0.054405	-0.537599	0.841444	-0.966725	-0.182596	-0.179166
77	1565481													9.482125	-0.500774	2.550209	0.250002	-0.823169	-0.509796	-0.054550	-0.537653	0.841400	-0.966708	-0.182542	-0.179318
78	1565647													9.462023	-0.516555	2.535617	0.250010	-0.823169	-0.509793	-0.054691	-0.537678	0.841375	-0.966697	-0.182471	-0.179445
79	1565814													9.461239	-0.518510	2.525475	0.249977	-0.823149	-0.509841	-0.054878	-0.537756	0.841312	-0.966695	-0.182330	-0.179600
80	1565981													9.468300	-0.530813	2.523756	0.249915	-0.823103	-0.509945	-0.055072	-0.537888	0.841216	-0.966700	-0.182148	-0.179756
81	1566147													9.460730	-0.543265	2.528381	0.249799	-0.823103	-0.510002	-0.055272	-0.537962	0.841155	-0.966719	-0.181931	-0.179877
82	1566314													9.462498	-0.534551	2.508950	0.249747	-0.822960	-0.510258	-0.055492	-0.538255	0.840953	-0.966720	-0.181710	-0.180095
83	1566481													9.459977	-0.525690	2.527690	0.249624	-0.822870	-0.510464	-0.055718	-0.538484	0.840792	-0.966739	-0.181439	-0.180267
84	1566647													9.449491	-0.512711	2.493233	0.249408	-0.822832	-0.510630	-0.055863	-0.538640	0.840682	-0.966786	-0.181147	-0.180306
85	1566814													9.453966	-0.506573	2.491868	0.249153	-0.822775	-0.510846	-0.055944	-0.538827	0.840557	-0.966847	-0.180848	-0.180280
86	1566981													9.475072	-0.510554	2.501274	0.248819	-0.822652	-0.511208	-0.056018	-0.539147	0.840347	-0.966929	-0.180457	-0.180234
87	1567147													9.487644	-0.509761	2.490182	0.248482	-0.822703	-0.511289	-0.056093	-0.539180	0.840321	-0.967011	-0.180125	-0.180124
88	1567314													9.473975	-0.496831	2.523621	0.248107	-0.822612	-0.511617	-0.056107	-0.539446	0.840149	-0.967106	-0.179742	-0.179995
89	1567481													9.453839	-0.496122	2.515407	0.247749	-0.822565	-0.511867	-0.056081	-0.539629	0.840033	-0.967200	-0.179411	-0.179823
90	1567647													9.452709	-0.490838	2.516384	0.247363	-0.822416	-0.512293	-0.056023	-0.539979	0.839812	-0.967302	-0.179038	-0.179645
91	1567814													9.469958	-0.480892	2.495466	0.246859	-0.822392	-0.512574	-0.055926	-0.540153	0.839707	-0.967436	-0.178623	-0.179335
92	1567981													9.503386	-0.465514	2.503036	0.246393	-0.822341	-0.512880	-0.055816	-0.540358	0.839582	-0.967561	-0.178240	-0.179041
93	1568147													9.491878	-0.479725	2.463840	0.245960	-0.822372	-0.513037	-0.055669	-0.540409	0.839559	-0.967680	-0.177938	-0.178700
94	1568314													9.482211	-0.487315	2.440359	0.245491	-0.822336	-0.513321	-0.055503	-0.540579	0.839460	-0.967809	-0.177589	-0.178350
95	1568481													9.465173	-0.450482	2.395008	0.244983	-0.822323	-0.513584	-0.055344	-0.540724	0.839378	-0.967947	-0.177210	-0.177978
96	1568647													9.507548	-0.459333	2.365383	0.244418	-0.822432	-0.513678	-0.055200	-0.540687	0.839411	-0.968098	-0.176812	-0.177552
97	1568814													9.543394	-0.460109	2.483639	0.243928	-0.822514	-0.513779	-0.054893	-0.540643	0.839459	-0.968239	-0.176565	-0.177029
98	1568981													9.568903	-0.451397	2.453469	0.243510	-0.822608	-0.513827	-0.054692	-0.540578	0.839514	-0.968355	-0.176328	-0.176626
99	1569147													9.496389	-0.456186	2.467799	0.243153	-0.822770	-0.513737	-0.054588	-0.540400	0.839635	-0.968451	-0.176116	-0.176313
100	1569314													9.453321	-0.456466	2.466785	0.242779	-0.822905	-0.513698	-0.054441	-0.540264	0.839732	-0.968553	-0.175903	-0.175964
101	1569481													9.443112	-0.426703	2.413726	0.242362	-0.823068	-0.513634	-0.054237	-0.540084	0.839862	-0.968669	-0.175693	-0.175537
102	1569647													9.507379	-0.444854	2.389773	0.241914	-0.823331	-0.513423	-0.054088	-0.539760	0.840079	-0.968789	-0.175457	-0.175108
103	1569814													9.526965	-0.470143	2.421447	0.241487	-0.823386	-0.513536	-0.053969	-0.539775	0.840078	-0.968902	-0.175153	-0.174786
104	1569981													9.527978	-0.464918	2.398315	0.241147	-0.823434	-0.513618	-0.053906	-0.539785	0.840075	-0.968990	-0.174895	-0.174556
105	1570147													9.487620	-0.458507	2.394033	0.240876	-0.823476	-0.513678	-0.053899	-0.539795	0.840069	-0.969058	-0.174666	-0.174408
106	1570314													9.483479	-0.454879	2.347616	0.240509	-0.823565	-0.513708	-0.053918	-0.539761	0.840090	-0.969148	-0.174351	-0.174223
107	1570481													9.514091	-0.448543	2.379473	0.240197	-0.823697	-0.513643	-0.053933	-0.539640	0.840166	-0.969225	-0.174103	-0.174044
108	1570647													9.525926	-0.444105	2.378594	0.239916	-0.823801	-0.513606	-0.054016	-0.539567	0.840208	-0.969290	-0.173837	-0.173950
109	1570814													9.531781	-0.471325	2.423970	0.239660	-0.823848	-0.513651	-0.054093	-0.539579	0.840196	-0.969349	-0.173576	-0.173880
110	1570981													9.524081	-0.446991	2.379949	0.239429	-0.823909	-0.513662	-0.054225	-0.539571	0.840192	-0.969398	-0.173313	-0.173866
111	1571148													9.519877	-0.468420	2.347862	0.239100	-0.823996	-0.513675	-0.054405	-0.539557	0.840190	-0.969470	-0.172943	-0.173837
112	1571314													9.510232	-0.444965	2.339585	0.238911	-0.823973	-0.513800	-0.054418	-0.539652	0.840128	-0.969516	-0.172755	-0.173768
113	1571481													9.537724	-0.421708	2.330138	0.238682	-0.823959	-0.513929	-0.054456	-0.539749	0.840063	-0.969570	-0.172521	-0.173698
114	1571648													9.551424	-0.438498	2.367689	0.238521	-0.823965	-0.513993	-0.054592	-0.539809	0.840016	-0.969602	-0.172302	-0.173738
115	1571814													9.517231	-0.486275	2.352973	0.238317	-0.823992	-0.514045	-0.054735	-0.539850	0.839980	-0.969644	-0.172045	-0.173756
116	1571981													9.518548	-0.480649	2.374550	0.238167	-0.823959	-0.514168	-0.054873	-0.539972	0.839893	-0.969673	-0.171821	-0.173816
117	1572148													9.521415	-0.463996	2.362928	0.238018	-0.824018	-0.514143	-0.054958	-0.539934	0.839911	-0.969705	-0.171658	-0.173801
118	1572314													9.517454	-0.490134	2.371034	0.237884	-0.824110	-0.514056	-0.055010	-0.539831	0.839974	-0.969734	-0.171538	-0.173752
119	1572481													9.495000	-0.472195	2.368118	0.237828	-0.824052	-0.514175	-0.055035	-0.539946	0.839899	-0.969747	-0.171454	-0.173766
120	1572648													9.522986	-0.451748	2.370990	0.237657	-0.824020	-0.514305	-0.054999	-0.540041	0.839840	-0.969791	-0.171307	-0.173664
121	1572814													9.540416	-0.462097	2.364604	0.237613	-0.823977	-0.514394	-0.054937	-0.540113	0.839798	-0.969805	-0.171288	-0.173604
122	1572981													9.501568	-0.461662	2.376151	0.237596	-0.823911	-0.514508	-0.054797	-0.540201	0.839750	-0.969817	-0.171328	-0.173497
123	1573148													9.522552	-0.433457	2.387404	0.237574	-0.823808	-0.514683	-0.054664	-0.540352	0.839662	-0.969830	-0.171347	-0.173406
124	1573314													9.510927	-0.433433	2.374326	0.237526	-0.823813	-0.514697	-0.054564	-0.540340	0.839676	-0.969847	-0.171361	-0.173296
125	1573481													9.513548	-0.462618	2.379058	0.237516	-0.823916	-0.514538	-0.054459	-0.540157	0.839800	-0.969856	-0.171445	-0.173165
126	1573648													9.514214	-0.442534	2.355408	0.237551	-0.823950	-0.514466	-0.054402	-0.540081	0.839853	-0.969850	-0.171520	-0.173122
127	1573814													9.517136	-0.454318	2.381565	0.237589	-0.824015	-0.514345	-0.054324	-0.539950	0.839942	-0.969846	-0.171619	-0.173050
128	1573981													9.512575	-0.458037	2.389997	0.237732	-0.824161	-0.514045	-0.054254	-0.539658	0.840134	-0.969814	-0.171838	-0.173008
129	1574148													9.494697	-0.457218	2.380763	0.237864	-0.824243	-0.513853	-0.054219	-0.539480	0.840251	-0.969784	-0.172004	-0.173012
130	1574314													9.498898	-0.465719	2.365636	0.237983	-0.824301	-0.513704	-0.054195	-0.539345	0.840339	-0.969756	-0.172146	-0.173027
131	1574481													9.479464	-0.471330	2.353380	0.238120	-0.824251	-0.513721	-0.054146	-0.539379	0.840321	-0.969725	-0.172281	-0.173067
132	1574648													9.499265	-0.449207	2.375245	0.238261	-0.824250	-0.513657	-0.054117	-0.539334	0.840351	-0.969692	-0.172425	-0.173108
133	1574814													9.509436	-0.458860	2.399338	0.238409	-0.824341	-0.513442	-0.054147	-0.539147	0.840469	-0.969654	-0.172574	-0.173173
134	1574981													9.540763	-0.462017	2.401412	0.238525	-0.824520	-0.513101	-0.054186	-0.538828	0.840672	-0.969623	-0.172719	-0.173201
135	1575148													9.519123	-0.475124	2.352690	0.238697	-0.824546	-0.512980	-0.054222	-0.538742	0.840724	-0.969579	-0.172864	-0.173304
136	1575314													9.505753	-0.473912	2.373164	0.238869	-0.824504	-0.512967	-0.054255	-0.538766	0.840706	-0.969535	-0.172988	-0.173428
137	1575481													9.501657	-0.461887	2.388626	0.239030	-0.824509	-0.512884	-0.054312	-0.538721	0.840732	-0.969492	-0.173104	-0.173551
138	1575648													9.486823	-0.471447	2.382090	0.239154	-0.824546	-0.512767	-0.054318	-0.538625	0.840793	-0.969461	-0.173226	-0.173602
139	1575814													9.497634	-0.456818	2.381471	0.239252	-0.824600	-0.512633	-0.054287	-0.538501	0.840874	-0.969439	-0.173351	-0.173603
140	1575981													9.489348	-0.456399	2.395887	0.239340	-0.824594	-0.512603	-0.054229	-0.538476	0.840894	-0.969420	-0.173462	-0.173595
141	1576148													9.491583	-0.450170	2.410242	0.239429	-0.824649	-0.512471	-0.054155	-0.538345	0.840983	-0.969402	-0.173603	-0.173554
142	1576314													9.500785	-0.425572	2.426946	0.239577	-0.824620	-0.512450	-0.054011	-0.538324	0.841006	-0.969374	-0.173808	-0.173508
143	1576481													9.490988	-0.410800	2.433631	0.239690	-0.824537	-0.512531	-0.053827	-0.538394	0.840972	-0.969356	-0.173985	-0.173430
144	1576648													9.521563	-0.435253	2.411150	0.239792	-0.824530	-0.512495	-0.053664	-0.538347	0.841013	-0.969340	-0.174166	-0.173339
145	1576814													9.510083	-0.397435	2.443236	0.239893	-0.824423	-0.512618	-0.053494	-0.538461	0.840951	-0.969324	-0.174316	-0.173275
146	1576981													9.505373	-0.413803	2.449090	0.239975	-0.824394	-0.512627	-0.053352	-0.538459	0.840961	-0.969312	-0.174460	-0.173200
147	1577148													9.498994	-0.447441	2.414254	0.240053	-0.824467	-0.512472	-0.053212	-0.538291	0.841078	-0.969300	-0.174633	-0.173090
148	1577314													9.480375	-0.414443	2.373650	0.240155	-0.824544	-0.512302	-0.053126	-0.538120	0.841193	-0.969280	-0.174800	-0.173037
149	1577481													9.517997	-0.424478	2.352261	0.240216	-0.824634	-0.512128	-0.053097	-0.537948	0.841304	-0.969266	-0.174902	-0.173010
150	1577648													9.535727	-0.422296	2.409477	0.240318	-0.824733	-0.511921	-0.052999	-0.537738	0.841445	-0.969246	-0.175083	-0.172938
151	1577814													9.541228	-0.421020	2.410314	0.240414	-0.824830	-0.511718	-0.052887	-0.537528	0.841586	-0.969228	-0.175266	-0.172852
152	1577981													9.502965	-0.455855	2.458743	0.240523	-0.824833	-0.511664	-0.052902	-0.537495	0.841606	-0.969201	-0.175357	-0.172915
153	1578314													9.494426	-0.420390	2.426371	0.240674	-0.824734	-0.511751	-0.052936	-0.537618	0.841525	-0.969161	-0.175443	-0.173049
154	1578481													9.497019	-0.412204	2.442281	0.240733	-0.824791	-0.511633	-0.052933	-0.537507	0.841596	-0.969147	-0.175518	-0.173054
155	1578648													9.497665	-0.440875	2.429111	0.240724	-0.824647	-0.511869	-0.053010	-0.537761	0.841429	-0.969145	-0.175418	-0.173167
156	1578814													9.507159	-0.427118	2.450612	0.240734	-0.824616	-0.511914	-0.053174	-0.537838	0.841370	-0.969133	-0.175326	-0.173324
157	1578981													9.486124	-0.423315	2.459887	0.240851	-0.824684	-0.511750	-0.053371	-0.537727	0.841428	-0.969093	-0.175346	-0.173527
158	1579148													9.482267	-0.454684	2.430248	0.240887	-0.824835	-0.511489	-0.053589	-0.537508	0.841554	-0.969072	-0.175309	-0.173681
159	1579314													9.477429	-0.478446	2.411026	0.240904	-0.824962	-0.511276	-0.053808	-0.537332	0.841652	-0.969056	-0.175247	-0.173835
160	1579481													9.492982	-0.483674	2.407848	0.240934	-0.825066	-0.511094	-0.054063	-0.537198	0.841722	-0.969035	-0.175168	-0.174035
161	1579648													9.495161	-0.478479	2.458635	0.240999	-0.825126	-0.510967	-0.054276	-0.537120	0.841758	-0.969006	-0.175130	-0.174230
162	1579814													9.477019	-0.462700	2.459878	0.240964	-0.825106	-0.511014	-0.054437	-0.537190	0.841702	-0.969006	-0.175002	-0.174360
163	1579981													9.510519	-0.477028	2.382240	0.240881	-0.825115	-0.511040	-0.054622	-0.537235	0.841662	-0.969016	-0.174826	-0.174479
164	1580148													9.507998	-0.492019	2.424887	0.240818	-0.825052	-0.511172	-0.054736	-0.537378	0.841563	-0.969026	-0.174684	-0.174570
165	1580314													9.497563	-0.431596	2.369887	0.240801	-0.825082	-0.511131	-0.054735	-0.537333	0.841592	-0.969030	-0.174679	-0.174551
166	1580481													9.543996	-0.435564	2.397561	0.240878	-0.825135	-0.511009	-0.054746	-0.537225	0.841660	-0.969010	-0.174762	-0.174578
167	1580648													9.522249	-0.486929	2.429289	0.240988	-0.825201	-0.510851	-0.054797	-0.537093	0.841741	-0.968980	-0.174856	-0.174651
168	1580814													9.498832	-0.472635	2.407664	0.241085	-0.825195	-0.510815	-0.054845	-0.537083	0.841745	-0.968953	-0.174917	-0.174741
169	1580981													9.491539	-0.462593	2.425126	0.241174	-0.825268	-0.510654	-0.054895	-0.536944	0.841830	-0.968928	-0.174996	-0.174800
170	1581148													9.493504	-0.475475	2.417681	0.241171	-0.825316	-0.510577	-0.054884	-0.536864	0.841882	-0.968929	-0.175015	-0.174773
171	1581314													9.505330	-0.465940	2.393910	0.241228	-0.825266	-0.510632	-0.054858	-0.536925	0.841845	-0.968917	-0.175064	-0.174794
172	1581481													9.492059	-0.450052	2.381990	0.241326	-0.825269	-0.510581	-0.054807	-0.536882	0.841876	-0.968895	-0.175183	-0.174794
173	1581648													9.527127	-0.460559	2.369391	0.241447	-0.825333	-0.510420	-0.054702	-0.536721	0.841985	-0.968871	-0.175374	-0.174737
174	1581814													9.519984	-0.474177	2.384556	0.241845	-0.825267	-0.510338	-0.054541	-0.536682	0.842020	-0.968781	-0.175803	-0.174805
175	1581981													9.508755	-0.447884	2.492823	0.242029	-0.825303	-0.510193	-0.054379	-0.536538	0.842123	-0.968744	-0.176074	-0.174737
176	1582148													9.498467	-0.445256	2.394478	0.242110	-0.825422	-0.509961	-0.054249	-0.536293	0.842287	-0.968731	-0.176261	-0.174620
177	1582314													9.532273	-0.447308	2.417910	0.242342	-0.825408	-0.509874	-0.054117	-0.536223	0.842340	-0.968680	-0.176542	-0.174618
178	1582481													9.509150	-0.448989	2.393742	0.242616	-0.825372	-0.509802	-0.054029	-0.536183	0.842371	-0.968617	-0.176829	-0.174680
179	1582648													9.500313	-0.468279	2.416594	0.242888	-0.825459	-0.509533	-0.053953	-0.535944	0.842528	-0.968553	-0.177149	-0.174710
180	1582814													9.499232	-0.458781	2.438870	0.243129	-0.825506	-0.509341	-0.053873	-0.535779	0.842638	-0.968497	-0.177430	-0.174736
181	1582981													9.506321	-0.457994	2.430090	0.243344	-0.825615	-0.509062	-0.053835	-0.535526	0.842801	-0.968445	-0.177685	-0.174764
182	1583148													9.503430	-0.449422	2.413804	0.243613	-0.825700	-0.508795	-0.053822	-0.535301	0.842945	-0.968378	-0.177968	-0.174847
183	1583314													9.510617	-0.465083	2.449237	0.243868	-0.825638	-0.508774	-0.053779	-0.535318	0.842937	-0.968316	-0.178204	-0.174949
184	1583481													9.495712	-0.453975	2.450401	0.244163	-0.825639	-0.508630	-0.053746	-0.535220	0.843001	-0.968244	-0.178493	-0.175055
185	1583648													9.490983	-0.434070	2.455157	0.244410	-0.825571	-0.508623	-0.053740	-0.535257	0.842978	-0.968182	-0.178699	-0.175188
186	1583814													9.516407	-0.448341	2.431721	0.244753	-0.825501	-0.508571	-0.053737	-0.535267	0.842972	-0.968095	-0.178991	-0.175369
187	1583981													9.491721	-0.450693	2.478438	0.245118	-0.825479	-0.508430	-0.053774	-0.535198	0.843014	-0.968001	-0.179297	-0.175576
188	1584148													9.491416	-0.450262	2.450027	0.245437	-0.825536	-0.508184	-0.053836	-0.535017	0.843124	-0.967916	-0.179575	-0.175757
189	1584314													9.505617	-0.446003	2.466888	0.245758	-0.825447	-0.508174	-0.053920	-0.535081	0.843078	-0.967830	-0.179792	-0.176009
190	1584481													9.485045	-0.463189	2.480602	0.246077	-0.825369	-0.508145	-0.054010	-0.535128	0.843042	-0.967744	-0.180008	-0.176261
191	1584648													9.480241	-0.472419	2.460305	0.246372	-0.825273	-0.508158	-0.054073	-0.535209	0.842988	-0.967666	-0.180212	-0.176485
192	1584814													9.497733	-0.445080	2.501384	0.246706	-0.825194	-0.508125	-0.054138	-0.535248	0.842958	-0.967577	-0.180454	-0.176724
193	1584981													9.469245	-0.446887	2.483510	0.247035	-0.825073	-0.508161	-0.054188	-0.535356	0.842886	-0.967490	-0.180687	-0.176961
194	1585148													9.482329	-0.454794	2.502415	0.247310	-0.825027	-0.508102	-0.054196	-0.535349	0.842890	-0.967420	-0.180918	-0.177111
195	1585314													9.506622	-0.456554	2.464832	0.247603	-0.824872	-0.508211	-0.054193	-0.535515	0.842785	-0.967345	-0.181135	-0.177298
196	1585481													9.487601	-0.430028	2.516955	0.247941	-0.824728	-0.508280	-0.054162	-0.535643	0.842706	-0.967260	-0.181412	-0.177477
197	1585648													9.473866	-0.424425	2.504372	0.248210	-0.824688	-0.508215	-0.054109	-0.535617	0.842726	-0.967194	-0.181674	-0.177568
198	1585814													9.471982	-0.446622	2.506210	0.248477	-0.824681	-0.508096	-0.054047	-0.535533	0.842783	-0.967129	-0.181951	-0.177639
199	1585981													9.454749	-0.445650	2.505319	0.248728	-0.824661	-0.508005	-0.053998	-0.535478	0.842821	-0.967067	-0.182202	-0.177718
200	1586148													9.484270	-0.437742	2.514910	0.248929	-0.824705	-0.507834	-0.053962	-0.535335	0.842915	-0.967017	-0.182422	-0.177763
201	1586314													9.503699	-0.449780	2.523705	0.249116	-0.824714	-0.507728	-0.053923	-0.535254	0.842968	-0.966971	-0.182619	-0.177811
202	1586481													9.468839	-0.460437	2.516266	0.249268	-0.824769	-0.507564	-0.053902	-0.535111	0.843061	-0.966933	-0.182790	-0.177842
203	1586648													9.452506	-0.469535	2.481509	0.249524	-0.824786	-0.507411	-0.053896	-0.535002	0.843130	-0.966867	-0.183034	-0.177949
204	1586814													9.454966	-0.472914	2.457548	0.249730	-0.824821	-0.507252	-0.053965	-0.534891	0.843196	-0.966811	-0.183197	-0.178089
205	1586981													9.490071	-0.448503	2.534894	0.249877	-0.824845	-0.507142	-0.053950	-0.534803	0.843253	-0.966773	-0.183349	-0.178135
206	1587148													9.518802	-0.456056	2.532838	0.250063	-0.824934	-0.506904	-0.053856	-0.534577	0.843402	-0.966731	-0.183604	-0.178106
207	1587314													9.474747	-0.498273	2.545133	0.250312	-0.824967	-0.506728	-0.053842	-0.534441	0.843489	-0.966667	-0.183852	-0.178195
208	1587481													9.499701	-0.513733	2.589013	0.250486	-0.824970	-0.506637	-0.053843	-0.534382	0.843527	-0.966622	-0.184013	-0.178274
209	1587648													9.439981	-0.467848	2.565852	0.250700	-0.824880	-0.506677	-0.053743	-0.534444	0.843494	-0.966572	-0.184234	-0.178317
210	1587815													9.442768	-0.441408	2.544064	0.250838	-0.824740	-0.506837	-0.053670	-0.534619	0.843387	-0.966540	-0.184351	-0.178367
211	1587981													9.475628	-0.471202	2.557556	0.250992	-0.824643	-0.506919	-0.053614	-0.534722	0.843326	-0.966503	-0.184491	-0.178423
212	1588148													9.465434	-0.464976	2.536657	0.251183	-0.824585	-0.506919	-0.053558	-0.534747	0.843313	-0.966457	-0.184676	-0.178483
213	1588315													9.458656	-0.448786	2.537760	0.251436	-0.824442	-0.507026	-0.053541	-0.534902	0.843216	-0.966392	-0.184868	-0.178635
214	1588481													9.436119	-0.449319	2.563995	0.251651	-0.824383	-0.507016	-0.053567	-0.534936	0.843193	-0.966335	-0.185031	-0.178777
215	1588648													9.459540	-0.461525	2.552339	0.251814	-0.824345	-0.506995	-0.053597	-0.534952	0.843181	-0.966290	-0.185151	-0.178891
216	1588815													9.473471	-0.449960	2.538489	0.251939	-0.824299	-0.507009	-0.053637	-0.534997	0.843150	-0.966255	-0.185228	-0.178999
217	1588981													9.456769	-0.452021	2.585413	0.252078	-0.824259	-0.507005	-0.053674	-0.535026	0.843129	-0.966217	-0.185321	-0.179110
218	1589148													9.468051	-0.455243	2.573742	0.252139	-0.824213	-0.507049	-0.053643	-0.535077	0.843098	-0.966203	-0.185378	-0.179127
219	1589315													9.477186	-0.472026	2.508134	0.252177	-0.824186	-0.507075	-0.053619	-0.535106	0.843082	-0.966195	-0.185417	-0.179133
220	1589481													9.474575	-0.485033	2.540313	0.252107	-0.824142	-0.507181	-0.053597	-0.535197	0.843025	-0.966214	-0.185349	-0.179099
221	1589648													9.443240	-0.446224	2.485554	0.252056	-0.824099	-0.507276	-0.053489	-0.535264	0.842989	-0.966233	-0.185347	-0.178997
222	1589815													9.483811	-0.420996	2.517591	0.251997	-0.824093	-0.507315	-0.053369	-0.535270	0.842994	-0.966255	-0.185357	-0.178867
223	1589981													9.489410	-0.458075	2.570202	0.251912	-0.824044	-0.507437	-0.053272	-0.535360	0.842942	-0.966283	-0.185315	-0.178762
224	1590148													9.462333	-0.463309	2.546159	0.251800	-0.824034	-0.507508	-0.053196	-0.535397	0.842924	-0.966316	-0.185251	-0.178648
225	1590315													9.454189	-0.441892	2.530743	0.251711	-0.824003	-0.507603	-0.053129	-0.535464	0.842885	-0.966343	-0.185195	-0.178561
226	1590481													9.467286	-0.437849	2.522790	0.251576	-0.824072	-0.507558	-0.053055	-0.535379	0.842944	-0.966382	-0.185136	-0.178409
227	1590648													9.474686	-0.443460	2.526980	0.251506	-0.824152	-0.507463	-0.053015	-0.535260	0.843022	-0.966403	-0.185122	-0.178313
228	1590815													9.470898	-0.428152	2.485749	0.251409	-0.824173	-0.507476	-0.052930	-0.535239	0.843040	-0.966433	-0.185087	-0.178187
229	1590981													9.470945	-0.402739	2.519324	0.251273	-0.824251	-0.507417	-0.052863	-0.535140	0.843108	-0.966472	-0.185027	-0.178039
230	1591148													9.490636	-0.449604	2.519989	0.251133	-0.824410	-0.507228	-0.052748	-0.534899	0.843268	-0.966514	-0.185017	-0.177817
231	1591315													9.502297	-0.441980	2.505848	0.251034	-0.824433	-0.507240	-0.052622	-0.534869	0.843295	-0.966547	-0.185004	-0.177653
232	1591481													9.488982	-0.416088	2.512296	0.250948	-0.824531	-0.507122	-0.052562	-0.534720	0.843393	-0.966573	-0.184992	-0.177526
233	1591648													9.489835	-0.423083	2.491737	0.250898	-0.824637	-0.506975	-0.052498	-0.534548	0.843506	-0.966589	-0.185019	-0.177408
234	1591815													9.491094	-0.445123	2.498102	0.250810	-0.824694	-0.506926	-0.052438	-0.534470	0.843559	-0.966615	-0.184990	-0.177296
235	1591981													9.485217	-0.452287	2.483397	0.250721	-0.824811	-0.506780	-0.052421	-0.534301	0.843667	-0.966639	-0.184959	-0.177197
236	1592148													9.475431	-0.460514	2.484202	0.250616	-0.824827	-0.506806	-0.052455	-0.534314	0.843657	-0.966665	-0.184849	-0.177174
237	1592315													9.493967	-0.433600	2.478543	0.250503	-0.824862	-0.506804	-0.052500	-0.534299	0.843663	-0.966691	-0.184733	-0.177148
238	1592481													9.512521	-0.453909	2.499340	0.250375	-0.824935	-0.506749	-0.052555	-0.534229	0.843704	-0.966722	-0.184610	-0.177112
239	1592648													9.491381	-0.429096	2.484596	0.250266	-0.824949	-0.506779	-0.052639	-0.534256	0.843682	-0.966745	-0.184469	-0.177131
240	1592815													9.486626	-0.444899	2.529282	0.250131	-0.824977	-0.506801	-0.052772	-0.534278	0.843660	-0.966773	-0.184281	-0.177175
241	1592981													9.476009	-0.453736	2.487085	0.249976	-0.824974	-0.506883	-0.052914	-0.534360	0.843599	-0.966805	-0.184058	-0.177230
242	1593148													9.465844	-0.431042	2.517271	0.249822	-0.824961	-0.506980	-0.053084	-0.534463	0.843523	-0.966836	-0.183818	-0.177313
243	1593315													9.465037	-0.437237	2.505107	0.249599	-0.825009	-0.507011	-0.053288	-0.534492	0.843492	-0.966882	-0.183517	-0.177372
244	1593481													9.485563	-0.462366	2.506180	0.249366	-0.825077	-0.507016	-0.053517	-0.534496	0.843475	-0.966929	-0.183200	-0.177441
245	1593648													9.494134	-0.444600	2.486281	0.249132	-0.825127	-0.507049	-0.053726	-0.534526	0.843443	-0.966978	-0.182887	-0.177498
246	1593815													9.483816	-0.448897	2.470883	0.248937	-0.825142	-0.507120	-0.053962	-0.534606	0.843377	-0.967015	-0.182583	-0.177609
247	1593981													9.485670	-0.451556	2.505027	0.248729	-0.825211	-0.507109	-0.054179	-0.534598	0.843368	-0.967057	-0.182296	-0.177680
248	1594148													9.485202	-0.454763	2.493359	0.248532	-0.825273	-0.507106	-0.054395	-0.534598	0.843354	-0.967095	-0.182017	-0.177756
249	1594315													9.504004	-0.460638	2.473644	0.248372	-0.825394	-0.506988	-0.054570	-0.534480	0.843418	-0.967126	-0.181815	-0.177792
250	1594481													9.478552	-0.469803	2.506044	0.248246	-0.825480	-0.506909	-0.054775	-0.534414	0.843446	-0.967147	-0.181616	-0.177882
251	1594648													9.495590	-0.459603	2.491841	0.248132	-0.825537	-0.506871	-0.054977	-0.534392	0.843447	-0.967165	-0.181420	-0.177986
252	1594815													9.500250	-0.462231	2.503808	0.248121	-0.825611	-0.506757	-0.055137	-0.534303	0.843493	-0.967159	-0.181347	-0.178093
253	1594981													9.480304	-0.464532	2.508569	0.248100	-0.825587	-0.506806	-0.055338	-0.534387	0.843426	-0.967153	-0.181208	-0.178268
254	1595148													9.478415	-0.453625	2.476112	0.248066	-0.825577	-0.506839	-0.055514	-0.534447	0.843377	-0.967151	-0.181077	-0.178409
255	1595315													9.478187	-0.464490	2.485132	0.248018	-0.825578	-0.506862	-0.055750	-0.534505	0.843324	-0.967150	-0.180902	-0.178593
256	1595481													9.483202	-0.471608	2.494510	0.247877	-0.825653	-0.506808	-0.056083	-0.534487	0.843314	-0.967167	-0.180615	-0.178792
257	1595648													9.480945	-0.486011	2.479265	0.247746	-0.825678	-0.506831	-0.056400	-0.534544	0.843256	-0.967182	-0.180328	-0.179000
258	1595815													9.467601	-0.500331	2.427572	0.247637	-0.825639	-0.506947	-0.056642	-0.534687	0.843150	-0.967196	-0.180080	-0.179174
259	1595981													9.462625	-0.505441	2.437768	0.247480	-0.825611	-0.507071	-0.056895	-0.534831	0.843041	-0.967221	-0.179786	-0.179333
260	1596148													9.518819	-0.533062	2.460200	0.247211	-0.825593	-0.507230	-0.057076	-0.534977	0.842937	-0.967279	-0.179432	-0.179374
261	1596315													9.543237	-0.495355	2.508616	0.247026	-0.825618	-0.507281	-0.057234	-0.535022	0.842897	-0.967317	-0.179184	-0.179418
262	1596481													9.491332	-0.523247	2.482901	0.246941	-0.825721	-0.507154	-0.057470	-0.534920	0.842946	-0.967325	-0.179012	-0.179548
263	1596648													9.430110	-0.550754	2.493332	0.246822	-0.825674	-0.507289	-0.057686	-0.535076	0.842832	-0.967342	-0.178766	-0.179698
264	1596815													9.437639	-0.538270	2.511832	0.246621	-0.825579	-0.507540	-0.057833	-0.535321	0.842666	-0.967385	-0.178467	-0.179767
265	1596981													9.473677	-0.502299	2.461136	0.246375	-0.825638	-0.507565	-0.057975	-0.535325	0.842654	-0.967439	-0.178182	-0.179757
266	1597148													9.492243	-0.534932	2.442552	0.246210	-0.825627	-0.507661	-0.058137	-0.535423	0.842581	-0.967471	-0.177938	-0.179825
267	1597315													9.511747	-0.536443	2.456002	0.246035	-0.825725	-0.507588	-0.058371	-0.535357	0.842606	-0.967502	-0.177682	-0.179915
268	1597481													9.494414	-0.519012	2.490425	0.245832	-0.825775	-0.507604	-0.058793	-0.535413	0.842542	-0.967528	-0.177280	-0.180171
269	1597648													9.455388	-0.515704	2.451350	0.245554	-0.825867	-0.507589	-0.059312	-0.535440	0.842488	-0.967567	-0.176770	-0.180463
270	1597815													9.479481	-0.532274	2.400893	0.245274	-0.825985	-0.507532	-0.059657	-0.535392	0.842494	-0.967616	-0.176364	-0.180593
271	1597981													9.494922	-0.530837	2.437071	0.245059	-0.825886	-0.507798	-0.059846	-0.535656	0.842313	-0.967659	-0.176027	-0.180694
272	1598148													9.480179	-0.514686	2.476282	0.244885	-0.825858	-0.507927	-0.059948	-0.535773	0.842232	-0.967697	-0.175801	-0.180711
273	1598315													9.480858	-0.549928	2.482633	0.244730	-0.825794	-0.508107	-0.059934	-0.535924	0.842136	-0.967737	-0.175643	-0.180649
274	1598481													9.467526	-0.576559	2.339383	0.244494	-0.825782	-0.508239	-0.059941	-0.536015	0.842078	-0.967796	-0.175419	-0.180550
275	1598648													9.500858	-0.583413	2.402919	0.244266	-0.825764	-0.508378	-0.059864	-0.536100	0.842029	-0.967859	-0.175246	-0.180384
276	1598815													9.496283	-0.549523	2.415849	0.244067	-0.825794	-0.508425	-0.059679	-0.536077	0.842057	-0.967920	-0.175176	-0.180121
277	1598981													9.485079	-0.559363	2.437302	0.243865	-0.825830	-0.508463	-0.059568	-0.536057	0.842078	-0.967978	-0.175065	-0.179919
278	1599148													9.506876	-0.604937	2.438771	0.243737	-0.825819	-0.508541	-0.059497	-0.536100	0.842055	-0.968015	-0.174983	-0.179801
279	1599315													9.457028	-0.576907	2.435209	0.243695	-0.825794	-0.508603	-0.059371	-0.536131	0.842044	-0.968033	-0.175005	-0.179681
280	1599481													9.488358	-0.548029	2.436383	0.243616	-0.825780	-0.508664	-0.059192	-0.536147	0.842047	-0.968064	-0.175028	-0.179493
281	1599648													9.506390	-0.556329	2.445716	0.243572	-0.825689	-0.508832	-0.058976	-0.536271	0.841983	-0.968088	-0.175074	-0.179316
282	1599815													9.496397	-0.552263	2.428070	0.243535	-0.825642	-0.508926	-0.058821	-0.536332	0.841955	-0.968107	-0.175110	-0.179181
283	1599981													9.505548	-0.541794	2.416508	0.243550	-0.825520	-0.509117	-0.058670	-0.536502	0.841857	-0.968112	-0.175165	-0.179098
284	1600148													9.484530	-0.529742	2.433393	0.243539	-0.825404	-0.509311	-0.058530	-0.536672	0.841759	-0.968123	-0.175191	-0.179011
285	1600315													9.505110	-0.512190	2.429193	0.243497	-0.825305	-0.509491	-0.058355	-0.536816	0.841679	-0.968145	-0.175215	-0.178873
286	1600481													9.496871	-0.504467	2.388003	0.243439	-0.825239	-0.509625	-0.058089	-0.536894	0.841648	-0.968175	-0.175286	-0.178638
287	1600648													9.514749	-0.491471	2.417591	0.243362	-0.825288	-0.509583	-0.057862	-0.536795	0.841726	-0.968208	-0.175359	-0.178388
288	1600815													9.498735	-0.492115	2.415385	0.243298	-0.825272	-0.509640	-0.057665	-0.536806	0.841733	-0.968236	-0.175403	-0.178193
289	1600981													9.488697	-0.500125	2.422548	0.243262	-0.825270	-0.509659	-0.057431	-0.536776	0.841768	-0.968259	-0.175500	-0.177974
290	1601148													9.498392	-0.502632	2.428281	0.243207	-0.825247	-0.509724	-0.057204	-0.536791	0.841774	-0.968286	-0.175567	-0.177759
291	1601315													9.497247	-0.506344	2.413707	0.243157	-0.825261	-0.509724	-0.056991	-0.536743	0.841819	-0.968311	-0.175644	-0.177546
292	1601481													9.492820	-0.515575	2.427554	0.243146	-0.825292	-0.509680	-0.056832	-0.536667	0.841878	-0.968323	-0.175733	-0.177392
293	1601648													9.498804	-0.496470	2.412542	0.243102	-0.825310	-0.509671	-0.056639	-0.536614	0.841925	-0.968346	-0.175806	-0.177197
294	1601815													9.510691	-0.511444	2.403347	0.243109	-0.825291	-0.509699	-0.056465	-0.536613	0.841937	-0.968354	-0.175902	-0.177055
295	1601981													9.493085	-0.511058	2.442456	0.243177	-0.825270	-0.509701	-0.056281	-0.536594	0.841962	-0.968348	-0.176059	-0.176934
296	1602148													9.503538	-0.516004	2.436037	0.243202	-0.825191	-0.509816	-0.056103	-0.536684	0.841916	-0.968352	-0.176153	-0.176818
297	1602315													9.504361	-0.511512	2.416754	0.243251	-0.825215	-0.509754	-0.055917	-0.536595	0.841985	-0.968350	-0.176309	-0.176671
298	1602481													9.501707	-0.501921	2.419994	0.243308	-0.825232	-0.509699	-0.055693	-0.536510	0.842054	-0.968349	-0.176492	-0.176497
299	1602648													9.496579	-0.489261	2.440039	0.243316	-0.825213	-0.509726	-0.055491	-0.536502	0.842073	-0.968358	-0.176605	-0.176332
300	1602815													9.494288	-0.493244	2.413488	0.243366	-0.825195	-0.509731	-0.055249	-0.536472	0.842108	-0.968360	-0.176778	-0.176150
301	1602981													9.477212	-0.477644	2.445664	0.243402	-0.825113	-0.509848	-0.055004	-0.536553	0.842072	-0.968365	-0.176918	-0.175983
302	1603148													9.501776	-0.467968	2.429406	0.243428	-0.825125	-0.509815	-0.054790	-0.536485	0.842129	-0.968370	-0.177066	-0.175804
303	1603315													9.493254	-0.480446	2.409566	0.243424	-0.825071	-0.509905	-0.054570	-0.536536	0.842111	-0.968384	-0.177164	-0.175630
304	1603481													9.503968	-0.472029	2.391750	0.243448	-0.825021	-0.509975	-0.054336	-0.536569	0.842105	-0.968391	-0.177299	-0.175455
305	1603648													9.500505	-0.467868	2.464018	0.243496	-0.825000	-0.509985	-0.054139	-0.536552	0.842129	-0.968390	-0.177445	-0.175313
306	1603815													9.490117	-0.491321	2.421765	0.243505	-0.824976	-0.510020	-0.053907	-0.536547	0.842147	-0.968401	-0.177573	-0.175123
307	1603981													9.478548	-0.489779	2.347673	0.243577	-0.824841	-0.510203	-0.053722	-0.536713	0.842053	-0.968393	-0.177695	-0.175043
308	1604148													9.481928	-0.476419	2.369127	0.243646	-0.824831	-0.510187	-0.053567	-0.536681	0.842083	-0.968384	-0.177841	-0.174944
309	1604315													9.522560	-0.475221	2.381908	0.243707	-0.824824	-0.510169	-0.053372	-0.536639	0.842123	-0.968379	-0.178002	-0.174805
310	1604482													9.538514	-0.470722	2.416000	0.243840	-0.824821	-0.510110	-0.053087	-0.536550	0.842197	-0.968361	-0.178281	-0.174620
311	1604648													9.513123	-0.489815	2.443179	0.244072	-0.824825	-0.509993	-0.052927	-0.536444	0.842275	-0.968312	-0.178584	-0.174587
312	1604815													9.501332	-0.494210	2.452316	0.244193	-0.824777	-0.510012	-0.052803	-0.536463	0.842270	-0.968288	-0.178746	-0.174551
313	1604982													9.493328	-0.449862	2.479620	0.244260	-0.824706	-0.510095	-0.052649	-0.536532	0.842236	-0.968280	-0.178868	-0.174473
314	1605148													9.496976	-0.441819	2.439478	0.244352	-0.824706	-0.510051	-0.052471	-0.536470	0.842287	-0.968266	-0.179051	-0.174361
315	1605315													9.515193	-0.465730	2.429429	0.244536	-0.824689	-0.509990	-0.052303	-0.536411	0.842334	-0.968228	-0.179307	-0.174306
316	1605482													9.491393	-0.492975	2.446313	0.244734	-0.824582	-0.510069	-0.052194	-0.536507	0.842280	-0.968184	-0.179512	-0.174340
317	1605648													9.474647	-0.457243	2.440482	0.244941	-0.824566	-0.509995	-0.052136	-0.536459	0.842314	-0.968135	-0.179728	-0.174390
318	1605815													9.482489	-0.465533	2.438140	0.245075	-0.824506	-0.510027	-0.052067	-0.536504	0.842290	-0.968105	-0.179869	-0.174414
319	1605982													9.486658	-0.462723	2.419323	0.245153	-0.824458	-0.510068	-0.052056	-0.536558	0.842256	-0.968086	-0.179930	-0.174457
320	1606148													9.487636	-0.455301	2.441095	0.245220	-0.824409	-0.510114	-0.052045	-0.536616	0.842220	-0.968069	-0.179981	-0.174496
321	1606315													9.485636	-0.465676	2.432683	0.245242	-0.824336	-0.510222	-0.052031	-0.536727	0.842150	-0.968065	-0.179983	-0.174519
322	1606482													9.519449	-0.457612	2.462730	0.245330	-0.824267	-0.510291	-0.052034	-0.536814	0.842094	-0.968042	-0.180039	-0.174587
323	1606648													9.507360	-0.468767	2.402646	0.245454	-0.824184	-0.510366	-0.052136	-0.536933	0.842012	-0.968005	-0.180067	-0.174762
324	1606815													9.499887	-0.486428	2.428109	0.245531	-0.824157	-0.510371	-0.052204	-0.536965	0.841988	-0.967982	-0.180091	-0.174866
325	1606982													9.495549	-0.448352	2.413284	0.245680	-0.824019	-0.510523	-0.052189	-0.537145	0.841874	-0.967945	-0.180188	-0.174971
326	1607148													9.498428	-0.447856	2.445149	0.245814	-0.823968	-0.510542	-0.052184	-0.537188	0.841847	-0.967911	-0.180295	-0.175047
327	1607315													9.518961	-0.476379	2.425912	0.245852	-0.823991	-0.510486	-0.052248	-0.537150	0.841867	-0.967898	-0.180303	-0.175111
328	1607482													9.499160	-0.471763	2.437586	0.245953	-0.823905	-0.510575	-0.052299	-0.537269	0.841788	-0.967870	-0.180337	-0.175232
329	1607648													9.488144	-0.455051	2.474661	0.246058	-0.823815	-0.510671	-0.052306	-0.537388	0.841712	-0.967843	-0.180399	-0.175319
330	1607815													9.485042	-0.446142	2.466712	0.246145	-0.823730	-0.510765	-0.052312	-0.537501	0.841639	-0.967820	-0.180446	-0.175394
331	1607982													9.500818	-0.455005	2.436144	0.246252	-0.823650	-0.510843	-0.052364	-0.537611	0.841566	-0.967790	-0.180488	-0.175517
332	1608148													9.496408	-0.466642	2.426845	0.246417	-0.823590	-0.510859	-0.052410	-0.537667	0.841527	-0.967746	-0.180593	-0.175655
333	1608315													9.506088	-0.462418	2.422548	0.246556	-0.823587	-0.510799	-0.052472	-0.537642	0.841539	-0.967707	-0.180683	-0.175774
334	1608482													9.514688	-0.479772	2.421750	0.246711	-0.823551	-0.510780	-0.052521	-0.537661	0.841524	-0.967665	-0.180787	-0.175901
335	1608648													9.511886	-0.465687	2.430587	0.246881	-0.823502	-0.510778	-0.052536	-0.537692	0.841503	-0.967621	-0.180917	-0.176009
336	1608815													9.500409	-0.467879	2.415898	0.247059	-0.823430	-0.510808	-0.052564	-0.537761	0.841457	-0.967574	-0.181040	-0.176141
337	1608982													9.489752	-0.484978	2.447399	0.247235	-0.823382	-0.510801	-0.052573	-0.537789	0.841439	-0.967528	-0.181179	-0.176248
338	1609148													9.506791	-0.473906	2.431484	0.247468	-0.823308	-0.510807	-0.052619	-0.537847	0.841399	-0.967466	-0.181341	-0.176421
339	1609315													9.513086	-0.470593	2.435037	0.247711	-0.823298	-0.510706	-0.052687	-0.537802	0.841423	-0.967400	-0.181522	-0.176597
340	1609482													9.507383	-0.486973	2.424775	0.247977	-0.823329	-0.510526	-0.052766	-0.537682	0.841495	-0.967328	-0.181733	-0.176777
341	1609648													9.494989	-0.492188	2.473906	0.248268	-0.823314	-0.510409	-0.052831	-0.537630	0.841524	-0.967250	-0.181958	-0.176973
342	1609815													9.492778	-0.475981	2.430189	0.248547	-0.823299	-0.510297	-0.052900	-0.537581	0.841551	-0.967174	-0.182170	-0.177166
343	1609982													9.486887	-0.471850	2.469551	0.248826	-0.823227	-0.510278	-0.052950	-0.537622	0.841522	-0.967100	-0.182373	-0.177364
344	1610148													9.495431	-0.496676	2.455318	0.249150	-0.823118	-0.510294	-0.052997	-0.537709	0.841463	-0.967014	-0.182607	-0.177593
345	1610315													9.485263	-0.483141	2.468821	0.249417	-0.823029	-0.510307	-0.053053	-0.537783	0.841412	-0.966942	-0.182790	-0.177796
346	1610482													9.493206	-0.511748	2.487271	0.249755	-0.822909	-0.510337	-0.053103	-0.537886	0.841343	-0.966852	-0.183029	-0.178039
347	1610648													9.486785	-0.490358	2.497611	0.250072	-0.822802	-0.510354	-0.053132	-0.537969	0.841289	-0.966768	-0.183267	-0.178248
348	1610815													9.480901	-0.490467	2.495643	0.250383	-0.822725	-0.510325	-0.053154	-0.538002	0.841266	-0.966687	-0.183513	-0.178437
349	1610982													9.470968	-0.488998	2.477087	0.250683	-0.822621	-0.510346	-0.053144	-0.538079	0.841218	-0.966609	-0.183757	-0.178605
350	1611148													9.447117	-0.502601	2.487534	0.250948	-0.822405	-0.510564	-0.053127	-0.538348	0.841046	-0.966542	-0.183934	-0.178789
351	1611315													9.459237	-0.500896	2.492287	0.251115	-0.822262	-0.510712	-0.053122	-0.538530	0.840930	-0.966499	-0.184040	-0.178913
352	1611482													9.479323	-0.489661	2.498652	0.251325	-0.822138	-0.510809	-0.053139	-0.538672	0.840838	-0.966443	-0.184180	-0.179070
353	1611648													9.443548	-0.506433	2.493108	0.251516	-0.821997	-0.510941	-0.053144	-0.538845	0.840727	-0.966393	-0.184303	-0.179212
354	1611815													9.472121	-0.503659	2.507824	0.251617	-0.821899	-0.511050	-0.053192	-0.538984	0.840635	-0.966364	-0.184334	-0.179336
355	1611982													9.476917	-0.485336	2.543444	0.251747	-0.821807	-0.511132	-0.053264	-0.539107	0.840551	-0.966326	-0.184381	-0.179491
356	1612148													9.456819	-0.482834	2.507103	0.251786	-0.821761	-0.511188	-0.053342	-0.539186	0.840496	-0.966312	-0.184357	-0.179594
357	1612315													9.474519	-0.468890	2.512236	0.251799	-0.821701	-0.511277	-0.053427	-0.539296	0.840420	-0.966304	-0.184301	-0.179695
358	1612482													9.478774	-0.475174	2.534213	0.251832	-0.821666	-0.511317	-0.053497	-0.539356	0.840377	-0.966291	-0.184280	-0.179784
359	1612648													9.486727	-0.498153	2.504286	0.251855	-0.821689	-0.511269	-0.053594	-0.539330	0.840387	-0.966280	-0.184255	-0.179871
360	1612815													9.468904	-0.495115	2.511724	0.251902	-0.821684	-0.511255	-0.053652	-0.539336	0.840380	-0.966264	-0.184263	-0.179945
361	1612982													9.487265	-0.486609	2.528854	0.251912	-0.821674	-0.511265	-0.053697	-0.539356	0.840364	-0.966259	-0.184244	-0.179992
362	1613148													9.472139	-0.505433	2.499930	0.251885	-0.821693	-0.511248	-0.053750	-0.539344	0.840368	-0.966263	-0.184196	-0.180019
363	1613315													9.466697	-0.493281	2.490474	0.251896	-0.821728	-0.511186	-0.053711	-0.539276	0.840415	-0.966263	-0.184241	-0.179978
364	1613482													9.441484	-0.490191	2.423989	0.251895	-0.821792	-0.511084	-0.053691	-0.539167	0.840486	-0.966264	-0.184274	-0.179936
365	1613648													9.500319	-0.507478	2.489902	0.251766	-0.821941	-0.510907	-0.053633	-0.538951	0.840628	-0.966301	-0.184241	-0.179773
366	1613815													9.512744	-0.474488	2.549539	0.251768	-0.822055	-0.510723	-0.053442	-0.538727	0.840784	-0.966311	-0.184388	-0.179566
367	1613982													9.501228	-0.485495	2.514138	0.251825	-0.822177	-0.510498	-0.053341	-0.538488	0.840943	-0.966302	-0.184541	-0.179460
368	1614148													9.465587	-0.524705	2.539547	0.251848	-0.822255	-0.510362	-0.053279	-0.538341	0.841041	-0.966299	-0.184623	-0.179389
369	1614315													9.459737	-0.495845	2.546424	0.251862	-0.822229	-0.510397	-0.053142	-0.538354	0.841042	-0.966303	-0.184703	-0.179286
370	1614482													9.462712	-0.454772	2.526258	0.251878	-0.822298	-0.510277	-0.052975	-0.538202	0.841149	-0.966308	-0.184835	-0.179122
371	1614648													9.477028	-0.502861	2.505476	0.251847	-0.822465	-0.510025	-0.052801	-0.537904	0.841351	-0.966326	-0.184962	-0.178896
372	1614815													9.502620	-0.521933	2.500652	0.251823	-0.822507	-0.509967	-0.052696	-0.537821	0.841410	-0.966338	-0.185013	-0.178779
373	1614982													9.458203	-0.484480	2.477189	0.251904	-0.822465	-0.509996	-0.052571	-0.537842	0.841405	-0.966323	-0.185143	-0.178722
374	1615148													9.442078	-0.504671	2.519692	0.251875	-0.822488	-0.509972	-0.052423	-0.537784	0.841452	-0.966339	-0.185207	-0.178571
375	1615315													9.456694	-0.503716	2.499633	0.251889	-0.822430	-0.510060	-0.052336	-0.537860	0.841408	-0.966340	-0.185247	-0.178523
376	1615482													9.469405	-0.500404	2.506042	0.251885	-0.822385	-0.510133	-0.052282	-0.537923	0.841371	-0.966344	-0.185258	-0.178491
377	1615648													9.473987	-0.473470	2.481108	0.251867	-0.822319	-0.510250	-0.052245	-0.538032	0.841304	-0.966351	-0.185238	-0.178474
378	1615815													9.501583	-0.479475	2.519314	0.251767	-0.822272	-0.510375	-0.052205	-0.538133	0.841242	-0.966379	-0.185153	-0.178411
379	1615982													9.487031	-0.463707	2.501025	0.251667	-0.822225	-0.510499	-0.052168	-0.538235	0.841179	-0.966407	-0.185065	-0.178350
380	1616148													9.469396	-0.501160	2.456522	0.251467	-0.822265	-0.510534	-0.052228	-0.538244	0.841169	-0.966456	-0.184862	-0.178296
381	1616315													9.476888	-0.456990	2.479862	0.251361	-0.822193	-0.510701	-0.052160	-0.538382	0.841085	-0.966487	-0.184778	-0.178214
382	1616482													9.481879	-0.422738	2.469815	0.251218	-0.822162	-0.510821	-0.052153	-0.538477	0.841025	-0.966525	-0.184640	-0.178153
383	1616648													9.500862	-0.467382	2.501209	0.250981	-0.822242	-0.510809	-0.052179	-0.538425	0.841057	-0.966585	-0.184436	-0.178039
384	1616815													9.495096	-0.474013	2.484694	0.250792	-0.822265	-0.510866	-0.052184	-0.538448	0.841041	-0.966633	-0.184267	-0.177948
385	1616982													9.477884	-0.445766	2.487435	0.250661	-0.822291	-0.510887	-0.052167	-0.538442	0.841046	-0.966668	-0.184167	-0.177863
386	1617148													9.481566	-0.442768	2.517577	0.250496	-0.822441	-0.510727	-0.052130	-0.538240	0.841178	-0.966713	-0.184088	-0.177701
387	1617315													9.475170	-0.492459	2.458036	0.250336	-0.822550	-0.510630	-0.052123	-0.538109	0.841262	-0.966755	-0.183983	-0.177582
388	1617482													9.503370	-0.479834	2.451969	0.250202	-0.822575	-0.510656	-0.052042	-0.538095	0.841276	-0.966794	-0.183913	-0.177441
389	1617648													9.477046	-0.472957	2.461439	0.250144	-0.822645	-0.510572	-0.051969	-0.537984	0.841351	-0.966813	-0.183925	-0.177326
390	1617815													9.483161	-0.448396	2.437079	0.249979	-0.822689	-0.510581	-0.051753	-0.537922	0.841404	-0.966867	-0.183909	-0.177045
391	1617982													9.498427	-0.455735	2.451452	0.249723	-0.822649	-0.510770	-0.051376	-0.537996	0.841381	-0.966953	-0.183871	-0.176614
392	1618148													9.512984	-0.453264	2.454992	0.249497	-0.822661	-0.510862	-0.051104	-0.537996	0.841397	-0.967026	-0.183819	-0.176270
393	1618315													9.500070	-0.468183	2.444107	0.249307	-0.822845	-0.510658	-0.050889	-0.537711	0.841592	-0.967087	-0.183828	-0.175929
394	1618482													9.497042	-0.476883	2.462227	0.249199	-0.823036	-0.510404	-0.050716	-0.537398	0.841803	-0.967124	-0.183891	-0.175660
395	1618648													9.495584	-0.467788	2.436032	0.249020	-0.823204	-0.510219	-0.050595	-0.537153	0.841966	-0.967176	-0.183852	-0.175411
396	1618815													9.499201	-0.482924	2.419705	0.248907	-0.823324	-0.510081	-0.050549	-0.536982	0.842078	-0.967207	-0.183815	-0.175277
397	1618982													9.482059	-0.473079	2.443404	0.248792	-0.823409	-0.510000	-0.050531	-0.536874	0.842148	-0.967238	-0.183749	-0.175178
398	1619148													9.484082	-0.472435	2.412221	0.248660	-0.823436	-0.510020	-0.050486	-0.536862	0.842158	-0.967274	-0.183662	-0.175068
399	1619315													9.494353	-0.459378	2.449527	0.248591	-0.823429	-0.510065	-0.050479	-0.536894	0.842138	-0.967292	-0.183601	-0.175033
400	1619482													9.493870	-0.474234	2.445689	0.248531	-0.823393	-0.510153	-0.050463	-0.536969	0.842091	-0.967309	-0.183541	-0.175005
401	1619648													9.519533	-0.473387	2.438959	0.248487	-0.823297	-0.510330	-0.050440	-0.537138	0.841985	-0.967321	-0.183481	-0.174999
402	1619815													9.517571	-0.433881	2.428688	0.248520	-0.823200	-0.510471	-0.050444	-0.537289	0.841889	-0.967312	-0.183476	-0.175052
403	1619982													9.498938	-0.460977	2.427985	0.248511	-0.823173	-0.510518	-0.050476	-0.537341	0.841853	-0.967313	-0.183441	-0.175086
404	1620148													9.490745	-0.465325	2.446370	0.248418	-0.823150	-0.510601	-0.050576	-0.537428	0.841792	-0.967332	-0.183292	-0.175138
405	1620315													9.515929	-0.454482	2.410609	0.248367	-0.823159	-0.510610	-0.050690	-0.537450	0.841771	-0.967339	-0.183185	-0.175211
406	1620482													9.498714	-0.458089	2.454689	0.248348	-0.823204	-0.510547	-0.050848	-0.537411	0.841786	-0.967335	-0.183096	-0.175323
407	1620648													9.478628	-0.466937	2.440313	0.248344	-0.823186	-0.510577	-0.051000	-0.537471	0.841739	-0.967328	-0.183001	-0.175460
408	1620815													9.481974	-0.456476	2.442891	0.248317	-0.823144	-0.510658	-0.051151	-0.537577	0.841662	-0.967327	-0.182879	-0.175594
409	1620982													9.504015	-0.443428	2.455905	0.248296	-0.823141	-0.510674	-0.051325	-0.537622	0.841623	-0.967323	-0.182762	-0.175737
410	1621149													9.498075	-0.469395	2.451691	0.248271	-0.823229	-0.510544	-0.051516	-0.537521	0.841675	-0.967320	-0.182662	-0.175861
411	1621315													9.513988	-0.486417	2.445842	0.248297	-0.823335	-0.510361	-0.051671	-0.537368	0.841764	-0.967305	-0.182637	-0.175969
412	1621482													9.515697	-0.485152	2.446739	0.248427	-0.823453	-0.510107	-0.051840	-0.537164	0.841883	-0.967263	-0.182702	-0.176134
413	1621649													9.482085	-0.498332	2.466150	0.248560	-0.823547	-0.509890	-0.051964	-0.536990	0.841986	-0.967222	-0.182788	-0.176270
414	1621815													9.459584	-0.495090	2.454921	0.248609	-0.823636	-0.509723	-0.052128	-0.536859	0.842060	-0.967200	-0.182773	-0.176403
415	1621982													9.501204	-0.492065	2.450079	0.248654	-0.823721	-0.509563	-0.052286	-0.536734	0.842130	-0.967180	-0.182756	-0.176530
416	1622149													9.513756	-0.497940	2.468187	0.248734	-0.823733	-0.509505	-0.052374	-0.536706	0.842142	-0.967155	-0.182784	-0.176639
417	1622315													9.478803	-0.502722	2.471034	0.248825	-0.823749	-0.509435	-0.052442	-0.536664	0.842165	-0.967128	-0.182836	-0.176734
418	1622482													9.474289	-0.499053	2.452312	0.248949	-0.823736	-0.509395	-0.052501	-0.536658	0.842165	-0.967093	-0.182912	-0.176847
419	1622649													9.462999	-0.514303	2.421638	0.248942	-0.823763	-0.509354	-0.052590	-0.536632	0.842176	-0.967090	-0.182866	-0.176912
420	1622815													9.508201	-0.532215	2.414562	0.248909	-0.823831	-0.509262	-0.052615	-0.536536	0.842236	-0.967097	-0.182845	-0.176894
421	1622982													9.530835	-0.524762	2.485875	0.248933	-0.823885	-0.509162	-0.052551	-0.536426	0.842309	-0.967094	-0.182921	-0.176830
422	1623149													9.544510	-0.540576	2.479105	0.249005	-0.823936	-0.509045	-0.052543	-0.536319	0.842378	-0.967076	-0.183009	-0.176838
423	1623315													9.478625	-0.563666	2.488627	0.249077	-0.823897	-0.509072	-0.052610	-0.536373	0.842340	-0.967054	-0.183025	-0.176943
424	1623482													9.440553	-0.566913	2.487652	0.249149	-0.823723	-0.509319	-0.052573	-0.536631	0.842178	-0.967037	-0.183051	-0.177006
425	1623649													9.450952	-0.503142	2.452348	0.249133	-0.823584	-0.509550	-0.052473	-0.536846	0.842047	-0.967047	-0.183044	-0.176963
426	1623815													9.490035	-0.495631	2.431782	0.249100	-0.823443	-0.509794	-0.052372	-0.537070	0.841910	-0.967061	-0.183021	-0.176910
427	1623982													9.496724	-0.506965	2.466123	0.249070	-0.823236	-0.510143	-0.052320	-0.537411	0.841696	-0.967071	-0.182951	-0.176924
428	1624149													9.479288	-0.483859	2.497957	0.249068	-0.823066	-0.510418	-0.052297	-0.537688	0.841520	-0.967073	-0.182902	-0.176965
429	1624315													9.459644	-0.492433	2.488032	0.249044	-0.822941	-0.510632	-0.052260	-0.537895	0.841391	-0.967081	-0.182858	-0.176966
430	1624482													9.480181	-0.490407	2.491709	0.248990	-0.822843	-0.510817	-0.052204	-0.538063	0.841286	-0.967098	-0.182805	-0.176928
431	1624649													9.471367	-0.480406	2.476964	0.248914	-0.822819	-0.510892	-0.052175	-0.538120	0.841252	-0.967119	-0.182744	-0.176876
432	1624815													9.490256	-0.493298	2.490928	0.248833	-0.822843	-0.510893	-0.052096	-0.538091	0.841275	-0.967144	-0.182722	-0.176761
433	1624982													9.502151	-0.483264	2.532885	0.248759	-0.822812	-0.510978	-0.051966	-0.538140	0.841252	-0.967170	-0.182715	-0.176626
434	1625149													9.481055	-0.448979	2.447481	0.248574	-0.822793	-0.511100	-0.051833	-0.538205	0.841218	-0.967225	-0.182613	-0.176432
435	1625315													9.488472	-0.498778	2.450079	0.248366	-0.822771	-0.511235	-0.051659	-0.538272	0.841187	-0.967288	-0.182513	-0.176192
436	1625482													9.446222	-0.451866	2.442707	0.248191	-0.822693	-0.511446	-0.051350	-0.538396	0.841126	-0.967349	-0.182497	-0.175871
437	1625649													9.503347	-0.423431	2.440861	0.247929	-0.822776	-0.511440	-0.051077	-0.538290	0.841210	-0.967431	-0.182437	-0.175483
438	1625815													9.515488	-0.461483	2.438230	0.247708	-0.822854	-0.511422	-0.050911	-0.538200	0.841278	-0.967496	-0.182354	-0.175208
439	1625982													9.497609	-0.479655	2.444376	0.247522	-0.822927	-0.511394	-0.050737	-0.538104	0.841350	-0.967553	-0.182306	-0.174945
440	1626149													9.479308	-0.422253	2.467518	0.247322	-0.822984	-0.511399	-0.050551	-0.538036	0.841404	-0.967614	-0.182246	-0.174671
441	1626315													9.490149	-0.453187	2.440247	0.247020	-0.823176	-0.511236	-0.050389	-0.537783	0.841576	-0.967699	-0.182126	-0.174322
442	1626482													9.515045	-0.489885	2.401248	0.246735	-0.823359	-0.511080	-0.050204	-0.537537	0.841744	-0.967782	-0.182030	-0.173965
443	1626649													9.493382	-0.464366	2.404743	0.246581	-0.823386	-0.511109	-0.050007	-0.537502	0.841779	-0.967831	-0.182008	-0.173713
444	1626815													9.497608	-0.453790	2.421347	0.246353	-0.823484	-0.511062	-0.049827	-0.537378	0.841869	-0.967898	-0.181932	-0.173416
445	1626982													9.528767	-0.464762	2.397201	0.246134	-0.823606	-0.510971	-0.049649	-0.537211	0.841985	-0.967963	-0.181872	-0.173117
446	1627149													9.516721	-0.451212	2.414263	0.245992	-0.823629	-0.511003	-0.049439	-0.537178	0.842019	-0.968010	-0.181866	-0.172861
447	1627315													9.514179	-0.449683	2.394349	0.245832	-0.823702	-0.510962	-0.049300	-0.537081	0.842089	-0.968058	-0.181822	-0.172640
448	1627482													9.517558	-0.437728	2.401784	0.245784	-0.823712	-0.510969	-0.049159	-0.537053	0.842115	-0.968077	-0.181860	-0.172492
449	1627649													9.486347	-0.429953	2.405997	0.245721	-0.823798	-0.510860	-0.049119	-0.536922	0.842201	-0.968095	-0.181854	-0.172397
450	1627815													9.494620	-0.447494	2.422920	0.245695	-0.823828	-0.510824	-0.049060	-0.536871	0.842237	-0.968105	-0.181873	-0.172323
451	1627982													9.489191	-0.454869	2.431882	0.245642	-0.823869	-0.510784	-0.049073	-0.536822	0.842267	-0.968118	-0.181830	-0.172296
452	1628149													9.515608	-0.454922	2.414455	0.245600	-0.823892	-0.510767	-0.049119	-0.536806	0.842275	-0.968126	-0.181774	-0.172309
453	1628315													9.516749	-0.454082	2.430405	0.245587	-0.823886	-0.510782	-0.049193	-0.536833	0.842253	-0.968126	-0.181719	-0.172369
454	1628482													9.511669	-0.448919	2.438950	0.245518	-0.823870	-0.510841	-0.049270	-0.536895	0.842209	-0.968139	-0.181609	-0.172410
455	1628649													9.511303	-0.462124	2.411499	0.245433	-0.823863	-0.510894	-0.049396	-0.536957	0.842162	-0.968154	-0.181458	-0.172483
456	1628815													9.499644	-0.483948	2.415956	0.245322	-0.823858	-0.510955	-0.049548	-0.537028	0.842108	-0.968175	-0.181271	-0.172565
457	1628982													9.507586	-0.497670	2.414269	0.245200	-0.823879	-0.510979	-0.049688	-0.537056	0.842082	-0.968198	-0.181089	-0.172623
458	1629149													9.485889	-0.476073	2.396661	0.245070	-0.823879	-0.511042	-0.049825	-0.537122	0.842032	-0.968224	-0.180894	-0.172682
459	1629315													9.493176	-0.481409	2.394523	0.244900	-0.823887	-0.511111	-0.049950	-0.537186	0.841984	-0.968261	-0.180671	-0.172710
460	1629482													9.478088	-0.486764	2.382138	0.244694	-0.823832	-0.511298	-0.050016	-0.537351	0.841874	-0.968309	-0.180429	-0.172692
461	1629649													9.487211	-0.475385	2.378271	0.244391	-0.823790	-0.511510	-0.050100	-0.537528	0.841756	-0.968382	-0.180091	-0.172639
462	1629815													9.524584	-0.437995	2.403507	0.244125	-0.823752	-0.511699	-0.050164	-0.537684	0.841653	-0.968446	-0.179800	-0.172585
463	1629982													9.506342	-0.440839	2.399273	0.243857	-0.823770	-0.511797	-0.050234	-0.537749	0.841607	-0.968509	-0.179522	-0.172515
464	1630149													9.524579	-0.458759	2.425856	0.243538	-0.823805	-0.511893	-0.050303	-0.537802	0.841569	-0.968586	-0.179204	-0.172415
465	1630315													9.527864	-0.480428	2.391585	0.243320	-0.823901	-0.511843	-0.050328	-0.537715	0.841623	-0.968640	-0.179023	-0.172302
466	1630482													9.517135	-0.471163	2.398988	0.243130	-0.824025	-0.511733	-0.050347	-0.537573	0.841713	-0.968686	-0.178881	-0.172187
467	1630649													9.520973	-0.490948	2.401993	0.242948	-0.824143	-0.511630	-0.050356	-0.537436	0.841800	-0.968731	-0.178750	-0.172069
468	1630815													9.518336	-0.492369	2.383399	0.242867	-0.824162	-0.511637	-0.050358	-0.537429	0.841804	-0.968752	-0.178681	-0.172027
469	1630982													9.515912	-0.487140	2.370821	0.242939	-0.824108	-0.511690	-0.050313	-0.537488	0.841769	-0.968736	-0.178754	-0.172040
470	1631149													9.526462	-0.476319	2.313684	0.243046	-0.824106	-0.511642	-0.050271	-0.537450	0.841796	-0.968711	-0.178875	-0.172053
471	1631315													9.574286	-0.503716	2.372456	0.243286	-0.824105	-0.511530	-0.050112	-0.537350	0.841869	-0.968659	-0.179181	-0.172027
472	1631482													9.590956	-0.471379	2.391455	0.243817	-0.824037	-0.511386	-0.049944	-0.537269	0.841931	-0.968534	-0.179737	-0.172152
473	1631649													9.541112	-0.486061	2.434030	0.244517	-0.823929	-0.511226	-0.049876	-0.537219	0.841967	-0.968361	-0.180377	-0.172454
474	1631815													9.553830	-0.497791	2.449132	0.245361	-0.823753	-0.511106	-0.049748	-0.537227	0.841969	-0.968155	-0.181159	-0.172795
475	1631982													9.513783	-0.463909	2.458355	0.246297	-0.823657	-0.510811	-0.049606	-0.537069	0.842079	-0.967924	-0.182062	-0.173137
476	1632149													9.527727	-0.449833	2.414662	0.247318	-0.823624	-0.510369	-0.049441	-0.536774	0.842277	-0.967672	-0.183077	-0.173475
477	1632315													9.552681	-0.489235	2.418198	0.248480	-0.823653	-0.509758	-0.049345	-0.536344	0.842556	-0.967379	-0.184204	-0.173914
478	1632482													9.539798	-0.481289	2.428717	0.249907	-0.823614	-0.509123	-0.049265	-0.535942	0.842816	-0.967016	-0.185544	-0.174511
479	1632649													9.495523	-0.458793	2.460755	0.251496	-0.823571	-0.508411	-0.049149	-0.535484	0.843114	-0.966610	-0.187052	-0.175149
480	1632815													9.503780	-0.456693	2.463436	0.253169	-0.823633	-0.507478	-0.049004	-0.534812	0.843549	-0.966180	-0.188692	-0.175758
481	1632982													9.514303	-0.481827	2.456256	0.254961	-0.823670	-0.506521	-0.048833	-0.534132	0.843989	-0.965717	-0.190449	-0.176405
482	1633149													9.488758	-0.474519	2.509513	0.256747	-0.823519	-0.505863	-0.048622	-0.533752	0.844242	-0.965255	-0.192161	-0.177080
483	1633315													9.482851	-0.479403	2.506885	0.258422	-0.823260	-0.505431	-0.048414	-0.533583	0.844361	-0.964818	-0.193731	-0.177747
484	1633482													9.514017	-0.466763	2.541148	0.260171	-0.822961	-0.505021	-0.048178	-0.533446	0.844461	-0.964360	-0.195373	-0.178436
485	1633649													9.521176	-0.489457	2.496942	0.261994	-0.822633	-0.504613	-0.047998	-0.533337	0.844540	-0.963875	-0.197044	-0.179215
486	1633815													9.471492	-0.490290	2.569040	0.264044	-0.822181	-0.504282	-0.047671	-0.533322	0.844568	-0.963332	-0.198963	-0.180015
487	1633982													9.448921	-0.461647	2.553111	0.266124	-0.821639	-0.504071	-0.047173	-0.533403	0.844545	-0.962784	-0.200975	-0.180710
488	1634149													9.505102	-0.445250	2.621747	0.268230	-0.821241	-0.503603	-0.046695	-0.533229	0.844681	-0.962223	-0.203053	-0.181375
489	1634315													9.452429	-0.416119	2.667278	0.270243	-0.820933	-0.503029	-0.046320	-0.532949	0.844878	-0.961677	-0.205023	-0.182051
490	1634482													9.425473	-0.435122	2.605105	0.272182	-0.820730	-0.502314	-0.046025	-0.532529	0.845159	-0.961144	-0.206918	-0.182719
491	1634649													9.478050	-0.448488	2.623019	0.274213	-0.820512	-0.501565	-0.045667	-0.532078	0.845463	-0.960584	-0.208932	-0.183373
492	1634815													9.500926	-0.428783	2.656011	0.276617	-0.820119	-0.500886	-0.045346	-0.531783	0.845666	-0.959910	-0.211213	-0.184289
493	1634982													9.435286	-0.438255	2.672925	0.279207	-0.819606	-0.500290	-0.044969	-0.531599	0.845801	-0.959177	-0.213656	-0.185283
494	1635149													9.432337	-0.429286	2.699543	0.281947	-0.818988	-0.499765	-0.044575	-0.531517	0.845874	-0.958394	-0.216215	-0.186366
495	1635315													9.400567	-0.424640	2.734678	0.284875	-0.818323	-0.499193	-0.044157	-0.531422	0.845956	-0.957547	-0.218948	-0.187524
496	1635482													9.351389	-0.423510	2.745596	0.287971	-0.817617	-0.498572	-0.043706	-0.531305	0.846052	-0.956641	-0.221848	-0.188736
497	1635649													9.486650	-0.387975	2.916242	0.290710	-0.817049	-0.497914	-0.043263	-0.531082	0.846216	-0.955833	-0.224462	-0.189739
498	1635815													9.395744	-0.392727	2.827213	0.293380	-0.816467	-0.497302	-0.042808	-0.530890	0.846359	-0.955037	-0.227016	-0.190704
499	1635982													9.475391	-0.428607	2.759905	0.296283	-0.815688	-0.496860	-0.042318	-0.530918	0.846366	-0.954162	-0.229738	-0.191820
500	1636149													9.472120	-0.404046	2.847771	0.299867	-0.814606	-0.496485	-0.041738	-0.531140	0.846256	-0.953068	-0.233041	-0.193271
501	1636315													9.371281	-0.376487	2.950678	0.303726	-0.813477	-0.495989	-0.041206	-0.531310	0.846175	-0.951868	-0.236568	-0.194893
502	1636482													9.370229	-0.357159	2.943532	0.307624	-0.812327	-0.495472	-0.040664	-0.531471	0.846100	-0.950639	-0.240133	-0.196526
503	1636649													9.404034	-0.384944	2.946894	0.311599	-0.811211	-0.494816	-0.040165	-0.531521	0.846092	-0.949364	-0.243767	-0.198204
504	1636815													9.369229	-0.364647	3.061695	0.315852	-0.809755	-0.494504	-0.039521	-0.531960	0.845846	-0.947985	-0.247619	-0.200023
505	1636982													9.301115	-0.343230	3.123929	0.320182	-0.808300	-0.494099	-0.038887	-0.532330	0.845644	-0.946557	-0.251546	-0.201875
506	1637149													9.335923	-0.378019	3.116699	0.324674	-0.806791	-0.493634	-0.038266	-0.532685	0.845448	-0.945051	-0.255606	-0.203822
507	1637315													9.354118	-0.386113	3.147487	0.329650	-0.805056	-0.493169	-0.037613	-0.533152	0.845183	-0.943354	-0.260065	-0.206034
508	1637482													9.362089	-0.375184	3.219081	0.335145	-0.803187	-0.492513	-0.036943	-0.533545	0.844964	-0.941442	-0.264991	-0.208487
509	1637649													9.325357	-0.353356	3.370896	0.341168	-0.801141	-0.491708	-0.036244	-0.533914	0.844761	-0.939303	-0.270384	-0.211191
510	1637816													9.185520	-0.331859	3.397077	0.347167	-0.799187	-0.490688	-0.035604	-0.534086	0.844680	-0.937127	-0.275774	-0.213871
511	1637982													9.182722	-0.356004	3.433735	0.352635	-0.797505	-0.489524	-0.034999	-0.534003	0.844758	-0.935106	-0.280759	-0.216220
512	1638149													9.243788	-0.368917	3.415515	0.358239	-0.795661	-0.488455	-0.034276	-0.534034	0.844768	-0.933000	-0.285887	-0.218584
513	1638316													9.257048	-0.362889	3.470875	0.364210	-0.793488	-0.487573	-0.033499	-0.534354	0.844597	-0.930714	-0.291277	-0.221198
514	1638482													9.186125	-0.272965	3.616120	0.370645	-0.791066	-0.486658	-0.032573	-0.534728	0.844396	-0.928203	-0.297119	-0.223962
515	1638649													9.134089	-0.289374	3.653740	0.377386	-0.788538	-0.485580	-0.031623	-0.535020	0.844247	-0.925516	-0.303252	-0.226845
516	1638816													9.112879	-0.303176	3.725339	0.384505	-0.785775	-0.484473	-0.030596	-0.535379	0.844058	-0.922616	-0.309722	-0.229898
517	1638982													9.090398	-0.318844	3.823049	0.392015	-0.782713	-0.483410	-0.029477	-0.535886	0.843775	-0.919487	-0.316523	-0.233148
518	1639149													8.986469	-0.281598	3.842543	0.399346	-0.779632	-0.482387	-0.028338	-0.536408	0.843483	-0.916362	-0.323172	-0.236305
519	1639316													9.071186	-0.305046	3.888607	0.406749	-0.776410	-0.481396	-0.027062	-0.536966	0.843170	-0.913139	-0.329932	-0.239421
520	1639482													9.033603	-0.272746	4.085756	0.414714	-0.772720	-0.480537	-0.025520	-0.537760	0.842712	-0.909594	-0.337221	-0.242737
521	1639649													8.866569	-0.201971	4.178486	0.422911	-0.768914	-0.479497	-0.024010	-0.538468	0.842304	-0.905853	-0.344707	-0.246186
522	1639816													8.874428	-0.219403	4.180880	0.430902	-0.765368	-0.478053	-0.022664	-0.538770	0.842148	-0.902114	-0.352049	-0.249503
523	1639982													8.913807	-0.256746	4.125957	0.438401	-0.762053	-0.476528	-0.021486	-0.538929	0.842077	-0.898522	-0.358929	-0.252641
524	1640149													8.967016	-0.289091	4.197371	0.445776	-0.758609	-0.475180	-0.020165	-0.539217	0.841925	-0.894918	-0.365728	-0.255667
525	1640316													8.818285	-0.229868	4.286819	0.453517	-0.754709	-0.474064	-0.018740	-0.539868	0.841541	-0.891051	-0.372769	-0.258982
526	1640482													8.715359	-0.177584	4.406735	0.461433	-0.750697	-0.472794	-0.017286	-0.540427	0.841213	-0.887007	-0.379991	-0.262348
527	1640649													8.671546	-0.185287	4.582094	0.469496	-0.746530	-0.471452	-0.015749	-0.540956	0.840904	-0.882794	-0.387376	-0.265733
528	1640816													8.662075	-0.137084	4.684295	0.478062	-0.742076	-0.469872	-0.014123	-0.541389	0.840654	-0.878212	-0.395249	-0.269298
529	1640982													8.587170	-0.110060	4.741745	0.486836	-0.737672	-0.467793	-0.012808	-0.541514	0.840594	-0.873399	-0.403240	-0.273076
530	1641149													8.611320	-0.120863	4.773448	0.495150	-0.733496	-0.465628	-0.011628	-0.541486	0.840629	-0.868730	-0.410823	-0.276646
531	1641316													8.576273	-0.104600	4.896055	0.503069	-0.729271	-0.463773	-0.010197	-0.541592	0.840579	-0.864186	-0.418140	-0.279894
532	1641482													8.501804	-0.077674	5.033382	0.510878	-0.725055	-0.461843	-0.008717	-0.541584	0.840601	-0.859609	-0.425419	-0.283004
533	1641649													8.484806	-0.036624	5.088465	0.518893	-0.720789	-0.459579	-0.007473	-0.541425	0.840716	-0.854806	-0.432807	-0.286328
534	1641816													8.452250	-0.022188	5.138032	0.527191	-0.716535	-0.456780	-0.006525	-0.540946	0.841032	-0.849722	-0.440403	-0.289857
535	1641982													8.368316	-0.047007	5.010734	0.535184	-0.712643	-0.453560	-0.005922	-0.540078	0.841594	-0.844714	-0.447722	-0.293261
536	1642149													8.395670	-0.157156	5.135423	0.542887	-0.708796	-0.450424	-0.005266	-0.539206	0.842157	-0.839789	-0.454825	-0.296461
537	1642316													8.253689	-0.130349	5.259809	0.550539	-0.704563	-0.447770	-0.004371	-0.538799	0.842423	-0.834798	-0.461829	-0.299709
538	1642482													8.091423	-0.025472	5.420619	0.558477	-0.699810	-0.445387	-0.003313	-0.538799	0.842428	-0.829514	-0.469001	-0.303225
539	1642649													8.091261	-0.009525	5.462371	0.567027	-0.694662	-0.442635	-0.002392	-0.538761	0.842455	-0.823696	-0.476636	-0.307153
540	1642816													8.081575	-0.018826	5.539361	0.576148	-0.689047	-0.439622	-0.001450	-0.538727	0.842479	-0.817344	-0.484755	-0.311385
541	1642982													8.055920	-0.021696	5.658944	0.585466	-0.683090	-0.436597	-0.000539	-0.538873	0.842387	-0.810697	-0.492954	-0.315861
542	1643149													8.029668	-0.024818	5.827077	0.594747	-0.676980	-0.433559	0.000356	-0.539089	0.842249	-0.803913	-0.501079	-0.320381
543	1643316													7.863075	0.014784	5.923590	0.604206	-0.670542	-0.430474	0.001299	-0.539405	0.842045	-0.796827	-0.509328	-0.325041
544	1643482													7.836946	0.045170	5.918965	0.614082	-0.663738	-0.427030	0.002106	-0.539683	0.841866	-0.789239	-0.517874	-0.330012
545	1643649													7.753077	0.059469	6.044341	0.624387	-0.656457	-0.423326	0.002868	-0.540021	0.841647	-0.781110	-0.526728	-0.335299
546	1643816													7.667017	-0.010116	6.121191	0.635221	-0.648676	-0.419182	0.003545	-0.540295	0.841468	-0.772322	-0.536004	-0.340908
547	1643982													7.654281	-0.127454	6.352019	0.646356	-0.640159	-0.415235	0.004620	-0.540895	0.841077	-0.763022	-0.545554	-0.346653
548	1644149													7.492419	-0.004791	6.464448	0.657512	-0.630922	-0.411844	0.006101	-0.542138	0.840267	-0.753420	-0.554998	-0.352613
549	1644316													7.409574	0.235875	6.405627	0.668851	-0.621310	-0.408182	0.007510	-0.543402	0.839439	-0.743359	-0.564525	-0.358788
550	1644482													7.223871	0.167150	6.373680	0.680658	-0.611233	-0.403856	0.008903	-0.544321	0.838830	-0.732547	-0.574552	-0.365055
551	1644649													6.865777	0.203033	6.495067	0.692690	-0.600799	-0.399025	0.010368	-0.544900	0.838437	-0.721161	-0.584914	-0.371217
552	1644816													6.730093	0.072533	6.520603	0.704647	-0.590086	-0.394045	0.012105	-0.545260	0.838179	-0.709455	-0.595391	-0.377073
553	1644982													6.843493	0.015519	6.654298	0.716183	-0.579321	-0.389190	0.014021	-0.545593	0.837933	-0.697771	-0.605571	-0.382622
554	1645149													6.642189	0.215926	7.029946	0.726498	-0.569046	-0.385211	0.016315	-0.546136	0.837538	-0.686975	-0.614754	-0.387483
555	1645316													6.467173	0.289176	7.207315	0.735609	-0.559837	-0.381393	0.018475	-0.546231	0.837431	-0.677154	-0.623068	-0.391470
556	1645482													6.367570	0.243943	7.287442	0.743862	-0.551543	-0.377452	0.020424	-0.545743	0.837704	-0.668021	-0.630845	-0.394693
557	1645649													6.169216	0.166761	7.424960	0.751478	-0.543693	-0.373735	0.022487	-0.545037	0.838110	-0.659375	-0.638226	-0.397358
558	1645816													6.201588	0.255635	7.530266	0.758417	-0.536336	-0.370334	0.024595	-0.544243	0.838567	-0.651305	-0.645092	-0.399572
559	1645982													6.313493	0.170104	7.625822	0.764199	-0.529917	-0.367679	0.026613	-0.543670	0.838877	-0.644431	-0.650854	-0.401369
560	1646149													6.142619	0.247033	7.701437	0.768889	-0.524304	-0.365943	0.028771	-0.543387	0.838989	-0.638734	-0.655618	-0.402720
561	1646316													5.907214	0.284727	7.718801	0.772865	-0.519239	-0.364788	0.031071	-0.543205	0.839025	-0.633809	-0.659787	-0.403691
562	1646482													5.952768	0.408681	7.738036	0.776323	-0.514951	-0.363521	0.033016	-0.542701	0.839277	-0.629469	-0.663552	-0.404310
563	1646649													5.955338	0.382994	7.799847	0.779202	-0.511523	-0.362199	0.034438	-0.542065	0.839630	-0.625826	-0.666715	-0.404762
564	1646816													5.956234	0.409245	7.882739	0.781343	-0.509016	-0.361118	0.035421	-0.541520	0.839941	-0.623096	-0.669074	-0.405083
565	1646982													5.875489	0.390274	7.868672	0.782883	-0.507115	-0.360455	0.036220	-0.541222	0.840099	-0.621113	-0.670755	-0.405346
566	1647149													5.841715	0.479506	7.858285	0.784044	-0.505793	-0.359788	0.036638	-0.540923	0.840274	-0.619623	-0.671994	-0.405576
567	1647316													5.892571	0.372027	7.859072	0.784791	-0.505105	-0.359125	0.036746	-0.540516	0.840531	-0.618670	-0.672838	-0.405632
568	1647482													5.940050	0.310071	7.798015	0.785231	-0.504727	-0.358694	0.036856	-0.540160	0.840755	-0.618105	-0.673407	-0.405549
569	1647649													5.938988	0.385198	7.879385	0.785438	-0.504547	-0.358496	0.036931	-0.539974	0.840871	-0.617837	-0.673692	-0.405483
570	1647816													5.862937	0.382110	7.886843	0.785458	-0.504443	-0.358598	0.037082	-0.540000	0.840848	-0.617803	-0.673748	-0.405442
571	1647982													5.964074	0.534365	7.827729	0.785376	-0.504406	-0.358831	0.037204	-0.540166	0.840736	-0.617901	-0.673643	-0.405468
572	1648149													5.959987	0.440517	7.835765	0.785247	-0.504787	-0.358577	0.036869	-0.539966	0.840879	-0.618084	-0.673518	-0.405396
573	1648316													5.892120	0.222226	7.794588	0.785104	-0.505147	-0.358383	0.036658	-0.539718	0.841048	-0.618278	-0.673448	-0.405217
574	1648482													5.840138	0.295609	7.808595	0.784960	-0.505204	-0.358618	0.036832	-0.539762	0.841011	-0.618450	-0.673369	-0.405084
575	1648649													5.953774	0.301640	7.724805	0.784813	-0.505112	-0.359070	0.037066	-0.540099	0.840785	-0.618624	-0.673168	-0.405155
576	1648816													5.926424	0.450275	7.785748	0.784620	-0.504927	-0.359749	0.037404	-0.540651	0.840415	-0.618847	-0.672863	-0.405320
577	1648982													5.909759	0.543346	7.849746	0.784333	-0.505095	-0.360140	0.037458	-0.540931	0.840232	-0.619209	-0.672511	-0.405351
578	1649149													5.930207	0.390206	7.751394	0.784154	-0.505569	-0.359864	0.036983	-0.540792	0.840343	-0.619463	-0.672267	-0.405367
579	1649316													5.860402	0.205939	7.765434	0.784013	-0.505705	-0.359981	0.036861	-0.540966	0.840236	-0.619649	-0.672025	-0.405484
580	1649482													5.916947	0.434396	7.802574	0.783665	-0.505754	-0.360670	0.037099	-0.541475	0.839898	-0.620075	-0.671579	-0.405572
581	1649649													6.115195	0.559878	7.787996	0.783076	-0.506223	-0.361290	0.037096	-0.541869	0.839644	-0.620819	-0.670907	-0.405546
582	1649816													5.990107	0.405706	7.788770	0.782275	-0.507066	-0.361841	0.036970	-0.542052	0.839531	-0.621835	-0.670122	-0.405288
583	1649982													5.902473	0.442448	7.799617	0.781229	-0.507992	-0.362802	0.037071	-0.542406	0.839298	-0.623143	-0.669134	-0.404912
584	1650149													5.986027	0.449149	7.621776	0.779899	-0.509227	-0.363931	0.037165	-0.542745	0.839075	-0.624801	-0.667919	-0.404361
585	1650316													5.994949	0.361609	7.728967	0.778245	-0.510800	-0.365264	0.037318	-0.543019	0.838891	-0.626851	-0.666493	-0.403540
586	1650482													5.976899	0.292893	7.866176	0.776028	-0.513023	-0.366862	0.037454	-0.543164	0.838791	-0.629585	-0.664666	-0.402296
587	1650649													5.942377	0.545058	7.866003	0.773405	-0.515638	-0.368732	0.037503	-0.543438	0.838611	-0.632802	-0.662414	-0.400959
588	1650816													6.117509	0.556097	7.695269	0.770722	-0.518628	-0.370152	0.037038	-0.543482	0.838604	-0.636094	-0.660040	-0.399664
589	1650982													6.157374	0.489675	7.586963	0.767691	-0.522354	-0.371210	0.035912	-0.543294	0.838774	-0.639813	-0.657250	-0.398323
590	1651149													6.225939	0.361320	7.565976	0.763940	-0.526729	-0.372763	0.034742	-0.543259	0.838846	-0.644351	-0.653779	-0.396718
591	1651316													6.180305	0.390398	7.607945	0.759445	-0.531826	-0.374707	0.033518	-0.543215	0.838924	-0.649708	-0.649676	-0.394716
592	1651482													6.135356	0.392425	7.559914	0.754490	-0.537400	-0.376757	0.032193	-0.543058	0.839078	-0.655521	-0.645205	-0.392432
593	1651649													6.247944	0.352897	7.482126	0.749296	-0.543311	-0.378642	0.030615	-0.542733	0.839347	-0.661528	-0.640511	-0.390034
594	1651816													6.396344	0.276744	7.392024	0.743654	-0.549792	-0.380404	0.028620	-0.542286	0.839706	-0.667951	-0.635339	-0.387538
595	1651982													6.598577	0.316786	7.212247	0.736857	-0.557224	-0.382810	0.026587	-0.541922	0.840008	-0.675526	-0.629143	-0.384504
596	1652149													6.589067	0.338599	7.164675	0.729481	-0.565150	-0.385309	0.024428	-0.541431	0.840390	-0.683565	-0.622461	-0.381158
597	1652316													6.531766	0.219597	7.103352	0.721736	-0.573249	-0.387922	0.022283	-0.540911	0.840785	-0.691810	-0.615469	-0.377621
598	1652482													6.634399	0.266487	7.052709	0.713293	-0.581656	-0.391011	0.020312	-0.540506	0.841095	-0.700572	-0.607889	-0.373724
599	1652649													6.792674	0.198612	6.925986	0.704063	-0.590684	-0.394191	0.018162	-0.539932	0.841512	-0.709905	-0.599637	-0.369419
600	1652816													6.849616	0.092026	6.770924	0.694246	-0.599728	-0.397931	0.016281	-0.539655	0.841729	-0.719554	-0.590845	-0.364889
601	1652982													6.957809	0.103044	6.755756	0.683802	-0.608815	-0.402193	0.014797	-0.539516	0.841845	-0.729518	-0.581606	-0.359913
602	1653149													7.020948	0.058118	6.681029	0.673036	-0.617795	-0.406636	0.013493	-0.539450	0.841910	-0.739487	-0.572122	-0.354733
603	1653316													7.162955	0.062134	6.567361	0.661684	-0.626805	-0.411448	0.012316	-0.539596	0.841834	-0.749682	-0.562096	-0.349322
604	1653482													7.339217	0.162570	6.480084	0.649288	-0.636407	-0.416428	0.010909	-0.539690	0.841793	-0.760465	-0.551109	-0.343472
605	1653649													7.388164	0.123962	6.195627	0.636346	-0.646347	-0.421070	0.009226	-0.539433	0.841978	-0.771349	-0.539674	-0.337303
606	1653816													7.538709	0.015916	6.025658	0.623258	-0.655592	-0.426320	0.008017	-0.539769	0.841775	-0.781975	-0.528061	-0.331159
607	1653982													7.648876	0.004887	5.977098	0.610353	-0.664654	-0.430935	0.006498	-0.539801	0.841767	-0.792103	-0.516575	-0.325150
608	1654149													7.761492	0.077945	5.934599	0.597287	-0.673694	-0.435183	0.004683	-0.539665	0.841867	-0.802014	-0.504874	-0.319180
609	1654316													8.031944	0.086194	5.720731	0.583697	-0.683195	-0.438797	0.002510	-0.538888	0.842374	-0.811967	-0.492793	-0.312833
610	1654483													7.925601	0.025044	5.515675	0.570350	-0.692123	-0.442342	0.000603	-0.538168	0.842837	-0.821402	-0.480979	-0.306526
611	1654649													8.050504	-0.103896	5.372394	0.557427	-0.700327	-0.445888	-0.001034	-0.537654	0.843165	-0.830225	-0.469542	-0.300427
612	1654816													8.099964	-0.102733	5.143007	0.544491	-0.708253	-0.449341	-0.002674	-0.537180	0.843464	-0.838763	-0.458056	-0.294383
613	1654983													8.313715	-0.093880	5.076161	0.531703	-0.715866	-0.452578	-0.004269	-0.536633	0.843805	-0.846920	-0.446722	-0.288385
614	1655149													8.484612	-0.106097	4.953656	0.518998	-0.723153	-0.455731	-0.005712	-0.536082	0.844147	-0.854756	-0.435507	-0.282356
615	1655316													8.423333	-0.096623	4.807498	0.506511	-0.729944	-0.458943	-0.006932	-0.535703	0.844378	-0.862206	-0.424505	-0.276399
616	1655483													8.494143	-0.183729	4.768894	0.494751	-0.735912	-0.462229	-0.007878	-0.535663	0.844395	-0.868999	-0.414124	-0.270817
617	1655649													8.727360	-0.210680	4.549196	0.484352	-0.741313	-0.464606	-0.008946	-0.535224	0.844663	-0.874828	-0.404958	-0.265868
618	1655816													8.660061	-0.172756	4.698232	0.474937	-0.745459	-0.467681	-0.009668	-0.535831	0.844270	-0.879967	-0.396454	-0.261693
619	1655983													8.830824	-0.075537	4.576169	0.465862	-0.749374	-0.470544	-0.010405	-0.536376	0.843915	-0.884796	-0.388252	-0.257675
620	1656149													8.829369	-0.030516	4.521986	0.455846	-0.753987	-0.472978	-0.011419	-0.536311	0.843943	-0.889985	-0.379307	-0.253085
621	1656316													8.863111	-0.102192	4.483625	0.445787	-0.758598	-0.475187	-0.012345	-0.536013	0.844120	-0.895054	-0.370432	-0.248312
622	1656483													8.876760	-0.156399	4.285582	0.435482	-0.763210	-0.477353	-0.013172	-0.535622	0.844355	-0.900101	-0.361414	-0.243307
623	1656649													8.848932	-0.130133	4.183558	0.425372	-0.767347	-0.479829	-0.013810	-0.535629	0.844341	-0.904913	-0.352533	-0.238438
624	1656816													9.089994	-0.107399	3.973629	0.415938	-0.771102	-0.482076	-0.014450	-0.535645	0.844320	-0.909278	-0.344219	-0.233937
625	1656983													8.961713	-0.081028	3.943936	0.405825	-0.775049	-0.484361	-0.015137	-0.535591	0.844342	-0.913826	-0.335323	-0.229088
626	1657149													9.044017	-0.111684	4.016140	0.395230	-0.779608	-0.485803	-0.016148	-0.534677	0.844902	-0.918440	-0.326086	-0.223910
627	1657316													9.039019	-0.085591	3.874354	0.384750	-0.784248	-0.486747	-0.017303	-0.533377	0.845701	-0.922859	-0.316961	-0.218787
628	1657483													9.112751	-0.073927	3.687847	0.374506	-0.787978	-0.488709	-0.017999	-0.533145	0.845832	-0.927050	-0.307973	-0.213849
629	1657649													9.298145	-0.103276	3.677773	0.364959	-0.791029	-0.490997	-0.018438	-0.533411	0.845655	-0.930841	-0.299576	-0.209258
630	1657816													9.109080	-0.102540	3.503552	0.355120	-0.794702	-0.492279	-0.019334	-0.532734	0.846062	-0.934621	-0.290935	-0.204549
631	1657983													9.294075	-0.136312	3.399971	0.345648	-0.798108	-0.493509	-0.020198	-0.532131	0.846421	-0.938147	-0.282596	-0.200051
632	1658149													9.207814	-0.077943	3.392591	0.336251	-0.801082	-0.495179	-0.021023	-0.532049	0.846453	-0.941538	-0.274211	-0.195743
633	1658316													9.126092	-0.084640	3.320226	0.326787	-0.803930	-0.496897	-0.021754	-0.532021	0.846452	-0.944848	-0.265800	-0.191346
634	1658483													9.299288	-0.184916	3.037434	0.316943	-0.806703	-0.498775	-0.022510	-0.532138	0.846359	-0.948177	-0.257020	-0.186816
635	1658649													9.456662	-0.132753	3.012384	0.307636	-0.809920	-0.499390	-0.023596	-0.531175	0.846933	-0.951212	-0.248763	-0.182519
636	1658816													9.423196	-0.139405	3.083128	0.298661	-0.813332	-0.499292	-0.024738	-0.529592	0.847892	-0.954039	-0.240881	-0.178289
637	1658983													9.351973	-0.238836	2.860198	0.289069	-0.817339	-0.498393	-0.026258	-0.527192	0.849340	-0.956948	-0.232431	-0.173856
638	1659149													9.470916	-0.309969	2.678557	0.280172	-0.820406	-0.498435	-0.027524	-0.525882	0.850112	-0.959555	-0.224458	-0.169918
639	1659316													9.479470	-0.313033	2.737451	0.271974	-0.822468	-0.499576	-0.028377	-0.525774	0.850151	-0.961886	-0.217042	-0.166336
640	1659483													9.292239	-0.259823	2.752732	0.263041	-0.824746	-0.500603	-0.029148	-0.525432	0.850336	-0.964344	-0.209082	-0.162250
641	1659649													9.464935	-0.317247	2.488277	0.253607	-0.827121	-0.501552	-0.029962	-0.524972	0.850592	-0.966843	-0.200689	-0.157919
642	1659816													9.653312	-0.286741	2.444071	0.245282	-0.829125	-0.502383	-0.030920	-0.524641	0.850762	-0.968959	-0.193143	-0.154321
643	1659983													9.574761	-0.261087	2.427095	0.237891	-0.830660	-0.503400	-0.032032	-0.524706	0.850681	-0.970764	-0.186244	-0.151431
644	1660149													9.378262	-0.230458	2.430414	0.229920	-0.832446	-0.504153	-0.033465	-0.524488	0.850760	-0.972634	-0.178736	-0.148448
645	1660316													9.458639	-0.317528	2.101885	0.221160	-0.833904	-0.505659	-0.035037	-0.524958	0.850407	-0.974608	-0.170359	-0.145318
646	1660483													9.699929	-0.336862	2.004942	0.212763	-0.835644	-0.506390	-0.036635	-0.524714	0.850490	-0.976417	-0.162401	-0.142253
647	1660649													9.776923	-0.381718	2.015661	0.205682	-0.837402	-0.506412	-0.038043	-0.523927	0.850913	-0.977879	-0.155752	-0.139620
648	1660816													9.492271	-0.354878	1.999105	0.198251	-0.839256	-0.506306	-0.039513	-0.522982	0.851427	-0.979355	-0.148791	-0.136843
649	1660983													9.594646	-0.384840	1.795496	0.190252	-0.841143	-0.506244	-0.041059	-0.522029	0.851939	-0.980876	-0.141297	-0.133854
650	1661149													9.791163	-0.404336	1.827049	0.183081	-0.842718	-0.506268	-0.042608	-0.521290	0.852315	-0.982174	-0.134471	-0.131345
651	1661316													9.716622	-0.384951	1.740176	0.176547	-0.844107	-0.506276	-0.043984	-0.520607	0.852663	-0.983309	-0.128267	-0.129039
652	1661483													9.742517	-0.427324	1.701187	0.170618	-0.845500	-0.505983	-0.045353	-0.519707	0.853140	-0.984293	-0.122613	-0.127018
653	1661649													9.792062	-0.469393	1.625807	0.165451	-0.846797	-0.505531	-0.046822	-0.518762	0.853636	-0.985106	-0.117564	-0.125478
654	1661816													9.821956	-0.519755	1.551740	0.160872	-0.847886	-0.505182	-0.048270	-0.517995	0.854021	-0.985794	-0.113003	-0.124259
655	1661983													9.870784	-0.545466	1.513831	0.157159	-0.848814	-0.504793	-0.049630	-0.517287	0.854372	-0.986326	-0.109219	-0.123423
656	1662149													9.832006	-0.525049	1.517839	0.154418	-0.849532	-0.504431	-0.051017	-0.516730	0.854627	-0.986688	-0.106235	-0.123133
657	1662316													9.725724	-0.476753	1.560217	0.152197	-0.850120	-0.504116	-0.052368	-0.516278	0.854819	-0.986962	-0.103701	-0.123095
658	1662483													9.701485	-0.507956	1.505412	0.150038	-0.850489	-0.504140	-0.053319	-0.516131	0.854849	-0.987241	-0.101380	-0.122787
659	1662649													9.822265	-0.579335	1.428199	0.147950	-0.850612	-0.504548	-0.053918	-0.516342	0.854684	-0.987524	-0.099247	-0.122256
660	1662816													9.810519	-0.568718	1.446374	0.146365	-0.850663	-0.504925	-0.054227	-0.516554	0.854536	-0.987743	-0.097694	-0.121734
661	1662983													9.729465	-0.552350	1.478367	0.144869	-0.850789	-0.505146	-0.054354	-0.516603	0.854498	-0.987957	-0.096333	-0.121084
662	1663149													9.768542	-0.573879	1.431035	0.143331	-0.850930	-0.505346	-0.054377	-0.516618	0.854487	-0.988180	-0.094995	-0.120319
663	1663316													9.814401	-0.565668	1.326407	0.142223	-0.851003	-0.505536	-0.054438	-0.516679	0.854447	-0.988337	-0.094001	-0.119811
664	1663483													9.753224	-0.548505	1.360247	0.141652	-0.850976	-0.505742	-0.054604	-0.516833	0.854343	-0.988409	-0.093404	-0.119677
665	1663649													9.747002	-0.527348	1.361080	0.141247	-0.850930	-0.505932	-0.054793	-0.516992	0.854235	-0.988457	-0.092936	-0.119649
666	1663816													9.730130	-0.567634	1.400713	0.140869	-0.850895	-0.506096	-0.054926	-0.517123	0.854147	-0.988503	-0.092525	-0.119583
667	1663983													9.755645	-0.577501	1.427510	0.140458	-0.850751	-0.506453	-0.055036	-0.517442	0.853947	-0.988556	-0.092071	-0.119501
668	1664149													9.736657	-0.576293	1.445004	0.139932	-0.850110	-0.507674	-0.055134	-0.518612	0.853230	-0.988625	-0.091404	-0.119441
669	1664316													9.767251	-0.588348	1.211611	0.139370	-0.849797	-0.508351	-0.055281	-0.519238	0.852840	-0.988696	-0.090758	-0.119343
670	1664483													9.820956	-0.557544	1.090871	0.139687	-0.849650	-0.508510	-0.055382	-0.519445	0.852707	-0.988646	-0.090950	-0.119615
671	1664649													9.764009	-0.531454	1.250158	0.140634	-0.849504	-0.508493	-0.055499	-0.519554	0.852633	-0.988505	-0.091689	-0.120213
672	1664816													9.649085	-0.531134	1.355654	0.141295	-0.849235	-0.508758	-0.055574	-0.519908	0.852413	-0.988406	-0.092168	-0.120656
673	1664983													9.691480	-0.539634	1.379005	0.141392	-0.849108	-0.508944	-0.055638	-0.520112	0.852284	-0.988389	-0.092190	-0.120782
674	1665149													9.717491	-0.569410	1.325257	0.141343	-0.848981	-0.509170	-0.055729	-0.520342	0.852138	-0.988391	-0.092068	-0.120859
675	1665316													9.725271	-0.565871	1.328512	0.141128	-0.848898	-0.509368	-0.055892	-0.520529	0.852013	-0.988412	-0.091773	-0.120908
676	1665483													9.710182	-0.575360	1.361869	0.140928	-0.848770	-0.509636	-0.056089	-0.520792	0.851839	-0.988430	-0.091463	-0.121001
677	1665649													9.707051	-0.579176	1.348760	0.140676	-0.848524	-0.510115	-0.056205	-0.521252	0.851550	-0.988459	-0.091121	-0.121019
678	1665816													9.734749	-0.558115	1.342976	0.140445	-0.848314	-0.510528	-0.056283	-0.521646	0.851304	-0.988487	-0.090827	-0.121008
679	1665983													9.752227	-0.543404	1.341468	0.140384	-0.848101	-0.510899	-0.056265	-0.522009	0.851082	-0.988497	-0.090733	-0.121000
680	1666149													9.764185	-0.551424	1.354517	0.140517	-0.847908	-0.511182	-0.056245	-0.522308	0.850900	-0.988479	-0.090815	-0.121084
681	1666316													9.752455	-0.534137	1.344790	0.140773	-0.847711	-0.511438	-0.056194	-0.522591	0.850730	-0.988446	-0.091020	-0.121203
682	1666483													9.732063	-0.529806	1.358425	0.141105	-0.847526	-0.511654	-0.056132	-0.522842	0.850579	-0.988402	-0.091301	-0.121349
683	1666649													9.747548	-0.511079	1.389982	0.141542	-0.847373	-0.511786	-0.056046	-0.523021	0.850475	-0.988344	-0.091694	-0.121521
684	1666816													9.768611	-0.552320	1.371267	0.142252	-0.847271	-0.511758	-0.055964	-0.523073	0.850448	-0.988247	-0.092338	-0.121825
685	1666983													9.767316	-0.575940	1.384480	0.143213	-0.847112	-0.511753	-0.055818	-0.523174	0.850396	-0.988117	-0.093223	-0.122209
686	1667149													9.763152	-0.537171	1.374308	0.144421	-0.846880	-0.511798	-0.055653	-0.523353	0.850296	-0.987950	-0.094317	-0.122715
687	1667316													9.743325	-0.562406	1.335667	0.145912	-0.846597	-0.511843	-0.055525	-0.523573	0.850169	-0.987738	-0.095630	-0.123403
688	1667483													9.804052	-0.554551	1.386918	0.147693	-0.846303	-0.511819	-0.055330	-0.523754	0.850071	-0.987484	-0.097231	-0.124181
689	1667649													9.822948	-0.548050	1.457023	0.149925	-0.845977	-0.511708	-0.055032	-0.523896	0.850003	-0.987165	-0.099277	-0.125101
690	1667816													9.803904	-0.608238	1.462379	0.152597	-0.845545	-0.511632	-0.054722	-0.524130	0.849879	-0.986772	-0.101691	-0.126251
691	1667983													9.741150	-0.592735	1.484969	0.155596	-0.845096	-0.511470	-0.054514	-0.524333	0.849766	-0.986315	-0.104338	-0.127654
692	1668149													9.757519	-0.563935	1.516269	0.158844	-0.844650	-0.511209	-0.054264	-0.524469	0.849698	-0.985811	-0.107229	-0.129143
693	1668316													9.752117	-0.523015	1.591998	0.162423	-0.844201	-0.510827	-0.053950	-0.524525	0.849684	-0.985245	-0.110449	-0.130739
694	1668483													9.677434	-0.526335	1.611722	0.166016	-0.843820	-0.510300	-0.053588	-0.524436	0.849762	-0.984666	-0.113728	-0.132284
695	1668649													9.711700	-0.526119	1.609000	0.169375	-0.843339	-0.509991	-0.053173	-0.524533	0.849728	-0.984116	-0.116805	-0.133686
696	1668816													9.752928	-0.527288	1.650766	0.172958	-0.842778	-0.509717	-0.052782	-0.524704	0.849647	-0.983514	-0.120049	-0.135236
697	1668983													9.741443	-0.531293	1.655027	0.176928	-0.842153	-0.509387	-0.052370	-0.524874	0.849567	-0.982830	-0.123636	-0.136968
698	1669149													9.704923	-0.526247	1.677785	0.181186	-0.841347	-0.509222	-0.051951	-0.525257	0.849356	-0.982076	-0.127437	-0.138878
699	1669316													9.693901	-0.525175	1.739306	0.185644	-0.839965	-0.509897	-0.051376	-0.526505	0.848619	-0.981273	-0.131344	-0.140897
700	1669483													9.748482	-0.465887	1.749969	0.190321	-0.838677	-0.510294	-0.050770	-0.527507	0.848032	-0.980408	-0.135491	-0.142975
701	1669649													9.802320	-0.509848	1.754001	0.195710	-0.837650	-0.509941	-0.050182	-0.527870	0.847842	-0.979377	-0.140342	-0.145344
702	1669816													9.737285	-0.554638	1.808266	0.201704	-0.836537	-0.509432	-0.049515	-0.528166	0.847696	-0.978194	-0.145759	-0.147955
703	1669983													9.666030	-0.553068	1.943473	0.208039	-0.835357	-0.508821	-0.048993	-0.528450	0.847550	-0.976893	-0.151394	-0.150864
704	1670149													9.591154	-0.430044	2.017205	0.214575	-0.833964	-0.508391	-0.048436	-0.528960	0.847263	-0.975506	-0.157177	-0.153896
705	1670316													9.658032	-0.357589	2.111889	0.221248	-0.832528	-0.507884	-0.048059	-0.529466	0.846969	-0.974033	-0.162982	-0.157154
706	1670483													9.697827	-0.367908	2.184229	0.228363	-0.831255	-0.506818	-0.048013	-0.529556	0.846915	-0.972392	-0.169070	-0.160842
707	1670649													9.670886	-0.400178	2.235559	0.235728	-0.829843	-0.505760	-0.047882	-0.529711	0.846825	-0.970639	-0.175404	-0.164602
708	1670816													9.670151	-0.459975	2.296042	0.243495	-0.828161	-0.504836	-0.047570	-0.530073	0.846617	-0.968735	-0.182132	-0.168466
709	1670983													9.635882	-0.436270	2.363799	0.251652	-0.826447	-0.503644	-0.047117	-0.530236	0.846540	-0.966670	-0.189303	-0.172375
710	1671150													9.562071	-0.441256	2.468753	0.260046	-0.824942	-0.501844	-0.046533	-0.529827	0.846828	-0.964474	-0.196862	-0.176166
711	1671316													9.386689	-0.396210	2.623047	0.267587	-0.823901	-0.499584	-0.045857	-0.528794	0.847511	-0.962442	-0.203873	-0.179280
712	1671483													9.401143	-0.440713	2.465398	0.274599	-0.822652	-0.497833	-0.045020	-0.528167	0.847946	-0.960504	-0.210433	-0.182070
713	1671650													9.618087	-0.452171	2.371368	0.282154	-0.820966	-0.496391	-0.044037	-0.527952	0.848132	-0.958358	-0.217445	-0.185117
714	1671816													9.696555	-0.454478	2.535180	0.291287	-0.818800	-0.494690	-0.042788	-0.527748	0.848323	-0.955678	-0.225939	-0.188761
715	1671983													9.483481	-0.424886	2.798448	0.301562	-0.816104	-0.492986	-0.041338	-0.527761	0.848386	-0.952550	-0.235462	-0.192888
716	1672150													9.293518	-0.404043	2.895461	0.312023	-0.813086	-0.491460	-0.039744	-0.528003	0.848312	-0.949243	-0.245161	-0.197064
717	1672316													9.256215	-0.403366	2.937025	0.322387	-0.810007	-0.489851	-0.038097	-0.528164	0.848287	-0.945841	-0.254815	-0.201132
718	1672483													9.367043	-0.405207	2.976780	0.332379	-0.806892	-0.488313	-0.036449	-0.528352	0.848243	-0.942441	-0.264139	-0.205024
719	1672650													9.448773	-0.401050	3.151457	0.342812	-0.803385	-0.486881	-0.034741	-0.528775	0.848051	-0.938761	-0.273807	-0.209181
720	1672816													9.319369	-0.390976	3.398056	0.353753	-0.799474	-0.485490	-0.032888	-0.529363	0.847758	-0.934761	-0.283930	-0.213557
721	1672983													9.228230	-0.385762	3.584493	0.365076	-0.795240	-0.484059	-0.030879	-0.530004	0.847433	-0.930466	-0.294430	-0.218048
722	1673150													9.109636	-0.368461	3.720765	0.376806	-0.790724	-0.482464	-0.028831	-0.530615	0.847123	-0.925843	-0.305291	-0.222736
723	1673316													8.893447	-0.315246	3.574706	0.388027	-0.786309	-0.480785	-0.026792	-0.531060	0.846910	-0.921258	-0.315743	-0.227133
724	1673483													9.093055	-0.376789	3.464695	0.397953	-0.782136	-0.479476	-0.024668	-0.531577	0.846651	-0.917074	-0.325100	-0.230836
725	1673650													9.285564	-0.365715	3.784878	0.408374	-0.777410	-0.478399	-0.022336	-0.532445	0.846170	-0.912542	-0.334868	-0.234800
726	1673816													8.984432	-0.254594	4.183486	0.419065	-0.772602	-0.476939	-0.020159	-0.533076	0.845827	-0.907732	-0.344842	-0.238969
727	1673983													8.766801	-0.212892	4.298917	0.429837	-0.767814	-0.475081	-0.018150	-0.533410	0.845662	-0.902724	-0.354874	-0.243215
728	1674150													8.692481	-0.184243	4.226762	0.440525	-0.763399	-0.472398	-0.016511	-0.533008	0.845949	-0.897589	-0.364862	-0.247408
729	1674316													8.756531	-0.274947	4.228144	0.451361	-0.758675	-0.469771	-0.014874	-0.532771	0.846129	-0.892217	-0.374923	-0.251757
730	1674483													8.640593	-0.177800	4.359521	0.462486	-0.753307	-0.467585	-0.013072	-0.533111	0.845944	-0.886530	-0.385125	-0.256403
731	1674650													8.573669	-0.094002	4.444371	0.473352	-0.748036	-0.465166	-0.011685	-0.533359	0.845808	-0.880796	-0.394930	-0.261207
732	1674816													8.630169	-0.003424	4.706098	0.484471	-0.742401	-0.462741	-0.010276	-0.533757	0.845576	-0.874747	-0.404902	-0.266218
733	1674983													8.619002	0.086224	4.835415	0.496127	-0.736774	-0.459371	-0.009210	-0.533513	0.845742	-0.868201	-0.415365	-0.271475
734	1675150													8.422867	0.014627	4.945432	0.508245	-0.731199	-0.455011	-0.008460	-0.532551	0.846356	-0.861171	-0.426307	-0.276852
735	1675316													8.406619	-0.097807	4.860709	0.519624	-0.726156	-0.450209	-0.007903	-0.530996	0.847338	-0.854358	-0.436739	-0.281657
736	1675483													8.490896	-0.202590	4.961541	0.530838	-0.720615	-0.446011	-0.006970	-0.529978	0.847983	-0.847445	-0.447032	-0.286355
737	1675650													8.215939	-0.167432	5.266316	0.542004	-0.714303	-0.442722	-0.005485	-0.529810	0.848099	-0.840358	-0.457244	-0.291077
738	1675816													8.069768	-0.064078	5.439827	0.553175	-0.707471	-0.439866	-0.003568	-0.530017	0.847980	-0.833057	-0.467512	-0.295716
739	1675983													8.071651	0.006081	5.545169	0.564702	-0.700105	-0.436995	-0.001432	-0.530332	0.847789	-0.825294	-0.478122	-0.300482
740	1676150													7.986997	0.032341	5.647193	0.576502	-0.692261	-0.434073	0.000878	-0.530714	0.847551	-0.817095	-0.488996	-0.305350
741	1676316													7.957742	0.006162	5.750389	0.587566	-0.684581	-0.431412	0.003244	-0.531152	0.847270	-0.809170	-0.499226	-0.309866
742	1676483													7.886622	0.037714	5.836573	0.597700	-0.677309	-0.428960	0.005427	-0.531619	0.846966	-0.801701	-0.508560	-0.314074
743	1676650													7.900819	0.059765	5.932510	0.606916	-0.670435	-0.426812	0.007645	-0.532079	0.846660	-0.794729	-0.517115	-0.317802
744	1676816													7.738195	0.111707	6.123936	0.615664	-0.663767	-0.424701	0.009727	-0.532513	0.846366	-0.787949	-0.525208	-0.321393
745	1676983													7.579933	0.106295	6.152681	0.624299	-0.657078	-0.422491	0.011661	-0.532935	0.846076	-0.781098	-0.533131	-0.325049
746	1677150													7.475425	0.147326	6.197766	0.633072	-0.650177	-0.420106	0.013541	-0.533323	0.845803	-0.773975	-0.541143	-0.328828
747	1677316													7.376628	0.157524	6.283033	0.641864	-0.643147	-0.417579	0.015249	-0.533748	0.845506	-0.766667	-0.549068	-0.332786
748	1677483													7.362031	0.141578	6.402643	0.650470	-0.636276	-0.414779	0.016592	-0.534064	0.845281	-0.759351	-0.556712	-0.336835
749	1677650													7.322220	0.150242	6.428638	0.658813	-0.629362	-0.412153	0.017949	-0.534546	0.844949	-0.752093	-0.564061	-0.340869
750	1677816													7.229143	0.223990	6.591560	0.666777	-0.622437	-0.409855	0.019456	-0.535225	0.844485	-0.745004	-0.571057	-0.344765
751	1677983													7.147882	0.294807	6.685774	0.674423	-0.615723	-0.407480	0.020870	-0.535764	0.844110	-0.738051	-0.577791	-0.348482
752	1678150													7.069725	0.223499	6.654432	0.682047	-0.608835	-0.405132	0.022366	-0.536357	0.843695	-0.730966	-0.584501	-0.352204
753	1678316													7.014352	0.225262	6.698566	0.689675	-0.601688	-0.402889	0.023968	-0.537112	0.843170	-0.723722	-0.591170	-0.356012
754	1678483													6.929240	0.272303	6.768964	0.697128	-0.594467	-0.400776	0.025690	-0.537932	0.842597	-0.716486	-0.597694	-0.359736
755	1678650													6.839021	0.281256	6.898654	0.704327	-0.587387	-0.398622	0.027384	-0.538639	0.842092	-0.709347	-0.604024	-0.363293
756	1678816													6.748109	0.296511	6.957260	0.711302	-0.580350	-0.396540	0.029150	-0.539317	0.841598	-0.702282	-0.610190	-0.366700
757	1678983													6.658302	0.366381	7.031594	0.718169	-0.573333	-0.394364	0.030823	-0.539956	0.841129	-0.695186	-0.616228	-0.370107
758	1679150													6.663681	0.355140	7.069119	0.724963	-0.566432	-0.391897	0.032272	-0.540408	0.840784	-0.688031	-0.622185	-0.373496
759	1679316													6.710403	0.378123	7.178401	0.731355	-0.559844	-0.389480	0.033519	-0.540890	0.840425	-0.681173	-0.627704	-0.376817
760	1679483													6.560014	0.399319	7.290181	0.737221	-0.553729	-0.387157	0.034591	-0.541327	0.840100	-0.674766	-0.632731	-0.379923
761	1679650													6.436133	0.405664	7.304805	0.742823	-0.547862	-0.384786	0.035571	-0.541638	0.839859	-0.668542	-0.637554	-0.382853
762	1679816													6.398062	0.372806	7.359425	0.748295	-0.542153	-0.382263	0.036467	-0.541757	0.839744	-0.662363	-0.642316	-0.385624
763	1679983													6.403766	0.366042	7.438433	0.753456	-0.536667	-0.379858	0.037341	-0.541874	0.839630	-0.656437	-0.646809	-0.388238
764	1680150													6.328163	0.428002	7.516296	0.758169	-0.531601	-0.377598	0.038113	-0.541968	0.839535	-0.650944	-0.650900	-0.390642
765	1680316													6.290751	0.420329	7.500946	0.762439	-0.527000	-0.375444	0.038754	-0.541998	0.839486	-0.645899	-0.654606	-0.392817
766	1680483													6.225909	0.349198	7.557162	0.766358	-0.522763	-0.373382	0.039358	-0.541919	0.839508	-0.641207	-0.658060	-0.394730
767	1680650													6.137585	0.339759	7.648258	0.770060	-0.518649	-0.371497	0.040135	-0.541773	0.839566	-0.636707	-0.661426	-0.396382
768	1680816													6.117824	0.342903	7.668176	0.773596	-0.514316	-0.370175	0.041417	-0.541880	0.839435	-0.632325	-0.664715	-0.397894
769	1680983													6.141129	0.507629	7.688986	0.776867	-0.510194	-0.369026	0.042713	-0.542018	0.839280	-0.628215	-0.667771	-0.399284
770	1681150													6.150941	0.548887	7.635456	0.779952	-0.506557	-0.367526	0.043645	-0.541797	0.839375	-0.624316	-0.670713	-0.400467
771	1681316													5.997727	0.375991	7.679138	0.783012	-0.503068	-0.365808	0.044391	-0.541413	0.839584	-0.620421	-0.673643	-0.401601
772	1681483													5.996407	0.381875	7.669940	0.785981	-0.499411	-0.364448	0.045463	-0.541199	0.839665	-0.616576	-0.676530	-0.402668
773	1681650													5.868689	0.379880	7.800423	0.788890	-0.495778	-0.363122	0.046596	-0.540930	0.839776	-0.612766	-0.679410	-0.403633
774	1681816													5.918279	0.562756	7.870976	0.791578	-0.492212	-0.362121	0.047860	-0.540844	0.839760	-0.609191	-0.682067	-0.404563
775	1681983													5.950660	0.621072	7.867087	0.793983	-0.489275	-0.360834	0.048572	-0.540585	0.839886	-0.605996	-0.684382	-0.405450
776	1682150													5.938328	0.518751	7.816055	0.796150	-0.486764	-0.359453	0.048971	-0.540258	0.840073	-0.603115	-0.686427	-0.406290
777	1682316													5.803234	0.502430	7.922654	0.798074	-0.484733	-0.357927	0.049051	-0.539777	0.840378	-0.600559	-0.688241	-0.407005
778	1682483													5.692829	0.488702	7.925790	0.799798	-0.482967	-0.356462	0.048994	-0.539334	0.840666	-0.598266	-0.689827	-0.407696
779	1682650													5.714264	0.494162	7.911419	0.801344	-0.481306	-0.355235	0.048924	-0.539116	0.840809	-0.596200	-0.691157	-0.408470
780	1682816													5.830498	0.506176	7.970511	0.802629	-0.480070	-0.354005	0.048654	-0.538820	0.841014	-0.594491	-0.692246	-0.409115
781	1682983													5.753108	0.402870	8.029487	0.803612	-0.479283	-0.352840	0.048266	-0.538420	0.841294	-0.593193	-0.693104	-0.409547
782	1683150													5.661459	0.449842	8.029793	0.804310	-0.478639	-0.352122	0.048031	-0.538280	0.841396	-0.592265	-0.693656	-0.409955
783	1683316													5.664629	0.533849	8.010135	0.804917	-0.478083	-0.351491	0.047747	-0.538244	0.841436	-0.591464	-0.694068	-0.410414
784	1683483													5.761884	0.469160	7.921377	0.805465	-0.477764	-0.350668	0.047219	-0.538085	0.841567	-0.590759	-0.694411	-0.410849
785	1683650													5.725547	0.402436	8.022143	0.805869	-0.477546	-0.350035	0.046781	-0.537980	0.841659	-0.590242	-0.694642	-0.411201
786	1683816													5.680511	0.453749	8.074049	0.805929	-0.477698	-0.349690	0.046350	-0.537953	0.841700	-0.590195	-0.694559	-0.411411
787	1683983													5.731713	0.388145	7.921461	0.805962	-0.477751	-0.349540	0.046077	-0.538051	0.841652	-0.590171	-0.694446	-0.411635
788	1684150													5.758314	0.485830	7.929752	0.806036	-0.477660	-0.349495	0.045918	-0.538250	0.841534	-0.590082	-0.694355	-0.411916
789	1684316													5.740888	0.489856	7.938959	0.806183	-0.477605	-0.349232	0.045620	-0.538317	0.841507	-0.589905	-0.694340	-0.412194
790	1684483													5.750549	0.384465	7.933803	0.806332	-0.477608	-0.348882	0.045271	-0.538296	0.841539	-0.589727	-0.694354	-0.412424
791	1684650													5.824732	0.502913	7.949303	0.806356	-0.477621	-0.348810	0.045069	-0.538436	0.841461	-0.589711	-0.694237	-0.412645
792	1684816													5.796379	0.465015	7.937494	0.806375	-0.477745	-0.348595	0.044752	-0.538454	0.841466	-0.589708	-0.694138	-0.412816
793	1684983													5.751413	0.459779	7.918617	0.806420	-0.477934	-0.348233	0.044340	-0.538357	0.841550	-0.589679	-0.694083	-0.412950
794	1685150													5.745063	0.427982	7.897215	0.806556	-0.477935	-0.347915	0.044000	-0.538366	0.841562	-0.589518	-0.694075	-0.413193
795	1685316													5.716940	0.443448	7.941220	0.806636	-0.477975	-0.347675	0.043661	-0.538440	0.841532	-0.589433	-0.693990	-0.413456
796	1685483													5.751281	0.403596	7.970114	0.806690	-0.478105	-0.347372	0.043271	-0.538432	0.841557	-0.589389	-0.693907	-0.413660
797	1685650													5.702193	0.402156	8.044847	0.806632	-0.478206	-0.347367	0.043036	-0.538629	0.841443	-0.589485	-0.693684	-0.413895
798	1685816													5.724657	0.490559	7.977893	0.806523	-0.478409	-0.347340	0.042699	-0.538843	0.841324	-0.589658	-0.693378	-0.414162
799	1685983													5.713542	0.415598	7.974435	0.806479	-0.478520	-0.347291	0.042364	-0.539095	0.841179	-0.589744	-0.693106	-0.414496
800	1686150													5.716949	0.488793	7.977285	0.806371	-0.478707	-0.347282	0.042042	-0.539326	0.841047	-0.589913	-0.692796	-0.414771
801	1686316													5.810634	0.444993	7.953484	0.806112	-0.479234	-0.347158	0.041503	-0.539420	0.841013	-0.590306	-0.692359	-0.414943
802	1686483													5.728923	0.348939	7.967103	0.805801	-0.479759	-0.347153	0.041107	-0.539493	0.840986	-0.590757	-0.691938	-0.415003
803	1686650													5.720958	0.399712	7.981925	0.805509	-0.480145	-0.347298	0.040829	-0.539713	0.840858	-0.591176	-0.691498	-0.415140
804	1686816													5.743475	0.470172	7.977222	0.805150	-0.480660	-0.347420	0.040404	-0.539981	0.840707	-0.591694	-0.690932	-0.415345
805	1686983													5.770579	0.511042	7.938935	0.804478	-0.481699	-0.347535	0.039712	-0.540166	0.840621	-0.592653	-0.690063	-0.415423
806	1687150													5.789906	0.435484	7.931393	0.803295	-0.483437	-0.347860	0.038894	-0.540239	0.840612	-0.594310	-0.688789	-0.415169
807	1687316													5.662194	0.369723	7.925618	0.801756	-0.485588	-0.348412	0.038070	-0.540290	0.840618	-0.596438	-0.687234	-0.414694
808	1687483													5.637267	0.435790	7.927909	0.799935	-0.488060	-0.349144	0.037274	-0.540288	0.840654	-0.598928	-0.685483	-0.414004
809	1687650													5.642067	0.488661	7.861879	0.797971	-0.490956	-0.349578	0.036124	-0.540020	0.840876	-0.601613	-0.683623	-0.413185
810	1687817													5.711803	0.397919	7.925139	0.795544	-0.494627	-0.349934	0.034600	-0.539519	0.841262	-0.604908	-0.681369	-0.412097
811	1687983													5.842628	0.264049	7.989043	0.792356	-0.499328	-0.350490	0.032833	-0.538781	0.841806	-0.609175	-0.678518	-0.410512
812	1688150													5.806727	0.147033	7.964763	0.788375	-0.504543	-0.351995	0.031672	-0.538122	0.842272	-0.614379	-0.675175	-0.408262
813	1688317													5.787176	0.271106	7.940744	0.783890	-0.509897	-0.354289	0.030933	-0.537827	0.842488	-0.620128	-0.671377	-0.405825
814	1688483													5.851976	0.398591	7.761934	0.779182	-0.515521	-0.356529	0.030064	-0.537418	0.842780	-0.626076	-0.667398	-0.403248
815	1688650													5.800120	0.272677	7.668064	0.774482	-0.520936	-0.358891	0.029245	-0.537240	0.842922	-0.631919	-0.663325	-0.400848
816	1688817													6.045602	0.253450	7.536337	0.769599	-0.526511	-0.361252	0.028342	-0.537032	0.843085	-0.637898	-0.659077	-0.398377
817	1688983													6.169127	0.222527	7.609380	0.764116	-0.532440	-0.364189	0.027748	-0.536915	0.843180	-0.644481	-0.654393	-0.395491
818	1689150													6.233900	0.340804	7.605652	0.757743	-0.539133	-0.367642	0.027298	-0.536708	0.843326	-0.651982	-0.649061	-0.391969
819	1689317													6.310854	0.307727	7.505780	0.750682	-0.546607	-0.371076	0.026644	-0.536167	0.843692	-0.660126	-0.643231	-0.387926
820	1689483													6.298772	0.235220	7.406692	0.743294	-0.554385	-0.374393	0.025781	-0.535506	0.844138	-0.668467	-0.637095	-0.383747
821	1689650													6.340347	0.160557	7.234207	0.735775	-0.562059	-0.377789	0.024974	-0.534949	0.844515	-0.676765	-0.630808	-0.379565
822	1689817													6.470311	0.129382	7.128959	0.728136	-0.569441	-0.381516	0.024342	-0.534772	0.844646	-0.685000	-0.624304	-0.375525
823	1689983													6.616557	0.100164	7.079729	0.720064	-0.577011	-0.385442	0.023744	-0.534652	0.844739	-0.693501	-0.617418	-0.371283
824	1690150													6.799974	0.136791	7.060087	0.711312	-0.584858	-0.389841	0.023347	-0.534670	0.844739	-0.702488	-0.609975	-0.366662
825	1690317													6.888687	0.244754	6.981099	0.701660	-0.593378	-0.394431	0.022669	-0.534706	0.844734	-0.712152	-0.601657	-0.361731
826	1690483													6.936494	0.191373	6.929899	0.691761	-0.602058	-0.398739	0.021708	-0.534587	0.844835	-0.721800	-0.593080	-0.356737
827	1690650													6.983023	0.180315	6.722260	0.681346	-0.610731	-0.403453	0.020923	-0.534719	0.844771	-0.731662	-0.584023	-0.351551
828	1690817													7.146355	0.154100	6.695645	0.671207	-0.619173	-0.407560	0.019765	-0.534669	0.844830	-0.741006	-0.575111	-0.346636
829	1690983													7.252391	0.169257	6.564337	0.660443	-0.627686	-0.412099	0.018740	-0.534874	0.844724	-0.750642	-0.565615	-0.341491
830	1691150													7.406939	0.177976	6.347489	0.649019	-0.636629	-0.416507	0.017507	-0.534835	0.844775	-0.760571	-0.555567	-0.335973
831	1691317													7.493064	0.205247	6.285371	0.636819	-0.646112	-0.420714	0.016000	-0.534472	0.845035	-0.770847	-0.544866	-0.330025
832	1691483													7.608702	0.169182	6.028017	0.624384	-0.655545	-0.424742	0.014378	-0.534024	0.845347	-0.780985	-0.533928	-0.324011
833	1691650													7.648888	0.142348	6.109932	0.612099	-0.664185	-0.429177	0.013196	-0.534071	0.845337	-0.790671	-0.523093	-0.318140
834	1691817													7.815954	0.175970	5.898179	0.599521	-0.672650	-0.433725	0.012046	-0.534268	0.845229	-0.800269	-0.511957	-0.312202
835	1691983													8.017392	0.162143	5.738623	0.586734	-0.681138	-0.437943	0.010717	-0.534238	0.845266	-0.809709	-0.500639	-0.306156
836	1692150													8.050553	0.153069	5.531447	0.573461	-0.689835	-0.441895	0.009152	-0.533972	0.845453	-0.819182	-0.488878	-0.299898
837	1692317													8.238470	0.082171	5.529879	0.560735	-0.698106	-0.445224	0.007417	-0.533457	0.845795	-0.827962	-0.477569	-0.293950
838	1692483													8.259939	0.107607	5.405210	0.547866	-0.706210	-0.448453	0.005796	-0.532847	0.846192	-0.836546	-0.466199	-0.287836
839	1692650													8.163408	0.083449	5.216884	0.535061	-0.713999	-0.451570	0.004187	-0.532273	0.846563	-0.844803	-0.454854	-0.281809
840	1692817													8.407012	0.033384	5.065845	0.521994	-0.721626	-0.454728	0.002396	-0.531882	0.846815	-0.852946	-0.443122	-0.275910
841	1692983													8.475525	0.026816	4.979961	0.508836	-0.729323	-0.457356	0.000555	-0.530998	0.847373	-0.860864	-0.431427	-0.269786
842	1693150													8.612338	-0.015960	4.875246	0.496043	-0.736302	-0.460218	-0.000936	-0.530477	0.847699	-0.868297	-0.420065	-0.263829
843	1693317													8.674314	-0.092790	4.718959	0.483415	-0.742699	-0.463365	-0.002381	-0.530437	0.847721	-0.875388	-0.408698	-0.258190
844	1693483													8.583671	-0.084867	4.626163	0.470558	-0.748996	-0.466455	-0.003774	-0.530343	0.847775	-0.882361	-0.397167	-0.252384
845	1693650													8.822172	-0.036768	4.517572	0.458125	-0.755081	-0.469014	-0.005368	-0.529982	0.847992	-0.888871	-0.385969	-0.246852
846	1693817													8.788622	0.035586	4.359424	0.445868	-0.760825	-0.471536	-0.007030	-0.529759	0.848119	-0.895071	-0.374834	-0.241551
847	1693983													8.921659	-0.027053	4.246401	0.433760	-0.766689	-0.473329	-0.008964	-0.528967	0.848595	-0.900984	-0.363843	-0.236318
848	1694150													8.915630	-0.072911	4.047405	0.421781	-0.772181	-0.475222	-0.010715	-0.528333	0.848970	-0.906634	-0.352988	-0.231115
849	1694317													9.012052	-0.198502	4.094503	0.410602	-0.776591	-0.477819	-0.012115	-0.528632	0.848765	-0.911734	-0.342716	-0.226466
850	1694483													9.060277	-0.139470	3.969740	0.399787	-0.780727	-0.480245	-0.013404	-0.528861	0.848603	-0.916510	-0.332823	-0.221896
851	1694650													9.135805	-0.131432	3.899080	0.389532	-0.784420	-0.482650	-0.014593	-0.529233	0.848351	-0.920897	-0.323417	-0.217601
852	1694817													9.041874	-0.077149	3.797162	0.379158	-0.788152	-0.484825	-0.015910	-0.529423	0.848209	-0.925195	-0.313892	-0.213274
853	1694983													9.220814	-0.113529	3.632778	0.369384	-0.791619	-0.486718	-0.017284	-0.529522	0.848120	-0.929116	-0.304870	-0.209279
854	1695150													9.396758	-0.135017	3.692546	0.360794	-0.794719	-0.488107	-0.018639	-0.529398	0.848169	-0.932459	-0.296917	-0.205816
855	1695317													9.466266	-0.155508	3.455899	0.353772	-0.797627	-0.488504	-0.020104	-0.528643	0.848606	-0.935115	-0.290392	-0.203055
856	1695483													9.251548	-0.208281	3.523774	0.347535	-0.801092	-0.487310	-0.021296	-0.526314	0.850023	-0.937425	-0.285035	-0.199973
