// General information: 
//  MT Manager version: 2022.2.0 
//  XDA version: 2022.2.0 build 7381 rev 124627 built on 2023-07-19
// Device information: 
//  DeviceId: 00B4D200
//  ProductCode: MTW2-3A7G6
//  Firmware Version: 4.6.0
//  Hardware Version: 2.0.0
// Device settings: 
//  Filter Profile: human(46.1)
//  Option Flags: Orientation Smoother Disabled, Position/Velocity Smoother Disabled, Continuous Zero Rotation Update Disabled, AHS Disabled, ICC Disabled
// Coordinate system: ENU
PacketCounter	SampleTimeFine	Year	Month	Day	Second	UTC_Nano	UTC_Year	UTC_Month	UTC_Day	UTC_Hour	UTC_Minute	UTC_Second	UTC_Valid	Acc_X	Acc_Y	Acc_Z	VelInc_X	VelInc_Y	VelInc_Z	OriInc_q0	OriInc_q1	OriInc_q2	OriInc_q3	Quat_q0	Quat_q1	Quat_q2	Quat_q3	Roll	Pitch	Yaw	Mat[1][1]	Mat[2][1]	Mat[3][1]	Mat[1][2]	Mat[2][2]	Mat[3][2]	Mat[1][3]	Mat[2][3]	Mat[3][3]
42631														10.128738	0.092593	0.592098	0.168815	0.001584	0.009807	1.000000	0.000465	0.000366	0.000266	-0.336244	-0.606444	0.317425	-0.646844	-2.568154	-86.388106	127.478360	-0.038332	0.049994	0.998014	-0.819996	-0.572363	-0.002823	0.571085	-0.818475	0.062934
42632														9.937499	0.299330	0.684585	0.165634	0.004990	0.011284	1.000000	0.000189	0.000768	0.000022	-0.336361	-0.605997	0.317068	-0.647377	-2.538469	-86.299877	127.469115	-0.039258	0.051220	0.997915	-0.819790	-0.572658	-0.002858	0.571318	-0.818193	0.064471
42633														9.661683	0.325673	0.740877	0.161039	0.005412	0.012206	1.000000	-0.000147	0.000878	-0.000108	-0.336774	-0.605465	0.316780	-0.647801	-2.260118	-86.205552	127.177762	-0.039990	0.052728	0.997808	-0.819923	-0.572467	-0.002610	0.571075	-0.818230	0.066126
42634														9.307264	0.081332	0.679022	0.155128	0.001350	0.011216	1.000000	-0.000437	0.000650	-0.000065	-0.337321	-0.604941	0.316831	-0.647980	-2.110110	-86.136832	126.971868	-0.040520	0.053827	0.997728	-0.820483	-0.571665	-0.002481	0.570233	-0.818719	0.067328
42635														9.210791	-0.317055	0.588806	0.153515	-0.005253	0.009794	1.000000	-0.000474	0.000141	0.000172	-0.337557	-0.604653	0.317207	-0.647942	-2.419452	-86.123328	127.224925	-0.040900	0.053835	0.997712	-0.821036	-0.570869	-0.002854	0.569409	-0.819274	0.067549
42636														9.419865	-0.495309	0.551018	0.156998	-0.008192	0.009229	1.000000	-0.000189	-0.000280	0.000391	-0.337336	-0.604678	0.317664	-0.647810	-3.090234	-86.158022	127.874788	-0.041137	0.052891	0.997753	-0.821229	-0.570588	-0.003612	0.569114	-0.819532	0.066907
42637														9.850139	-0.428116	0.522952	0.164169	-0.007076	0.008772	1.000000	0.000112	-0.000349	0.000368	-0.336912	-0.604861	0.317925	-0.647733	-3.712899	-86.200055	128.513121	-0.041268	0.051856	0.997802	-0.821058	-0.570828	-0.004292	0.569351	-0.819430	0.066134
42638														10.119885	-0.184536	0.574932	0.168665	-0.003056	0.009592	1.000000	0.000308	-0.000063	0.000135	-0.336671	-0.604984	0.317873	-0.647768	-3.867345	-86.212762	128.694554	-0.041293	0.051553	0.997816	-0.820786	-0.571218	-0.004455	0.569741	-0.819178	0.065901
42639														10.037090	0.134678	0.673868	0.167288	0.002200	0.011186	1.000000	0.000270	0.000273	-0.000246	-0.336792	-0.604968	0.317498	-0.647904	-3.378088	-86.185186	128.228099	-0.041170	0.052264	0.997784	-0.820570	-0.571533	-0.003920	0.570061	-0.818913	0.066416
42640														9.869017	0.267599	0.696863	0.164492	0.004366	0.011529	1.000000	0.000033	0.000521	-0.000566	-0.337298	-0.604854	0.316955	-0.648013	-2.336452	-86.133141	127.188905	-0.040763	0.053724	0.997723	-0.820570	-0.571539	-0.002749	0.570090	-0.818814	0.067382
42641														9.538748	0.288566	0.675509	0.158987	0.004701	0.011187	1.000000	-0.000157	0.000448	-0.000693	-0.338000	-0.604771	0.316496	-0.647950	-1.111755	-86.090664	125.941241	-0.040017	0.055198	0.997673	-0.820829	-0.571173	-0.001323	0.569771	-0.818972	0.068165
42642														9.292988	0.084002	0.616481	0.154885	0.001316	0.010259	1.000000	-0.000284	0.000100	-0.000562	-0.338582	-0.604810	0.316320	-0.647695	-0.170627	-86.083983	124.962856	-0.039136	0.055969	0.997665	-0.821223	-0.570608	-0.000203	0.569264	-0.819313	0.068294
42643														9.203888	-0.334486	0.468793	0.153394	-0.005602	0.007882	1.000000	-0.000122	-0.000441	-0.000186	-0.338673	-0.605133	0.316465	-0.647275	0.173969	-86.139499	124.597680	-0.038229	0.055421	0.997731	-0.821435	-0.570302	0.000204	0.569019	-0.819564	0.067327
42644														9.509334	-0.536988	0.363227	0.158486	-0.008917	0.006182	1.000000	0.000321	-0.000830	0.000218	-0.338094	-0.605705	0.316693	-0.646931	-0.161975	-86.235619	124.967409	-0.037627	0.053802	0.997842	-0.821092	-0.570796	-0.000186	0.569555	-0.819327	0.065653
42645														9.951799	-0.500042	0.333036	0.165862	-0.008266	0.005679	0.999999	0.000797	-0.000817	0.000435	-0.337067	-0.606380	0.316720	-0.646821	-0.842673	-86.331064	125.741181	-0.037379	0.051939	0.997950	-0.820149	-0.572149	-0.000941	0.570927	-0.818503	0.063984
42646														10.323257	-0.200513	0.436545	0.172053	-0.003279	0.007329	0.999999	0.001075	-0.000332	0.000412	-0.336048	-0.606843	0.316397	-0.647075	-1.456847	-86.371395	126.478653	-0.037627	0.050889	0.997995	-0.818903	-0.573929	-0.001609	0.572697	-0.817322	0.063268
42647														10.227631	0.194674	0.512787	0.170463	0.003265	0.008495	0.999999	0.000996	0.000324	0.000167	-0.335430	-0.606925	0.315749	-0.647635	-1.629619	-86.335435	126.766537	-0.038257	0.051201	0.997955	-0.817744	-0.575579	-0.001818	0.574309	-0.816142	0.063889
42648														9.988825	0.453249	0.657700	0.166492	0.007506	0.010816	0.999999	0.000633	0.000902	-0.000246	-0.335503	-0.606654	0.314903	-0.648263	-1.056947	-86.237286	126.262807	-0.038816	0.052914	0.997844	-0.817062	-0.576548	-0.001211	0.575241	-0.815348	0.065613
42649														9.634169	0.579760	0.706050	0.160588	0.009572	0.011583	0.999999	0.000096	0.001156	-0.000559	-0.336175	-0.606148	0.314118	-0.648769	-0.031683	-86.110624	125.245702	-0.039144	0.055396	0.997697	-0.817003	-0.576633	-0.000038	0.575303	-0.815123	0.067830
42650														9.309598	0.402843	0.711153	0.155177	0.006614	0.011690	0.999999	-0.000397	0.001031	-0.000675	-0.337174	-0.605590	0.313619	-0.649013	1.061225	-85.996290	124.105002	-0.039149	0.057813	0.997560	-0.817510	-0.575913	0.001293	0.574582	-0.815464	0.069809
42651														9.130100	-0.006548	0.615069	0.152174	-0.000176	0.010165	1.000000	-0.000598	0.000564	-0.000478	-0.337988	-0.605242	0.313492	-0.648975	1.806440	-85.937529	123.295965	-0.038891	0.059215	0.997487	-0.818169	-0.574973	0.002233	0.573661	-0.816026	0.070809
42652														9.257540	-0.466741	0.528618	0.154292	-0.007785	0.008811	1.000000	-0.000344	0.000016	-0.000061	-0.338251	-0.605106	0.313693	-0.648868	1.829267	-85.932959	123.230694	-0.038867	0.059326	0.997482	-0.818595	-0.574366	0.002264	0.573054	-0.816446	0.070888
42653														9.634455	-0.528056	0.484793	0.160574	-0.008758	0.008130	1.000000	0.000141	-0.000323	0.000273	-0.337889	-0.605313	0.313878	-0.648774	1.458853	-85.975901	123.618044	-0.038853	0.058439	0.997535	-0.818416	-0.574623	0.001787	0.573311	-0.816329	0.070153
42654														10.100347	-0.393122	0.507669	0.168339	-0.006504	0.008494	1.000000	0.000581	-0.000219	0.000314	-0.337227	-0.605602	0.313734	-0.648919	1.049233	-86.006318	124.101898	-0.039048	0.057670	0.997572	-0.817661	-0.575698	0.001275	0.574374	-0.815626	0.069635
42655														10.314722	-0.051815	0.636650	0.171914	-0.000842	0.010574	1.000000	0.000808	0.000212	0.000177	-0.336701	-0.605692	0.313263	-0.649335	0.858211	-85.985158	124.383567	-0.039540	0.057782	0.997546	-0.816745	-0.576998	0.001049	0.575642	-0.814699	0.070007
42656														10.092138	0.188196	0.705982	0.168211	0.003107	0.011655	0.999999	0.000736	0.000676	-0.000124	-0.336550	-0.605548	0.312494	-0.649918	1.127129	-85.909524	124.197257	-0.040092	0.058999	0.997453	-0.815920	-0.578163	0.001403	0.576773	-0.813785	0.071318
42657														9.809425	0.355808	0.822009	0.163505	0.005867	0.013548	0.999999	0.000496	0.000947	-0.000345	-0.336774	-0.605214	0.311657	-0.650515	1.695167	-85.801930	123.683092	-0.040599	0.060915	0.997317	-0.815392	-0.578906	0.002166	0.577484	-0.813116	0.073173
42658														9.478407	0.406229	0.840908	0.157990	0.006690	0.013870	0.999999	0.000167	0.000925	-0.000497	-0.337300	-0.604793	0.310965	-0.650964	2.395137	-85.692045	122.996196	-0.040908	0.063001	0.997175	-0.815280	-0.579059	0.003139	0.577621	-0.812848	0.075052
42659														9.298378	0.261227	0.871560	0.154983	0.004286	0.014433	1.000000	-0.000106	0.000595	-0.000447	-0.337843	-0.604527	0.310568	-0.651120	3.032748	-85.624337	122.343977	-0.040818	0.064458	0.997085	-0.815446	-0.578820	0.004037	0.577393	-0.812904	0.076189
42660														9.222057	-0.029919	0.769315	0.153702	-0.000530	0.012808	1.000000	-0.000221	0.000090	-0.000223	-0.338182	-0.604483	0.310576	-0.650981	3.370152	-85.617268	121.974661	-0.040467	0.064824	0.997076	-0.815776	-0.578350	0.004492	0.576950	-0.813209	0.076286
42661														9.385878	-0.311098	0.675561	0.156427	-0.005169	0.011324	1.000000	-0.000022	-0.000415	0.000100	-0.338076	-0.604688	0.310864	-0.650708	3.261748	-85.666953	122.067547	-0.040113	0.064026	0.997142	-0.815928	-0.578137	0.004299	0.576760	-0.813424	0.075431
42662														9.721242	-0.315098	0.580886	0.162016	-0.005213	0.009781	1.000000	0.000333	-0.000625	0.000257	-0.337525	-0.605140	0.311028	-0.650495	2.977659	-85.742783	122.388352	-0.039764	0.062686	0.997241	-0.815548	-0.578676	0.003856	0.577322	-0.813145	0.074134
42663														10.014038	-0.187917	0.634190	0.166896	-0.003106	0.010644	1.000000	0.000637	-0.000458	0.000193	-0.336915	-0.605565	0.310935	-0.650460	2.773148	-85.796072	122.658066	-0.039558	0.061717	0.997309	-0.814882	-0.579616	0.003547	0.578275	-0.812550	0.073221
42664														10.036946	0.036345	0.657558	0.167280	0.000597	0.010992	1.000000	0.000739	-0.000191	-0.000004	-0.336454	-0.605908	0.310567	-0.650555	2.859056	-85.817289	122.648141	-0.039348	0.061413	0.997337	-0.814114	-0.580693	0.003638	0.579370	-0.811803	0.072846
42665														9.862467	0.206733	0.668705	0.164376	0.003403	0.011130	1.000000	0.000681	0.000107	-0.000216	-0.336226	-0.606133	0.309976	-0.650745	3.263716	-85.804852	122.317978	-0.039109	0.061822	0.997321	-0.813368	-0.581734	0.004165	0.580433	-0.811026	0.073035
42666														9.723992	0.306989	0.701569	0.162071	0.005049	0.011664	1.000000	0.000497	0.000193	-0.000380	-0.336213	-0.606333	0.309342	-0.650868	3.926077	-85.784451	121.714226	-0.038642	0.062533	0.997295	-0.812788	-0.582537	0.005033	0.581276	-0.810395	0.073336
42667														9.567930	0.317403	0.682930	0.159470	0.005217	0.011360	1.000000	0.000277	0.000149	-0.000441	-0.336405	-0.606483	0.308870	-0.650853	4.655370	-85.767843	121.010124	-0.038020	0.063250	0.997273	-0.812549	-0.582862	0.005990	0.581652	-0.810105	0.073554
42668														9.467284	0.167415	0.648488	0.157788	0.002731	0.010821	1.000000	0.000114	-0.000076	-0.000371	-0.336546	-0.606682	0.308597	-0.650724	5.236962	-85.772444	120.440599	-0.037349	0.063556	0.997279	-0.812438	-0.583009	0.006729	0.581850	-0.809976	0.073410
42669														9.499627	-0.094948	0.551515	0.158324	-0.001604	0.009245	1.000000	0.000142	-0.000339	-0.000129	-0.336487	-0.606971	0.308591	-0.650488	5.502791	-85.810629	120.181458	-0.036727	0.063150	0.997328	-0.812373	-0.583096	0.007005	0.581981	-0.809945	0.072717
42670														9.668453	-0.188469	0.545326	0.161136	-0.003122	0.009173	1.000000	0.000339	-0.000527	0.000140	-0.336066	-0.607374	0.308675	-0.650290	5.405823	-85.873754	120.310358	-0.036314	0.062118	0.997408	-0.812042	-0.583560	0.006779	0.582468	-0.809691	0.071634
42671														9.889026	-0.085379	0.498133	0.164814	-0.001392	0.008373	1.000000	0.000570	-0.000432	0.000218	-0.335427	-0.607792	0.308571	-0.650278	5.189669	-85.926421	120.595154	-0.036156	0.061148	0.997474	-0.811335	-0.584546	0.006426	0.583462	-0.809053	0.070746
42672														9.960533	0.045935	0.607106	0.166007	0.000790	0.010152	1.000000	0.000634	-0.000201	0.000187	-0.334862	-0.608103	0.308347	-0.650385	5.020146	-85.955224	120.836945	-0.036157	0.060564	0.997509	-0.810592	-0.585578	0.006172	0.584494	-0.808350	0.070265
42673														9.905686	0.174596	0.604749	0.165095	0.002910	0.010069	1.000000	0.000606	0.000071	0.000037	-0.334511	-0.608243	0.307978	-0.650609	5.019884	-85.948699	120.902625	-0.036284	0.060620	0.997501	-0.809924	-0.586503	0.006182	0.585412	-0.807675	0.070379
42674														9.743369	0.256140	0.619981	0.162393	0.004245	0.010291	1.000000	0.000465	0.000271	-0.000121	-0.334447	-0.608249	0.307571	-0.650829	5.241211	-85.919121	120.723655	-0.036358	0.061176	0.997465	-0.809496	-0.587090	0.006501	0.585999	-0.807207	0.070867
42675														9.581758	0.236442	0.642270	0.159700	0.003904	0.010661	1.000000	0.000300	0.000278	-0.000213	-0.334467	-0.608260	0.307138	-0.651013	5.589637	-85.887636	120.412257	-0.036302	0.061845	0.997425	-0.809125	-0.587596	0.006985	0.586515	-0.806788	0.071372
42676														9.492406	0.158705	0.635364	0.158209	0.002607	0.010570	1.000000	0.000207	0.000127	-0.000230	-0.334546	-0.608327	0.306840	-0.651050	5.974270	-85.873117	120.047259	-0.036034	0.062294	0.997407	-0.808931	-0.587856	0.007490	0.586798	-0.806564	0.071575
42677														9.405043	-0.118229	0.569110	0.156750	-0.001986	0.009500	1.000000	0.000267	-0.000099	-0.000083	-0.334388	-0.608544	0.306631	-0.651027	6.186034	-85.887197	119.869202	-0.035718	0.062193	0.997425	-0.808588	-0.588324	0.007728	0.587290	-0.806230	0.071303
42678														9.580255	-0.285236	0.554728	0.159669	-0.004736	0.009293	1.000000	0.000510	-0.000312	0.000144	-0.333889	-0.608881	0.306498	-0.651031	6.074362	-85.925986	120.039100	-0.035565	0.061503	0.997473	-0.807985	-0.589155	0.007518	0.588128	-0.805676	0.070646
42679														9.753734	-0.273143	0.533124	0.162560	-0.004516	0.008945	1.000000	0.000796	-0.000391	0.000270	-0.333117	-0.609357	0.306285	-0.651081	5.846390	-85.979668	120.357567	-0.035433	0.060497	0.997539	-0.807046	-0.590445	0.007142	0.589424	-0.804807	0.069746
42680														9.962750	-0.197070	0.558902	0.166044	-0.003249	0.009354	0.999999	0.001049	-0.000258	0.000274	-0.332220	-0.609810	0.305861	-0.651315	5.580866	-86.015225	120.743759	-0.035524	0.059725	0.997583	-0.805794	-0.592157	0.006758	0.591130	-0.803606	0.069162
42681														10.027907	-0.056318	0.636434	0.167132	-0.000919	0.010601	0.999999	0.001142	0.000030	0.000193	-0.331452	-0.610123	0.305275	-0.651688	5.426781	-86.018978	121.020957	-0.035779	0.059497	0.997587	-0.804517	-0.593894	0.006566	0.592851	-0.802341	0.069115
42682														9.948580	0.159698	0.700328	0.165813	0.002652	0.011622	0.999999	0.001075	0.000318	0.000020	-0.330856	-0.610280	0.304465	-0.652222	5.467060	-85.983931	121.107635	-0.036184	0.059965	0.997544	-0.803202	-0.595670	0.006673	0.594607	-0.800988	0.069718
42683														9.815105	0.346900	0.744851	0.163593	0.005734	0.012337	0.999999	0.000879	0.000503	-0.000222	-0.330639	-0.610333	0.303617	-0.652678	5.878759	-85.928907	120.791616	-0.036343	0.060986	0.997477	-0.802217	-0.596988	0.007271	0.595926	-0.799928	0.070621
42684														9.551184	0.335617	0.759646	0.159195	0.005520	0.012586	1.000000	0.000584	0.000490	-0.000414	-0.330736	-0.610368	0.302860	-0.652947	6.576462	-85.875329	120.152802	-0.036129	0.062194	0.997410	-0.801619	-0.597778	0.008238	0.596742	-0.799245	0.071454
42685														9.450000	0.174762	0.694973	0.157505	0.002841	0.011538	1.000000	0.000443	0.000293	-0.000423	-0.330835	-0.610467	0.302226	-0.653098	7.253936	-85.839031	119.523234	-0.035755	0.063137	0.997364	-0.801134	-0.598415	0.009162	0.597416	-0.798695	0.071978
42686														9.415654	-0.022614	0.624491	0.156927	-0.000422	0.010410	1.000000	0.000459	-0.000013	-0.000259	-0.330721	-0.610723	0.301777	-0.653124	7.732443	-85.839265	119.095829	-0.035281	0.063399	0.997364	-0.800608	-0.599109	0.009762	0.598149	-0.798154	0.071895
42687														9.519419	-0.234049	0.541392	0.158655	-0.003897	0.009055	1.000000	0.000678	-0.000217	0.000062	-0.330230	-0.611088	0.301478	-0.653170	7.791981	-85.869345	119.108467	-0.035041	0.062934	0.997402	-0.799851	-0.600119	0.009766	0.599174	-0.797431	0.071366
42688														9.770435	-0.226097	0.468840	0.162839	-0.003728	0.007865	0.999999	0.000987	-0.000335	0.000292	-0.329363	-0.611525	0.301156	-0.653347	7.502341	-85.911645	119.506660	-0.035114	0.062048	0.997455	-0.798705	-0.601651	0.009309	0.600698	-0.796345	0.070684
42689														9.960728	-0.104704	0.471806	0.166012	-0.001691	0.007887	0.999999	0.001221	-0.000155	0.000384	-0.328369	-0.611890	0.300700	-0.653715	7.056104	-85.935680	120.084591	-0.035529	0.061328	0.997485	-0.797310	-0.603507	0.008707	0.602523	-0.794996	0.070339
42690														10.043289	0.061659	0.551798	0.167389	0.001079	0.009182	0.999999	0.001291	0.000095	0.000380	-0.327375	-0.612144	0.300080	-0.654261	6.589165	-85.932432	120.697602	-0.036212	0.060993	0.997481	-0.795761	-0.605556	0.008139	0.604527	-0.793462	0.070464
42691														9.982213	0.227638	0.637528	0.166374	0.003837	0.010557	0.999999	0.001160	0.000436	0.000334	-0.326616	-0.612145	0.299429	-0.654937	6.135969	-85.891136	121.277592	-0.037201	0.061238	0.997430	-0.794413	-0.607329	0.007659	0.606237	-0.792087	0.071241
42692														9.867127	0.356096	0.685942	0.164459	0.005966	0.011321	0.999999	0.000863	0.000705	0.000246	-0.326166	-0.611910	0.298820	-0.655659	5.761719	-85.818615	121.746318	-0.038364	0.062005	0.997338	-0.793409	-0.608645	0.007320	0.607479	-0.791016	0.072546
42693														9.680529	0.395485	0.698940	0.161351	0.006608	0.011522	1.000000	0.000478	0.000807	0.000135	-0.326045	-0.611529	0.298354	-0.656286	5.524995	-85.734446	122.034583	-0.039453	0.063053	0.997230	-0.792861	-0.609360	0.007161	0.608124	-0.790383	0.074034
42694														9.495063	0.254139	0.721300	0.158260	0.004244	0.011905	1.000000	0.000103	0.000738	0.000060	-0.326230	-0.611043	0.298154	-0.656738	5.347713	-85.653262	122.211655	-0.040401	0.064127	0.997124	-0.792865	-0.609356	0.007064	0.608057	-0.790299	0.075462
42695														9.477136	0.116359	0.718903	0.157959	0.001955	0.011894	1.000000	-0.000130	0.000551	0.000088	-0.326430	-0.610631	0.298131	-0.657032	5.148280	-85.595035	122.393981	-0.041148	0.064853	0.997046	-0.793046	-0.609123	0.006892	0.607770	-0.790420	0.076496
42696														9.519089	0.010921	0.703431	0.158655	0.000200	0.011670	1.000000	-0.000231	0.000338	0.000094	-0.326669	-0.610262	0.298286	-0.657186	4.920363	-85.555249	122.585532	-0.041737	0.065299	0.996993	-0.793430	-0.608626	0.006647	0.607229	-0.790766	0.077212
42697														9.602480	0.002209	0.711059	0.160044	0.000038	0.011820	1.000000	-0.000242	0.000193	-0.000012	-0.326903	-0.610073	0.298401	-0.657193	4.905744	-85.536650	122.568318	-0.041892	0.065584	0.996967	-0.793768	-0.608184	0.006655	0.606776	-0.791082	0.077536
42698														9.655904	0.030742	0.717039	0.160933	0.000496	0.011934	1.000000	-0.000220	0.000104	-0.000121	-0.327187	-0.609960	0.298480	-0.657120	5.049518	-85.525243	122.391394	-0.041795	0.065881	0.996952	-0.794124	-0.607716	0.006867	0.606316	-0.791417	0.077717
42699														9.703779	0.020262	0.701017	0.161730	0.000304	0.011677	1.000000	-0.000150	0.000041	-0.000221	-0.327437	-0.609951	0.298432	-0.657026	5.350101	-85.518565	122.072402	-0.041490	0.066211	0.996943	-0.794327	-0.607446	0.007286	0.606071	-0.791597	0.077796
42700														9.787599	0.010645	0.684358	0.163127	0.000151	0.011402	1.000000	-0.000104	0.000027	-0.000170	-0.327693	-0.609945	0.298468	-0.656888	5.602512	-85.518271	121.793619	-0.041170	0.066416	0.996942	-0.794613	-0.607068	0.007629	0.605719	-0.791869	0.077768
42701														9.799198	0.040745	0.720113	0.163320	0.000666	0.011997	1.000000	-0.000026	0.000028	-0.000080	-0.327765	-0.609973	0.298431	-0.656843	5.737469	-85.518556	121.655434	-0.041007	0.066511	0.996943	-0.794650	-0.607017	0.007811	0.605681	-0.791900	0.077745
42702														9.744573	0.128407	0.749489	0.162410	0.002142	0.012484	1.000000	-0.000036	0.000043	0.000009	-0.327773	-0.609948	0.298427	-0.656864	5.722596	-85.514907	121.669952	-0.041057	0.066555	0.996938	-0.794654	-0.607013	0.007797	0.605673	-0.791900	0.077810
42703														9.714453	0.175121	0.703769	0.161907	0.002941	0.011728	1.000000	-0.000112	0.000010	0.000128	-0.327738	-0.609896	0.298556	-0.656871	5.541766	-85.517924	121.842371	-0.041229	0.066386	0.996942	-0.794739	-0.606905	0.007547	0.605550	-0.791997	0.077782
42704														9.690667	0.144636	0.733116	0.161511	0.002447	0.012217	1.000000	-0.000237	0.000007	0.000205	-0.327757	-0.609738	0.298836	-0.656881	5.206333	-85.517386	122.150725	-0.041591	0.066171	0.996941	-0.795017	-0.606545	0.007092	0.605159	-0.792290	0.077834
42705														9.726736	0.115669	0.740422	0.162112	0.001972	0.012338	1.000000	-0.000325	0.000009	0.000248	-0.327809	-0.609568	0.299218	-0.656838	4.827073	-85.522501	122.490782	-0.041935	0.065848	0.996948	-0.795423	-0.606020	0.006569	0.604603	-0.792719	0.077791
42706														9.708759	0.112982	0.750946	0.161813	0.001929	0.012507	1.000000	-0.000403	0.000047	0.000252	-0.327948	-0.609300	0.299660	-0.656817	4.398792	-85.517999	122.866423	-0.042408	0.065638	0.996942	-0.795969	-0.605308	0.005994	0.603851	-0.793280	0.077916
42707														9.655086	0.061831	0.775585	0.160919	0.001065	0.012918	1.000000	-0.000454	0.000051	0.000181	-0.328172	-0.609048	0.300103	-0.656736	4.083597	-85.515172	123.121181	-0.042727	0.065490	0.996938	-0.796599	-0.604483	0.005568	0.602997	-0.793922	0.077997
42708														9.595386	0.044091	0.758473	0.159923	0.000761	0.012637	1.000000	-0.000482	0.000021	0.000123	-0.328443	-0.608841	0.300545	-0.656590	3.867071	-85.517901	123.273188	-0.042874	0.065336	0.996942	-0.797273	-0.603596	0.005270	0.602094	-0.794609	0.077970
42709														9.589913	-0.029832	0.724498	0.159831	-0.000475	0.012081	1.000000	-0.000443	-0.000038	0.000104	-0.328650	-0.608690	0.300928	-0.656451	3.675968	-85.524143	123.411004	-0.042971	0.065142	0.996950	-0.797829	-0.602863	0.005003	0.601351	-0.795181	0.077878
42710														9.656364	-0.108819	0.669341	0.160938	-0.001790	0.011176	1.000000	-0.000347	-0.000122	0.000121	-0.328787	-0.608613	0.301312	-0.656278	3.480147	-85.540937	123.559946	-0.042979	0.064787	0.996973	-0.798316	-0.602221	0.004719	0.600704	-0.795697	0.077603
42711														9.710396	-0.114492	0.656618	0.161838	-0.001879	0.010972	1.000000	-0.000240	-0.000174	0.000162	-0.328795	-0.608618	0.301653	-0.656112	3.251271	-85.566413	123.757643	-0.042956	0.064270	0.997008	-0.798636	-0.601798	0.004384	0.600279	-0.796058	0.077179
42712														9.764288	-0.090319	0.656444	0.162736	-0.001479	0.010970	1.000000	-0.000105	-0.000180	0.000152	-0.328704	-0.608681	0.301879	-0.655995	3.050488	-85.591850	123.946689	-0.042921	0.063760	0.997042	-0.798753	-0.601645	0.004090	0.600126	-0.796215	0.076752
42713														9.812163	-0.070945	0.669204	0.163535	-0.001164	0.011170	1.000000	-0.000053	-0.000102	0.000111	-0.328641	-0.608708	0.302026	-0.655935	2.898786	-85.606331	124.091117	-0.042940	0.063443	0.997061	-0.798825	-0.601551	0.003874	0.600029	-0.796311	0.076511
42714														9.782076	-0.007285	0.681526	0.163034	-0.000114	0.011369	1.000000	-0.000008	-0.000063	0.000047	-0.328607	-0.608730	0.302089	-0.655902	2.836603	-85.614165	124.150763	-0.042930	0.063286	0.997072	-0.798850	-0.601519	0.003784	0.599997	-0.796348	0.076379
42715														9.734040	0.055018	0.684691	0.162234	0.000911	0.011414	1.000000	-0.000033	-0.000015	-0.000040	-0.328662	-0.608767	0.302116	-0.655828	2.916852	-85.620866	124.063300	-0.042768	0.063255	0.997081	-0.798927	-0.601415	0.003885	0.599905	-0.796429	0.076257
42716														9.709998	0.096878	0.672989	0.161833	0.001600	0.011219	1.000000	-0.000088	-0.000015	-0.000094	-0.328772	-0.608813	0.302132	-0.655722	3.077206	-85.627817	123.891596	-0.042510	0.063282	0.997090	-0.799050	-0.601250	0.004092	0.599760	-0.796551	0.076125
42717														9.662281	0.076754	0.657214	0.161038	0.001261	0.010956	1.000000	-0.000171	-0.000013	-0.000122	-0.328968	-0.608820	0.302197	-0.655587	3.261157	-85.632540	123.684082	-0.042235	0.063367	0.997096	-0.799302	-0.600914	0.004332	0.599444	-0.796798	0.076029
42718														9.662368	0.073125	0.636763	0.161039	0.001204	0.010619	1.000000	-0.000217	-0.000041	-0.000103	-0.329177	-0.608824	0.302318	-0.655424	3.415637	-85.640743	123.499867	-0.041953	0.063384	0.997107	-0.799617	-0.600493	0.004529	0.599043	-0.797114	0.075875
42719														9.716197	0.077413	0.646083	0.161936	0.001283	0.010775	1.000000	-0.000248	-0.000043	-0.000059	-0.329311	-0.608868	0.302440	-0.655259	3.527758	-85.654929	123.364767	-0.041667	0.063276	0.997126	-0.799860	-0.600168	0.004662	0.598738	-0.797367	0.075620
42720														9.698490	0.045074	0.622326	0.161641	0.000750	0.010375	1.000000	-0.000229	-0.000017	-0.000023	-0.329475	-0.608802	0.302590	-0.655169	3.538578	-85.656021	123.325595	-0.041614	0.063289	0.997127	-0.800157	-0.599772	0.004675	0.598345	-0.797664	0.075600
42721														9.722418	0.033953	0.646731	0.162040	0.000575	0.010778	1.000000	-0.000234	0.000003	0.000040	-0.329611	-0.608758	0.302807	-0.655040	3.492879	-85.665264	123.339394	-0.041540	0.063144	0.997139	-0.800490	-0.599329	0.004605	0.597905	-0.798009	0.075443
42722														9.716466	0.008273	0.685750	0.161941	0.000151	0.011429	1.000000	-0.000180	0.000003	0.000068	-0.329701	-0.608675	0.302989	-0.654988	3.378686	-85.666835	123.428965	-0.041624	0.063057	0.997142	-0.800744	-0.598990	0.004453	0.597559	-0.798270	0.075425
42723														9.716299	0.036555	0.699104	0.161938	0.000624	0.011650	1.000000	-0.000134	0.000010	0.000084	-0.329711	-0.608655	0.303123	-0.654940	3.273289	-85.673824	123.521423	-0.041658	0.062888	0.997151	-0.800876	-0.598814	0.004307	0.597379	-0.798415	0.075311
42724														9.740270	0.018434	0.703865	0.162338	0.000324	0.011729	1.000000	-0.000129	0.000011	0.000094	-0.329746	-0.608596	0.303282	-0.654904	3.135045	-85.677249	123.642159	-0.041758	0.062750	0.997155	-0.801056	-0.598575	0.004122	0.597131	-0.798605	0.075262
42725														9.829891	0.006151	0.760808	0.163831	0.000118	0.012681	1.000000	-0.000092	-0.000003	0.000088	-0.329766	-0.608556	0.303427	-0.654864	3.012162	-85.682245	123.750206	-0.041828	0.062599	0.997162	-0.801207	-0.598374	0.003956	0.596923	-0.798768	0.075184
42726														9.704376	0.001261	0.750089	0.161739	0.000033	0.012509	1.000000	-0.000053	-0.000044	0.000070	-0.329737	-0.608577	0.303526	-0.654813	2.926956	-85.692399	123.829161	-0.041816	0.062395	0.997175	-0.801270	-0.598290	0.003835	0.596840	-0.798846	0.075013
42727														9.674402	0.059487	0.742547	0.161238	0.001004	0.012398	1.000000	-0.000040	-0.000138	0.000076	-0.329679	-0.608679	0.303673	-0.654679	2.855826	-85.717225	123.892747	-0.041644	0.061990	0.997208	-0.801346	-0.598189	0.003721	0.596749	-0.798954	0.074586
42728														9.591057	0.035926	0.723451	0.159848	0.000610	0.012093	1.000000	-0.000045	-0.000222	0.000068	-0.329629	-0.608795	0.303857	-0.654510	2.780762	-85.746731	123.956147	-0.041426	0.061518	0.997246	-0.801465	-0.598031	0.003598	0.596605	-0.799109	0.074078
42729														9.549550	0.086568	0.649292	0.159154	0.001443	0.010890	1.000000	-0.000034	-0.000430	0.000001	-0.329512	-0.609095	0.304022	-0.654214	2.831154	-85.800047	123.902473	-0.040850	0.060786	0.997315	-0.801499	-0.597986	0.003617	0.596600	-0.799199	0.073148
42730														9.645985	0.059461	0.604023	0.160760	0.000993	0.010163	1.000000	-0.000053	-0.000596	0.000009	-0.329371	-0.609458	0.304266	-0.653833	2.861672	-85.867966	123.863773	-0.040151	0.059832	0.997401	-0.801582	-0.597873	0.003597	0.596535	-0.799354	0.071965
42731														9.712261	0.110832	0.523752	0.161865	0.001851	0.008839	1.000000	-0.000073	-0.000682	0.000022	-0.329209	-0.609904	0.304580	-0.653352	2.903677	-85.952369	123.809528	-0.039276	0.058649	0.997506	-0.801708	-0.597705	0.003576	0.596424	-0.799568	0.070495
42732														9.766560	0.115187	0.433968	0.162771	0.001934	0.007340	1.000000	-0.000123	-0.000659	0.000080	-0.329075	-0.610263	0.304971	-0.652903	2.825155	-86.030308	123.866133	-0.038578	0.057484	0.997601	-0.801932	-0.597405	0.003412	0.596168	-0.799877	0.069145
42733														9.814535	0.132433	0.330422	0.163572	0.002223	0.005605	1.000000	-0.000196	-0.000600	0.000088	-0.328969	-0.610616	0.305388	-0.652431	2.752335	-86.109429	123.912142	-0.037856	0.056309	0.997695	-0.802208	-0.597036	0.003258	0.595844	-0.800236	0.067773
42734														9.862500	0.135987	0.275569	0.164373	0.002284	0.004665	1.000000	-0.000259	-0.000444	0.000098	-0.328983	-0.610780	0.305819	-0.652067	2.607110	-86.163287	124.017795	-0.037435	0.055462	0.997759	-0.802615	-0.596489	0.003044	0.595321	-0.800703	0.066844
42735														9.868712	0.114938	0.263373	0.164477	0.001932	0.004428	1.000000	-0.000327	-0.000236	0.000091	-0.329076	-0.610831	0.306207	-0.651791	2.466524	-86.198080	124.115300	-0.037189	0.054897	0.997799	-0.803060	-0.595892	0.002854	0.594737	-0.801186	0.066246
42736														9.827214	0.058821	0.287331	0.163787	0.000991	0.004782	1.000000	-0.000342	0.000042	0.000054	-0.329299	-0.610717	0.306511	-0.651643	2.376584	-86.203717	124.157546	-0.037174	0.054788	0.997806	-0.803553	-0.595226	0.002746	0.594071	-0.801688	0.066152
42737														9.935210	0.025030	0.364640	0.165589	0.000430	0.006007	1.000000	-0.000341	0.000424	0.000067	-0.329597	-0.610346	0.306653	-0.651772	2.226641	-86.162161	124.266881	-0.037686	0.055315	0.997757	-0.803973	-0.594660	0.002601	0.593470	-0.802072	0.066882
42738														9.959143	-0.021356	0.475481	0.165993	-0.000322	0.007774	1.000000	-0.000271	0.000910	0.000193	-0.329909	-0.609641	0.306654	-0.652274	1.842988	-86.064220	124.620431	-0.038996	0.056485	0.997642	-0.804280	-0.594247	0.002207	0.592970	-0.802297	0.068603
42739														9.862455	0.011457	0.573137	0.164386	0.000239	0.009340	0.999999	-0.000230	0.001290	0.000282	-0.330295	-0.608662	0.306600	-0.653018	1.326023	-85.924364	125.104761	-0.040872	0.058145	0.997471	-0.804609	-0.593803	0.001645	0.592397	-0.802507	0.071054
42740														9.711135	0.026759	0.713510	0.161871	0.000498	0.011636	0.999999	-0.000199	0.001580	0.000305	-0.330732	-0.607487	0.306437	-0.653967	0.797530	-85.749314	125.605153	-0.043153	0.060263	0.997249	-0.804888	-0.593425	0.001032	0.591855	-0.802630	0.074113
42741														9.642611	-0.001643	0.826500	0.160734	0.000027	0.013495	0.999998	-0.000204	0.001741	0.000324	-0.331205	-0.606208	0.306235	-0.655008	0.285575	-85.557037	126.088809	-0.045631	0.062601	0.996995	-0.805168	-0.593047	0.000386	0.591289	-0.802731	0.077466
42742														9.501839	-0.041042	0.899688	0.158390	-0.000629	0.014724	0.999998	-0.000198	0.001709	0.000331	-0.331666	-0.604913	0.306031	-0.656066	-0.209185	-85.362548	126.556293	-0.048156	0.064945	0.996726	-0.805434	-0.592685	-0.000295	0.590726	-0.802812	0.080850
42743														9.378352	-0.096849	1.006776	0.156332	-0.001559	0.016539	0.999999	-0.000160	0.001538	0.000338	-0.332020	-0.603771	0.305848	-0.657024	-0.663983	-85.190580	126.991955	-0.050448	0.066966	0.996479	-0.805615	-0.592439	-0.000972	0.590288	-0.802827	0.083836
42744														9.500078	-0.138705	1.097969	0.158358	-0.002265	0.018099	0.999999	-0.000128	0.001269	0.000281	-0.332329	-0.602837	0.305725	-0.657782	-1.010118	-85.051972	127.318249	-0.052290	0.068595	0.996273	-0.805804	-0.592180	-0.001521	0.589869	-0.802881	0.086239
42745														9.598639	-0.144512	1.153130	0.159997	-0.002363	0.019062	0.999999	-0.000091	0.000980	0.000271	-0.332480	-0.602117	0.305609	-0.658419	-1.334927	-84.943307	127.637487	-0.053825	0.069798	0.996108	-0.805846	-0.592121	-0.002053	0.589673	-0.802821	0.088117
42746														9.591315	-0.141248	1.134301	0.159868	-0.002315	0.018801	1.000000	0.000008	0.000654	0.000244	-0.332555	-0.601621	0.305578	-0.658848	-1.612474	-84.871911	127.909365	-0.054918	0.070521	0.995997	-0.805891	-0.592058	-0.002515	0.589511	-0.802804	0.089347
42747														9.519038	-0.125840	1.114944	0.158655	-0.002071	0.018545	1.000000	0.000055	0.000237	0.000174	-0.332495	-0.601452	0.305592	-0.659027	-1.803896	-84.848853	128.104448	-0.055405	0.070649	0.995961	-0.805844	-0.592121	-0.002826	0.589530	-0.802746	0.089739
42748														9.632898	-0.098931	1.099600	0.160547	-0.001630	0.018343	1.000000	0.000112	-0.000103	0.000132	-0.332305	-0.601568	0.305647	-0.658991	-1.940388	-84.868455	128.253688	-0.055378	0.070237	0.995992	-0.805707	-0.592307	-0.003029	0.589720	-0.802645	0.089391
42749														9.610289	-0.095057	1.050411	0.160165	-0.001573	0.017563	1.000000	0.000166	-0.000353	0.000086	-0.332063	-0.601861	0.305741	-0.658802	-2.026872	-84.915341	128.354666	-0.054996	0.069500	0.996065	-0.805555	-0.592513	-0.003135	0.589964	-0.802557	0.088572
42750														9.612637	-0.063881	0.968216	0.160201	-0.001047	0.016231	1.000000	0.000174	-0.000589	0.000126	-0.331726	-0.602268	0.305926	-0.658514	-2.187805	-84.984251	128.530982	-0.054463	0.068394	0.996171	-0.805391	-0.592735	-0.003338	0.590237	-0.802489	0.087366
42751														9.657031	-0.023110	0.890031	0.160938	-0.000356	0.014965	1.000000	0.000157	-0.000813	0.000194	-0.331273	-0.602808	0.306230	-0.658106	-2.455789	-85.079729	128.814533	-0.053760	0.066830	0.996315	-0.805222	-0.592962	-0.003675	0.590532	-0.802452	0.085691
42752														9.647875	0.014339	0.797225	0.160785	0.000270	0.013443	1.000000	0.000070	-0.000971	0.000198	-0.330791	-0.603453	0.306626	-0.657573	-2.754487	-85.196055	129.123585	-0.052844	0.064969	0.996487	-0.805107	-0.593116	-0.004025	0.590771	-0.802492	0.083650
42753														9.656318	-0.000133	0.705015	0.160925	0.000029	0.011929	0.999999	-0.000016	-0.001110	0.000194	-0.330349	-0.604127	0.307137	-0.656938	-3.089675	-85.324423	129.455178	-0.051800	0.062938	0.996672	-0.805137	-0.593073	-0.004393	0.590823	-0.802685	0.081395
42754														9.676406	-0.023202	0.613498	0.161262	-0.000350	0.010408	0.999999	-0.000076	-0.001136	0.000225	-0.329910	-0.604816	0.307722	-0.656250	-3.488132	-85.460023	129.843147	-0.050713	0.060775	0.996862	-0.805237	-0.592933	-0.004816	0.590780	-0.802955	0.079008
42755														9.684192	-0.038255	0.520008	0.161394	-0.000603	0.008839	0.999999	-0.000136	-0.001067	0.000209	-0.329545	-0.605438	0.308320	-0.655579	-3.888212	-85.587090	130.224595	-0.049689	0.058748	0.997035	-0.805422	-0.592678	-0.005218	0.590615	-0.803294	0.076767
42756														9.685184	-0.077621	0.467009	0.161412	-0.001260	0.007938	1.000000	-0.000196	-0.000953	0.000197	-0.329247	-0.605960	0.308894	-0.654976	-4.293620	-85.698481	130.607070	-0.048818	0.056943	0.997183	-0.805652	-0.592362	-0.005615	0.590374	-0.803657	0.074795
42757														9.685730	-0.146714	0.402987	0.161424	-0.002413	0.006849	1.000000	-0.000180	-0.000816	0.000195	-0.328976	-0.606405	0.309407	-0.654458	-4.695828	-85.794847	130.989075	-0.048097	0.055350	0.997308	-0.805853	-0.592085	-0.006003	0.590158	-0.803973	0.073082
42758														9.835275	-0.219259	0.396942	0.163918	-0.003628	0.006717	1.000000	-0.000122	-0.000617	0.000156	-0.328750	-0.606751	0.309788	-0.654071	-5.023283	-85.868465	131.303792	-0.047554	0.054123	0.997401	-0.805979	-0.591910	-0.006308	0.590030	-0.804185	0.071770
42759														9.949267	-0.216794	0.375725	0.165819	-0.003602	0.006314	1.000000	-0.000031	-0.000314	0.000065	-0.328634	-0.606952	0.309966	-0.653858	-5.160357	-85.908395	131.435952	-0.047219	0.053492	0.997451	-0.806029	-0.591842	-0.006418	0.589990	-0.804277	0.071062
42760														9.931308	-0.227946	0.428994	0.165521	-0.003807	0.007153	1.000000	0.000090	-0.000020	-0.000044	-0.328576	-0.607025	0.309865	-0.653867	-5.080661	-85.912020	131.370726	-0.047116	0.053498	0.997456	-0.805882	-0.592043	-0.006313	0.590198	-0.804129	0.071008
42761														9.866098	-0.135016	0.438800	0.164436	-0.002288	0.007281	1.000000	0.000158	0.000196	-0.000223	-0.328708	-0.607039	0.309593	-0.653917	-4.665689	-85.897059	130.968263	-0.046910	0.054024	0.997437	-0.805765	-0.592207	-0.005820	0.590375	-0.803973	0.071312
42762														9.776504	-0.055527	0.521503	0.162945	-0.000983	0.008625	1.000000	0.000181	0.000409	-0.000344	-0.328958	-0.606944	0.309143	-0.654091	-4.043559	-85.855184	130.363456	-0.046809	0.055072	0.997385	-0.805603	-0.592434	-0.005097	0.590603	-0.803735	0.072098
42763														9.650699	0.015613	0.567103	0.160850	0.000185	0.009368	1.000000	0.000139	0.000523	-0.000459	-0.329332	-0.606814	0.308610	-0.654276	-3.246020	-85.802740	129.579462	-0.046633	0.056411	0.997318	-0.805486	-0.592601	-0.004144	0.590777	-0.803519	0.073073
42764														9.662053	0.081754	0.626948	0.161041	0.001284	0.010353	1.000000	0.000052	0.000595	-0.000483	-0.329831	-0.606635	0.308140	-0.654413	-2.417294	-85.747330	128.747124	-0.046412	0.057835	0.997247	-0.805547	-0.592523	-0.003128	0.590711	-0.803475	0.074089
42765														9.714629	0.049664	0.682662	0.161918	0.000756	0.011269	1.000000	-0.000020	0.000671	-0.000447	-0.330373	-0.606308	0.307683	-0.654656	-1.698753	-85.671406	128.019304	-0.046488	0.059461	0.997148	-0.805664	-0.592369	-0.002237	0.590546	-0.803470	0.075443
42766														9.719347	0.019241	0.717521	0.161998	0.000264	0.011837	1.000000	-0.000060	0.000751	-0.000354	-0.330850	-0.605966	0.307265	-0.654928	-1.122325	-85.595281	127.436110	-0.046686	0.060983	0.997046	-0.805751	-0.592253	-0.001504	0.590412	-0.803441	0.076786
42767														9.706104	0.069022	0.763361	0.161778	0.001102	0.012599	1.000000	-0.000083	0.000763	-0.000307	-0.331363	-0.605558	0.306919	-0.655209	-0.640730	-85.514550	126.937723	-0.046998	0.062509	0.996937	-0.805939	-0.591998	-0.000875	0.590130	-0.803511	0.078201
42768														9.674463	0.071295	0.832257	0.161252	0.001152	0.013748	1.000000	-0.000114	0.000759	-0.000236	-0.331832	-0.605136	0.306631	-0.655496	-0.276363	-85.435742	126.555361	-0.047396	0.063923	0.996829	-0.806136	-0.591730	-0.000384	0.589829	-0.803598	0.079576
42769														9.679541	-0.003476	0.813167	0.161334	-0.000088	0.013454	1.000000	-0.000137	0.000615	-0.000201	-0.332281	-0.604760	0.306446	-0.655703	0.018163	-85.370423	126.235554	-0.047710	0.065103	0.996737	-0.806407	-0.591361	0.000026	0.589433	-0.803775	0.080713
42770														9.536556	-0.159776	0.711991	0.158944	-0.002694	0.011838	1.000000	-0.000004	0.000178	-0.000198	-0.332493	-0.604733	0.306309	-0.655684	0.321827	-85.356936	125.924826	-0.047494	0.065551	0.996718	-0.806490	-0.591248	0.000455	0.589337	-0.803822	0.080947
42771														9.465807	-0.328957	0.647263	0.157756	-0.005529	0.010871	1.000000	0.000276	-0.000538	-0.000276	-0.332315	-0.605314	0.306136	-0.655319	0.772974	-85.425266	125.506950	-0.046324	0.064928	0.996814	-0.806161	-0.591696	0.001076	0.589881	-0.803542	0.079752
42772														9.567789	-0.201963	0.719374	0.159449	-0.003445	0.012154	0.999999	0.000671	-0.001044	-0.000445	-0.331916	-0.606352	0.305806	-0.654715	1.537126	-85.545509	124.811390	-0.044338	0.063768	0.996979	-0.805473	-0.592629	0.002083	0.590972	-0.802948	0.077639
42773														9.754552	-0.046233	0.714957	0.162562	-0.000881	0.012097	0.999999	0.000889	-0.001118	-0.000615	-0.331448	-0.607577	0.305238	-0.654081	2.628108	-85.673534	123.817053	-0.041985	0.062676	0.997150	-0.804499	-0.593945	0.003459	0.592469	-0.802061	0.075360
42774														9.928078	0.172762	0.803374	0.165460	0.002747	0.013511	0.999999	0.000949	-0.000720	-0.000721	-0.331101	-0.608611	0.304411	-0.653681	3.910369	-85.754717	122.642922	-0.039930	0.062334	0.997256	-0.803404	-0.595413	0.005048	0.594094	-0.800998	0.073854
42775														9.981908	0.295128	0.796723	0.166365	0.004783	0.013324	0.999999	0.000805	-0.000249	-0.000753	-0.331037	-0.609283	0.303525	-0.653500	5.209608	-85.779306	121.430343	-0.038379	0.062800	0.997288	-0.802530	-0.596574	0.006683	0.595376	-0.800097	0.073294
42776														9.915905	0.333879	0.755079	0.165269	0.005454	0.012579	1.000000	0.000616	0.000056	-0.000620	-0.331093	-0.609664	0.302747	-0.653477	6.254342	-85.770712	120.450907	-0.037375	0.063575	0.997277	-0.801871	-0.597443	0.008034	0.596327	-0.799387	0.073309
42777														9.819716	0.335326	0.759530	0.163667	0.005529	0.012620	1.000000	0.000377	0.000247	-0.000339	-0.331196	-0.609735	0.302250	-0.653588	6.796900	-85.741371	119.943596	-0.037066	0.064346	0.997239	-0.801516	-0.597909	0.008789	0.596823	-0.798977	0.073737
42778														9.759538	0.344563	0.720332	0.162663	0.005728	0.011951	1.000000	0.000155	0.000340	-0.000078	-0.331276	-0.609593	0.302011	-0.653790	6.887687	-85.703873	119.866521	-0.037304	0.064962	0.997190	-0.801378	-0.598091	0.008984	0.596994	-0.798791	0.074371
42779														9.687848	0.283303	0.701101	0.161468	0.004748	0.011615	1.000000	-0.000052	0.000434	0.000161	-0.331342	-0.609281	0.302024	-0.654042	6.598448	-85.663324	120.147823	-0.037977	0.065389	0.997137	-0.801458	-0.597988	0.008689	0.596844	-0.798833	0.075116
42780														9.622119	0.247689	0.663871	0.160372	0.004184	0.010992	1.000000	-0.000253	0.000445	0.000332	-0.331419	-0.608835	0.302260	-0.654309	6.027948	-85.621811	120.689200	-0.038962	0.065648	0.997082	-0.801753	-0.597602	0.008017	0.596384	-0.799101	0.075917
42781														9.663813	0.196465	0.674399	0.161067	0.003351	0.011165	1.000000	-0.000392	0.000459	0.000450	-0.331510	-0.608275	0.302644	-0.654606	5.260143	-85.575741	121.412985	-0.040206	0.065835	0.997020	-0.802198	-0.597016	0.007072	0.595702	-0.799523	0.076816
42782														9.723229	0.146338	0.695826	0.162059	0.002524	0.011512	1.000000	-0.000511	0.000518	0.000487	-0.331649	-0.607651	0.303104	-0.654902	4.444996	-85.525746	122.172720	-0.041539	0.066032	0.996952	-0.802759	-0.596273	0.006046	0.594855	-0.800061	0.077776
42783														9.717021	0.071114	0.692376	0.161956	0.001265	0.011445	1.000000	-0.000581	0.000582	0.000450	-0.331925	-0.606939	0.303601	-0.655193	3.685110	-85.465109	122.861299	-0.042902	0.066415	0.996869	-0.803484	-0.595305	0.005082	0.593779	-0.800751	0.078903
42784														9.721829	0.029515	0.745635	0.162038	0.000564	0.012322	1.000000	-0.000583	0.000649	0.000399	-0.332200	-0.606238	0.304008	-0.655514	3.016767	-85.398762	123.466420	-0.044237	0.066921	0.996777	-0.804125	-0.594445	0.004222	0.592812	-0.801347	0.080109
42785														9.691047	-0.022051	0.759274	0.161526	-0.000307	0.012546	1.000000	-0.000600	0.000673	0.000330	-0.332587	-0.605531	0.304424	-0.655777	2.474547	-85.331466	123.934263	-0.045436	0.067528	0.996682	-0.804883	-0.593424	0.003514	0.591692	-0.802052	0.081315
42786														9.690271	-0.058565	0.758623	0.161513	-0.000927	0.012541	1.000000	-0.000521	0.000639	0.000262	-0.332930	-0.604872	0.304720	-0.656074	2.028366	-85.261845	124.320918	-0.046573	0.068221	0.996583	-0.805487	-0.592606	0.002924	0.590781	-0.802598	0.082550
42787														9.677922	-0.090763	0.734800	0.161306	-0.001478	0.012151	1.000000	-0.000460	0.000598	0.000179	-0.333291	-0.604262	0.304941	-0.656350	1.705895	-85.193298	124.589117	-0.047569	0.068983	0.996483	-0.806039	-0.591857	0.002494	0.589947	-0.803086	0.083757
42788														9.604938	-0.112992	0.770524	0.160088	-0.001867	0.012767	1.000000	-0.000337	0.000474	0.000075	-0.333556	-0.603882	0.305041	-0.656519	1.575835	-85.147814	124.684996	-0.048135	0.069554	0.996416	-0.806389	-0.591381	0.002326	0.589423	-0.803387	0.084553
42789														9.603883	-0.132586	0.804710	0.160069	-0.002218	0.013361	1.000000	-0.000185	0.000323	-0.000067	-0.333832	-0.603667	0.305050	-0.656572	1.665221	-85.118384	124.569001	-0.048284	0.070073	0.996373	-0.806667	-0.591001	0.002473	0.589030	-0.803622	0.085061
42790														9.621310	-0.127604	0.819335	0.160357	-0.002156	0.013635	1.000000	-0.000008	0.000129	-0.000185	-0.333966	-0.603685	0.304887	-0.656564	1.925151	-85.108697	124.311547	-0.048064	0.070428	0.996358	-0.806651	-0.591021	0.002864	0.589071	-0.803576	0.085218
42791														9.633422	-0.057649	0.803130	0.160557	-0.001008	0.013387	1.000000	0.000175	-0.000009	-0.000279	-0.334026	-0.603866	0.304604	-0.656498	2.334090	-85.112764	123.922989	-0.047545	0.070694	0.996364	-0.806454	-0.591286	0.003470	0.589382	-0.803357	0.085124
42792														9.609606	0.068132	0.789889	0.160158	0.001081	0.013197	1.000000	0.000286	-0.000200	-0.000319	-0.334015	-0.604193	0.304304	-0.656342	2.814140	-85.135332	123.471655	-0.046771	0.070739	0.996398	-0.806173	-0.591666	0.004163	0.589829	-0.803074	0.084700
42793														9.644867	0.139962	0.832005	0.160744	0.002278	0.013922	1.000000	0.000246	-0.000342	-0.000316	-0.333964	-0.604631	0.304074	-0.656071	3.315518	-85.177912	122.996830	-0.045780	0.070503	0.996461	-0.805912	-0.592015	0.004862	0.590263	-0.802837	0.083921
42794														9.729098	0.137465	0.828517	0.162147	0.002256	0.013871	1.000000	0.000185	-0.000384	-0.000203	-0.333887	-0.605029	0.303983	-0.655784	3.670255	-85.225296	122.658236	-0.044917	0.070078	0.996530	-0.805754	-0.592227	0.005328	0.590545	-0.802718	0.083067
42795														9.771356	0.151266	0.829821	0.162851	0.002510	0.013887	1.000000	0.000130	-0.000344	-0.000055	-0.333763	-0.605332	0.304007	-0.655557	3.814471	-85.268388	122.524100	-0.044350	0.069551	0.996592	-0.805651	-0.592364	0.005488	0.590727	-0.802662	0.082306
42796														9.754409	0.142867	0.793551	0.162570	0.002395	0.013270	1.000000	0.000056	-0.000269	0.000090	-0.333629	-0.605480	0.304144	-0.655425	3.724668	-85.299108	122.614212	-0.044172	0.069031	0.996636	-0.805644	-0.592376	0.005324	0.590751	-0.802699	0.081781
42797														9.748989	0.129212	0.781152	0.162480	0.002186	0.013051	1.000000	0.000005	-0.000195	0.000197	-0.333427	-0.605600	0.304333	-0.655329	3.500294	-85.330241	122.840451	-0.044150	0.068401	0.996680	-0.805617	-0.592416	0.004971	0.590789	-0.802723	0.081261
42798														9.731786	0.116645	0.748068	0.162195	0.001985	0.012483	1.000000	-0.000058	-0.000097	0.000247	-0.333302	-0.605601	0.304591	-0.655273	3.192820	-85.349929	123.136276	-0.044315	0.067886	0.996708	-0.805728	-0.592269	0.004515	0.590626	-0.802876	0.080944
42799														9.732276	0.105768	0.726358	0.162203	0.001813	0.012119	1.000000	-0.000121	-0.000082	0.000300	-0.333187	-0.605551	0.304918	-0.655224	2.799010	-85.367660	123.511120	-0.044588	0.067337	0.996733	-0.805912	-0.592023	0.003944	0.590354	-0.803103	0.080665
42800														9.708707	0.061286	0.714141	0.161811	0.001077	0.011902	1.000000	-0.000144	0.000003	0.000335	-0.333047	-0.605414	0.305210	-0.655287	2.316574	-85.370757	123.979882	-0.045108	0.066926	0.996738	-0.806039	-0.591854	0.003262	0.590142	-0.803262	0.080642
42801														9.714798	0.035397	0.709065	0.161914	0.000648	0.011811	1.000000	-0.000196	0.000038	0.000347	-0.332986	-0.605245	0.305577	-0.655303	1.837311	-85.374411	124.431305	-0.045598	0.066516	0.996743	-0.806311	-0.591486	0.002586	0.589731	-0.803567	0.080603
42802														9.780716	-0.036512	0.697100	0.163014	-0.000555	0.011597	1.000000	-0.000146	0.000132	0.000316	-0.332911	-0.605048	0.305834	-0.655403	1.393911	-85.366120	124.858065	-0.046174	0.066293	0.996731	-0.806470	-0.591272	0.001965	0.589470	-0.803743	0.080764
42803														9.756679	-0.080748	0.689111	0.162614	-0.001296	0.011448	1.000000	-0.000086	0.000231	0.000299	-0.332838	-0.604816	0.306007	-0.655574	0.982572	-85.346586	125.259901	-0.046834	0.066245	0.996704	-0.806555	-0.591158	0.001391	0.589301	-0.803831	0.081116
42804														9.756671	-0.067131	0.667784	0.162615	-0.001077	0.011079	1.000000	-0.000015	0.000311	0.000256	-0.332765	-0.604555	0.306069	-0.655822	0.629112	-85.315114	125.613662	-0.047561	0.066399	0.996659	-0.806541	-0.591178	0.000897	0.589263	-0.803803	0.081671
42805														9.744553	-0.068629	0.652402	0.162414	-0.001114	0.010807	1.000000	0.000083	0.000407	0.000187	-0.332726	-0.604303	0.306015	-0.656099	0.405956	-85.276515	125.844495	-0.048221	0.066751	0.996604	-0.806454	-0.591296	0.000583	0.589327	-0.803687	0.082345
42806														9.732635	-0.019730	0.625695	0.162216	-0.000310	0.010346	1.000000	0.000105	0.000507	0.000120	-0.332731	-0.604008	0.305855	-0.656443	0.269359	-85.224366	125.994106	-0.048929	0.067359	0.996528	-0.806315	-0.591486	0.000391	0.589459	-0.803497	0.083253
42807														9.804172	-0.002260	0.611391	0.163409	-0.000031	0.010088	1.000000	0.000145	0.000626	0.000051	-0.332801	-0.603642	0.305588	-0.656868	0.220110	-85.154730	126.059774	-0.049719	0.068282	0.996426	-0.806144	-0.591719	0.000324	0.589627	-0.803247	0.084465
42808														9.814957	0.018585	0.641599	0.163592	0.000317	0.010555	1.000000	0.000141	0.000843	0.000056	-0.332960	-0.603124	0.305272	-0.657411	0.169285	-85.060583	126.122880	-0.050759	0.069550	0.996286	-0.806016	-0.591894	0.000254	0.589714	-0.803009	0.086102
42809														9.831650	0.044690	0.663778	0.163872	0.000755	0.010893	0.999999	0.000111	0.001036	0.000069	-0.333162	-0.602496	0.304906	-0.658053	0.109881	-84.947936	126.194584	-0.052003	0.071067	0.996115	-0.805887	-0.592070	0.000169	0.589782	-0.802747	0.088061
42810														9.848726	0.035043	0.656875	0.164159	0.000599	0.010740	0.999999	0.000090	0.001270	0.000096	-0.333451	-0.601680	0.304506	-0.658838	0.013564	-84.806746	126.297824	-0.053583	0.072951	0.995895	-0.805811	-0.592173	0.000021	0.589743	-0.802502	0.090515
42811														9.871366	0.035689	0.662761	0.164539	0.000614	0.010796	0.999999	0.000096	0.001519	0.000124	-0.333801	-0.600676	0.304037	-0.659793	-0.116943	-84.635020	126.435137	-0.055531	0.075223	0.995619	-0.805735	-0.592276	-0.000191	0.589667	-0.802216	0.093500
42812														9.941387	0.027440	0.678328	0.165710	0.000482	0.010996	0.999998	0.000100	0.001868	0.000158	-0.334207	-0.599466	0.303459	-0.660953	-0.267210	-84.427400	126.596087	-0.057892	0.077963	0.995274	-0.805617	-0.592437	-0.000453	0.589602	-0.801835	0.097106
42813														9.946311	-0.036048	0.660764	0.165796	-0.000565	0.010637	0.999997	0.000146	0.002266	0.000227	-0.334657	-0.597976	0.302754	-0.662396	-0.480708	-84.172563	126.826317	-0.060858	0.081272	0.994832	-0.805431	-0.592689	-0.000852	0.589557	-0.801320	0.101529
42814														9.859033	-0.056747	0.710979	0.164348	-0.000905	0.011412	0.999996	0.000248	0.002662	0.000268	-0.335150	-0.596231	0.301880	-0.664117	-0.704537	-83.871358	127.076807	-0.064365	0.085177	0.994285	-0.805139	-0.593085	-0.001313	0.589584	-0.800621	0.106753
42815														9.885350	-0.048027	0.754191	0.164793	-0.000762	0.012067	0.999995	0.000374	0.003048	0.000261	-0.335707	-0.594263	0.300801	-0.666087	-0.875120	-83.525845	127.285253	-0.068305	0.089711	0.993623	-0.804730	-0.593639	-0.001722	0.589698	-0.799716	0.112742
42816														10.061963	-0.025998	0.896287	0.167751	-0.000396	0.014346	0.999994	0.000453	0.003528	0.000259	-0.336323	-0.592012	0.299481	-0.668371	-1.011896	-83.126147	127.474249	-0.072816	0.094984	0.992812	-0.804170	-0.594395	-0.002114	0.589922	-0.798544	0.119665
42817														10.152055	0.050434	0.956175	0.169264	0.000882	0.015245	0.999991	0.000529	0.004089	0.000295	-0.337026	-0.589403	0.297936	-0.671008	-1.142758	-82.663171	127.667235	-0.078036	0.101086	0.991813	-0.803503	-0.595295	-0.002547	0.590164	-0.797123	0.127677
42818														10.134176	0.042693	1.002570	0.168979	0.000753	0.015913	0.999989	0.000534	0.004716	0.000295	-0.337923	-0.586365	0.296183	-0.673988	-1.236842	-82.129488	127.821294	-0.083968	0.108168	0.990580	-0.802855	-0.596168	-0.002956	0.590232	-0.795540	0.136903
42819														10.042707	0.010339	1.062815	0.167470	0.000223	0.016816	0.999985	0.000541	0.005363	0.000357	-0.338946	-0.582872	0.294230	-0.677351	-1.348612	-81.522648	127.995790	-0.090751	0.116174	0.989074	-0.802168	-0.597088	-0.003470	0.590162	-0.793719	0.147378
42820														9.732509	0.096507	1.220972	0.162324	0.001655	0.019398	0.999983	0.000533	0.005869	0.000352	-0.340136	-0.578974	0.292107	-0.681006	-1.439063	-80.852571	128.145181	-0.098192	0.125026	0.987283	-0.801515	-0.597962	-0.003992	0.589858	-0.791713	0.158925
42821														9.756091	0.107084	1.370181	0.162739	0.001833	0.021825	0.999981	0.000424	0.006220	0.000353	-0.341457	-0.574810	0.289918	-0.684798	-1.515087	-80.145765	128.270741	-0.106002	0.134362	0.985246	-0.800953	-0.598710	-0.004525	0.589269	-0.789616	0.171082
42822														9.771919	-0.002833	1.505794	0.163025	0.000011	0.024032	0.999979	0.000362	0.006532	0.000412	-0.342867	-0.570348	0.287695	-0.688750	-1.617566	-79.400551	128.413688	-0.114290	0.144127	0.982937	-0.800473	-0.599347	-0.005192	0.588372	-0.787408	0.183869
42823														9.739657	-0.056564	1.626795	0.162510	-0.000875	0.025994	0.999976	0.000401	0.006886	0.000481	-0.344262	-0.565645	0.285340	-0.692900	-1.731597	-78.618272	128.577484	-0.123059	0.154277	0.980334	-0.799881	-0.600129	-0.005963	0.587407	-0.784884	0.197255
42824														9.628886	-0.088748	1.693254	0.160679	-0.001412	0.027067	0.999974	0.000458	0.007180	0.000496	-0.345711	-0.560736	0.282849	-0.697177	-1.813842	-77.804401	128.712661	-0.132119	0.164837	0.977432	-0.799250	-0.600961	-0.006687	0.586297	-0.782096	0.211144
42825														9.486106	-0.048346	1.887991	0.158327	-0.000745	0.030309	0.999973	0.000482	0.007310	0.000480	-0.347208	-0.555687	0.280282	-0.701499	-1.870183	-76.971881	128.820563	-0.141318	0.175635	0.974260	-0.798630	-0.601778	-0.007357	0.584995	-0.779112	0.225309
42826														9.271009	-0.036397	2.053629	0.154757	-0.000551	0.033120	0.999974	0.000482	0.007155	0.000464	-0.348628	-0.550728	0.277736	-0.705705	-1.916469	-76.157391	128.921572	-0.150314	0.186142	0.970957	-0.797972	-0.602642	-0.008001	0.583650	-0.775999	0.239122
42827														9.347384	-0.035892	2.267175	0.156048	-0.000535	0.036702	0.999976	0.000448	0.006949	0.000510	-0.349959	-0.545870	0.275296	-0.709765	-1.979769	-75.367044	129.036946	-0.159109	0.196225	0.967564	-0.797329	-0.603482	-0.008727	0.582195	-0.772855	0.252475
42828														9.430877	-0.015664	2.398881	0.157448	-0.000189	0.038913	0.999977	0.000424	0.006786	0.000563	-0.351184	-0.541091	0.272944	-0.713717	-2.063764	-74.596362	129.173244	-0.167782	0.205917	0.964079	-0.796667	-0.604343	-0.009565	0.580664	-0.769654	0.265445
42829														9.452680	-0.082690	2.522046	0.157825	-0.001300	0.040968	0.999977	0.000397	0.006753	0.000600	-0.352411	-0.536278	0.270632	-0.717615	-2.147852	-73.827802	129.303534	-0.176426	0.215523	0.960429	-0.796058	-0.605130	-0.010439	0.578935	-0.766399	0.278329
42830														9.492191	-0.152744	2.641359	0.158502	-0.002477	0.042935	0.999976	0.000448	0.006861	0.000559	-0.353654	-0.531363	0.268213	-0.721556	-2.205659	-73.043519	129.412115	-0.185164	0.225325	0.956527	-0.795400	-0.605982	-0.011224	0.577108	-0.762899	0.291429
42831														9.467958	-0.160965	2.742844	0.158115	-0.002624	0.044608	0.999975	0.000466	0.006989	0.000502	-0.354935	-0.526382	0.265686	-0.725502	-2.227165	-72.248145	129.487347	-0.193885	0.235307	0.952386	-0.794718	-0.606863	-0.011849	0.575180	-0.759175	0.304665
42832														9.329968	-0.204545	2.895463	0.155834	-0.003384	0.047162	0.999975	0.000554	0.007025	0.000333	-0.356285	-0.521425	0.262981	-0.729396	-2.176484	-71.449325	129.497598	-0.202354	0.245496	0.948043	-0.793995	-0.607804	-0.012082	0.573258	-0.755186	0.317914
42833														9.269007	-0.164983	3.008744	0.154830	-0.002751	0.049059	0.999975	0.000605	0.007011	0.000185	-0.357657	-0.516506	0.260165	-0.733224	-2.085421	-70.652865	129.473100	-0.210607	0.255731	0.943529	-0.793239	-0.608791	-0.012055	0.571329	-0.750983	0.331071
42834														9.293942	-0.113724	3.121206	0.155264	-0.001915	0.050915	0.999975	0.000592	0.007113	0.000072	-0.359154	-0.511545	0.257230	-0.736996	-1.947384	-69.848240	129.397785	-0.218659	0.266221	0.938783	-0.792560	-0.609682	-0.011707	0.569243	-0.746602	0.344309
42835														9.338696	-0.132011	3.243398	0.156033	-0.002228	0.052920	0.999973	0.000545	0.007283	0.000005	-0.360765	-0.506406	0.254224	-0.740791	-1.803472	-69.021215	129.307965	-0.226803	0.277020	0.933713	-0.791984	-0.610438	-0.011267	0.566852	-0.742041	0.357845
42836														9.292782	-0.199551	3.348471	0.155296	-0.003361	0.054632	0.999971	0.000552	0.007566	-0.000030	-0.362463	-0.501041	0.251072	-0.744675	-1.650789	-68.161261	129.208895	-0.235157	0.288239	0.928235	-0.791429	-0.611168	-0.010716	0.564218	-0.737151	0.371841
42837														9.270879	-0.247680	3.472675	0.154962	-0.004169	0.056662	0.999969	0.000643	0.007835	-0.000025	-0.364155	-0.495460	0.247749	-0.748686	-1.501409	-67.268545	129.123058	-0.243822	0.299776	0.922326	-0.790775	-0.612023	-0.010125	0.561450	-0.731821	0.386280
42838														9.153476	-0.219593	3.614084	0.153037	-0.003703	0.059000	0.999967	0.000790	0.008055	0.000027	-0.365759	-0.489761	0.244232	-0.752798	-1.349425	-66.354223	129.055177	-0.252709	0.311455	0.916043	-0.789916	-0.613142	-0.009445	0.558722	-0.725984	0.400970
42839														9.030857	-0.109462	3.729572	0.151019	-0.001879	0.060915	0.999966	0.000903	0.008236	0.000002	-0.367378	-0.483920	0.240520	-0.756971	-1.180371	-65.415713	128.980921	-0.261709	0.323404	0.909350	-0.788974	-0.614366	-0.008570	0.555902	-0.719697	0.415943
42840														8.921926	0.029193	3.853314	0.149228	0.000418	0.062979	0.999965	0.000895	0.008344	-0.000079	-0.368990	-0.477984	0.236776	-0.761127	-1.022302	-64.468632	128.916904	-0.270754	0.335347	0.902349	-0.788047	-0.615566	-0.007690	0.552877	-0.713176	0.430937
42841														8.791627	0.118502	3.972905	0.147077	0.001886	0.064982	0.999964	0.000761	0.008402	-0.000268	-0.370830	-0.471936	0.232996	-0.765163	-0.840538	-63.510900	128.806684	-0.279523	0.347574	0.895019	-0.787409	-0.616396	-0.006543	0.549412	-0.706575	0.445980
42842														8.603090	0.094913	4.126275	0.143951	0.001479	0.067576	0.999965	0.000575	0.008320	-0.000441	-0.372858	-0.465908	0.229264	-0.768989	-0.642655	-62.563609	128.655906	-0.287812	0.359816	0.887523	-0.787080	-0.616829	-0.005168	0.545590	-0.700039	0.460735
42843														8.653325	0.073030	4.393972	0.144827	0.001101	0.072028	0.999965	0.000389	0.008336	-0.000612	-0.375099	-0.459784	0.225567	-0.772670	-0.439732	-61.611386	128.472914	-0.295798	0.372230	0.879743	-0.787080	-0.616840	-0.003649	0.541303	-0.693507	0.475435
42844														8.556471	0.069587	4.724333	0.143259	0.001056	0.077545	0.999965	0.000207	0.008346	-0.000612	-0.377377	-0.453594	0.221988	-0.776248	-0.266935	-60.662529	128.302289	-0.303678	0.384491	0.871749	-0.787260	-0.616616	-0.002283	0.536657	-0.686987	0.489947
42845														8.319735	0.024895	5.034792	0.139334	0.000346	0.082790	0.999967	0.000064	0.008077	-0.000458	-0.379527	-0.447460	0.218684	-0.779690	-0.155069	-59.740629	128.178480	-0.311477	0.396122	0.863753	-0.787531	-0.616273	-0.001364	0.531768	-0.680657	0.503913
42846														8.034455	0.028018	5.303060	0.134565	0.000430	0.087378	0.999972	-0.000011	0.007494	-0.000284	-0.381393	-0.441700	0.215756	-0.782873	-0.099382	-58.888781	128.108123	-0.318881	0.406565	0.856166	-0.787763	-0.615978	-0.000896	0.527015	-0.674742	0.516700
42847														7.880101	0.129085	5.476057	0.131943	0.002142	0.090384	0.999978	-0.000152	0.006703	-0.000176	-0.383026	-0.436495	0.213277	-0.785670	-0.081658	-58.131493	128.065507	-0.325527	0.415675	0.849262	-0.788052	-0.615608	-0.000752	0.522500	-0.669507	0.527971
42848														7.888287	0.085406	5.656482	0.132020	0.001441	0.093503	0.999983	-0.000279	0.005851	-0.000065	-0.384429	-0.431842	0.211288	-0.788089	-0.106904	-57.469997	128.052531	-0.331455	0.423442	0.843110	-0.788414	-0.615144	-0.001003	0.518209	-0.665052	0.537740
42849														7.989330	0.056782	5.744064	0.133647	0.000987	0.095045	0.999987	-0.000380	0.005160	0.000036	-0.385641	-0.427688	0.209654	-0.790196	-0.154004	-56.889328	128.055710	-0.336728	0.430130	0.837617	-0.788797	-0.614652	-0.001468	0.514212	-0.661204	0.546256
42850														8.083188	0.009099	5.823454	0.135174	0.000218	0.096423	0.999989	-0.000439	0.004699	0.000180	-0.386688	-0.423821	0.208267	-0.792132	-0.225145	-56.357696	128.081027	-0.341697	0.436080	0.832512	-0.789151	-0.614195	-0.002177	0.510376	-0.657722	0.554002
42851														8.098132	-0.046119	5.826973	0.135390	-0.000689	0.096528	0.999990	-0.000441	0.004348	0.000271	-0.387570	-0.420195	0.207077	-0.793943	-0.316991	-55.866773	128.128630	-0.346451	0.441391	0.827735	-0.789442	-0.613817	-0.003104	0.506708	-0.654524	0.561111
42852														8.105874	-0.107225	5.833419	0.135491	-0.001706	0.096676	0.999992	-0.000368	0.004050	0.000337	-0.388309	-0.416841	0.205926	-0.795647	-0.399879	-55.410736	128.181320	-0.350918	0.446237	0.823243	-0.789591	-0.613621	-0.003962	0.503391	-0.651415	0.567676
42853														8.125789	-0.167713	5.879252	0.135806	-0.002716	0.097468	0.999993	-0.000241	0.003837	0.000413	-0.388886	-0.413665	0.204800	-0.797311	-0.483345	-54.977639	128.250146	-0.355297	0.450689	0.818928	-0.789564	-0.613649	-0.004841	0.500352	-0.648317	0.573876
42854														8.034997	-0.157887	5.878880	0.134272	-0.002557	0.097496	0.999993	-0.000098	0.003622	0.000481	-0.389315	-0.410659	0.203679	-0.798942	-0.563626	-54.565153	128.331829	-0.359586	0.454795	0.814775	-0.789365	-0.613898	-0.005703	0.497595	-0.645206	0.579749
42855														7.923281	-0.139793	5.957453	0.132384	-0.002261	0.098852	0.999994	-0.000008	0.003315	0.000514	-0.389597	-0.407951	0.202616	-0.800460	-0.636403	-54.191221	128.419692	-0.363580	0.458400	0.810974	-0.789029	-0.614322	-0.006499	0.495220	-0.642245	0.585046
42856														7.920529	-0.188556	6.006780	0.132315	-0.003094	0.099709	0.999995	0.000146	0.003049	0.000474	-0.389825	-0.405497	0.201469	-0.801885	-0.676319	-53.842536	128.491264	-0.367217	0.461800	0.807399	-0.788580	-0.614893	-0.006964	0.493247	-0.639256	0.589965
42857														7.951770	-0.147740	6.105242	0.132816	-0.002434	0.101379	0.999996	0.000288	0.002817	0.000435	-0.389917	-0.403294	0.200396	-0.803219	-0.715407	-53.527463	128.572977	-0.370638	0.464740	0.804142	-0.788014	-0.615613	-0.007422	0.491591	-0.636426	0.594391
42858														7.909957	-0.085114	6.119190	0.132098	-0.001407	0.101642	0.999996	0.000370	0.002605	0.000375	-0.390011	-0.401263	0.199288	-0.804465	-0.731998	-53.230751	128.637811	-0.373759	0.467567	0.801053	-0.787435	-0.616351	-0.007647	0.490154	-0.633635	0.598545
42859														7.927396	-0.055683	6.140702	0.132373	-0.000915	0.102021	0.999997	0.000404	0.002446	0.000412	-0.390024	-0.399380	0.198217	-0.805659	-0.747048	-52.953572	128.708325	-0.376753	0.470125	0.798148	-0.786781	-0.617182	-0.007855	0.488910	-0.630927	0.602411
42860														7.857740	0.005504	6.154200	0.131198	0.000114	0.102268	0.999997	0.000402	0.002301	0.000488	-0.389966	-0.397613	0.197171	-0.806817	-0.761098	-52.691371	128.784337	-0.379661	0.472467	0.795382	-0.786058	-0.618100	-0.008051	0.487822	-0.628274	0.606055
42861														7.865820	-0.014154	6.114533	0.131315	-0.000201	0.101627	0.999997	0.000385	0.002145	0.000564	-0.389794	-0.395943	0.196293	-0.807935	-0.800183	-52.449811	128.883609	-0.382580	0.474415	0.792820	-0.785297	-0.619060	-0.008511	0.486766	-0.625855	0.609397
42862														7.884620	-0.058204	6.166028	0.131621	-0.000923	0.102497	0.999998	0.000381	0.002052	0.000655	-0.389553	-0.394314	0.195450	-0.809051	-0.845995	-52.215165	128.993571	-0.385530	0.476199	0.790317	-0.784474	-0.620095	-0.009046	0.485764	-0.623471	0.612631
42863														7.892635	-0.082654	6.149103	0.131752	-0.001325	0.102218	0.999998	0.000422	0.002027	0.000726	-0.389213	-0.392724	0.194634	-0.810184	-0.899950	-51.986551	129.119525	-0.388562	0.477793	0.787866	-0.783543	-0.621262	-0.009673	0.484850	-0.621086	0.615770
42864														7.823666	-0.126228	6.138363	0.130597	-0.002055	0.102048	0.999998	0.000469	0.001967	0.000742	-0.388849	-0.391167	0.193793	-0.811313	-0.948309	-51.760551	129.244822	-0.391569	0.479345	0.785431	-0.782567	-0.622481	-0.010244	0.484006	-0.618664	0.618865
42865														7.875283	-0.134493	6.143806	0.131457	-0.002208	0.102137	0.999998	0.000560	0.001968	0.000688	-0.388491	-0.389666	0.192844	-0.812433	-0.974795	-51.535175	129.357987	-0.394471	0.480956	0.782990	-0.781534	-0.623772	-0.010582	0.483318	-0.616108	0.621944
42866														7.880793	-0.127276	6.205407	0.131555	-0.002100	0.103158	0.999998	0.000583	0.002009	0.000621	-0.388174	-0.388136	0.191879	-0.813544	-0.996788	-51.305986	129.463421	-0.397343	0.482643	0.780496	-0.780544	-0.625007	-0.010876	0.482566	-0.613532	0.625067
42867														7.854563	-0.217236	6.204960	0.131124	-0.003608	0.103144	0.999998	0.000613	0.002058	0.000580	-0.387891	-0.386587	0.190836	-0.814661	-1.005405	-51.070759	129.558506	-0.400181	0.484450	0.777923	-0.779549	-0.626244	-0.011026	0.481828	-0.610841	0.628263
42868														7.786334	-0.156190	6.236928	0.129990	-0.002606	0.103676	0.999997	0.000741	0.002088	0.000569	-0.387555	-0.385076	0.189704	-0.815801	-1.002044	-50.835092	129.655108	-0.403036	0.486234	0.775331	-0.778435	-0.627628	-0.011045	0.481249	-0.607997	0.631458
42869														7.773896	-0.016650	6.264876	0.129785	-0.000297	0.104141	0.999997	0.000714	0.002108	0.000427	-0.387368	-0.383552	0.188486	-0.816889	-0.974201	-50.593801	129.719952	-0.405669	0.488284	0.772665	-0.777461	-0.628839	-0.010793	0.480611	-0.605095	0.634722
42870														7.813950	0.021823	6.319006	0.130465	0.000339	0.105029	0.999997	0.000570	0.002210	0.000273	-0.387350	-0.381944	0.187332	-0.817915	-0.947333	-50.346880	129.762477	-0.408157	0.490538	0.769922	-0.776739	-0.629734	-0.010551	0.479670	-0.602335	0.638051
42871														7.662514	0.012120	6.308927	0.127939	0.000184	0.104868	0.999998	0.000357	0.002199	0.000150	-0.387537	-0.380253	0.186270	-0.818857	-0.922905	-50.095775	129.778177	-0.410447	0.493015	0.767118	-0.776333	-0.630238	-0.010333	0.478373	-0.599780	0.641423
42872														7.586379	-0.058611	6.295226	0.126663	-0.000993	0.104651	0.999998	0.000144	0.002129	-0.000008	-0.387932	-0.378566	0.185309	-0.819669	-0.894691	-49.851155	129.761438	-0.412394	0.495648	0.764372	-0.776254	-0.630340	-0.010068	0.476824	-0.597499	0.644697
42873														7.610201	-0.014404	6.320873	0.127058	-0.000275	0.105080	0.999998	-0.000015	0.002107	-0.000284	-0.388581	-0.376920	0.184410	-0.820322	-0.851017	-49.615031	129.700175	-0.413872	0.498508	0.761708	-0.776539	-0.629995	-0.009623	0.475075	-0.595479	0.647849
42874														7.573304	-0.045286	6.305872	0.126444	-0.000812	0.104830	0.999997	-0.000298	0.002124	-0.000700	-0.389689	-0.375215	0.183569	-0.820767	-0.783374	-49.375899	129.564697	-0.414713	0.501932	0.758997	-0.777443	-0.628890	-0.008902	0.472858	-0.593769	0.651033
42875														7.660370	-0.116524	6.334514	0.127908	-0.002007	0.105289	0.999997	-0.000605	0.002251	-0.001003	-0.391185	-0.373331	0.182815	-0.821083	-0.711779	-49.121556	129.376601	-0.415197	0.505890	0.756100	-0.778892	-0.627105	-0.008130	0.470041	-0.592296	0.654406
42876														7.702502	-0.136813	6.354852	0.128637	-0.002343	0.105594	0.999996	-0.000856	0.002507	-0.001189	-0.392975	-0.371156	0.182108	-0.821371	-0.648183	-48.837081	129.157856	-0.415628	0.510376	0.752841	-0.780737	-0.624815	-0.007446	0.466586	-0.590866	0.658160
42877														7.925143	-0.209735	6.434506	0.132396	-0.003546	0.106857	0.999995	-0.000947	0.002936	-0.001146	-0.394835	-0.368580	0.181334	-0.821810	-0.604278	-48.503794	128.948700	-0.416508	0.515287	0.749000	-0.782632	-0.622446	-0.006988	0.462611	-0.589101	0.662534
42878														7.868979	0.074904	6.539159	0.131528	0.001258	0.108529	0.999993	-0.001041	0.003469	-0.000787	-0.396515	-0.365493	0.180550	-0.822553	-0.615879	-48.112322	128.801744	-0.418382	0.520330	0.744455	-0.784288	-0.620355	-0.007177	0.458092	-0.586870	0.667634
42879														7.362056	0.145428	6.626271	0.123079	0.002514	0.110013	0.999993	-0.001251	0.003427	-0.000385	-0.397928	-0.362276	0.180113	-0.823389	-0.705785	-47.725572	128.725070	-0.420819	0.524798	0.739931	-0.785799	-0.618426	-0.008286	0.453244	-0.584925	0.672631
42880														7.091050	-0.101028	6.721687	0.118512	-0.001561	0.111683	0.999995	-0.001261	0.002934	-0.000151	-0.399063	-0.359404	0.179948	-0.824133	-0.825382	-47.393049	128.687698	-0.423154	0.528415	0.736015	-0.787111	-0.616734	-0.009752	0.448773	-0.583452	0.676895
42881														7.253471	-0.284353	6.861766	0.121170	-0.004614	0.114072	0.999997	-0.001002	0.002437	0.000088	-0.399814	-0.356999	0.179870	-0.824832	-0.948111	-47.118028	128.692518	-0.425402	0.531131	0.732757	-0.787985	-0.615592	-0.011260	0.445099	-0.582192	0.680397
42882														7.410131	-0.291976	6.976674	0.123755	-0.004771	0.116012	0.999997	-0.000590	0.002172	0.000215	-0.400260	-0.354952	0.179610	-0.825555	-1.040139	-46.873526	128.719194	-0.427602	0.533368	0.729846	-0.788380	-0.615064	-0.012409	0.442283	-0.580702	0.683498
42883														7.271196	-0.199638	7.001700	0.121410	-0.003266	0.116464	0.999998	-0.000302	0.001914	0.000215	-0.400577	-0.353218	0.179152	-0.826244	-1.090562	-46.653579	128.740504	-0.429550	0.535390	0.727217	-0.788508	-0.614885	-0.013064	0.440160	-0.579028	0.686283
42884														7.226653	-0.235749	6.994019	0.120629	-0.003883	0.116377	0.999999	-0.000143	0.001577	0.000249	-0.400741	-0.351826	0.178726	-0.826851	-1.129638	-46.473830	128.769904	-0.431251	0.536946	0.725060	-0.788466	-0.614928	-0.013577	0.438569	-0.577541	0.688552
42885														7.124519	-0.249131	6.935320	0.118889	-0.004124	0.115439	0.999999	0.000034	0.001259	0.000273	-0.400768	-0.350750	0.178293	-0.827388	-1.153153	-46.329381	128.804408	-0.432719	0.538109	0.723321	-0.788254	-0.615193	-0.013897	0.437504	-0.576174	0.690372
42886														7.277608	-0.263650	6.899991	0.121410	-0.004383	0.114878	0.999999	0.000177	0.001001	0.000262	-0.400692	-0.349969	0.177875	-0.827846	-1.163231	-46.218731	128.840791	-0.433935	0.538921	0.721986	-0.787923	-0.615613	-0.014046	0.436894	-0.574965	0.691765
42887														7.362747	-0.203262	6.846409	0.122830	-0.003391	0.113980	0.999999	0.000299	0.001024	0.000254	-0.400585	-0.349204	0.177362	-0.828330	-1.161693	-46.104806	128.877011	-0.435176	0.539763	0.720609	-0.787505	-0.616148	-0.014057	0.436415	-0.573600	0.693199
42888														7.352850	-0.034675	6.825122	0.122660	-0.000582	0.113631	0.999999	0.000309	0.000989	0.000257	-0.400480	-0.348448	0.176832	-0.828813	-1.156962	-45.990994	128.911659	-0.436401	0.540612	0.719231	-0.787078	-0.616693	-0.014028	0.435961	-0.572213	0.694630
42889														7.349549	0.045989	6.857849	0.122605	0.000784	0.114177	0.999999	0.000059	0.000983	0.000202	-0.400501	-0.347617	0.176489	-0.829225	-1.173372	-45.879115	128.937165	-0.437523	0.541509	0.717873	-0.786911	-0.616901	-0.014256	0.435137	-0.571139	0.696029
42890														7.307806	-0.267214	6.803637	0.121911	-0.004421	0.113273	0.999999	0.000032	0.000993	0.000299	-0.400451	-0.346762	0.176188	-0.829671	-1.202045	-45.766733	128.977671	-0.438791	0.542293	0.716506	-0.786675	-0.617194	-0.014634	0.434287	-0.570078	0.697428
42891														7.217894	-0.210524	6.771086	0.120408	-0.003494	0.112735	0.999999	0.000251	0.000959	0.000356	-0.400273	-0.346006	0.175737	-0.830167	-1.212287	-45.657238	129.027329	-0.440122	0.542976	0.715171	-0.786200	-0.617796	-0.014788	0.433801	-0.568776	0.698793
42892														6.957170	-0.072518	6.600271	0.116047	-0.001222	0.109905	1.000000	0.000329	0.000851	0.000194	-0.400166	-0.345411	0.175281	-0.830563	-1.204846	-45.565774	129.056497	-0.441117	0.543637	0.714055	-0.785814	-0.618288	-0.014721	0.433489	-0.567607	0.699935
42893														6.887321	-0.291316	6.463224	0.114844	-0.004909	0.107659	1.000000	0.000507	0.000517	0.000007	-0.400103	-0.345208	0.174684	-0.830804	-1.146189	-45.510825	129.051161	-0.441498	0.544210	0.713383	-0.785419	-0.618806	-0.014018	0.433817	-0.566493	0.700634
42894														7.453137	-0.075188	6.621749	0.124286	-0.001334	0.110286	0.999999	0.000802	0.000608	0.000060	-0.399900	-0.345033	0.173893	-0.831140	-1.070106	-45.448605	129.059458	-0.442064	0.544747	0.712621	-0.784743	-0.619682	-0.013102	0.434462	-0.565017	0.701426
42895														7.815588	0.275808	6.916830	0.130393	0.004554	0.115131	0.999999	0.000589	0.001165	0.000191	-0.399763	-0.344292	0.173059	-0.831687	-1.026101	-45.320552	129.084444	-0.443305	0.545789	0.711052	-0.784121	-0.620480	-0.012592	0.434321	-0.563133	0.703027
42896														7.499713	0.141036	7.108233	0.125164	0.002395	0.118291	0.999999	0.000161	0.001439	0.000506	-0.399563	-0.343072	0.172594	-0.832383	-1.070292	-45.158454	129.160892	-0.445301	0.546755	0.709060	-0.783604	-0.621121	-0.013171	0.433210	-0.561487	0.705026
42897														7.110438	-0.194422	7.274631	0.118664	-0.003158	0.121092	0.999999	0.000033	0.001276	0.000729	-0.399190	-0.341918	0.172348	-0.833088	-1.149542	-45.015255	129.271731	-0.447479	0.547263	0.707295	-0.782979	-0.621887	-0.014182	0.432096	-0.560143	0.706776
42898														6.934333	-0.603415	7.304623	0.115673	-0.010056	0.121648	1.000000	0.000377	0.000791	0.000404	-0.398883	-0.341362	0.171920	-0.833551	-1.155828	-44.929585	129.332519	-0.448729	0.547605	0.706237	-0.782353	-0.622672	-0.014281	0.431934	-0.558935	0.707831
42899														7.348025	-0.328319	7.413845	0.122544	-0.005527	0.123485	0.999999	0.000738	0.000610	0.000294	-0.398539	-0.341070	0.171148	-0.833994	-1.100314	-44.855341	129.370823	-0.449675	0.548012	0.705319	-0.781506	-0.623750	-0.013613	0.432483	-0.557332	0.708759
42900														7.237774	0.047744	7.349793	0.120708	0.000762	0.122420	1.000000	0.000633	0.000642	0.000358	-0.398169	-0.340714	0.170531	-0.834443	-1.071556	-44.782144	129.423535	-0.450751	0.548294	0.704413	-0.780703	-0.624761	-0.013274	0.432812	-0.555921	0.709666
42901														7.169682	0.002778	7.252995	0.119563	0.000066	0.120816	1.000000	0.000242	0.000564	0.000412	-0.397873	-0.340274	0.170267	-0.834817	-1.089567	-44.718340	129.483374	-0.451822	0.548428	0.703622	-0.780177	-0.625413	-0.013512	0.432644	-0.555055	0.710446
42902														7.019099	-0.265428	7.116373	0.117033	-0.004408	0.118559	1.000000	0.000191	0.000393	0.000325	-0.397638	-0.339954	0.170110	-0.835092	-1.108588	-44.673783	129.531569	-0.452631	0.548469	0.703069	-0.779788	-0.625893	-0.013758	0.432500	-0.554472	0.710988
42903														6.969219	-0.314869	7.044594	0.116181	-0.005294	0.117381	1.000000	0.000429	0.000230	0.000037	-0.397529	-0.339940	0.169712	-0.835230	-1.065128	-44.651051	129.533050	-0.452823	0.548673	0.702787	-0.779440	-0.626337	-0.013224	0.432926	-0.553769	0.711277
42904														7.074222	0.030143	7.125587	0.117911	0.000464	0.118752	1.000000	0.000334	0.000065	0.000013	-0.397436	-0.340031	0.169510	-0.835279	-1.038612	-44.650432	129.535156	-0.452848	0.548662	0.702780	-0.779216	-0.626622	-0.012895	0.433302	-0.553457	0.711291
42905														7.240088	0.360022	7.263725	0.120686	0.006046	0.121042	1.000000	-0.000226	0.000158	0.000154	-0.397438	-0.339805	0.169729	-0.835325	-1.083419	-44.636712	129.555670	-0.453151	0.548629	0.702609	-0.779329	-0.626471	-0.013455	0.432783	-0.553660	0.711449
42906														6.963688	0.091373	7.178462	0.116081	0.001642	0.119620	1.000000	-0.000869	0.000167	0.000134	-0.397686	-0.339294	0.170439	-0.835270	-1.196222	-44.617205	129.571080	-0.453451	0.548692	0.702367	-0.780008	-0.625593	-0.014860	0.431242	-0.554590	0.711660
42907														6.909344	-0.659706	7.116635	0.115150	-0.010924	0.118622	1.000000	-0.000694	-0.000037	-0.000098	-0.398033	-0.339061	0.171019	-0.835081	-1.265116	-44.622227	129.550504	-0.453215	0.548807	0.702429	-0.780751	-0.624645	-0.015715	0.430144	-0.555544	0.711580
42908														6.908567	-0.530509	7.184449	0.115102	-0.008861	0.119779	1.000000	-0.000063	-0.000327	-0.000235	-0.398225	-0.339362	0.171149	-0.834840	-1.247012	-44.663208	129.509290	-0.452500	0.548745	0.702938	-0.781071	-0.624250	-0.015479	0.430315	-0.556049	0.711083
42909														7.131618	0.076023	7.359502	0.118805	0.001235	0.122712	1.000000	-0.000010	-0.000455	-0.000280	-0.398413	-0.339796	0.171281	-0.834547	-1.219735	-44.719228	129.462143	-0.451612	0.548587	0.703633	-0.781389	-0.623860	-0.015126	0.430671	-0.556642	0.710402
42910														7.067268	0.269965	7.393774	0.117716	0.004545	0.123296	1.000000	-0.000534	-0.000587	-0.000168	-0.398673	-0.340085	0.171908	-0.834176	-1.262399	-44.785278	129.431580	-0.450803	0.548201	0.704452	-0.782054	-0.623015	-0.015637	0.430312	-0.557968	0.709579
42911														6.550201	-0.203748	7.258598	0.109038	-0.003305	0.121098	0.999999	-0.000809	-0.001089	-0.000067	-0.398843	-0.340724	0.172997	-0.833609	-1.345926	-44.915107	129.418511	-0.449664	0.547069	0.706058	-0.782846	-0.621993	-0.016634	0.430064	-0.560214	0.707958
42912														6.346409	-0.673891	7.161607	0.105518	-0.011187	0.119590	0.999998	-0.000425	-0.002128	-0.000062	-0.398676	-0.342360	0.174363	-0.832733	-1.415465	-45.171358	129.422719	-0.447694	0.544591	0.709218	-0.783371	-0.621310	-0.017415	0.431161	-0.563378	0.704774
42913														6.844006	-0.345706	7.204963	0.113724	-0.005795	0.120405	0.999996	0.000205	-0.002843	-0.000077	-0.398210	-0.344817	0.175286	-0.831748	-1.387146	-45.496190	129.414892	-0.445059	0.541537	0.713204	-0.783304	-0.621407	-0.016969	0.434001	-0.566208	0.700751
42914														7.148559	0.011931	7.185259	0.118789	0.000161	0.120105	0.999996	0.000208	-0.002948	-0.000105	-0.397720	-0.347389	0.176391	-0.830678	-1.375370	-45.843989	129.412343	-0.442278	0.538202	0.717446	-0.783307	-0.621410	-0.016720	0.436829	-0.569376	0.696414
42915														6.879784	-0.212884	7.112115	0.114264	-0.003577	0.118919	0.999994	0.000138	-0.003359	-0.000108	-0.397196	-0.350262	0.177606	-0.829463	-1.357720	-46.232009	129.403903	-0.439105	0.534501	0.722147	-0.783335	-0.621384	-0.016390	0.439969	-0.572880	0.691546
42916														7.007626	-0.313485	7.070143	0.116335	-0.005253	0.118286	0.999992	0.000276	-0.003881	0.000036	-0.396393	-0.353624	0.178977	-0.828124	-1.343303	-46.683852	129.422197	-0.435645	0.529945	0.727579	-0.783107	-0.621679	-0.016082	0.443798	-0.576779	0.685835
42917														7.276756	-0.163127	6.931702	0.120807	-0.002749	0.116021	0.999992	0.000440	-0.004079	0.000175	-0.395365	-0.357224	0.180364	-0.826769	-1.329133	-47.163968	129.465509	-0.432155	0.524890	0.733302	-0.782611	-0.622311	-0.015771	0.448064	-0.580706	0.679720
42918														7.638073	-0.153971	6.839740	0.126858	-0.002611	0.114488	0.999992	0.000479	-0.003883	0.000076	-0.394460	-0.360616	0.181524	-0.825474	-1.290972	-47.609313	129.487137	-0.428716	0.520312	0.738565	-0.782153	-0.622902	-0.015189	0.452150	-0.584182	0.674011
42919														7.458948	-0.333386	6.756903	0.123888	-0.005626	0.113082	0.999993	0.000596	-0.003791	-0.000022	-0.393590	-0.364015	0.182581	-0.824163	-1.235052	-48.050937	129.495735	-0.425161	0.515839	0.743739	-0.781688	-0.623503	-0.014408	0.456291	-0.587498	0.668314
42920														7.263746	-0.394257	6.768315	0.120599	-0.006683	0.113293	0.999991	0.000811	-0.004086	-0.000168	-0.392708	-0.367777	0.183436	-0.822722	-1.122652	-48.523685	129.473171	-0.421042	0.511252	0.749230	-0.781106	-0.624263	-0.012976	0.461082	-0.590691	0.662183
42921														7.308541	-0.306588	6.735229	0.121299	-0.005257	0.112797	0.999989	0.001068	-0.004519	-0.000222	-0.391674	-0.372004	0.184335	-0.821112	-0.988947	-49.052635	129.448577	-0.416410	0.506070	0.755312	-0.780363	-0.625224	-0.011311	0.466515	-0.594128	0.655268
42922														7.298014	-0.116617	6.580884	0.121088	-0.002090	0.110280	0.999987	0.001139	-0.004953	-0.000171	-0.390498	-0.376563	0.185294	-0.819377	-0.845225	-49.623838	129.427791	-0.411423	0.500380	0.761808	-0.779479	-0.626356	-0.009556	0.472381	-0.597745	0.647733
42923														7.467532	0.016294	6.452050	0.123879	0.000145	0.108201	0.999985	0.001123	-0.005373	-0.000040	-0.389157	-0.381400	0.186327	-0.817541	-0.699667	-50.232054	129.418290	-0.406182	0.494172	0.768642	-0.778433	-0.627679	-0.007811	0.478600	-0.601509	0.639632
42924														7.586953	0.145693	6.477633	0.125828	0.002331	0.108685	0.999983	0.000985	-0.005730	0.000074	-0.387680	-0.386464	0.187743	-0.815538	-0.597118	-50.888585	129.434381	-0.400700	0.487223	0.775921	-0.777447	-0.628914	-0.006574	0.484784	-0.605871	0.630796
42925														7.883300	0.169779	6.511248	0.130730	0.002763	0.109313	0.999982	0.000776	-0.006031	0.000136	-0.386145	-0.391682	0.189563	-0.813353	-0.541359	-51.586715	129.468906	-0.394954	0.479648	0.783549	-0.776641	-0.629916	-0.005871	0.490754	-0.610855	0.621302
42926														7.921807	0.071643	6.428323	0.131364	0.001162	0.107953	0.999981	0.000588	-0.006185	0.000234	-0.384568	-0.396919	0.191565	-0.811089	-0.512226	-52.298986	129.516645	-0.389125	0.471767	0.791213	-0.775910	-0.630820	-0.005467	0.496534	-0.616037	0.611517
42927														7.722402	-0.047417	6.162577	0.128038	-0.000823	0.103539	0.999979	0.000508	-0.006472	0.000150	-0.383020	-0.402332	0.193761	-0.808629	-0.491775	-53.044606	129.554857	-0.382850	0.463529	0.799104	-0.775355	-0.631505	-0.005160	0.502246	-0.621564	0.601171
42928														7.739957	-0.138538	5.860397	0.128328	-0.002349	0.098550	0.999977	0.000508	-0.006829	0.000075	-0.381400	-0.408119	0.196184	-0.805906	-0.475677	-53.848559	129.589272	-0.375945	0.454613	0.807461	-0.774878	-0.632092	-0.004898	0.508163	-0.627525	0.589901
42929														7.876431	-0.112850	5.765596	0.130580	-0.001934	0.097030	0.999974	0.000543	-0.007170	-0.000003	-0.379775	-0.414147	0.198528	-0.803020	-0.424008	-54.679145	129.597161	-0.368508	0.445494	0.815927	-0.774372	-0.632716	-0.004279	0.514344	-0.633408	0.578139
42930														8.089448	-0.070473	5.702659	0.134112	-0.001241	0.096043	0.999972	0.000511	-0.007440	-0.000128	-0.378165	-0.420387	0.201069	-0.799898	-0.376536	-55.548783	129.591930	-0.360532	0.435933	0.824608	-0.774040	-0.633126	-0.003718	0.520460	-0.639620	0.565692
42931														8.147554	-0.031036	5.614309	0.135068	-0.000565	0.094611	0.999970	0.000427	-0.007685	-0.000055	-0.376493	-0.426711	0.203642	-0.796681	-0.328293	-56.433575	129.587470	-0.352341	0.426096	0.833245	-0.773682	-0.633566	-0.003168	0.526566	-0.645784	0.552894
42932														8.175520	-0.012629	5.408941	0.135535	-0.000221	0.091230	0.999968	0.000348	-0.007959	0.000155	-0.374630	-0.433154	0.206355	-0.793377	-0.306788	-57.343708	129.614780	-0.344060	0.415679	0.841923	-0.773212	-0.634141	-0.002889	0.532697	-0.651979	0.539590
42933														8.091955	-0.028193	5.212407	0.134137	-0.000462	0.087991	0.999965	0.000284	-0.008315	0.000245	-0.372585	-0.439849	0.209427	-0.789844	-0.334498	-58.307796	129.678284	-0.335427	0.404336	0.850883	-0.772800	-0.634642	-0.003067	0.538766	-0.658591	0.525347
42934														8.299362	-0.060626	5.038922	0.137594	-0.000993	0.085167	0.999963	0.000297	-0.008602	0.000310	-0.370399	-0.446732	0.212583	-0.786158	-0.371450	-59.303600	129.756421	-0.326470	0.392449	0.859884	-0.772319	-0.635226	-0.003309	0.544922	-0.665186	0.510478
42935														8.548636	0.028448	4.905454	0.141761	0.000514	0.082989	0.999962	0.000300	-0.008672	0.000455	-0.368105	-0.453546	0.215638	-0.782493	-0.412078	-60.290311	129.852213	-0.317589	0.380476	0.868548	-0.771683	-0.635997	-0.003564	0.551038	-0.671375	0.495593
42936														8.868177	0.093374	4.820578	0.147107	0.001614	0.081606	0.999963	0.000211	-0.008567	0.000507	-0.365760	-0.460234	0.218929	-0.778765	-0.515007	-61.280013	129.989360	-0.308810	0.368164	0.876979	-0.771199	-0.636580	-0.004319	0.556677	-0.677658	0.480510
42937														9.021033	0.091944	4.642022	0.149707	0.001608	0.078600	0.999966	0.000061	-0.008224	0.000536	-0.363502	-0.466573	0.222229	-0.775107	-0.652096	-62.232877	130.143290	-0.300353	0.356134	0.884848	-0.770877	-0.636961	-0.005302	0.561726	-0.683702	0.465849
42938														9.042954	-0.022799	4.476751	0.150121	-0.000301	0.075798	0.999969	-0.000081	-0.007888	0.000487	-0.361415	-0.472572	0.225406	-0.771523	-0.789212	-63.142088	130.284090	-0.292111	0.344639	0.892130	-0.770721	-0.637143	-0.006223	0.566269	-0.689401	0.451737
42939														9.148585	-0.050834	4.324156	0.151929	-0.000768	0.073213	0.999972	-0.000144	-0.007518	0.000455	-0.359448	-0.478225	0.228468	-0.768049	-0.935288	-64.006808	130.425161	-0.284194	0.333630	0.898846	-0.770666	-0.637199	-0.007154	0.570357	-0.694744	0.438206
42940														9.241356	-0.125920	4.191705	0.153523	-0.002035	0.070952	0.999975	-0.000204	-0.007091	0.000318	-0.357699	-0.483538	0.231315	-0.764680	-1.056119	-64.821476	130.532344	-0.276484	0.323351	0.904987	-0.770750	-0.637089	-0.007842	0.574021	-0.699687	0.425368
42941														9.208376	-0.192850	4.028242	0.153022	-0.003184	0.068157	0.999978	-0.000228	-0.006652	0.000099	-0.356217	-0.488518	0.233918	-0.761408	-1.133537	-65.584798	130.586224	-0.268919	0.313906	0.910574	-0.770999	-0.636784	-0.008177	0.577272	-0.704250	0.413265
42942														9.320481	-0.221882	3.849021	0.154940	-0.003702	0.065111	0.999981	-0.000196	-0.006192	-0.000105	-0.354937	-0.493237	0.236288	-0.758225	-1.166651	-66.305844	130.591989	-0.261474	0.305153	0.915704	-0.771336	-0.636375	-0.008182	0.580235	-0.708455	0.401771
42943														9.228161	-0.183290	3.766618	0.153434	-0.003083	0.063669	0.999983	-0.000170	-0.005805	-0.000255	-0.353861	-0.497667	0.238341	-0.755185	-1.138900	-66.975797	130.540228	-0.254221	0.297232	0.920340	-0.771690	-0.635952	-0.007774	0.582981	-0.712193	0.391043
42944														9.172765	-0.136929	3.670195	0.152537	-0.002325	0.062016	0.999985	-0.000180	-0.005537	-0.000353	-0.352911	-0.501875	0.240300	-0.752217	-1.095516	-67.615298	130.465337	-0.247150	0.289730	0.924648	-0.772133	-0.635419	-0.007281	0.585430	-0.715750	0.380754
42945														9.190225	-0.034537	3.527919	0.152853	-0.000630	0.059616	0.999986	-0.000229	-0.005342	-0.000445	-0.352058	-0.505962	0.242261	-0.749245	-1.046529	-68.242048	130.372966	-0.240116	0.282405	0.928758	-0.772705	-0.634729	-0.006770	0.587598	-0.719282	0.370625
42946														9.287591	0.045848	3.459838	0.154496	0.000699	0.058455	0.999987	-0.000360	-0.005121	-0.000558	-0.351444	-0.509852	0.244002	-0.746325	-0.926927	-68.833799	130.203640	-0.233076	0.275772	0.932537	-0.773393	-0.633900	-0.005841	0.589524	-0.722579	0.361027
42947														9.303816	0.039041	3.343569	0.154791	0.000591	0.056478	0.999988	-0.000508	-0.004858	-0.000572	-0.350950	-0.513477	0.245837	-0.743465	-0.836029	-69.399552	130.039973	-0.226352	0.269374	0.936057	-0.774301	-0.632797	-0.005134	0.590951	-0.725952	0.351812
42948														9.372208	0.022149	3.195169	0.155957	0.000321	0.053969	0.999989	-0.000588	-0.004593	-0.000511	-0.350492	-0.516861	0.247716	-0.740708	-0.778302	-69.939276	129.898760	-0.220022	0.263155	0.939330	-0.775293	-0.631585	-0.004659	0.592040	-0.729280	0.342984
42949														9.351008	0.029527	3.130125	0.155622	0.000457	0.052844	0.999990	-0.000616	-0.004336	-0.000431	-0.350069	-0.519967	0.249514	-0.738125	-0.735285	-70.440754	129.772132	-0.214172	0.257311	0.942296	-0.776267	-0.630389	-0.004296	0.592908	-0.732394	0.334754
42950														9.261723	0.060464	3.041873	0.154149	0.000980	0.051341	0.999991	-0.000657	-0.004177	-0.000400	-0.349643	-0.522919	0.251425	-0.735589	-0.740343	-70.930788	129.681652	-0.208611	0.251437	0.945125	-0.777337	-0.629070	-0.004221	0.593488	-0.735561	0.326683
42951														9.340075	0.022966	2.994133	0.155461	0.000358	0.050540	0.999991	-0.000712	-0.004105	-0.000392	-0.349264	-0.525834	0.253261	-0.733057	-0.719025	-71.413281	129.566025	-0.203027	0.245714	0.947842	-0.778407	-0.627747	-0.004000	0.594023	-0.738619	0.318715
42952														9.404078	-0.035326	2.905591	0.156542	-0.000617	0.049045	0.999992	-0.000704	-0.003949	-0.000402	-0.348937	-0.528634	0.254970	-0.730602	-0.671046	-71.874782	129.428028	-0.197579	0.240297	0.950379	-0.779439	-0.626467	-0.003643	0.594506	-0.741482	0.311073
42953														9.422259	-0.042648	2.824216	0.156858	-0.000746	0.047665	0.999993	-0.000680	-0.003785	-0.000433	-0.348660	-0.531294	0.256593	-0.728233	-0.610601	-72.314590	129.278299	-0.192326	0.235158	0.952739	-0.780464	-0.625192	-0.003237	0.594884	-0.744201	0.303773
42954														9.401554	-0.018248	2.747934	0.156523	-0.000347	0.046373	0.999993	-0.000617	-0.003665	-0.000453	-0.348394	-0.533904	0.258085	-0.725920	-0.517655	-72.741205	129.105339	-0.187136	0.230226	0.954974	-0.781398	-0.624027	-0.002680	0.595313	-0.746717	0.296676
42955														9.496830	-0.015129	2.722363	0.158120	-0.000300	0.045928	0.999994	-0.000603	-0.003508	-0.000476	-0.348146	-0.536410	0.259580	-0.723656	-0.433961	-73.155563	128.938239	-0.182118	0.225393	0.957095	-0.782357	-0.622826	-0.002195	0.595609	-0.749190	0.289766
42956														9.490839	0.000547	2.682062	0.158032	-0.000042	0.045224	0.999994	-0.000582	-0.003309	-0.000486	-0.347979	-0.538768	0.260864	-0.721519	-0.298590	-73.539094	128.728346	-0.177279	0.221056	0.959013	-0.783237	-0.621721	-0.001477	0.595913	-0.751397	0.283357
42957														9.512404	0.000553	2.601654	0.158403	-0.000046	0.043858	0.999995	-0.000554	-0.003135	-0.000501	-0.347854	-0.540988	0.262058	-0.719482	-0.149453	-73.899960	128.506955	-0.172659	0.217008	0.960779	-0.784090	-0.620646	-0.000723	0.596147	-0.753462	0.277314
42958														9.431915	0.030392	2.535647	0.157069	0.000449	0.042739	0.999995	-0.000536	-0.003044	-0.000509	-0.347708	-0.543175	0.263293	-0.717451	-0.014037	-74.259873	128.296882	-0.168119	0.212899	0.962502	-0.784956	-0.619551	-0.000066	0.596305	-0.755533	0.271275
42959														9.467284	0.014448	2.524541	0.157663	0.000182	0.042541	0.999995	-0.000526	-0.002948	-0.000511	-0.347583	-0.545281	0.264481	-0.715475	0.129894	-74.607030	128.079324	-0.163709	0.208941	0.964128	-0.785808	-0.618471	0.000602	0.596411	-0.757521	0.265437
42960														9.490544	0.043840	2.486041	0.158055	0.000672	0.041891	0.999996	-0.000487	-0.002893	-0.000499	-0.347435	-0.547361	0.265635	-0.713528	0.279866	-74.949502	127.860255	-0.159369	0.205012	0.965697	-0.786606	-0.617454	0.001268	0.596534	-0.759421	0.259667
42961														9.535374	0.039710	2.430422	0.158806	0.000601	0.040961	0.999996	-0.000457	-0.002863	-0.000501	-0.347295	-0.549423	0.266697	-0.711613	0.463313	-75.284390	127.614279	-0.155040	0.201220	0.967199	-0.787338	-0.616518	0.002054	0.596709	-0.761194	0.254013
42962														9.534977	0.068250	2.355540	0.158806	0.001075	0.039705	0.999996	-0.000413	-0.002814	-0.000496	-0.347177	-0.551428	0.267620	-0.709771	0.688586	-75.603465	127.335746	-0.150791	0.197686	0.968598	-0.787978	-0.615696	0.002988	0.596953	-0.762784	0.248613
42963														9.420055	0.092060	2.271039	0.156894	0.001475	0.038295	0.999996	-0.000357	-0.002834	-0.000467	-0.346946	-0.553479	0.268658	-0.707893	0.870478	-75.936529	127.100806	-0.146580	0.193808	0.970027	-0.788594	-0.614903	0.003692	0.597188	-0.764416	0.242969
42964														9.377458	0.156272	2.220564	0.156182	0.002558	0.037469	0.999996	-0.000336	-0.002951	-0.000378	-0.346626	-0.555573	0.269724	-0.706001	1.038986	-76.277886	126.884761	-0.142377	0.189734	0.971458	-0.789140	-0.614198	0.004301	0.597484	-0.766004	0.237174
42965														9.523366	0.156230	2.202077	0.158612	0.002566	0.037180	0.999995	-0.000338	-0.003024	-0.000319	-0.346226	-0.557727	0.270873	-0.704057	1.184452	-76.633048	126.691940	-0.138137	0.185379	0.972909	-0.789672	-0.613511	0.004779	0.597777	-0.767619	0.231137
42966														9.615007	0.165576	2.146684	0.160144	0.002724	0.036253	0.999996	-0.000299	-0.002969	-0.000288	-0.345812	-0.559850	0.271933	-0.702164	1.353385	-76.979228	126.483920	-0.133965	0.181150	0.974288	-0.790117	-0.612933	0.005321	0.598138	-0.769089	0.225241
42967														9.627190	0.169993	2.091005	0.160355	0.002795	0.035303	0.999996	-0.000307	-0.002829	-0.000305	-0.345444	-0.561864	0.272957	-0.700337	1.529076	-77.309507	126.266851	-0.129954	0.177125	0.975571	-0.790584	-0.612325	0.005862	0.598405	-0.770509	0.219606
42968														9.559843	0.169552	2.036821	0.159238	0.002788	0.034381	0.999996	-0.000291	-0.002731	-0.000301	-0.345048	-0.563791	0.274056	-0.698552	1.654888	-77.633995	126.094652	-0.126164	0.173047	0.976800	-0.791089	-0.611670	0.006185	0.598549	-0.771955	0.214066
42969														9.590712	0.115928	1.973814	0.159757	0.001903	0.033321	0.999996	-0.000266	-0.002658	-0.000238	-0.344629	-0.565649	0.275100	-0.696844	1.776441	-77.946633	125.932795	-0.122545	0.169085	0.977954	-0.791526	-0.611101	0.006473	0.598723	-0.773282	0.208722
42970														9.661447	0.151472	1.923110	0.160941	0.002501	0.032466	0.999997	-0.000205	-0.002574	-0.000187	-0.344173	-0.567459	0.276061	-0.695216	1.903320	-78.248147	125.775584	-0.119070	0.165243	0.979039	-0.791856	-0.610671	0.006765	0.598988	-0.774452	0.203561
42971														9.644299	0.183173	1.850628	0.160663	0.003035	0.031233	0.999997	-0.000167	-0.002428	-0.000144	-0.343696	-0.569169	0.276982	-0.693686	2.007767	-78.534495	125.645082	-0.115840	0.161535	0.980045	-0.792134	-0.610308	0.006964	0.599254	-0.775520	0.198656
42972														9.632581	0.164164	1.819902	0.160474	0.002717	0.030696	0.999997	-0.000145	-0.002273	-0.000144	-0.343301	-0.570751	0.277722	-0.692285	2.168075	-78.792319	125.466091	-0.112775	0.158303	0.980929	-0.792344	-0.610030	0.007353	0.599560	-0.776404	0.194227
42973														9.611641	0.147299	1.768134	0.160130	0.002434	0.029814	0.999998	-0.000131	-0.002159	-0.000158	-0.342907	-0.572276	0.278466	-0.690921	2.315179	-79.043220	125.299204	-0.109830	0.155124	0.981771	-0.792562	-0.609743	0.007678	0.599819	-0.777271	0.189913
42974														9.656485	0.088053	1.762795	0.160880	0.001451	0.029714	0.999998	-0.000067	-0.002074	-0.000114	-0.342482	-0.573725	0.279145	-0.689655	2.450568	-79.280182	125.151806	-0.107092	0.152084	0.982549	-0.792694	-0.609568	0.007953	0.600140	-0.778009	0.185836
42975														9.667170	0.108040	1.696448	0.161063	0.001786	0.028596	0.999998	0.000034	-0.001996	-0.000083	-0.341954	-0.575168	0.279829	-0.688437	2.543385	-79.517517	125.055732	-0.104498	0.148931	0.983311	-0.792724	-0.609527	0.008074	0.600556	-0.778651	0.181756
42976														9.702617	0.129123	1.667674	0.161658	0.002137	0.028099	0.999998	0.000080	-0.001884	-0.000082	-0.341416	-0.576546	0.280467	-0.687290	2.626692	-79.743670	124.973367	-0.102059	0.145899	0.984021	-0.792709	-0.609546	0.008160	0.600997	-0.779209	0.177865
42977														9.653070	0.110122	1.642745	0.160836	0.001812	0.027662	0.999998	0.000100	-0.001758	-0.000129	-0.340911	-0.577892	0.281042	-0.686175	2.739697	-79.961400	124.863620	-0.099641	0.143025	0.984691	-0.792673	-0.609591	0.008332	0.601450	-0.779707	0.174112
42978														9.611523	0.121370	1.600597	0.160146	0.001991	0.026955	0.999998	0.000161	-0.001738	-0.000171	-0.340441	-0.579200	0.281494	-0.685119	2.904281	-80.165927	124.709353	-0.097253	0.140403	0.985307	-0.792568	-0.609722	0.008654	0.601978	-0.780081	0.170576
42979														9.692389	0.112504	1.591503	0.161495	0.001841	0.026801	0.999999	0.000177	-0.001709	-0.000184	-0.340006	-0.580499	0.281856	-0.684086	3.122795	-80.363122	124.505684	-0.094832	0.137952	0.985888	-0.792422	-0.609905	0.009119	0.602557	-0.780375	0.167155
42980														9.699173	0.165299	1.544050	0.161611	0.002718	0.026000	0.999999	0.000175	-0.001643	-0.000204	-0.339599	-0.581769	0.282187	-0.683072	3.363282	-80.554267	124.279949	-0.092435	0.135606	0.986441	-0.792277	-0.610086	0.009628	0.603119	-0.780645	0.163831
42981														9.611745	0.179377	1.477107	0.160157	0.002953	0.024875	0.999999	0.000140	-0.001597	-0.000208	-0.339227	-0.582984	0.282531	-0.682079	3.602008	-80.739086	124.051292	-0.090111	0.133337	0.986966	-0.792180	-0.610203	0.010111	0.603598	-0.780944	0.160613
42982														9.576266	0.195632	1.481765	0.159565	0.003228	0.024951	0.999999	0.000095	-0.001595	-0.000190	-0.338856	-0.584197	0.282923	-0.681062	3.832853	-80.927139	123.825915	-0.087782	0.130999	0.987489	-0.792129	-0.610263	0.010541	0.604008	-0.781293	0.157338
42983														9.639926	0.183497	1.462263	0.160626	0.003029	0.024632	0.999999	0.000042	-0.001625	-0.000176	-0.338527	-0.585380	0.283332	-0.680039	4.075316	-81.112400	123.583313	-0.085460	0.128708	0.987993	-0.792137	-0.610245	0.010980	0.604331	-0.781688	0.154106
42984														9.741967	0.188518	1.419166	0.162329	0.003129	0.023908	0.999999	-0.000007	-0.001572	-0.000083	-0.338175	-0.586483	0.283814	-0.679062	4.247920	-81.292535	123.405802	-0.083350	0.126379	0.988474	-0.792187	-0.610175	0.011214	0.604559	-0.782122	0.150974
42985														9.743584	0.171618	1.416634	0.162358	0.002854	0.023850	0.999999	-0.000003	-0.001477	-0.000042	-0.337810	-0.587521	0.284294	-0.678145	4.387404	-81.464194	123.262217	-0.081408	0.124110	0.988923	-0.792226	-0.610123	0.011355	0.604774	-0.782526	0.147992
42986														9.683289	0.176648	1.370096	0.161357	0.002944	0.023057	0.999999	-0.000066	-0.001374	-0.000008	-0.337453	-0.588481	0.284843	-0.677259	4.470122	-81.630809	123.168138	-0.079631	0.121836	0.989351	-0.792336	-0.609979	0.011344	0.604866	-0.782995	0.145108
42987														9.635189	0.172392	1.383297	0.160555	0.002874	0.023276	0.999999	-0.000074	-0.001379	-0.000003	-0.337106	-0.589404	0.285407	-0.676391	4.536226	-81.793639	123.088213	-0.077925	0.119591	0.989760	-0.792471	-0.609805	0.011289	0.604910	-0.783477	0.142292
42988														9.606124	0.165278	1.387909	0.160068	0.002753	0.023363	0.999999	-0.000094	-0.001444	-0.000024	-0.336791	-0.590363	0.285955	-0.675480	4.652022	-81.960094	122.957149	-0.076087	0.117356	0.990171	-0.792626	-0.609603	0.011343	0.604942	-0.783972	0.139402
42989														9.683386	0.159871	1.346688	0.161357	0.002661	0.022681	0.999999	-0.000132	-0.001465	-0.000040	-0.336466	-0.591342	0.286571	-0.674524	4.750964	-82.134146	122.837786	-0.074211	0.114986	0.990591	-0.792832	-0.609335	0.011335	0.604905	-0.784531	0.136384
42990														9.729507	0.141288	1.317161	0.162126	0.002352	0.022189	0.999999	-0.000154	-0.001458	-0.000040	-0.336166	-0.592299	0.287188	-0.673571	4.857827	-82.305512	122.708063	-0.072349	0.112660	0.990996	-0.793065	-0.609032	0.011338	0.604826	-0.785104	0.133410
42991														9.703957	0.122248	1.281938	0.161702	0.002035	0.021593	0.999999	-0.000147	-0.001407	-0.000037	-0.335909	-0.593229	0.287727	-0.672650	5.016687	-82.467506	122.528909	-0.070490	0.110523	0.991371	-0.793274	-0.608756	0.011463	0.604770	-0.785621	0.130586
42992														9.647299	0.089876	1.259783	0.160759	0.001496	0.021222	0.999999	-0.000131	-0.001407	-0.000032	-0.335623	-0.594155	0.288286	-0.671736	5.153298	-82.630903	122.372922	-0.068674	0.108327	0.991740	-0.793472	-0.608498	0.011520	0.604720	-0.786127	0.127742
42993														9.661022	0.088799	1.255610	0.160987	0.001468	0.021156	0.999999	-0.000091	-0.001427	-0.000084	-0.335363	-0.595109	0.288771	-0.670812	5.365427	-82.792475	122.145436	-0.066755	0.106230	0.992098	-0.793631	-0.608286	0.011732	0.604726	-0.786577	0.124914
42994														9.683996	0.136470	1.204745	0.161372	0.002251	0.020307	0.999999	-0.000090	-0.001413	-0.000158	-0.335096	-0.596082	0.289280	-0.669861	5.586956	-82.958508	121.907109	-0.064793	0.104066	0.992458	-0.793804	-0.608056	0.011935	0.604712	-0.787044	0.122006
42995														9.736692	0.150127	1.156620	0.162252	0.002471	0.019498	0.999999	-0.000120	-0.001363	-0.000205	-0.334897	-0.597039	0.289746	-0.668906	5.876322	-83.118709	121.598358	-0.062777	0.102049	0.992797	-0.794009	-0.607783	0.012267	0.604656	-0.787519	0.119183
42996														9.739628	0.154086	1.131094	0.162304	0.002533	0.019056	0.999999	-0.000123	-0.001262	-0.000230	-0.334763	-0.597940	0.290137	-0.667999	6.224472	-83.265505	121.231227	-0.060803	0.100274	0.993100	-0.794212	-0.607508	0.012715	0.604591	-0.787959	0.116577
42997														9.664690	0.098249	1.109382	0.161056	0.001600	0.018683	0.999999	-0.000088	-0.001203	-0.000243	-0.334670	-0.598806	0.290439	-0.667137	6.635557	-83.400858	120.805170	-0.058854	0.098708	0.993374	-0.794375	-0.607283	0.013280	0.604570	-0.788330	0.114152
42998														9.682840	0.088069	1.124880	0.161359	0.001425	0.018934	0.999999	0.000001	-0.001151	-0.000265	-0.334549	-0.599678	0.290652	-0.666321	7.090447	-83.530436	120.345513	-0.056925	0.097238	0.993632	-0.794430	-0.607196	0.013908	0.604682	-0.788580	0.111814
42999														9.705443	0.108619	1.066707	0.161737	0.001765	0.017963	0.999999	0.000063	-0.001142	-0.000271	-0.334392	-0.600562	0.290828	-0.665528	7.563483	-83.658695	119.874409	-0.055016	0.095774	0.993882	-0.794414	-0.607203	0.014538	0.604880	-0.788754	0.109490
43000														9.736056	0.164128	1.064360	0.162250	0.002685	0.017911	0.999999	0.000107	-0.001059	-0.000297	-0.334240	-0.601397	0.290949	-0.664797	8.048323	-83.776347	119.395523	-0.053211	0.094452	0.994106	-0.794355	-0.607265	0.015178	0.605119	-0.788865	0.107342
43001														9.667942	0.187926	1.012436	0.161116	0.003077	0.017043	0.999999	0.000128	-0.001045	-0.000327	-0.334085	-0.602234	0.291049	-0.664072	8.561386	-83.892519	118.890516	-0.051403	0.093153	0.994324	-0.794272	-0.607355	0.015839	0.605384	-0.788950	0.105208
43002														9.663089	0.164954	1.012119	0.161035	0.002698	0.017030	0.999999	0.000131	-0.000998	-0.000306	-0.333937	-0.603039	0.291133	-0.663379	9.080800	-84.002709	118.379816	-0.049662	0.091924	0.994527	-0.794182	-0.607456	0.016490	0.605647	-0.789017	0.103172
43003														9.695648	0.208568	0.972070	0.161579	0.003429	0.016363	0.999999	0.000166	-0.000998	-0.000276	-0.333745	-0.603850	0.291210	-0.662704	9.593903	-84.113513	117.879921	-0.047958	0.090654	0.994727	-0.794042	-0.607622	0.017093	0.605968	-0.789036	0.101124
43004														9.677996	0.247242	0.973897	0.161285	0.004076	0.016393	0.999999	0.000168	-0.000997	-0.000257	-0.333541	-0.604671	0.291285	-0.662024	10.125849	-84.225250	117.362385	-0.046246	0.089360	0.994925	-0.793888	-0.607806	0.017690	0.606302	-0.789041	0.099051
43005														9.657153	0.286279	0.920674	0.160938	0.004732	0.015512	0.999999	0.000111	-0.001040	-0.000234	-0.333343	-0.605481	0.291435	-0.661318	10.637282	-84.340749	116.858158	-0.044551	0.087975	0.995126	-0.793808	-0.607896	0.018203	0.606534	-0.789128	0.096917
43006														9.683811	0.268782	0.886772	0.161382	0.004444	0.014950	0.999999	0.000038	-0.001055	-0.000215	-0.333199	-0.606268	0.291625	-0.660584	11.177905	-84.455426	116.316139	-0.042834	0.086607	0.995321	-0.793819	-0.607866	0.018730	0.606644	-0.789302	0.094787
43007														9.679133	0.291705	0.870687	0.161304	0.004834	0.014686	0.999999	-0.000024	-0.001083	-0.000175	-0.333034	-0.607040	0.291912	-0.659832	11.658823	-84.575712	115.827071	-0.041183	0.085088	0.995522	-0.793897	-0.607752	0.019103	0.606655	-0.789556	0.092580
43008														9.693798	0.280613	0.832974	0.161549	0.004656	0.014058	0.999999	-0.000073	-0.001085	-0.000137	-0.332869	-0.607791	0.292253	-0.659072	12.116686	-84.697481	115.356071	-0.039576	0.083512	0.995721	-0.794027	-0.607572	0.019398	0.606592	-0.789862	0.090356
43009														9.695536	0.258704	0.819347	0.161578	0.004294	0.013833	0.999999	-0.000127	-0.001098	-0.000121	-0.332736	-0.608495	0.292651	-0.658313	12.546657	-84.817138	114.904854	-0.038041	0.081934	0.995911	-0.794242	-0.607284	0.019624	0.606409	-0.790248	0.088177
43010														9.686131	0.262688	0.775592	0.161422	0.004360	0.013100	0.999999	-0.000138	-0.001076	-0.000124	-0.332612	-0.609206	0.293038	-0.657545	13.021827	-84.936345	114.408555	-0.036474	0.080374	0.996097	-0.794456	-0.606996	0.019887	0.606226	-0.790630	0.085993
43011														9.670219	0.261514	0.743997	0.161157	0.004342	0.012577	0.999999	-0.000170	-0.001104	-0.000119	-0.332483	-0.609925	0.293465	-0.656753	13.504667	-85.059560	113.901391	-0.034893	0.078735	0.996285	-0.794702	-0.606667	0.020111	0.605996	-0.791048	0.083739
43012														9.695063	0.229265	0.755536	0.161570	0.003809	0.012774	0.999999	-0.000148	-0.001129	-0.000086	-0.332339	-0.610643	0.293895	-0.655966	13.997209	-85.182939	113.385520	-0.033331	0.077076	0.996468	-0.794937	-0.606352	0.020311	0.605776	-0.791452	0.081481
43013														9.702443	0.217067	0.748147	0.161692	0.003616	0.012661	0.999999	-0.000107	-0.001192	-0.000021	-0.332090	-0.611409	0.294364	-0.655168	14.447917	-85.317205	112.917714	-0.031791	0.075195	0.996662	-0.795103	-0.606132	0.020369	0.605640	-0.791801	0.079057
43014														9.764073	0.201557	0.731503	0.162719	0.003365	0.012391	0.999999	-0.000032	-0.001225	0.000030	-0.331762	-0.612205	0.294820	-0.654385	14.891184	-85.455439	112.465627	-0.030278	0.073221	0.996856	-0.795181	-0.606030	0.020362	0.605616	-0.792064	0.076573
43015														9.741409	0.198073	0.728517	0.162341	0.003315	0.012352	0.999999	0.000043	-0.001294	0.000087	-0.331332	-0.613065	0.295277	-0.653592	15.336128	-85.603667	112.021121	-0.028742	0.071063	0.997058	-0.795159	-0.606061	0.020274	0.605719	-0.792237	0.073926
43016														9.707886	0.213966	0.674849	0.161783	0.003582	0.011462	0.999999	0.000107	-0.001322	0.000107	-0.330837	-0.613931	0.295729	-0.652825	15.752823	-85.753491	111.611054	-0.027272	0.068843	0.997255	-0.795072	-0.606182	0.020103	0.605902	-0.792341	0.071267
43017														9.702662	0.261459	0.665949	0.161695	0.004374	0.011319	0.999999	0.000097	-0.001355	0.000110	-0.330318	-0.614825	0.296204	-0.652030	16.203778	-85.909003	111.166990	-0.025760	0.066527	0.997452	-0.794981	-0.606307	0.019908	0.606087	-0.792443	0.068507
43018														9.752163	0.276940	0.635792	0.162522	0.004621	0.010814	0.999999	0.000046	-0.001334	0.000037	-0.329886	-0.615704	0.296660	-0.651211	16.785037	-86.058926	110.586043	-0.024167	0.064342	0.997635	-0.794961	-0.606336	0.019848	0.606179	-0.792602	0.065802
43019														9.748081	0.265669	0.602962	0.162455	0.004423	0.010254	0.999999	0.000007	-0.001260	-0.000027	-0.329550	-0.616562	0.297063	-0.650386	17.528213	-86.199219	109.839182	-0.022497	0.062353	0.997801	-0.794985	-0.606301	0.019964	0.606212	-0.792787	0.063210
43020														9.750075	0.236476	0.567025	0.162490	0.003927	0.009639	0.999999	-0.000002	-0.001160	-0.000089	-0.329282	-0.617373	0.297401	-0.649597	18.375286	-86.326355	108.987808	-0.020847	0.060587	0.997945	-0.795016	-0.606251	0.020198	0.606230	-0.792962	0.060806
43021														9.793279	0.262177	0.506523	0.163213	0.004352	0.008611	0.999999	-0.000058	-0.001035	-0.000110	-0.329085	-0.618072	0.297735	-0.648879	19.176052	-86.437969	108.176438	-0.019381	0.059029	0.998068	-0.795116	-0.606114	0.020408	0.606148	-0.793184	0.058682
43022														9.740495	0.261097	0.477247	0.162335	0.004324	0.008098	1.000000	-0.000084	-0.000889	-0.000174	-0.328994	-0.618678	0.297999	-0.648227	20.036532	-86.529607	107.301693	-0.018003	0.057794	0.998166	-0.795256	-0.605919	0.020740	0.606007	-0.793424	0.056869
43023														9.729684	0.241901	0.446081	0.162156	0.004006	0.007561	1.000000	-0.000103	-0.000781	-0.000165	-0.328959	-0.619194	0.298244	-0.647638	20.859191	-86.607468	106.461237	-0.016769	0.056751	0.998248	-0.795434	-0.605674	0.021071	0.605808	-0.793687	0.055298
43024														9.754042	0.253473	0.430051	0.162563	0.004198	0.007270	1.000000	-0.000104	-0.000635	-0.000166	-0.328987	-0.619615	0.298435	-0.647133	21.641244	-86.667815	105.660240	-0.015690	0.055967	0.998309	-0.795626	-0.605409	0.021436	0.605585	-0.793945	0.054028
43025														9.789861	0.269154	0.459313	0.163162	0.004462	0.007729	1.000000	-0.000057	-0.000454	-0.000149	-0.328994	-0.619930	0.298558	-0.646771	22.235712	-86.711326	105.054628	-0.014900	0.055398	0.998353	-0.795738	-0.605252	0.021709	0.605458	-0.794104	0.053101
43026														9.790336	0.265487	0.432312	0.163171	0.004409	0.007251	1.000000	-0.000060	-0.000284	-0.000102	-0.329021	-0.620142	0.298645	-0.646514	22.675224	-86.740060	104.605156	-0.014339	0.055028	0.998382	-0.795838	-0.605112	0.021922	0.605339	-0.794236	0.052471
43027														9.790128	0.291666	0.420739	0.163168	0.004845	0.007035	1.000000	-0.000051	-0.000142	-0.000099	-0.329089	-0.620246	0.298688	-0.646360	22.973185	-86.752212	104.297315	-0.013991	0.054900	0.998394	-0.795940	-0.604971	0.022112	0.605214	-0.794352	0.052161
43028														9.729885	0.302548	0.480531	0.162165	0.005030	0.008016	1.000000	-0.000039	-0.000045	-0.000080	-0.329180	-0.620316	0.298688	-0.646247	23.252245	-86.756212	104.010170	-0.013699	0.054901	0.998398	-0.796024	-0.604853	0.022338	0.605110	-0.794443	0.051988
43029														9.729868	0.303634	0.480189	0.162165	0.005055	0.008002	1.000000	-0.000056	0.000007	-0.000036	-0.329248	-0.620319	0.298718	-0.646195	23.342573	-86.756737	103.910989	-0.013602	0.054916	0.998398	-0.796117	-0.604727	0.022417	0.604990	-0.794537	0.051945
43030														9.765493	0.310540	0.501080	0.162759	0.005177	0.008338	1.000000	-0.000066	0.000081	0.000002	-0.329310	-0.620282	0.298744	-0.646186	23.342121	-86.753060	103.903392	-0.013610	0.054980	0.998395	-0.796202	-0.604614	0.022442	0.604877	-0.794619	0.052004
43031														9.694079	0.296381	0.462909	0.161568	0.004954	0.007698	1.000000	-0.000068	0.000102	0.000085	-0.329357	-0.620175	0.298826	-0.646228	23.141749	-86.747362	104.092034	-0.013815	0.055031	0.998389	-0.796327	-0.604455	0.022299	0.604708	-0.794737	0.052173
43032														9.652748	0.258615	0.464336	0.160879	0.004325	0.007728	1.000000	-0.000049	0.000067	0.000089	-0.329386	-0.620094	0.298909	-0.646252	22.974198	-86.745207	104.249353	-0.013975	0.055030	0.998387	-0.796436	-0.604316	0.022161	0.604561	-0.794842	0.052273
43033														9.658848	0.243573	0.480293	0.160981	0.004078	0.007998	1.000000	-0.000025	0.000042	0.000113	-0.329371	-0.620037	0.298998	-0.646273	22.788995	-86.747449	104.427910	-0.014137	0.054948	0.998389	-0.796507	-0.604230	0.021977	0.604464	-0.794913	0.052308
43034														9.653322	0.224568	0.453113	0.160888	0.003753	0.007557	1.000000	0.000015	-0.000032	0.000067	-0.329316	-0.620063	0.299055	-0.646249	22.736801	-86.757008	104.480038	-0.014145	0.054774	0.998399	-0.796507	-0.604234	0.021864	0.604464	-0.794922	0.052175
43035														9.665670	0.209483	0.434698	0.161094	0.003500	0.007259	1.000000	0.000067	-0.000084	0.000053	-0.329243	-0.620142	0.299087	-0.646197	22.782805	-86.770408	104.437919	-0.014047	0.054558	0.998412	-0.796465	-0.604292	0.021816	0.604522	-0.794893	0.051942
43036														9.725250	0.223983	0.450579	0.162087	0.003734	0.007526	1.000000	0.000106	-0.000096	0.000011	-0.329160	-0.620255	0.299071	-0.646137	22.912908	-86.783640	104.316939	-0.013874	0.054364	0.998425	-0.796367	-0.604420	0.021844	0.604655	-0.794809	0.051680
43037														9.724851	0.266752	0.414465	0.162081	0.004440	0.006916	1.000000	0.000103	-0.000049	-0.000033	-0.329107	-0.620354	0.299013	-0.646096	23.077781	-86.790690	104.162251	-0.013697	0.054282	0.998432	-0.796258	-0.604559	0.021945	0.604802	-0.794708	0.051504
43038														9.736069	0.314538	0.421176	0.162268	0.005230	0.007024	1.000000	0.000058	-0.000026	-0.000074	-0.329135	-0.620419	0.298958	-0.646045	23.284360	-86.791674	103.958136	-0.013500	0.054314	0.998433	-0.796231	-0.604588	0.022123	0.604842	-0.794684	0.051408
43039														9.724470	0.293748	0.406359	0.162075	0.004881	0.006766	1.000000	0.000026	0.000039	-0.000090	-0.329226	-0.620453	0.298887	-0.645999	23.523157	-86.785839	103.717490	-0.013296	0.054469	0.998427	-0.796250	-0.604554	0.022378	0.604822	-0.794700	0.051409
43040														9.711935	0.315036	0.444207	0.161866	0.005244	0.007397	1.000000	-0.000046	0.000040	-0.000040	-0.329300	-0.620455	0.298888	-0.645960	23.631563	-86.783464	103.602266	-0.013196	0.054536	0.998425	-0.796321	-0.604456	0.022492	0.604730	-0.794770	0.051404
43041														9.753828	0.303490	0.460544	0.162565	0.005049	0.007661	1.000000	-0.000065	0.000086	-0.000062	-0.329418	-0.620425	0.298873	-0.645934	23.746179	-86.775023	103.478145	-0.013112	0.054707	0.998416	-0.796422	-0.604317	0.022654	0.604599	-0.794864	0.051494
43042														9.759648	0.309523	0.450761	0.162662	0.005154	0.007484	1.000000	-0.000087	0.000172	-0.000036	-0.329577	-0.620322	0.298863	-0.645957	23.755052	-86.757962	103.455563	-0.013160	0.055002	0.998400	-0.796568	-0.604120	0.022782	0.604406	-0.794993	0.051763
43043														9.706203	0.263768	0.479080	0.161772	0.004392	0.007949	1.000000	-0.000115	0.000220	-0.000033	-0.329728	-0.620178	0.298853	-0.646023	23.666757	-86.737001	103.530747	-0.013317	0.055339	0.998379	-0.796709	-0.603932	0.022848	0.604217	-0.795113	0.052132
43044														9.681595	0.285974	0.498508	0.161362	0.004765	0.008266	1.000000	-0.000125	0.000259	-0.000016	-0.329895	-0.619992	0.298851	-0.646117	23.509246	-86.711959	103.673061	-0.013558	0.055730	0.998354	-0.796872	-0.603715	0.022879	0.603996	-0.795250	0.052595
43045														9.675451	0.262894	0.542872	0.161260	0.004378	0.009010	1.000000	-0.000096	0.000231	-0.000026	-0.330050	-0.619841	0.298833	-0.646191	23.417170	-86.689355	103.752384	-0.013729	0.056094	0.998331	-0.797009	-0.603532	0.022951	0.603812	-0.795364	0.052993
43046														9.687607	0.231196	0.556924	0.161462	0.003849	0.009252	1.000000	-0.000043	0.000188	-0.000030	-0.330165	-0.619732	0.298793	-0.646255	23.367677	-86.670785	103.794811	-0.013847	0.056398	0.998312	-0.797085	-0.603427	0.023034	0.603708	-0.795421	0.053310
43047														9.668952	0.276633	0.535164	0.161150	0.004611	0.008898	1.000000	-0.000012	0.000130	0.000004	-0.330225	-0.619652	0.298778	-0.646308	23.292087	-86.659138	103.866120	-0.013966	0.056578	0.998301	-0.797132	-0.603366	0.023043	0.603644	-0.795455	0.053527
43048														9.710695	0.282114	0.525592	0.161846	0.004705	0.008740	1.000000	0.000013	0.000125	0.000021	-0.330261	-0.619580	0.298759	-0.646368	23.200818	-86.648869	103.955772	-0.014098	0.056729	0.998290	-0.797150	-0.603342	0.023029	0.603616	-0.795462	0.053728
43049														9.704593	0.276682	0.539954	0.161744	0.004613	0.008985	1.000000	0.000039	0.000086	0.000009	-0.330261	-0.619540	0.298727	-0.646420	23.135392	-86.642025	104.023933	-0.014194	0.056828	0.998283	-0.797122	-0.603379	0.023014	0.603651	-0.795427	0.053864
43050														9.710266	0.287508	0.548871	0.161838	0.004797	0.009138	1.000000	0.000035	0.000064	0.000034	-0.330241	-0.619511	0.298718	-0.646463	23.051917	-86.638955	104.110021	-0.014293	0.056859	0.998280	-0.797096	-0.603417	0.022957	0.603684	-0.795396	0.053946
43051														9.710473	0.280826	0.530376	0.161842	0.004686	0.008828	1.000000	0.000037	0.000074	0.000035	-0.330252	-0.619480	0.298711	-0.646491	23.004558	-86.634693	104.156993	-0.014357	0.056919	0.998276	-0.797100	-0.603411	0.022941	0.603676	-0.795396	0.054034
43052														9.703776	0.323565	0.529262	0.161730	0.005398	0.008810	1.000000	0.000031	0.000071	0.000033	-0.330249	-0.619460	0.298698	-0.646517	22.964741	-86.631681	104.198196	-0.014411	0.056960	0.998272	-0.797086	-0.603430	0.022924	0.603694	-0.795379	0.054098
43053														9.709984	0.322168	0.498698	0.161834	0.005373	0.008297	1.000000	-0.000013	0.000092	0.000020	-0.330288	-0.619397	0.298706	-0.646554	22.887852	-86.624493	104.270651	-0.014514	0.057063	0.998265	-0.797134	-0.603368	0.022900	0.603628	-0.795419	0.054244
43054														9.710200	0.297513	0.508215	0.161838	0.004962	0.008450	1.000000	-0.000022	0.000124	0.000019	-0.330353	-0.619317	0.298709	-0.646596	22.812426	-86.614245	104.339805	-0.014627	0.057218	0.998255	-0.797201	-0.603279	0.022898	0.603536	-0.795475	0.054439
43055														9.715791	0.326257	0.491083	0.161931	0.005446	0.008161	1.000000	-0.000051	0.000142	0.000047	-0.330427	-0.619217	0.298741	-0.646639	22.698760	-86.604033	104.443763	-0.014775	0.057364	0.998244	-0.797305	-0.603144	0.022858	0.603396	-0.795567	0.054648
43056														9.715690	0.306784	0.521521	0.161929	0.005126	0.008662	1.000000	-0.000085	0.000185	0.000075	-0.330527	-0.619058	0.298804	-0.646711	22.485632	-86.589594	104.641885	-0.015037	0.057556	0.998229	-0.797465	-0.602936	0.022751	0.603177	-0.795711	0.054965
43057														9.722130	0.279783	0.501043	0.162037	0.004681	0.008310	1.000000	-0.000085	0.000247	0.000106	-0.330615	-0.618852	0.298863	-0.646836	22.166648	-86.570117	104.947342	-0.015431	0.057803	0.998209	-0.797611	-0.602750	0.022573	0.602975	-0.795834	0.055405
43058														9.746041	0.280106	0.484221	0.162436	0.004685	0.008024	1.000000	-0.000086	0.000284	0.000099	-0.330710	-0.618620	0.298904	-0.646991	21.817624	-86.545976	105.283673	-0.015881	0.058117	0.998183	-0.797748	-0.602575	0.022391	0.602782	-0.795943	0.055932
43059														9.715934	0.264486	0.504692	0.161935	0.004425	0.008359	1.000000	-0.000063	0.000324	0.000100	-0.330792	-0.618366	0.298914	-0.647187	21.428971	-86.517258	105.663554	-0.016401	0.058492	0.998153	-0.797845	-0.602454	0.022194	0.602640	-0.796007	0.056548
43060														9.710490	0.221251	0.491487	0.161844	0.003700	0.008132	1.000000	-0.000041	0.000366	0.000073	-0.330890	-0.618122	0.298872	-0.647390	21.112517	-86.484529	105.974478	-0.016875	0.058950	0.998118	-0.797907	-0.602375	0.022087	0.602544	-0.796033	0.057202
43061														9.715879	0.230815	0.506320	0.161934	0.003862	0.008376	1.000000	0.000013	0.000387	0.000093	-0.330959	-0.617870	0.298807	-0.647624	20.762075	-86.449806	106.324002	-0.017405	0.059427	0.998081	-0.797922	-0.602361	0.021951	0.602510	-0.796008	0.057902
43062														9.733026	0.256698	0.516824	0.162220	0.004291	0.008547	1.000000	0.000057	0.000413	0.000082	-0.331017	-0.617613	0.298699	-0.647889	20.413119	-86.411210	106.676861	-0.017963	0.059962	0.998039	-0.797886	-0.602413	0.021832	0.602541	-0.795929	0.058664
43063														9.732037	0.285469	0.537175	0.162204	0.004771	0.008887	1.000000	0.000061	0.000406	0.000082	-0.331071	-0.617375	0.298589	-0.648140	20.101688	-86.374300	106.992801	-0.018481	0.060477	0.997998	-0.797843	-0.602473	0.021734	0.602582	-0.795844	0.059386
43064														9.719963	0.285878	0.523108	0.162003	0.004776	0.008644	1.000000	0.000059	0.000460	0.000076	-0.331146	-0.617096	0.298460	-0.648426	19.763289	-86.330699	107.335421	-0.019069	0.061091	0.997950	-0.797804	-0.602528	0.021640	0.602615	-0.795756	0.060228
43065														9.714191	0.266929	0.505282	0.161907	0.004466	0.008337	1.000000	0.000059	0.000523	0.000107	-0.331205	-0.616783	0.298318	-0.648760	19.356325	-86.282517	107.749169	-0.019766	0.061751	0.997896	-0.797739	-0.602620	0.021490	0.602679	-0.795635	0.061172
43066														9.713690	0.265044	0.515809	0.161899	0.004432	0.008506	1.000000	0.000067	0.000565	0.000094	-0.331295	-0.616432	0.298160	-0.649119	18.945458	-86.227911	108.165282	-0.020510	0.062509	0.997834	-0.797690	-0.602689	0.021359	0.602719	-0.795524	0.062224
43067														9.736789	0.295587	0.517958	0.162285	0.004947	0.008530	1.000000	0.000061	0.000632	0.000132	-0.331388	-0.616018	0.298011	-0.649533	18.439427	-86.166672	108.675242	-0.021407	0.063334	0.997763	-0.797656	-0.602742	0.021146	0.602733	-0.795419	0.063422
43068														9.736336	0.268869	0.538356	0.162278	0.004501	0.008859	1.000000	0.000058	0.000705	0.000126	-0.331497	-0.615563	0.297830	-0.649991	17.919961	-86.097426	109.200167	-0.022383	0.064274	0.997681	-0.797607	-0.602814	0.020941	0.602763	-0.795288	0.064758
43069														9.741604	0.295983	0.533235	0.162366	0.004951	0.008759	1.000000	0.000067	0.000793	0.000116	-0.331637	-0.615048	0.297611	-0.650507	17.381739	-86.017162	109.744076	-0.023464	0.065374	0.997585	-0.797556	-0.602888	0.020750	0.602789	-0.795143	0.066286
43070														9.741278	0.287836	0.529968	0.162362	0.004814	0.008686	1.000000	0.000076	0.000909	0.000107	-0.331821	-0.614473	0.297344	-0.651079	16.849956	-85.924526	110.281796	-0.024636	0.066664	0.997471	-0.797504	-0.602962	0.020601	0.602811	-0.794979	0.068019
43071														9.705221	0.345975	0.485825	0.161761	0.005784	0.007935	0.999999	0.000054	0.001007	0.000114	-0.332043	-0.613821	0.297064	-0.651709	16.281342	-85.820767	110.853771	-0.025943	0.068103	0.997341	-0.797479	-0.603000	0.020431	0.602788	-0.794829	0.069954
43072														9.721366	0.328439	0.544254	0.162032	0.005499	0.008886	0.999999	0.000054	0.001142	0.000158	-0.332261	-0.613069	0.296758	-0.652445	15.609799	-85.702997	111.531156	-0.027499	0.069698	0.997189	-0.797430	-0.603074	0.020162	0.602784	-0.794634	0.072163
43073														9.792654	0.271076	0.565011	0.163222	0.004554	0.009207	0.999999	0.000058	0.001288	0.000222	-0.332479	-0.612188	0.296444	-0.653303	14.806171	-85.568961	112.340910	-0.029367	0.071460	0.997011	-0.797378	-0.603157	0.019744	0.602765	-0.794415	0.074694
43074														9.831332	0.265130	0.647421	0.163869	0.004473	0.010556	0.999999	0.000117	0.001435	0.000341	-0.332633	-0.611206	0.296116	-0.654292	13.861955	-85.422335	113.298090	-0.031566	0.073303	0.996810	-0.797254	-0.603342	0.019121	0.602819	-0.794107	0.077486
43075														9.810467	0.267035	0.705966	0.163524	0.004513	0.011510	0.999999	0.000132	0.001571	0.000389	-0.332774	-0.610126	0.295755	-0.655391	12.865347	-85.260504	114.311304	-0.034016	0.075298	0.996581	-0.797090	-0.603581	0.018397	0.602902	-0.793738	0.080551
