// Start Time: Unknown
// Update Rate: 20.0Hz
// Filter Profile: human (46.1)
// Option Flags: AHS Disabled ICC Disabled
// Firmware Version: 4.0.2
0	sampleTimeFine	Year	Month	Day	Second	UTC_Nano	UTC_Year	UTC_Month	UTC_Day	UTC_Hour	UTC_Minute	UTC_Second	UTC_Valid	Acc_X	Acc_Y	Acc_Z	Mat[1][1]	Mat[2][1]	Mat[3][1]	Mat[1][2]	Mat[2][2]	Mat[3][2]	Mat[1][3]	Mat[2][3]	Mat[3][3]
0	5766642270.000000													9.864729	-0.536225	-0.243729	-0.023317	0.999525	0.020156	-0.057777	0.018781	-0.998153	-0.998057	-0.024439	0.057312
1	5766692273.000000													9.856060	-0.498275	-0.246102	-0.023324	0.999524	0.020186	-0.057871	0.018807	-0.998147	-0.998052	-0.024448	0.057405
2	5766742275.000000													9.868164	-0.547373	-0.227468	-0.023177	0.999532	0.019961	-0.057929	0.018590	-0.998148	-0.998052	-0.024290	0.057471
3	5766792277.000000													9.876130	-0.575560	-0.245424	-0.023280	0.999526	0.020131	-0.057968	0.018753	-0.998142	-0.998047	-0.024403	0.057504
4	5766842279.000000													9.880459	-0.533926	-0.221014	-0.022919	0.999526	0.020542	-0.058205	0.019179	-0.998120	-0.998042	-0.024072	0.057738
5	5766892281.000000													9.853108	-0.503817	-0.213731	-0.022929	0.999530	0.020338	-0.058530	0.018966	-0.998105	-0.998022	-0.024076	0.058068
6	5766942283.000000													9.873485	-0.551702	-0.268375	-0.022845	0.999536	0.020129	-0.058498	0.018764	-0.998111	-0.998026	-0.023979	0.058042
7	5766992286.000000													9.873842	-0.612911	-0.219290	-0.022557	0.999525	0.020976	-0.058604	0.019624	-0.998088	-0.998026	-0.023743	0.058133
8	5767042288.000000													9.875066	-0.542544	-0.197185	-0.022444	0.999538	0.020478	-0.058892	0.019126	-0.998081	-0.998012	-0.023607	0.058435
9	5767092290.000000													9.865233	-0.578081	-0.264316	-0.022316	0.999550	0.020045	-0.059233	0.018692	-0.998069	-0.997995	-0.023460	0.058789
10	5767142292.000000													9.867374	-0.560745	-0.190236	-0.021945	0.999553	0.020311	-0.059660	0.018971	-0.998038	-0.997978	-0.023113	0.059217
11	5767192294.000000													9.863200	-0.550035	-0.237675	-0.021839	0.999555	0.020330	-0.060008	0.018988	-0.998017	-0.997959	-0.023016	0.059567
12	5767242297.000000													9.846604	-0.522802	-0.217138	-0.021922	0.999563	0.019813	-0.060119	0.018464	-0.998020	-0.997950	-0.023070	0.059688
13	5767292299.000000													9.871634	-0.616209	-0.224298	-0.021849	0.999566	0.019735	-0.060252	0.018387	-0.998014	-0.997944	-0.022995	0.059824
14	5767342301.000000													9.853065	-0.581213	-0.215943	-0.021577	0.999554	0.020641	-0.060387	0.019305	-0.997988	-0.997942	-0.022780	0.059943
15	5767392303.000000													9.865689	-0.553441	-0.203877	-0.021525	0.999562	0.020309	-0.060662	0.018971	-0.997978	-0.997926	-0.022714	0.060227
16	5767442305.000000													9.864520	-0.613716	-0.205592	-0.021442	0.999573	0.019827	-0.060881	0.018490	-0.997974	-0.997915	-0.022606	0.060458
17	5767492307.000000													9.873534	-0.606122	-0.214223	-0.021268	0.999572	0.020070	-0.061101	0.018737	-0.997956	-0.997905	-0.022451	0.060676
18	5767542310.000000													9.863834	-0.571879	-0.224091	-0.021066	0.999570	0.020392	-0.061531	0.019062	-0.997923	-0.997883	-0.022277	0.061103
19	5767592312.000000													9.854466	-0.557724	-0.207768	-0.020914	0.999578	0.020141	-0.061930	0.018812	-0.997903	-0.997861	-0.022118	0.061510
20	5767642314.000000													9.867379	-0.616350	-0.232780	-0.020929	0.999582	0.019949	-0.062248	0.018611	-0.997887	-0.997841	-0.022127	0.061833
21	5767692316.000000													9.858095	-0.605776	-0.220281	-0.020782	0.999567	0.020834	-0.062340	0.019503	-0.997864	-0.997839	-0.022036	0.061907
22	5767742318.000000													9.857835	-0.568210	-0.164448	-0.020726	0.999571	0.020684	-0.062564	0.019351	-0.997853	-0.997826	-0.021975	0.062137
23	5767792320.000000													9.852378	-0.630610	-0.225926	-0.020667	0.999581	0.020289	-0.062696	0.018958	-0.997853	-0.997819	-0.021895	0.062278
24	5767842323.000000													9.870122	-0.603328	-0.212526	-0.020435	0.999574	0.020841	-0.062933	0.019518	-0.997827	-0.997809	-0.021702	0.062508
25	5767892325.000000													9.860976	-0.557705	-0.198147	-0.020441	0.999568	0.021100	-0.063116	0.019772	-0.997810	-0.997797	-0.021728	0.062684
26	5767942327.000000													9.860833	-0.595127	-0.217298	-0.020429	0.999578	0.020638	-0.063246	0.019309	-0.997811	-0.997789	-0.021690	0.062825
27	5767992329.000000													9.873945	-0.615669	-0.224946	-0.020371	0.999574	0.020905	-0.063424	0.019575	-0.997795	-0.997779	-0.021652	0.062999
28	5768042331.000000													9.844935	-0.594338	-0.194891	-0.020262	0.999570	0.021216	-0.063582	0.019889	-0.997778	-0.997771	-0.021566	0.063151
29	5768092333.000000													9.877398	-0.628535	-0.196885	-0.020233	0.999559	0.021743	-0.063713	0.020414	-0.997759	-0.997763	-0.021573	0.063272
30	5768142336.000000													9.839607	-0.601363	-0.194867	-0.020303	0.999556	0.021805	-0.063825	0.020470	-0.997751	-0.997755	-0.021650	0.063381
31	5768192338.000000													9.887822	-0.631383	-0.202549	-0.020226	0.999557	0.021838	-0.063898	0.020505	-0.997746	-0.997751	-0.021576	0.063455
32	5768242340.000000													9.862567	-0.605094	-0.188136	-0.020002	0.999551	0.022316	-0.064277	0.020989	-0.997711	-0.997732	-0.021391	0.063828
33	5768292342.000000													9.864910	-0.564046	-0.209751	-0.019901	0.999561	0.021932	-0.064571	0.020606	-0.997700	-0.997715	-0.021271	0.064132
34	5768342344.000000													9.851928	-0.646652	-0.218639	-0.020035	0.999561	0.021850	-0.064689	0.020512	-0.997695	-0.997704	-0.021402	0.064249
35	5768392347.000000													9.857634	-0.633723	-0.196171	-0.019919	0.999541	0.022809	-0.064766	0.021475	-0.997669	-0.997702	-0.021350	0.064309
36	5768442349.000000													9.848823	-0.587161	-0.176896	-0.020059	0.999535	0.022972	-0.064810	0.021628	-0.997663	-0.997696	-0.021501	0.064346
37	5768492351.000000													9.861765	-0.644012	-0.207079	-0.020075	0.999537	0.022885	-0.064833	0.021540	-0.997664	-0.997694	-0.021512	0.064371
38	5768542353.000000													9.865906	-0.621948	-0.197091	-0.020119	0.999527	0.023256	-0.064823	0.021907	-0.997656	-0.997694	-0.021579	0.064352
39	5768592355.000000													9.852015	-0.594877	-0.193010	-0.020177	0.999527	0.023218	-0.064970	0.021863	-0.997648	-0.997683	-0.021638	0.064498
40	5768642357.000000													9.875909	-0.631389	-0.221113	-0.020085	0.999532	0.023091	-0.064991	0.021741	-0.997649	-0.997684	-0.021539	0.064524
41	5768692360.000000													9.848349	-0.612524	-0.174151	-0.020244	0.999514	0.023694	-0.064913	0.022335	-0.997641	-0.997686	-0.021735	0.064429
42	5768742362.000000													9.858397	-0.655626	-0.187434	-0.020428	0.999496	0.024281	-0.064672	0.022914	-0.997643	-0.997697	-0.021950	0.064171
43	5768792364.000000													9.879061	-0.646216	-0.184274	-0.020370	0.999483	0.024865	-0.064702	0.023500	-0.997628	-0.997697	-0.021931	0.064190
44	5768842366.000000													9.859290	-0.564033	-0.197101	-0.020456	0.999492	0.024455	-0.064773	0.023084	-0.997633	-0.997690	-0.021991	0.064268
45	5768892368.000000													9.842112	-0.628065	-0.241845	-0.020732	0.999487	0.024416	-0.064501	0.023033	-0.997652	-0.997702	-0.022258	0.063991
46	5768942370.000000													9.875569	-0.635101	-0.197915	-0.020743	0.999475	0.024906	-0.064471	0.023523	-0.997642	-0.997704	-0.022300	0.063949
47	5768992373.000000													9.852056	-0.577363	-0.189820	-0.020699	0.999488	0.024410	-0.064619	0.023027	-0.997644	-0.997695	-0.022228	0.064109
48	5769042375.000000													9.850653	-0.609075	-0.222192	-0.021049	0.999491	0.023978	-0.064550	0.022575	-0.997659	-0.997692	-0.022547	0.064042
49	5769092377.000000													9.867510	-0.658836	-0.197865	-0.021142	0.999470	0.024750	-0.064314	0.023345	-0.997657	-0.997706	-0.022684	0.063787
50	5769142379.000000													9.849065	-0.600315	-0.195140	-0.021210	0.999454	0.025323	-0.064188	0.023915	-0.997651	-0.997712	-0.022786	0.063645
51	5769192381.000000													9.863824	-0.610027	-0.211791	-0.021254	0.999468	0.024747	-0.064091	0.023340	-0.997671	-0.997718	-0.022791	0.063561
52	5769242383.000000													9.874177	-0.654486	-0.232022	-0.021585	0.999467	0.024492	-0.064003	0.023066	-0.997683	-0.997716	-0.023102	0.063471
53	5769292386.000000													9.866374	-0.570847	-0.191801	-0.021697	0.999453	0.024957	-0.064008	0.023523	-0.997672	-0.997714	-0.023243	0.063462
54	5769342388.000000													9.867281	-0.602064	-0.228860	-0.021849	0.999468	0.024229	-0.064041	0.022786	-0.997687	-0.997708	-0.023350	0.063509
55	5769392390.000000													9.864182	-0.599042	-0.236274	-0.022050	0.999463	0.024220	-0.063982	0.022766	-0.997691	-0.997707	-0.023549	0.063446
56	5769442392.000000													9.860592	-0.620413	-0.208290	-0.022046	0.999464	0.024202	-0.063963	0.022748	-0.997693	-0.997709	-0.023543	0.063428
57	5769492394.000000													9.863300	-0.621637	-0.216422	-0.021990	0.999456	0.024583	-0.063792	0.023136	-0.997695	-0.997721	-0.023508	0.063249
58	5769542396.000000													9.868212	-0.612590	-0.193030	-0.022269	0.999452	0.024495	-0.063692	0.023033	-0.997704	-0.997721	-0.023778	0.063144
59	5769592399.000000													9.868964	-0.648737	-0.219604	-0.022567	0.999441	0.024665	-0.063564	0.023187	-0.997708	-0.997723	-0.024083	0.063005
60	5769642401.000000													9.867584	-0.605709	-0.243848	-0.022664	0.999426	0.025198	-0.063504	0.023714	-0.997700	-0.997724	-0.024212	0.062930
61	5769692403.000000													9.843841	-0.545133	-0.238799	-0.022609	0.999425	0.025267	-0.063674	0.023782	-0.997687	-0.997715	-0.024166	0.063100
62	5769742405.000000													9.882400	-0.609282	-0.232471	-0.022727	0.999452	0.024073	-0.063608	0.022585	-0.997719	-0.997716	-0.024206	0.063060
63	5769792407.000000													9.874563	-0.656635	-0.256393	-0.022800	0.999430	0.024901	-0.063660	0.023405	-0.997697	-0.997711	-0.024332	0.063090
64	5769842410.000000													9.844889	-0.602336	-0.194383	-0.022705	0.999417	0.025490	-0.063681	0.023999	-0.997682	-0.997712	-0.024276	0.063099
65	5769892412.000000													9.848661	-0.597301	-0.236441	-0.022800	0.999437	0.024628	-0.063569	0.023135	-0.997709	-0.997717	-0.024313	0.063005
66	5769942414.000000													9.885806	-0.638005	-0.230533	-0.022758	0.999439	0.024574	-0.063542	0.023084	-0.997712	-0.997720	-0.024267	0.062981
67	5769992416.000000													9.848063	-0.573820	-0.237037	-0.022754	0.999432	0.024877	-0.063405	0.023391	-0.997714	-0.997728	-0.024279	0.062837
68	5770042418.000000													9.850977	-0.610430	-0.234763	-0.022785	0.999433	0.024790	-0.063200	0.023307	-0.997729	-0.997741	-0.024300	0.062633
69	5770092420.000000													9.875275	-0.588404	-0.229279	-0.022913	0.999423	0.025079	-0.063079	0.023590	-0.997730	-0.997746	-0.024443	0.062502
70	5770142423.000000													9.857729	-0.587177	-0.245099	-0.022891	0.999426	0.024981	-0.063000	0.023496	-0.997737	-0.997751	-0.024413	0.062426
71	5770192425.000000													9.864738	-0.598210	-0.233137	-0.022820	0.999422	0.025184	-0.062937	0.023705	-0.997736	-0.997757	-0.024354	0.062360
72	5770242427.000000													9.852144	-0.589715	-0.234157	-0.022911	0.999422	0.025124	-0.062833	0.023641	-0.997744	-0.997761	-0.024438	0.062255
73	5770292429.000000													9.882444	-0.619811	-0.236289	-0.022792	0.999417	0.025426	-0.062758	0.023953	-0.997741	-0.997768	-0.024337	0.062175
74	5770342431.000000													9.872986	-0.597157	-0.230849	-0.022553	0.999399	0.026310	-0.063058	0.024842	-0.997701	-0.997755	-0.024160	0.062460
75	5770392433.000000													9.844327	-0.498504	-0.239168	-0.022411	0.999419	0.025677	-0.063081	0.024219	-0.997715	-0.997757	-0.023980	0.062501
76	5770442436.000000													9.891952	-0.647940	-0.242182	-0.022693	0.999414	0.025626	-0.062928	0.024154	-0.997726	-0.997760	-0.024254	0.062343
77	5770492438.000000													9.858967	-0.649043	-0.194315	-0.022456	0.999391	0.026711	-0.062877	0.025253	-0.997702	-0.997769	-0.024084	0.062272
78	5770542440.000000													9.875263	-0.566332	-0.200796	-0.022280	0.999406	0.026290	-0.062984	0.024841	-0.997705	-0.997766	-0.023885	0.062393
79	5770592442.000000													9.863969	-0.633808	-0.231102	-0.022135	0.999428	0.025553	-0.063117	0.024112	-0.997715	-0.997761	-0.023697	0.062548
80	5770642444.000000													9.850595	-0.597548	-0.242749	-0.022052	0.999409	0.026376	-0.063063	0.024939	-0.997698	-0.997766	-0.023665	0.062475
81	5770692446.000000													9.877142	-0.579852	-0.209285	-0.021881	0.999406	0.026617	-0.063049	0.025191	-0.997692	-0.997771	-0.023509	0.062461
82	5770742449.000000													9.865685	-0.600602	-0.187536	-0.021876	0.999412	0.026396	-0.063139	0.024968	-0.997692	-0.997765	-0.023492	0.062556
83	5770792451.000000													9.857132	-0.626875	-0.213338	-0.021691	0.999416	0.026394	-0.063183	0.024977	-0.997689	-0.997766	-0.023309	0.062604
84	5770842453.000000													9.862116	-0.579832	-0.217651	-0.021637	0.999395	0.027220	-0.063204	0.025805	-0.997667	-0.997766	-0.023307	0.062607
85	5770892455.000000													9.870739	-0.597556	-0.189453	-0.021673	0.999395	0.027220	-0.063188	0.025803	-0.997668	-0.997766	-0.023342	0.062591
86	5770942457.000000													9.857883	-0.624208	-0.206549	-0.021668	0.999392	0.027306	-0.063327	0.025886	-0.997657	-0.997758	-0.023346	0.062728
87	5770992459.000000													9.890456	-0.606343	-0.202443	-0.021451	0.999396	0.027350	-0.063553	0.025938	-0.997641	-0.997748	-0.023139	0.062958
88	5771042462.000000													9.835375	-0.545661	-0.229702	-0.021290	0.999401	0.027296	-0.063928	0.025886	-0.997619	-0.997727	-0.022984	0.063339
89	5771092464.000000													9.863719	-0.567343	-0.244814	-0.021285	0.999406	0.027117	-0.063916	0.025708	-0.997624	-0.997728	-0.022967	0.063331
90	5771142466.000000													9.862642	-0.629281	-0.201308	-0.021401	0.999397	0.027357	-0.063987	0.025938	-0.997614	-0.997721	-0.023100	0.063393
91	5771192468.000000													9.855483	-0.629071	-0.205788	-0.021410	0.999391	0.027545	-0.064078	0.026123	-0.997603	-0.997715	-0.023123	0.063480
92	5771242470.000000													9.869832	-0.605868	-0.178501	-0.021279	0.999402	0.027267	-0.064115	0.025853	-0.997608	-0.997716	-0.022976	0.063526
93	5771292473.000000													9.857440	-0.636431	-0.231037	-0.021175	0.999408	0.027129	-0.064421	0.025715	-0.997591	-0.997698	-0.022872	0.063838
94	5771342475.000000													9.841205	-0.587748	-0.216579	-0.020936	0.999407	0.027352	-0.064558	0.025949	-0.997577	-0.997694	-0.022652	0.063977
95	5771392477.000000													9.872878	-0.593991	-0.219589	-0.020966	0.999412	0.027122	-0.064662	0.025716	-0.997576	-0.997687	-0.022669	0.064085
96	5771442479.000000													9.856093	-0.604645	-0.207935	-0.021040	0.999415	0.026955	-0.064772	0.025541	-0.997573	-0.997678	-0.022735	0.064196
97	5771492481.000000													9.863212	-0.606904	-0.190635	-0.021127	0.999428	0.026394	-0.064815	0.024976	-0.997585	-0.997674	-0.022787	0.064250
98	5771542483.000000													9.869973	-0.677516	-0.187683	-0.021015	0.999434	0.026256	-0.064949	0.024841	-0.997579	-0.997667	-0.022670	0.064391
99	5771592486.000000													9.873899	-0.601442	-0.217253	-0.020956	0.999419	0.026862	-0.065108	0.025447	-0.997554	-0.997658	-0.022654	0.064537
100	5771642488.000000													9.853485	-0.628718	-0.227139	-0.020857	0.999417	0.027039	-0.065280	0.025626	-0.997538	-0.997649	-0.022571	0.064707
101	5771692490.000000													9.867933	-0.604632	-0.214975	-0.020821	0.999402	0.027602	-0.065414	0.026187	-0.997515	-0.997641	-0.022575	0.064830
102	5771742492.000000													9.848871	-0.577235	-0.197566	-0.020834	0.999402	0.027596	-0.065696	0.026173	-0.997496	-0.997622	-0.022595	0.065112
103	5771792494.000000													9.867559	-0.641733	-0.191202	-0.020917	0.999424	0.026711	-0.065594	0.025287	-0.997526	-0.997627	-0.022617	0.065027
104	5771842496.000000													9.872517	-0.712286	-0.208099	-0.020873	0.999410	0.027282	-0.065771	0.025856	-0.997500	-0.997616	-0.022615	0.065192
105	5771892499.000000													9.866966	-0.602200	-0.198132	-0.020713	0.999400	0.027755	-0.066010	0.026333	-0.997471	-0.997604	-0.022492	0.065425
106	5771942501.000000													9.856194	-0.620375	-0.229916	-0.020803	0.999406	0.027492	-0.066147	0.026061	-0.997470	-0.997593	-0.022569	0.065565
107	5771992503.000000													9.875641	-0.647514	-0.239573	-0.020605	0.999401	0.027821	-0.066305	0.026400	-0.997450	-0.997587	-0.022397	0.065721
108	5772042505.000000													9.847561	-0.599348	-0.214822	-0.020507	0.999401	0.027859	-0.066453	0.026441	-0.997439	-0.997579	-0.022306	0.065871
109	5772092507.000000													9.873077	-0.634829	-0.218030	-0.020486	0.999410	0.027552	-0.066483	0.026135	-0.997445	-0.997577	-0.022265	0.065908
110	5772142509.000000													9.873667	-0.663514	-0.193035	-0.020482	0.999412	0.027496	-0.066624	0.026076	-0.997437	-0.997568	-0.022261	0.066050
111	5772192512.000000													9.853420	-0.626361	-0.182560	-0.020262	0.999425	0.027202	-0.066849	0.025793	-0.997430	-0.997557	-0.022028	0.066288
112	5772242514.000000													9.863672	-0.634308	-0.220056	-0.020099	0.999436	0.026904	-0.066833	0.025506	-0.997438	-0.997562	-0.021846	0.066282
113	5772292516.000000													9.858735	-0.690540	-0.198604	-0.019901	0.999430	0.027254	-0.066937	0.025866	-0.997422	-0.997559	-0.021674	0.066384
114	5772342518.000000													9.873340	-0.606465	-0.199159	-0.019681	0.999421	0.027749	-0.067062	0.026372	-0.997400	-0.997555	-0.021491	0.066504
115	5772392520.000000													9.861865	-0.610613	-0.209603	-0.019431	0.999435	0.027426	-0.067083	0.026066	-0.997407	-0.997558	-0.021220	0.066539
116	5772442523.000000													9.872776	-0.658100	-0.176583	-0.019170	0.999444	0.027278	-0.067301	0.025932	-0.997396	-0.997549	-0.020956	0.066766
117	5772492525.000000													9.854713	-0.622862	-0.191985	-0.018938	0.999455	0.027031	-0.067687	0.025692	-0.997376	-0.997527	-0.020718	0.067163
118	5772542527.000000													9.859184	-0.608702	-0.201187	-0.018621	0.999472	0.026632	-0.067725	0.025314	-0.997383	-0.997530	-0.020376	0.067218
119	5772592529.000000													9.859882	-0.676369	-0.186070	-0.018599	0.999482	0.026249	-0.067737	0.024934	-0.997392	-0.997530	-0.020328	0.067238
120	5772642531.000000													9.869229	-0.659286	-0.149441	-0.018592	0.999486	0.026121	-0.067821	0.024805	-0.997389	-0.997524	-0.020315	0.067325
121	5772692533.000000													9.839708	-0.649933	-0.195031	-0.018615	0.999509	0.025205	-0.067841	0.023889	-0.997410	-0.997522	-0.020277	0.067363
122	5772742536.000000													9.878253	-0.663526	-0.188077	-0.018388	0.999515	0.025143	-0.067799	0.023843	-0.997414	-0.997530	-0.020045	0.067328
123	5772792538.000000													9.856865	-0.638609	-0.172960	-0.018530	0.999515	0.025022	-0.067810	0.023713	-0.997416	-0.997526	-0.020179	0.067337
124	5772842540.000000													9.848375	-0.620854	-0.194426	-0.018482	0.999528	0.024554	-0.067816	0.023248	-0.997427	-0.997527	-0.020100	0.067354
125	5772892542.000000													9.866248	-0.680558	-0.175167	-0.018569	0.999546	0.023711	-0.067821	0.022401	-0.997446	-0.997525	-0.020130	0.067375
126	5772942544.000000													9.858952	-0.673137	-0.172957	-0.018472	0.999541	0.024022	-0.067757	0.022719	-0.997443	-0.997531	-0.020052	0.067307
127	5772992546.000000													9.861936	-0.656286	-0.182868	-0.018361	0.999546	0.023892	-0.067802	0.022597	-0.997443	-0.997530	-0.019934	0.067357
128	5773042549.000000													9.849283	-0.629283	-0.180949	-0.018213	0.999554	0.023682	-0.067754	0.022398	-0.997451	-0.997536	-0.019771	0.067316
129	5773092551.000000													9.859893	-0.643235	-0.165843	-0.018209	0.999560	0.023395	-0.067685	0.022113	-0.997462	-0.997541	-0.019746	0.067252
130	5773142553.000000													9.858646	-0.658414	-0.175849	-0.018531	0.999555	0.023375	-0.067620	0.022072	-0.997467	-0.997539	-0.020064	0.067181
131	5773192555.000000													9.873738	-0.674037	-0.176494	-0.018577	0.999562	0.023054	-0.067546	0.021750	-0.997479	-0.997543	-0.020088	0.067112
132	5773242557.000000													9.849098	-0.645548	-0.195868	-0.018552	0.999559	0.023178	-0.067766	0.021872	-0.997461	-0.997529	-0.020075	0.067330
133	5773292559.000000													9.846652	-0.595938	-0.173175	-0.018556	0.999570	0.022716	-0.067649	0.021412	-0.997479	-0.997537	-0.020046	0.067223
134	5773342562.000000													9.873763	-0.681749	-0.202474	-0.018755	0.999571	0.022505	-0.067515	0.021192	-0.997493	-0.997542	-0.020227	0.067088
135	5773392564.000000													9.862014	-0.662649	-0.185308	-0.018738	0.999555	0.023212	-0.067435	0.021900	-0.997483	-0.997548	-0.020256	0.066995
136	5773442566.000000													9.846742	-0.624451	-0.176247	-0.018795	0.999558	0.023033	-0.067330	0.021719	-0.997494	-0.997554	-0.020299	0.066892
137	5773492568.000000													9.870317	-0.672168	-0.192184	-0.018933	0.999556	0.023020	-0.067309	0.021698	-0.997496	-0.997553	-0.020435	0.066868
138	5773542570.000000													9.850306	-0.628541	-0.186347	-0.019047	0.999548	0.023264	-0.067230	0.021935	-0.997496	-0.997556	-0.020563	0.066782
139	5773592572.000000													9.871448	-0.619978	-0.179489	-0.019011	0.999553	0.023064	-0.067082	0.021741	-0.997511	-0.997566	-0.020511	0.066639
140	5773642575.000000													9.844069	-0.657458	-0.213906	-0.019204	0.999548	0.023128	-0.066948	0.021795	-0.997518	-0.997572	-0.020705	0.066499
141	5773692577.000000													9.884685	-0.642845	-0.159238	-0.019174	0.999549	0.023116	-0.066666	0.021791	-0.997537	-0.997591	-0.020668	0.066218
142	5773742579.000000													9.857288	-0.662605	-0.175748	-0.019528	0.999535	0.023425	-0.066518	0.022079	-0.997541	-0.997594	-0.021038	0.066056
143	5773792581.000000													9.849357	-0.627161	-0.181223	-0.019804	0.999514	0.024087	-0.066308	0.022726	-0.997540	-0.997603	-0.021353	0.065826
144	5773842583.000000													9.887424	-0.638524	-0.180133	-0.019920	0.999513	0.024013	-0.066248	0.022646	-0.997546	-0.997604	-0.021462	0.065764
145	5773892586.000000													9.856683	-0.634468	-0.207576	-0.020139	0.999507	0.024067	-0.066168	0.022687	-0.997551	-0.997605	-0.021682	0.065679
146	5773942588.000000													9.881804	-0.632451	-0.196864	-0.020088	0.999512	0.023902	-0.066365	0.022521	-0.997541	-0.997593	-0.021625	0.065881
147	5773992590.000000													9.851271	-0.585819	-0.202719	-0.019930	0.999524	0.023539	-0.066706	0.022162	-0.997527	-0.997574	-0.021450	0.066233
148	5774042592.000000													9.859665	-0.581223	-0.230507	-0.020152	0.999541	0.022626	-0.066644	0.021237	-0.997551	-0.997573	-0.021611	0.066186
149	5774092594.000000													9.867696	-0.708213	-0.214232	-0.020341	0.999525	0.023164	-0.066481	0.021765	-0.997550	-0.997580	-0.021831	0.066007
150	5774142596.000000													9.871222	-0.597013	-0.203329	-0.020265	0.999502	0.024169	-0.066452	0.022774	-0.997530	-0.997584	-0.021821	0.065958
151	5774192599.000000													9.872137	-0.591094	-0.207420	-0.020295	0.999531	0.022942	-0.066507	0.021547	-0.997553	-0.997580	-0.021771	0.066038
152	5774242601.000000													9.855222	-0.663011	-0.247164	-0.020386	0.999529	0.022919	-0.066491	0.021518	-0.997555	-0.997579	-0.021860	0.066021
153	5774292603.000000													9.862790	-0.608913	-0.192248	-0.020324	0.999528	0.023027	-0.066499	0.021629	-0.997552	-0.997580	-0.021805	0.066028
154	5774342605.000000													9.867109	-0.650847	-0.210677	-0.020352	0.999532	0.022859	-0.066570	0.021458	-0.997551	-0.997574	-0.021824	0.066102
155	5774392607.000000													9.858592	-0.613044	-0.195225	-0.020353	0.999533	0.022798	-0.066636	0.021395	-0.997548	-0.997570	-0.021822	0.066169
156	5774442609.000000													9.874726	-0.634356	-0.228133	-0.020404	0.999536	0.022614	-0.066732	0.021207	-0.997546	-0.997562	-0.021863	0.066268
157	5774492612.000000													9.855623	-0.649520	-0.177418	-0.020347	0.999533	0.022809	-0.066799	0.021404	-0.997537	-0.997559	-0.021821	0.066332
158	5774542614.000000													9.864621	-0.630537	-0.202769	-0.020213	0.999545	0.022378	-0.066946	0.020979	-0.997536	-0.997552	-0.021661	0.066491
159	5774592616.000000													9.866755	-0.633663	-0.203890	-0.020045	0.999544	0.022576	-0.067149	0.021184	-0.997518	-0.997542	-0.021511	0.066694
160	5774642618.000000													9.854838	-0.625637	-0.215030	-0.019952	0.999539	0.022905	-0.067218	0.021517	-0.997506	-0.997539	-0.021442	0.066757
161	5774692620.000000													9.865437	-0.652042	-0.185528	-0.019847	0.999535	0.023170	-0.067325	0.021786	-0.997493	-0.997534	-0.021357	0.066861
162	5774742622.000000													9.866416	-0.660848	-0.183090	-0.019593	0.999541	0.023112	-0.067652	0.021738	-0.997472	-0.997517	-0.021107	0.067195
163	5774792625.000000													9.845445	-0.592696	-0.197609	-0.019364	0.999554	0.022747	-0.068026	0.021382	-0.997454	-0.997496	-0.020862	0.067582
164	5774842627.000000													9.851390	-0.652699	-0.218114	-0.019350	0.999565	0.022254	-0.068149	0.020888	-0.997456	-0.997487	-0.020817	0.067715
165	5774892629.000000													9.873564	-0.704933	-0.183654	-0.019413	0.999541	0.023277	-0.068186	0.021904	-0.997432	-0.997484	-0.020950	0.067730
166	5774942631.000000													9.852509	-0.647055	-0.159216	-0.019269	0.999543	0.023271	-0.068337	0.021904	-0.997422	-0.997476	-0.020810	0.067884
167	5774992633.000000													9.875547	-0.655881	-0.190584	-0.019093	0.999557	0.022840	-0.068484	0.021483	-0.997421	-0.997469	-0.020608	0.068044
168	5775042635.000000													9.853931	-0.650840	-0.196924	-0.019026	0.999554	0.023017	-0.068579	0.021663	-0.997411	-0.997464	-0.020555	0.068136
169	5775092638.000000													9.867155	-0.644726	-0.180869	-0.018867	0.999560	0.022891	-0.068747	0.021544	-0.997402	-0.997456	-0.020392	0.068310
170	5775142640.000000													9.856180	-0.629030	-0.203767	-0.018735	0.999560	0.022995	-0.068859	0.021655	-0.997391	-0.997450	-0.020270	0.068423
171	5775192642.000000													9.857483	-0.646282	-0.192438	-0.018652	0.999564	0.022876	-0.068947	0.021540	-0.997388	-0.997446	-0.020180	0.068516
172	5775242644.000000													9.854722	-0.669975	-0.194932	-0.018611	0.999563	0.022972	-0.068962	0.021638	-0.997385	-0.997446	-0.020147	0.068529
173	5775292646.000000													9.864076	-0.640529	-0.174422	-0.018589	0.999562	0.023033	-0.068960	0.021700	-0.997383	-0.997446	-0.020129	0.068526
174	5775342649.000000													9.861579	-0.668307	-0.183985	-0.018529	0.999569	0.022792	-0.069088	0.021461	-0.997380	-0.997438	-0.020056	0.068661
175	5775392651.000000													9.862775	-0.669950	-0.179789	-0.018381	0.999570	0.022842	-0.069125	0.021521	-0.997376	-0.997439	-0.019912	0.068700
176	5775442653.000000													9.850498	-0.639876	-0.176395	-0.018199	0.999574	0.022800	-0.069258	0.021488	-0.997367	-0.997433	-0.019730	0.068837
177	5775492655.000000													9.876636	-0.673447	-0.185693	-0.018055	0.999583	0.022524	-0.069294	0.021223	-0.997371	-0.997433	-0.019568	0.068882
178	5775542657.000000													9.861811	-0.685740	-0.179032	-0.017814	0.999585	0.022624	-0.069549	0.021334	-0.997350	-0.997420	-0.019340	0.069140
179	5775592659.000000													9.849953	-0.631991	-0.162870	-0.017564	0.999589	0.022656	-0.069928	0.021375	-0.997323	-0.997397	-0.019101	0.069524
180	5775642662.000000													9.859822	-0.657961	-0.185027	-0.017458	0.999596	0.022418	-0.070059	0.021143	-0.997319	-0.997390	-0.018982	0.069661
181	5775692664.000000													9.871954	-0.695010	-0.152889	-0.017239	0.999589	0.022915	-0.070108	0.021653	-0.997304	-0.997390	-0.018799	0.069706
182	5775742666.000000													9.849841	-0.671522	-0.134876	-0.017212	0.999581	0.023258	-0.070286	0.021994	-0.997284	-0.997378	-0.018800	0.069878
183	5775792668.000000													9.857766	-0.656510	-0.157135	-0.016986	0.999597	0.022727	-0.070163	0.021482	-0.997304	-0.997391	-0.018535	0.069770
184	5775842670.000000													9.862546	-0.706344	-0.190841	-0.016775	0.999620	0.021870	-0.070219	0.020641	-0.997318	-0.997391	-0.018266	0.069846
185	5775892672.000000													9.848232	-0.625727	-0.150515	-0.016613	0.999611	0.022414	-0.070123	0.021197	-0.997313	-0.997400	-0.018141	0.069743
186	5775942675.000000													9.865096	-0.668232	-0.147429	-0.016828	0.999618	0.021945	-0.070035	0.020715	-0.997329	-0.997403	-0.018319	0.069659
187	5775992677.000000													9.867457	-0.688848	-0.163246	-0.016553	0.999635	0.021354	-0.069967	0.020147	-0.997346	-0.997412	-0.018003	0.069608
188	5776042679.000000													9.831078	-0.622135	-0.180290	-0.016813	0.999641	0.020855	-0.069884	0.019633	-0.997362	-0.997413	-0.018226	0.069529
189	5776092681.000000													9.843307	-0.620098	-0.236458	-0.017944	0.999615	0.021185	-0.069180	0.019897	-0.997406	-0.997443	-0.019363	0.068796
190	5776142683.000000													9.871774	-0.751604	-0.120767	-0.018714	0.999573	0.022423	-0.068664	0.021089	-0.997417	-0.997464	-0.020205	0.068241
191	5776192685.000000													9.895153	-0.750462	-0.134971	-0.018996	0.999511	0.024838	-0.068383	0.023486	-0.997383	-0.997478	-0.020645	0.067903
192	5776242688.000000													9.845912	-0.635369	-0.132046	-0.018923	0.999496	0.025496	-0.068667	0.024141	-0.997348	-0.997460	-0.020624	0.068175
193	5776292690.000000													9.854529	-0.677690	-0.168936	-0.018965	0.999531	0.024064	-0.068737	0.022708	-0.997376	-0.997455	-0.020570	0.068274
194	5776342692.000000													9.874790	-0.680153	-0.198809	-0.019101	0.999570	0.022246	-0.068687	0.020886	-0.997420	-0.997455	-0.020579	0.068259
195	5776392694.000000													9.830256	-0.628441	-0.211871	-0.018845	0.999582	0.021928	-0.068745	0.020584	-0.997422	-0.997456	-0.020303	0.068329
196	5776442696.000000													9.863489	-0.560346	-0.213483	-0.018800	0.999593	0.021471	-0.068317	0.020140	-0.997460	-0.997486	-0.020219	0.067911
197	5776492699.000000													9.864700	-0.651157	-0.216962	-0.019194	0.999596	0.020977	-0.068024	0.019627	-0.997491	-0.997499	-0.020573	0.067620
198	5776542701.000000													9.852909	-0.629192	-0.195784	-0.019369	0.999581	0.021532	-0.067615	0.020177	-0.997507	-0.997523	-0.020777	0.067196
199	5776592703.000000													9.870482	-0.620675	-0.198873	-0.019587	0.999590	0.020892	-0.067215	0.019533	-0.997547	-0.997546	-0.020943	0.066805
200	5776642705.000000													9.877709	-0.683763	-0.181505	-0.019934	0.999586	0.020754	-0.067002	0.019376	-0.997565	-0.997554	-0.021276	0.066588
201	5776692707.000000													9.851943	-0.618163	-0.196547	-0.019963	0.999578	0.021115	-0.066964	0.019735	-0.997560	-0.997556	-0.021328	0.066542
202	5776742709.000000													9.855947	-0.607036	-0.191559	-0.020045	0.999584	0.020737	-0.066948	0.019353	-0.997569	-0.997555	-0.021385	0.066532
203	5776792712.000000													9.854360	-0.645241	-0.194639	-0.020242	0.999600	0.019767	-0.066957	0.018371	-0.997587	-0.997551	-0.021516	0.066558
204	5776842714.000000													9.873434	-0.650876	-0.182375	-0.020395	0.999602	0.019473	-0.067014	0.018066	-0.997588	-0.997544	-0.021651	0.066619
205	5776892716.000000													9.835594	-0.637575	-0.200980	-0.020540	0.999604	0.019258	-0.066920	0.017844	-0.997599	-0.997547	-0.021779	0.066527
206	5776942718.000000													9.883466	-0.647767	-0.198908	-0.020830	0.999596	0.019360	-0.066820	0.017929	-0.997604	-0.997548	-0.022073	0.066420
207	5776992720.000000													9.866570	-0.642788	-0.184652	-0.021085	0.999594	0.019149	-0.066785	0.017702	-0.997610	-0.997545	-0.022314	0.066384
208	5777042722.000000													9.861129	-0.638488	-0.226446	-0.021407	0.999595	0.018747	-0.066622	0.017284	-0.997629	-0.997549	-0.022605	0.066225
209	5777092725.000000													9.871394	-0.659628	-0.201957	-0.021795	0.999585	0.018852	-0.066540	0.017364	-0.997633	-0.997546	-0.022997	0.066134
210	5777142727.000000													9.840613	-0.612224	-0.212462	-0.022255	0.999560	0.019611	-0.066606	0.018090	-0.997615	-0.997531	-0.023509	0.066174
211	5777192729.000000													9.854936	-0.634951	-0.237677	-0.022782	0.999545	0.019761	-0.066586	0.018205	-0.997615	-0.997521	-0.024043	0.066141
212	5777242731.000000													9.855740	-0.648148	-0.238307	-0.023335	0.999517	0.020517	-0.066389	0.018928	-0.997614	-0.997521	-0.024641	0.065915
213	5777292733.000000													9.876965	-0.664767	-0.182712	-0.023820	0.999496	0.020963	-0.066407	0.019341	-0.997605	-0.997508	-0.025155	0.065913
214	5777342735.000000													9.868825	-0.620336	-0.233135	-0.024057	0.999494	0.020811	-0.066535	0.019170	-0.997600	-0.997494	-0.025384	0.066041
215	5777392738.000000													9.861007	-0.663749	-0.243156	-0.024209	0.999496	0.020512	-0.066640	0.018859	-0.997599	-0.997483	-0.025518	0.066150
216	5777442740.000000													9.866907	-0.651965	-0.272388	-0.024419	0.999474	0.021363	-0.066854	0.019689	-0.997569	-0.997464	-0.025788	0.066338
217	5777492742.000000													9.859052	-0.602113	-0.256852	-0.024533	0.999453	0.022158	-0.067029	0.020470	-0.997541	-0.997449	-0.025958	0.066490
218	5777542744.000000													9.851760	-0.604609	-0.271448	-0.024713	0.999448	0.022205	-0.067088	0.020503	-0.997536	-0.997441	-0.026141	0.066544
219	5777592746.000000													9.886106	-0.663622	-0.269789	-0.024663	0.999445	0.022370	-0.067038	0.020673	-0.997536	-0.997446	-0.026102	0.066491
220	5777642748.000000													9.832315	-0.653562	-0.238441	-0.024469	0.999419	0.023747	-0.067043	0.022060	-0.997506	-0.997450	-0.026000	0.066464
221	5777692751.000000													9.866562	-0.598346	-0.206889	-0.023472	0.999425	0.024482	-0.066869	0.022864	-0.997500	-0.997486	-0.025051	0.066294
222	5777742753.000000													9.861988	-0.677616	-0.213023	-0.022699	0.999455	0.023970	-0.066669	0.022410	-0.997523	-0.997517	-0.024241	0.066124
223	5777792755.000000													9.874982	-0.678335	-0.253609	-0.021844	0.999472	0.024044	-0.066492	0.022545	-0.997532	-0.997548	-0.023389	0.065964
224	5777842757.000000													9.845917	-0.629600	-0.227996	-0.021639	0.999462	0.024639	-0.066614	0.023148	-0.997510	-0.997544	-0.023227	0.066077
225	5777892759.000000													9.874081	-0.600705	-0.232471	-0.021862	0.999459	0.024554	-0.066638	0.023048	-0.997511	-0.997538	-0.023444	0.066099
226	5777942762.000000													9.857273	-0.595772	-0.250341	-0.022466	0.999422	0.025498	-0.066529	0.023953	-0.997497	-0.997532	-0.024107	0.065953
227	5777992764.000000													9.869511	-0.667258	-0.234327	-0.022551	0.999414	0.025769	-0.066359	0.024222	-0.997502	-0.997541	-0.024205	0.065774
228	5778042766.000000													9.852961	-0.611187	-0.257368	-0.022811	0.999382	0.026727	-0.066373	0.025161	-0.997478	-0.997534	-0.024528	0.065758
229	5778092768.000000													9.875377	-0.623392	-0.225766	-0.022931	0.999392	0.026256	-0.066323	0.024685	-0.997493	-0.997535	-0.024615	0.065717
230	5778142770.000000													9.867781	-0.629165	-0.244510	-0.022945	0.999381	0.026683	-0.066403	0.025107	-0.997477	-0.997529	-0.024659	0.065785
231	5778192772.000000													9.869033	-0.618972	-0.224580	-0.022838	0.999381	0.026764	-0.066441	0.025195	-0.997472	-0.997529	-0.024558	0.065825
232	5778242775.000000													9.850921	-0.610995	-0.233345	-0.022965	0.999392	0.026249	-0.066572	0.024669	-0.997477	-0.997517	-0.024655	0.065965
233	5778292777.000000													9.862183	-0.647610	-0.243861	-0.022941	0.999391	0.026277	-0.066579	0.024699	-0.997475	-0.997517	-0.024633	0.065972
234	5778342779.000000													9.857649	-0.632760	-0.238079	-0.022996	0.999368	0.027112	-0.066480	0.025531	-0.997461	-0.997523	-0.024740	0.065851
235	5778392781.000000													9.865561	-0.651760	-0.208471	-0.022992	0.999345	0.027940	-0.066486	0.026357	-0.997439	-0.997522	-0.024790	0.065836
236	5778442783.000000													9.872082	-0.585415	-0.203143	-0.022757	0.999358	0.027676	-0.066590	0.026107	-0.997439	-0.997521	-0.024542	0.065953
237	5778492785.000000													9.843493	-0.700139	-0.223218	-0.022723	0.999372	0.027176	-0.066462	0.025613	-0.997460	-0.997530	-0.024471	0.065838
238	5778542788.000000													9.883674	-0.647548	-0.204375	-0.022507	0.999350	0.028161	-0.066484	0.026609	-0.997433	-0.997534	-0.024321	0.065842
239	5778592790.000000													9.841224	-0.626082	-0.202343	-0.022245	0.999373	0.027552	-0.066737	0.026013	-0.997431	-0.997523	-0.024027	0.066117
240	5778642792.000000													9.860094	-0.623697	-0.241266	-0.022388	0.999392	0.026714	-0.066745	0.025167	-0.997453	-0.997519	-0.024114	0.066141
241	5778692794.000000													9.847728	-0.661518	-0.221365	-0.022528	0.999371	0.027376	-0.066609	0.025822	-0.997445	-0.997525	-0.024294	0.065986
242	5778742796.000000													9.862295	-0.634855	-0.188014	-0.022556	0.999363	0.027647	-0.066509	0.026093	-0.997445	-0.997531	-0.024337	0.065878
243	5778792798.000000													9.867075	-0.685461	-0.189201	-0.022897	0.999361	0.027429	-0.066369	0.025856	-0.997460	-0.997532	-0.024659	0.065735
244	5778842801.000000													9.854407	-0.637385	-0.256484	-0.022926	0.999339	0.028211	-0.066238	0.026638	-0.997448	-0.997540	-0.024736	0.065583
245	5778892803.000000													9.852871	-0.587676	-0.227651	-0.023030	0.999324	0.028653	-0.066070	0.027076	-0.997448	-0.997549	-0.024864	0.065401
246	5778942805.000000													9.863942	-0.615711	-0.234927	-0.023199	0.999319	0.028698	-0.065785	0.027118	-0.997465	-0.997564	-0.025028	0.065111
247	5778992807.000000													9.870701	-0.619893	-0.198134	-0.023299	0.999326	0.028362	-0.065559	0.026782	-0.997489	-0.997577	-0.025100	0.064890
248	5779042809.000000													9.860120	-0.664063	-0.230842	-0.023583	0.999341	0.027581	-0.065344	0.025989	-0.997524	-0.997584	-0.025327	0.064688
249	5779092811.000000													9.862339	-0.642496	-0.207848	-0.023747	0.999333	0.027740	-0.065167	0.026142	-0.997532	-0.997592	-0.025496	0.064503
250	5779142814.000000													9.845984	-0.640902	-0.242049	-0.023986	0.999328	0.027713	-0.065037	0.026102	-0.997541	-0.997595	-0.025730	0.064368
251	5779192816.000000													9.879288	-0.598148	-0.226479	-0.024079	0.999331	0.027544	-0.064928	0.025931	-0.997553	-0.997599	-0.025809	0.064260
252	5779242818.000000													9.857563	-0.627819	-0.262468	-0.024466	0.999336	0.027012	-0.064728	0.025380	-0.997580	-0.997603	-0.026155	0.064064
253	5779292820.000000													9.878463	-0.626749	-0.244378	-0.024304	0.999329	0.027391	-0.064694	0.025769	-0.997572	-0.997609	-0.026017	0.064024
254	5779342822.000000													9.844915	-0.574309	-0.252494	-0.024269	0.999331	0.027353	-0.064790	0.025731	-0.997567	-0.997604	-0.025983	0.064122
255	5779392825.000000													9.851479	-0.585168	-0.241037	-0.024324	0.999346	0.026740	-0.064532	0.025122	-0.997599	-0.997619	-0.025991	0.063879
256	5779442827.000000													9.880713	-0.666862	-0.253290	-0.024586	0.999320	0.027466	-0.064319	0.025836	-0.997595	-0.997627	-0.026293	0.063640
257	5779492829.000000													9.867420	-0.607013	-0.203796	-0.024463	0.999315	0.027756	-0.064256	0.026135	-0.997591	-0.997634	-0.026187	0.063573
258	5779542831.000000													9.864471	-0.620542	-0.221946	-0.024685	0.999336	0.026782	-0.064176	0.025151	-0.997622	-0.997633	-0.026345	0.063512
259	5779592833.000000													9.858117	-0.663650	-0.257820	-0.024795	0.999332	0.026852	-0.064158	0.025214	-0.997621	-0.997632	-0.026459	0.063490
260	5779642835.000000													9.864479	-0.568125	-0.239159	-0.024884	0.999324	0.027074	-0.064051	0.025433	-0.997622	-0.997636	-0.026559	0.063375
261	5779692838.000000													9.862608	-0.583969	-0.237870	-0.025003	0.999337	0.026482	-0.063947	0.024838	-0.997644	-0.997640	-0.026637	0.063284
262	5779742840.000000													9.853963	-0.630341	-0.255688	-0.025227	0.999337	0.026255	-0.063856	0.024599	-0.997656	-0.997640	-0.026844	0.063193
263	5779792842.000000													9.857780	-0.615303	-0.236847	-0.025363	0.999328	0.026462	-0.063831	0.024797	-0.997653	-0.997638	-0.026993	0.063159
264	5779842844.000000													9.850964	-0.607375	-0.237453	-0.025578	0.999322	0.026485	-0.063738	0.024809	-0.997658	-0.997639	-0.027206	0.063060
265	5779892846.000000													9.869356	-0.623538	-0.243800	-0.025579	0.999314	0.026795	-0.063713	0.025119	-0.997652	-0.997640	-0.027226	0.063026
266	5779942848.000000													9.870677	-0.574319	-0.235758	-0.025633	0.999320	0.026505	-0.063737	0.024826	-0.997658	-0.997637	-0.027262	0.063057
267	5779992851.000000													9.862105	-0.641472	-0.279262	-0.025927	0.999330	0.025851	-0.063559	0.024159	-0.997686	-0.997641	-0.027510	0.062890
268	5780042853.000000													9.894178	-0.643794	-0.239265	-0.025776	0.999318	0.026432	-0.063785	0.024742	-0.997657	-0.997631	-0.027402	0.063103
269	5780092855.000000													9.843864	-0.557600	-0.255652	-0.025719	0.999319	0.026462	-0.064078	0.024768	-0.997637	-0.997613	-0.027354	0.063398
270	5780142857.000000													9.882198	-0.582501	-0.281678	-0.025765	0.999336	0.025744	-0.064062	0.024049	-0.997656	-0.997613	-0.027354	0.063400
271	5780192859.000000													9.853084	-0.626577	-0.263930	-0.025866	0.999315	0.026458	-0.064117	0.024754	-0.997635	-0.997607	-0.027501	0.063433
272	5780242861.000000													9.852333	-0.602367	-0.237002	-0.025783	0.999321	0.026310	-0.064159	0.024610	-0.997636	-0.997607	-0.027410	0.063481
273	5780292864.000000													9.862758	-0.642162	-0.247756	-0.025839	0.999325	0.026117	-0.064341	0.024409	-0.997629	-0.997593	-0.027459	0.063667
274	5780342866.000000													9.856444	-0.635267	-0.270729	-0.025736	0.999326	0.026191	-0.064412	0.024488	-0.997623	-0.997591	-0.027362	0.063738
275	5780392868.000000													9.869005	-0.604379	-0.246499	-0.025706	0.999312	0.026735	-0.064370	0.025034	-0.997612	-0.997595	-0.027366	0.063683
276	5780442870.000000													9.870807	-0.613702	-0.246836	-0.025776	0.999316	0.026522	-0.064528	0.024812	-0.997607	-0.997583	-0.027426	0.063844
277	5780492872.000000													9.857752	-0.613481	-0.241418	-0.025899	0.999325	0.026055	-0.064575	0.024337	-0.997616	-0.997577	-0.027520	0.063901
278	5780542875.000000													9.860859	-0.658909	-0.281339	-0.025877	0.999323	0.026144	-0.064553	0.024428	-0.997615	-0.997579	-0.027503	0.063877
279	5780592877.000000													9.876106	-0.623243	-0.241423	-0.025850	0.999301	0.027007	-0.064586	0.025290	-0.997592	-0.997577	-0.027532	0.063887
280	5780642879.000000													9.863647	-0.603959	-0.235247	-0.025896	0.999307	0.026720	-0.064639	0.024999	-0.997596	-0.997573	-0.027561	0.063947
281	5780692881.000000													9.859686	-0.661646	-0.273165	-0.025897	0.999310	0.026612	-0.064723	0.024889	-0.997593	-0.997567	-0.027557	0.064034
282	5780742883.000000													9.875303	-0.607242	-0.252622	-0.025902	0.999300	0.026978	-0.064807	0.025251	-0.997578	-0.997562	-0.027588	0.064107
283	5780792885.000000													9.859672	-0.596775	-0.268953	-0.025762	0.999305	0.026928	-0.065041	0.025204	-0.997564	-0.997550	-0.027451	0.064346
284	5780842888.000000													9.855901	-0.603562	-0.270111	-0.025738	0.999316	0.026545	-0.065080	0.024823	-0.997571	-0.997548	-0.027403	0.064397
285	5780892890.000000													9.881193	-0.647781	-0.246777	-0.025790	0.999307	0.026857	-0.065009	0.025132	-0.997568	-0.997551	-0.027473	0.064316
286	5780942892.000000													9.853870	-0.636335	-0.235602	-0.025755	0.999294	0.027364	-0.065006	0.025641	-0.997555	-0.997552	-0.027470	0.064300
287	5780992894.000000													9.858912	-0.627117	-0.250530	-0.025732	0.999294	0.027365	-0.065044	0.025643	-0.997553	-0.997551	-0.027449	0.064338
288	5781042896.000000													9.873302	-0.629089	-0.256948	-0.025588	0.999313	0.026821	-0.065062	0.025108	-0.997565	-0.997553	-0.027270	0.064375
289	5781092898.000000													9.860037	-0.625117	-0.257317	-0.025495	0.999313	0.026891	-0.065115	0.025182	-0.997560	-0.997552	-0.027184	0.064429
290	5781142901.000000													9.861282	-0.605564	-0.278277	-0.025460	0.999307	0.027144	-0.065151	0.025436	-0.997551	-0.997551	-0.027166	0.064459
291	5781192903.000000													9.862856	-0.615111	-0.244346	-0.025294	0.999319	0.026879	-0.065072	0.025185	-0.997563	-0.997560	-0.026981	0.064390
292	5781242905.000000													9.869520	-0.643099	-0.251553	-0.025249	0.999314	0.027083	-0.065073	0.025391	-0.997557	-0.997561	-0.026950	0.064387
293	5781292907.000000													9.850712	-0.619879	-0.228730	-0.025172	0.999310	0.027317	-0.064964	0.025632	-0.997558	-0.997570	-0.026885	0.064274
294	5781342909.000000													9.865645	-0.657867	-0.245079	-0.025289	0.999306	0.027334	-0.064946	0.025643	-0.997559	-0.997568	-0.027003	0.064252
295	5781392911.000000													9.865241	-0.612572	-0.252268	-0.025147	0.999294	0.027909	-0.064941	0.026226	-0.997544	-0.997572	-0.026897	0.064236
296	5781442914.000000													9.843152	-0.617674	-0.245048	-0.025057	0.999303	0.027655	-0.064904	0.025979	-0.997553	-0.997577	-0.026791	0.064208
297	5781492916.000000													9.875223	-0.624774	-0.261385	-0.025051	0.999299	0.027834	-0.064743	0.026163	-0.997559	-0.997588	-0.026791	0.064042
298	5781542918.000000													9.867105	-0.616061	-0.242462	-0.024887	0.999292	0.028207	-0.064926	0.026541	-0.997537	-0.997580	-0.026657	0.064219
299	5781592920.000000													9.863370	-0.579309	-0.254820	-0.024794	0.999302	0.027957	-0.065000	0.026295	-0.997539	-0.997577	-0.026550	0.064302
300	5781642922.000000													9.864985	-0.667649	-0.258746	-0.024904	0.999307	0.027673	-0.064937	0.026006	-0.997550	-0.997579	-0.026640	0.064244
301	5781692924.000000													9.856339	-0.657411	-0.236941	-0.024843	0.999283	0.028577	-0.064853	0.026915	-0.997532	-0.997586	-0.026635	0.064137
302	5781742927.000000													9.862985	-0.613865	-0.231847	-0.024898	0.999278	0.028695	-0.064905	0.027028	-0.997525	-0.997581	-0.026698	0.064186
303	5781792929.000000													9.864347	-0.627248	-0.253806	-0.024809	0.999295	0.028175	-0.064928	0.026513	-0.997538	-0.997582	-0.026577	0.064224
304	5781842931.000000													9.859818	-0.619440	-0.264313	-0.024974	0.999283	0.028461	-0.064919	0.026789	-0.997531	-0.997578	-0.026760	0.064204
305	5781892933.000000													9.861826	-0.607994	-0.251093	-0.024777	0.999277	0.028841	-0.064770	0.027184	-0.997530	-0.997593	-0.026584	0.064050
306	5781942935.000000													9.872651	-0.626825	-0.248235	-0.025020	0.999274	0.028718	-0.064694	0.027049	-0.997538	-0.997591	-0.026816	0.063970
307	5781992938.000000													9.879591	-0.627561	-0.231335	-0.024832	0.999275	0.028847	-0.064631	0.027191	-0.997539	-0.997600	-0.026635	0.063909
308	5782042940.000000													9.849778	-0.633348	-0.264190	-0.024744	0.999276	0.028892	-0.064610	0.027242	-0.997539	-0.997604	-0.026550	0.063889
309	5782092942.000000													9.868482	-0.623076	-0.228416	-0.024875	0.999265	0.029160	-0.064480	0.027505	-0.997540	-0.997609	-0.026694	0.063749
310	5782142944.000000													9.879490	-0.623130	-0.245854	-0.024954	0.999261	0.029224	-0.064497	0.027563	-0.997537	-0.997606	-0.026778	0.063761
311	5782192946.000000													9.848006	-0.601571	-0.251669	-0.024925	0.999263	0.029183	-0.064568	0.027522	-0.997534	-0.997602	-0.026748	0.063835
312	5782242948.000000													9.864722	-0.624128	-0.251963	-0.024977	0.999261	0.029210	-0.064484	0.027548	-0.997538	-0.997606	-0.026799	0.063748
313	5782292951.000000													9.869375	-0.599338	-0.248047	-0.024899	0.999251	0.029607	-0.064527	0.027948	-0.997525	-0.997605	-0.026748	0.063783
314	5782342953.000000													9.846797	-0.580382	-0.248073	-0.024810	0.999256	0.029531	-0.064716	0.027873	-0.997514	-0.997595	-0.026660	0.063976
315	5782392955.000000													9.869123	-0.605568	-0.257400	-0.024880	0.999275	0.028816	-0.064650	0.027156	-0.997538	-0.997598	-0.026682	0.063928
316	5782442957.000000													9.867113	-0.663788	-0.220627	-0.024859	0.999266	0.029137	-0.064608	0.027479	-0.997532	-0.997601	-0.026680	0.063877
317	5782492959.000000													9.842431	-0.620737	-0.234339	-0.024784	0.999260	0.029419	-0.064511	0.027768	-0.997531	-0.997609	-0.026620	0.063775
318	5782542961.000000													9.866781	-0.628454	-0.253607	-0.024623	0.999271	0.029171	-0.064474	0.027532	-0.997540	-0.997616	-0.026443	0.063749
319	5782592964.000000													9.874745	-0.628199	-0.235613	-0.024585	0.999270	0.029231	-0.064439	0.027595	-0.997540	-0.997619	-0.026408	0.063714
320	5782642966.000000													9.852417	-0.612615	-0.250854	-0.024470	0.999276	0.029120	-0.064403	0.027492	-0.997545	-0.997624	-0.026285	0.063683
321	5782692968.000000													9.872722	-0.604540	-0.226090	-0.024402	0.999285	0.028871	-0.064371	0.027249	-0.997554	-0.997628	-0.026201	0.063660
322	5782742970.000000													9.862959	-0.638961	-0.257811	-0.024434	0.999291	0.028633	-0.064445	0.027008	-0.997556	-0.997622	-0.026219	0.063739
323	5782792972.000000													9.854011	-0.613314	-0.252025	-0.024241	0.999294	0.028716	-0.064471	0.027102	-0.997552	-0.997625	-0.026033	0.063768
324	5782842974.000000													9.864209	-0.611408	-0.237019	-0.024219	0.999298	0.028595	-0.064462	0.026983	-0.997555	-0.997626	-0.026003	0.063763
325	5782892977.000000													9.859023	-0.615063	-0.236960	-0.024120	0.999298	0.028650	-0.064416	0.027045	-0.997557	-0.997632	-0.025907	0.063719
326	5782942979.000000													9.868802	-0.618006	-0.231383	-0.024004	0.999301	0.028654	-0.064445	0.027056	-0.997554	-0.997633	-0.025792	0.063751
327	5782992981.000000													9.852355	-0.600129	-0.241063	-0.024021	0.999305	0.028514	-0.064434	0.026915	-0.997559	-0.997633	-0.025800	0.063742
328	5783042983.000000													9.876663	-0.646839	-0.260215	-0.023939	0.999314	0.028258	-0.064382	0.026666	-0.997569	-0.997638	-0.025700	0.063700
329	5783092985.000000													9.863455	-0.602458	-0.237116	-0.023648	0.999308	0.028715	-0.064521	0.027138	-0.997547	-0.997636	-0.025443	0.063835
330	5783142987.000000													9.869684	-0.594063	-0.234502	-0.023385	0.999331	0.028137	-0.064607	0.026575	-0.997557	-0.997637	-0.025146	0.063942
331	5783192990.000000													9.872709	-0.638816	-0.239223	-0.023520	0.999325	0.028221	-0.064544	0.026652	-0.997559	-0.997638	-0.025284	0.063874
332	5783242992.000000													9.853497	-0.651345	-0.202838	-0.023304	0.999323	0.028473	-0.064514	0.026918	-0.997554	-0.997645	-0.025084	0.063843
333	5783292994.000000													9.850766	-0.613006	-0.192895	-0.023193	0.999335	0.028133	-0.064490	0.026586	-0.997564	-0.997649	-0.024951	0.063831
334	5783342996.000000													9.869257	-0.648063	-0.226722	-0.023095	0.999349	0.027705	-0.064496	0.026166	-0.997575	-0.997651	-0.024826	0.063849
335	5783392998.000000													9.866935	-0.609546	-0.240419	-0.022940	0.999328	0.028580	-0.064497	0.027048	-0.997551	-0.997654	-0.024727	0.063833
336	5783443001.000000													9.863591	-0.580813	-0.217059	-0.022762	0.999328	0.028730	-0.064560	0.027208	-0.997543	-0.997654	-0.024561	0.063897
337	5783493003.000000													9.863326	-0.617759	-0.220965	-0.022761	0.999339	0.028356	-0.064597	0.026834	-0.997551	-0.997652	-0.024537	0.063944
338	5783543005.000000													9.863777	-0.641858	-0.245866	-0.022549	0.999334	0.028695	-0.064578	0.027186	-0.997542	-0.997658	-0.024347	0.063922
339	5783593007.000000													9.871880	-0.636652	-0.226657	-0.022154	0.999345	0.028599	-0.064674	0.027114	-0.997538	-0.997660	-0.023949	0.064031
