sampleTimeFine,W4_acc_x,W4_acc_y,W4_acc_z,W4_gyro_x,W4_gyro_y,W4_gyro_z,W4_quat_w,W4_quat_x,W4_quat_y,W4_quat_z,W5_acc_x,W5_acc_y,W5_acc_z,W5_gyro_x,W5_gyro_y,W5_gyro_z,W5_quat_w,W5_quat_x,W5_quat_y,W5_quat_z
1782889,-0.4189238548278808,0.1526476889848709,-0.3965960144996643,-0.621823787689209,0.448087215423584,-0.638340413570404,0.7296869158744812,-0.2394130676984787,-0.5610783696174622,-0.3089162409305572,-0.2304688692092895,-0.4333705306053161,0.0969777628779411,0.0211066585034132,-0.0074752052314579,-0.7350650429725647,0.3888443112373352,-0.6196954250335693,-0.5556874871253967,-0.3949543535709381
1783056,9.491647720336914,-0.0263280384242534,2.499475717544556,0.5885605812072754,-0.3925530016422272,0.2949878573417663,0.7298370599746704,-0.2392687797546386,-0.5610342621803284,-0.3087539076805115,8.915459632873535,-0.4287658035755157,-3.7668514251708975,-0.0854183435440063,0.3964781463146209,0.2379611730575561,0.3889122903347015,-0.6195349097251892,-0.5559201836585999,-0.3948118984699249
1783223,9.471528053283691,-0.0009133161511272,2.503840684890747,0.760639488697052,-0.3140372931957245,0.2491539418697357,0.7299143671989441,-0.2390341013669967,-0.5612518191337585,-0.3083573281764984,8.919082641601562,-0.4451229572296142,-3.7126896381378174,-0.1430853456258773,0.3644110560417175,0.2081992328166961,0.3889517486095428,-0.6195303201675415,-0.5561583042144775,-0.3944449126720428
1783389,9.48294448852539,-0.0275721494108438,2.522668838500977,0.786700427532196,-0.3460659682750702,0.2861258685588836,0.7299867868423462,-0.238624170422554,-0.5615114569664001,-0.3080304265022278,8.92702865600586,-0.4146183133125305,-3.7381415367126474,-0.0018441141583025,0.3138388097286224,0.2809520959854126,0.3891759514808655,-0.6195873618125916,-0.5560224652290344,-0.3943254947662353
1783889,9.483328819274902,-0.0083540203049778,2.53773045539856,0.7425826787948608,-0.237801119685173,0.2252701073884964,0.7302356958389282,-0.2380772978067398,-0.5615557432174683,-0.3077828288078308,8.96026611328125,-0.3865272104740143,-3.7225635051727295,-0.176445871591568,0.4482414126396179,0.1162752509117126,0.3894300162792206,-0.6193546056747437,-0.5562012195587158,-0.3941883146762848
1784056,9.493914604187012,-0.0001146441209129,2.533735513687134,0.6814194321632385,-0.2076805680990219,0.2473610341548919,0.7302922010421753,-0.237976387143135,-0.5615271329879761,-0.3077790737152099,8.93449592590332,-0.3850681185722351,-3.745454788208008,-0.4509115815162658,0.4615087807178497,0.0661640092730522,0.3894034326076507,-0.6193163394927979,-0.5560973286628723,-0.3944212198257446
1784223,9.496333122253418,-0.0091895787045359,2.5162546634674072,0.7755206227302551,-0.2037490308284759,0.3201779425144195,0.7303661704063416,-0.2378331869840622,-0.5615329742431641,-0.307703286409378,8.923842430114746,-0.3995267152786255,-3.728982925415039,-0.5976083278656006,0.4255742132663727,0.2569786012172699,0.3892167210578918,-0.6194390058517456,-0.555876612663269,-0.3947240710258484
1784389,9.491658210754396,-0.0149306654930114,2.5212976932525635,0.6450622081756592,-0.1157181710004806,0.4047894775867462,0.7304060459136963,-0.2377706170082092,-0.5615235567092896,-0.3076743483543396,8.924318313598633,-0.3964547514915466,-3.701317310333252,-0.6182394027709961,0.1694087833166122,0.3665753602981567,0.3891274929046631,-0.6194537878036499,-0.5558178424835205,-0.394871324300766
1784556,9.49264907836914,-0.0201304703950881,2.5473861694335938,0.4869294166564941,-0.1609245985746383,0.3383758068084717,0.7304701805114746,-0.237660527229309,-0.5615534782409668,-0.3075525760650635,8.945486068725586,-0.421987771987915,-3.707049369812012,-0.5586897730827332,0.0539979711174964,0.712871789932251,0.3891269862651825,-0.6194307804107666,-0.5557929277420044,-0.3949430584907532
1784723,9.495906829833984,-0.0087185082957148,2.530184268951416,0.3618882596492767,-0.2402727454900741,0.3350589573383331,0.7304819822311401,-0.2376634776592254,-0.561538577079773,-0.3075495362281799,8.946819305419922,-0.4261015355587005,-3.7177894115448,-0.389415442943573,-0.0052249901928007,0.7220411896705627,0.3891190886497497,-0.6194841265678406,-0.5556793212890625,-0.3950271010398865
1784889,9.493926048278809,-0.0142833720892667,2.519491672515869,0.4117688834667206,-0.4208549857139587,0.3467511236667633,0.7304310202598572,-0.2377574890851974,-0.5615144371986389,-0.3076418340206146,8.913613319396973,-0.4474692046642303,-3.717585563659668,-0.1241063401103019,-0.1459155678749084,0.6607117056846619,0.3891960382461548,-0.6194512844085693,-0.5556824803352356,-0.3949983716011047
1785056,9.495084762573242,-0.0215611904859542,2.5027196407318115,0.5500518679618835,-0.2756054699420929,0.3894987106323242,0.7304352521896362,-0.2377635836601257,-0.5615187883377075,-0.3076190054416656,8.92513370513916,-0.4423339664936065,-3.719538450241089,0.2815668284893036,-0.4544717669486999,0.6429235339164734,0.3892545402050018,-0.6194863319396973,-0.5556577444076538,-0.3949203789234161
1785223,9.514338493347168,-0.0064188232645392,2.5246124267578125,0.878188967704773,-0.19717937707901,0.4886838793754577,0.7304744124412537,-0.2377125322818756,-0.5615501999855042,-0.3075083494186401,8.909327507019043,-0.4308850467205047,-3.730216264724731,0.4852518141269684,-0.5991579294204712,0.4789383113384247,0.3892537355422973,-0.6195987462997437,-0.5555705428123474,-0.394867479801178
1785389,9.482743263244627,-0.0050247996114194,2.527739763259888,0.7822054028511047,-0.0909378826618194,0.5585681200027466,0.7305068373680115,-0.2376956492662429,-0.5615566968917847,-0.3074326813220978,8.929182052612305,-0.4196800589561462,-3.7333056926727295,0.6412972211837769,-0.7515918612480164,0.1662584394216537,0.3892554938793182,-0.6196550726890564,-0.5555748343467712,-0.3947713077068329
1785556,9.48376750946045,0.0055121025070548,2.542775869369507,0.8673803806304932,-0.3137427568435669,0.5354014039039612,0.7305273413658142,-0.2376684099435806,-0.5615943670272827,-0.3073362112045288,8.949684143066406,-0.4283632040023803,-3.7173056602478023,0.5376425981521606,-0.7004690170288086,-0.0097584389150142,0.3892052471637726,-0.6197423338890076,-0.5555446147918701,-0.3947265148162842
1785723,9.491144180297852,0.013522676192224,2.5429728031158447,0.8531910181045532,-0.2869262397289276,0.4832155704498291,0.7305367588996887,-0.2376547902822494,-0.5616186261177063,-0.3072797954082489,8.949480056762695,-0.3944735527038574,-3.725728511810303,0.4927178919315338,-0.5458579063415527,0.2241303324699401,0.3892764747142792,-0.6197022795677185,-0.5556338429450989,-0.3945934772491455
1785889,9.479913711547852,0.014885758049786,2.52499794960022,0.7112838625907898,-0.336806982755661,0.4987112283706665,0.7306009531021118,-0.2375409603118896,-0.561689019203186,-0.3070865571498871,8.938553810119629,-0.3659355938434601,-3.7318038940429688,0.2973186075687408,-0.3907729685306549,0.3264786601066589,0.3893207013607025,-0.619696855545044,-0.5556668639183044,-0.3945118188858032
1786056,9.504714012145996,0.0333701334893703,2.5306172370910645,0.7519184350967407,-0.2464838176965713,0.374617725610733,0.7306561470031738,-0.2374256551265716,-0.5617498755455017,-0.3069331049919128,8.935951232910156,-0.3557505905628204,-3.740176200866699,-0.270879864692688,-0.3736892640590668,0.4762488603591919,0.3893181979656219,-0.6197206974029541,-0.5556710362434387,-0.3944709599018097
1786223,9.509965896606444,0.0083400579169392,2.531010389328003,0.260410726070404,-0.1865757256746292,0.3176551461219787,0.7306541204452515,-0.2374249249696731,-0.5617560148239136,-0.3069270253181457,8.94932746887207,-0.3758784532546997,-3.7613682746887207,-0.6622034907341003,-0.5074771642684937,0.5638827681541443,0.3892366290092468,-0.6198155879974365,-0.5556179881095886,-0.3944770097732544
1786389,9.506721496582031,-0.0182529613375663,2.505573034286499,0.2682097554206848,-0.1421504765748977,0.3932381570339203,0.7306597828865051,-0.2374263703823089,-0.56175696849823,-0.3069108426570892,8.960824966430664,-0.4247264564037323,-3.733976364135742,-0.85791015625,-0.2144166976213455,0.8273221254348755,0.3891879320144653,-0.619900107383728,-0.5555474162101746,-0.3944915533065796
1786556,9.452713966369627,-0.0001110529628931,2.466750144958496,0.5021305680274963,-0.2387744039297104,0.395799458026886,0.7306415438652039,-0.2374535650014877,-0.5617634654045105,-0.306921124458313,8.905816078186035,-0.4345701336860657,-3.7471070289611816,-0.4492851495742798,-0.178251564502716,0.9051591753959656,0.3891895413398742,-0.6199654340744019,-0.555490255355835,-0.3944681882858276
1786723,9.503402709960938,0.0234955009073019,2.5132651329040527,0.2345034778118133,0.101394273340702,0.3941474258899688,0.7306613326072693,-0.2374543100595474,-0.5617451667785645,-0.3069068491458893,8.880782127380371,-0.4207293689250946,-3.759113788604736,-0.4845026135444641,-0.1703372448682785,0.6802924275398254,0.3891694247722626,-0.6200291514396667,-0.5554377436637878,-0.3944614827632904
1786889,9.564616203308104,0.0048636416904628,2.546034336090088,-0.5298627018928528,-0.2314363420009613,-0.1378219276666641,0.7306104898452759,-0.2374921590089798,-0.5617544054985046,-0.3069819808006286,8.943870544433594,-0.4636417329311371,-3.798563003540039,-0.2713793814182281,-0.4955929815769195,0.7060846090316772,0.3891232311725616,-0.620131254196167,-0.5553863644599915,-0.3944188952445984
1787056,9.506878852844238,-0.0198909938335418,2.5227856636047363,0.3299619555473327,0.0790215730667114,-0.0843298062682151,0.730610728263855,-0.237442135810852,-0.5617609024047852,-0.307008296251297,8.970747947692871,-0.4066612720489502,-3.768546342849731,0.0450335219502449,-0.258483350276947,0.1201683729887008,0.389083057641983,-0.6201730966567993,-0.5553776621818542,-0.3944052457809448
1787223,9.478472709655762,-0.0161880683153867,2.561762809753418,0.7366915941238403,0.1716242879629135,0.5298691391944885,0.7306604385375977,-0.2373982518911361,-0.5617532730102539,-0.3069378137588501,8.981037139892578,-0.4025556743144989,-3.762439012527466,-0.2636571526527405,0.1839568167924881,-0.2900510430335998,0.389046847820282,-0.6201448440551758,-0.5553957223892212,-0.3944600820541382
1787389,9.487335205078123,-0.0025725732557475,2.5411159992218018,0.5412923097610474,-0.3157789409160614,0.580146849155426,0.7306739687919617,-0.2373925596475601,-0.5617865920066833,-0.306848794221878,8.96448802947998,-0.4362545907497406,-3.768152475357056,-0.158452957868576,0.5753316879272461,-0.024933960288763,0.389055848121643,-0.620123565196991,-0.5553569793701172,-0.3945389688014984
1787556,9.493757247924805,-0.0206239875406026,2.5229642391204834,0.6778720617294312,-0.133826345205307,0.3688932955265045,0.7307024598121643,-0.2373402714729309,-0.5618155002593994,-0.306768387556076,8.941285133361816,-0.4234672784805298,-3.748045682907105,0.161148726940155,0.8194335699081421,0.1416702717542648,0.3891895711421966,-0.6199936866760254,-0.5554084181785583,-0.3945387005805969
1787723,9.49095058441162,-0.0196190737187862,2.529948472976685,0.5814018249511719,-0.1214298009872436,0.3927899301052093,0.7307190299034119,-0.2373216599225998,-0.5618292689323425,-0.306717962026596,8.923433303833008,-0.3727338314056396,-3.733170747756958,0.1644527316093444,0.9219099283218384,0.4027788937091827,0.3893069624900818,-0.6199366450309753,-0.555365800857544,-0.3945724666118622
1787889,9.472067832946776,-0.0134914135560393,2.525101900100708,0.6528100371360779,-0.2244440764188766,0.5204564332962036,0.7307281494140625,-0.2373262792825698,-0.5618460178375244,-0.3066622614860534,8.903633117675781,-0.3645582497119903,-3.732085943222046,-0.0597031973302364,0.829268753528595,0.5016183257102966,0.389367014169693,-0.6199508309364319,-0.5552554726600647,-0.3946461975574493
1788056,9.476028442382812,-0.0024112544488161,2.5026614665985107,0.7498694062232971,0.089036151766777,0.6022506356239319,0.7307562232017517,-0.237339586019516,-0.5618197321891785,-0.3066332340240478,8.892756462097168,-0.3912830054759979,-3.721388816833496,-0.0996205881237983,0.6455104351043701,0.7074547410011292,0.3894226253032684,-0.6199865341186523,-0.5551438331604004,-0.3946926295757293
1788223,9.479899406433104,-0.0095162875950336,2.512983083724976,0.4128959476947784,0.3535897433757782,0.5193551778793335,0.7308125495910645,-0.2373288869857788,-0.5617720484733582,-0.3065946996212005,8.901965141296387,-0.4148401021957397,-3.728770256042481,-0.0037906791549175,0.5274358987808228,0.7301476001739502,0.389470100402832,-0.6200365424156189,-0.5550295114517212,-0.3947279751300812
1788389,9.502058029174805,0.0015234643360599,2.536489486694336,0.0406153351068496,0.4136898815631866,0.3917270004749298,0.7308451533317566,-0.2373633682727813,-0.5616984963417053,-0.3066250681877136,8.945734024047852,-0.4349685907363891,-3.719621181488037,0.1729177236557006,0.4890808761119842,0.9040066003799438,0.3895596861839294,-0.62006676197052,-0.554940938949585,-0.3947164416313171
1788556,9.526582717895508,0.0007440164918079,2.523672342300415,0.1143286824226379,0.2974210381507873,0.3580975234508514,0.7308831214904785,-0.237367108464241,-0.5616521239280701,-0.3066165149211883,8.966673851013184,-0.4146575331687927,-3.734776258468628,0.2535080909729004,0.7016791105270386,0.875397264957428,0.389678955078125,-0.6200717687606812,-0.5548529624938965,-0.3947145342826843
1788723,9.525124549865724,0.0011229290394112,2.5411956310272217,0.1206165924668312,0.2101457864046096,0.4493171572685241,0.7309076189994812,-0.2374003678560257,-0.5616049766540527,-0.3066188097000122,8.956307411193848,-0.4092112779617309,-3.747233629226685,0.2856135666370392,0.7109892964363098,0.5083543658256531,0.389771968126297,-0.6200579404830933,-0.5547838807106018,-0.3947415649890899
1788890,9.509746551513672,-0.0153668085113167,2.531250476837158,0.3524883687496185,0.2384350299835205,0.5075860619544983,0.7309907674789429,-0.2373283356428146,-0.5615987181663513,-0.3064877390861511,8.947602272033691,-0.4148936867713928,-3.7470390796661377,0.1853783130645752,0.6229328513145447,0.4564118683338165,0.3898545205593109,-0.6200380325317383,-0.5547330975532532,-0.394762635231018
1789056,9.503889083862305,-0.011300815269351,2.5538089275360107,0.6017255187034607,0.1683074235916137,0.5185354351997375,0.7310248613357544,-0.2373306453227996,-0.5615699887275696,-0.3064574301242828,8.965422630310059,-0.4154337048530578,-3.723625659942627,0.0872432515025138,0.5682113170623779,0.3404375910758972,0.3899247050285339,-0.620006799697876,-0.5547026991844177,-0.3947851359844208
1789223,9.485087394714355,-0.0019433309789747,2.509138345718384,0.6608012318611145,-0.0294161848723888,0.7058026790618896,0.7310664057731628,-0.2373276352882385,-0.5615673661231995,-0.3063651621341705,8.923559188842773,-0.402652382850647,-3.7046284675598153,0.0902527496218681,0.7004112601280212,0.4249851107597351,0.3900411427021026,-0.6199328303337097,-0.5547031164169312,-0.3947857618331909
1789390,9.506793022155762,-0.0045203259214758,2.5245449542999268,0.3633737564086914,0.1172229200601577,0.4764922559261322,0.7311107516288757,-0.2373094856739044,-0.5615538954734802,-0.3062981367111206,8.89909553527832,-0.4490357339382171,-3.709925174713135,0.1102050393819809,0.2083913087844848,0.651708722114563,0.3900918662548065,-0.6199614405632019,-0.5546473860740662,-0.394769012928009
1789556,9.497798919677734,0.0023030776064842,2.5101864337921143,0.5122348070144653,-0.1471962034702301,0.0025292541831731,0.7311083078384399,-0.2372648119926452,-0.5615851879119873,-0.3062811195850372,8.904232025146484,-0.4138014912605285,-3.705513238906861,0.4738669991493225,0.0558420941233634,0.787430465221405,0.3901923596858978,-0.6199616193771362,-0.5546397566795349,-0.3946802616119385
1789723,9.472271919250488,-0.0046240361407399,2.5042998790740967,0.6687283515930176,0.1576269567012787,0.3322671353816986,0.731158971786499,-0.2372011244297027,-0.5615872144699097,-0.3062059879302978,8.904895782470703,-0.3637861013412475,-3.6991822719573975,0.0204453393816947,-0.1973842829465866,0.2529446482658386,0.3901844918727875,-0.6199817061424255,-0.5546427965164185,-0.3946518898010254
1789890,9.479217529296877,0.0132393380627036,2.544504165649414,0.525143563747406,0.2545454204082489,0.477042943239212,0.7312042713165283,-0.2371866554021835,-0.5615571141242981,-0.3061641752719879,8.903011322021484,-0.416052371263504,-3.714388370513916,-0.3219644129276275,-0.2855559587478637,0.0832860916852951,0.3901140689849853,-0.6200310587882996,-0.5546254515647888,-0.3946681320667267
1790056,9.504117965698242,-0.0106427930295467,2.562291622161865,0.3071666955947876,0.2093902081251144,0.2566200196743011,0.7312117218971252,-0.2372099161148071,-0.5615161657333374,-0.3062033653259277,8.954222679138184,-0.442537784576416,-3.7455549240112314,-0.0594854913651943,-0.616958737373352,0.0928780511021614,0.390037477016449,-0.6200910806655884,-0.5546349883079529,-0.3946363925933838
1790223,9.495495796203612,-0.0199840012937784,2.562978506088257,0.0464934557676315,0.3609533905982971,0.1270710080862045,0.7311930060386658,-0.2372885346412658,-0.5614321231842041,-0.3063413500785827,8.987996101379395,-0.4133094251155853,-3.732101202011109,0.0908930599689483,-0.4357359707355499,0.4108212888240814,0.3900195956230163,-0.6201414465904236,-0.5546329021453857,-0.3945779204368591
1790390,9.487577438354492,-0.0047456272877752,2.594134330749512,0.0604651756584644,0.0017352603608742,0.0812370702624321,0.7311780452728271,-0.2373154312372207,-0.5614140629768372,-0.3063891232013702,8.988482475280762,-0.3950135707855224,-3.71576189994812,0.1451151520013809,0.0203172713518142,0.5948997139930725,0.3900615274906158,-0.6201669573783875,-0.5546025037765503,-0.3945389688014984
1790556,9.48137664794922,-0.0033437537495046,2.555060625076294,0.5564294457435608,-0.0097584379836916,0.0533448494970798,0.7311736345291138,-0.2372975200414657,-0.5614145994186401,-0.3064127564430237,8.966130256652832,-0.4026453793048858,-3.7010207176208496,-0.059946522116661,0.2357584983110427,0.3629383146762848,0.3900959193706512,-0.6201629638671875,-0.5545792579650879,-0.3945437967777252
1790723,9.467594146728516,-0.0004399665631353,2.577547550201416,0.6721092462539673,-0.1037826612591743,0.0279114414006471,0.7311488389968872,-0.237298384308815,-0.5614182949066162,-0.306464284658432,8.93442440032959,-0.4105664789676666,-3.709968090057373,-0.0872496590018272,0.2927339673042297,0.3481214046478271,0.3901247084140777,-0.620166003704071,-0.5545405149459839,-0.3945653140544891
1790890,9.489176750183104,0.0015055832918733,2.5648844242095947,0.647546648979187,-0.031542032957077,0.0845667198300361,0.7311589121818542,-0.2372540831565857,-0.5614309310913086,-0.3064512312412262,8.924017906188965,-0.4098440706729889,-3.6901917457580566,-0.1424450427293777,0.2952183783054352,0.1840976774692535,0.3901593089103699,-0.6201303601264954,-0.5545446872711182,-0.3945812582969665
1791056,9.491482734680176,0.0171586424112319,2.5585904121398926,0.6777952313423157,0.0242104027420282,0.1467543542385101,0.7311897873878479,-0.2371869385242462,-0.5614458918571472,-0.3064023554325104,8.925007820129395,-0.416209727525711,-3.7135980129241934,-0.1094942837953567,0.1833805292844772,0.0145288025960326,0.3901629745960235,-0.6201074123382568,-0.5545472502708435,-0.3946101367473602
1791223,9.486712455749512,0.0173732154071331,2.571532726287842,0.3951078653335571,0.1563078910112381,0.0767548531293869,0.7312010526657104,-0.2371696829795837,-0.5614230036735535,-0.3064307570457458,8.938794136047363,-0.3934545218944549,-3.721529483795166,-0.1224927455186843,0.1352798789739608,-0.1023995727300643,0.3901537656784057,-0.6200803518295288,-0.5545602440834045,-0.3946434259414673
1791390,9.477489471435549,0.0067125409841537,2.543348550796509,0.4057500064373016,-0.0386623740196228,0.1441802978515625,0.7312003970146179,-0.2371642142534256,-0.5614189505577087,-0.3064438998699188,8.943758010864258,-0.3860229551792145,-3.689122438430786,-0.2474699169397354,0.2013606429100036,-0.0496502146124839,0.3901475071907043,-0.6200518012046814,-0.5545678734779358,-0.394683837890625
1791556,9.483003616333008,0.0036656125448644,2.5694620609283447,0.4335269629955292,0.135023757815361,0.2947573363780975,0.731234073638916,-0.2371371984481811,-0.5614023804664612,-0.3064146935939789,8.939717292785645,-0.3673336207866668,-3.714542388916016,-0.4684947431087494,0.1126766726374626,0.0166034325957298,0.3901211321353912,-0.6200411915779114,-0.5545666813850403,-0.3947280347347259
1791723,9.479921340942385,-0.0045203259214758,2.5556936264038086,0.3514894545078277,0.0746161937713623,0.2596679329872131,0.7312382459640503,-0.2371562123298645,-0.5613735914230347,-0.3064429461956024,8.946036338806152,-0.3811486363410949,-3.712331771850586,-0.5485855937004089,0.0588003508746624,0.2068545520305633,0.3900445103645324,-0.6201223134994507,-0.5544698238372803,-0.3948122859001159
1791890,9.494365692138672,-0.0076959980651736,2.544939994812012,0.3252620995044708,0.0357105061411857,0.3043749630451202,0.7312479019165039,-0.2371697425842285,-0.5613518357276917,-0.306449145078659,8.961750030517578,-0.387281984090805,-3.697279453277588,-0.4986920058727264,-0.1031679436564445,0.5247081518173218,0.3900022208690643,-0.6202004551887512,-0.5543956160545349,-0.3948357701301574
1792056,9.4940185546875,-0.0010585573036223,2.552010059356689,0.4768508374691009,-0.0399045832455158,0.3752452731132507,0.7312652468681335,-0.2371666133403778,-0.5613468289375305,-0.3064197301864624,8.969199180603027,-0.393211156129837,-3.722395420074463,-0.4316380023956299,0.0189982205629348,0.6281450390815735,0.390023797750473,-0.6202166080474854,-0.5543749332427979,-0.3948180973529815
1792223,9.479195594787598,0.0024425496812909,2.5651168823242188,0.2928107976913452,-0.2018152773380279,0.4208999276161194,0.7312740683555603,-0.2371773719787597,-0.5613561272621155,-0.3063729107379913,8.952923774719238,-0.4222249090671539,-3.718940973281861,-0.3872639834880829,0.0740270987153053,0.7146263122558594,0.3900136053562164,-0.6202970147132874,-0.5542754530906677,-0.3948417007923126
1792390,9.489179611206056,0.0124738113954663,2.549582004547119,0.1681153625249862,-0.2980293929576874,0.4423377513885498,0.7312606573104858,-0.2372281849384308,-0.5613604784011841,-0.3063579499721527,8.92870807647705,-0.4427752196788788,-3.703646898269653,0.0541260354220867,0.0950295180082321,0.833827793598175,0.3900661468505859,-0.6203412413597107,-0.5542110204696655,-0.3948104977607727
1792556,9.490063667297363,0.0013982970267534,2.550722599029541,0.5599256157875061,-0.2421168386936187,0.4478316009044647,0.7312762141227722,-0.2372151464223861,-0.5613845586776733,-0.3062865138053894,8.908618927001953,-0.4172289669513702,-3.7189481258392334,0.4481773674488067,-0.0571547374129295,0.6921640038490295,0.3901117742061615,-0.6203927397727966,-0.5541543960571289,-0.3947639763355255
1792723,9.478976249694824,0.0112142674624919,2.563106775283813,0.6092044115066528,-0.1205589920282363,0.587587296962738,0.731266438961029,-0.2372821122407913,-0.5613598227500916,-0.3063035309314728,8.888522148132324,-0.4177187383174896,-3.712944269180298,0.5179719924926758,-0.3169827461242676,0.5980628728866577,0.390148252248764,-0.6204323768615723,-0.5541423559188843,-0.3946824371814728
1792890,9.47610092163086,0.0216093361377716,2.549334764480591,0.6597639918327332,-0.0845859497785568,0.5137972235679626,0.7312855124473572,-0.2372855097055435,-0.5613570809364319,-0.3062603175640106,8.915303230285645,-0.3888540267944336,-3.717428684234619,0.5175238847732544,-0.7286813259124756,0.2952440083026886,0.3901610374450683,-0.6204338073730469,-0.554223358631134,-0.3945538103580475
1793056,9.492807388305664,0.0337543338537216,2.575371265411377,0.8442521691322327,0.0574044585227966,0.5046150088310242,0.7313451766967773,-0.2372194975614547,-0.5613658428192139,-0.3061529994010925,8.946617126464844,-0.3859066367149353,-3.70018482208252,0.5292800664901733,-0.6480525135993958,0.1987737566232681,0.390158474445343,-0.6204458475112915,-0.5542829632759094,-0.3944540321826935
1793223,9.471810340881348,0.0249597746878862,2.5740091800689697,0.6996940970420837,-0.1554306596517563,0.5081238746643066,0.7313727736473083,-0.2371961623430252,-0.5613828301429749,-0.306073933839798,8.95444393157959,-0.3446428179740906,-3.7141594886779785,0.3182441592216491,-0.5439112186431885,0.2256030142307281,0.3901335597038269,-0.6204838752746582,-0.5543015003204346,-0.3943925201892853
1793390,9.484155654907228,0.0304299481213092,2.5640082359313965,0.5980501174926758,-0.3089531660079956,0.4719715118408203,0.7313693165779114,-0.2372117489576339,-0.5614022016525269,-0.3060344755649566,8.963319778442383,-0.3576314449310303,-3.732870101928711,0.1128431409597396,-0.3349885046482086,0.3720820844173431,0.3900904059410095,-0.6205671429634094,-0.5542452335357666,-0.3943831622600555
1793556,9.529176712036133,0.0175520256161689,2.582679748535156,0.1354335397481918,-0.1715026199817657,0.5472344756126404,0.731372058391571,-0.2372622936964035,-0.561389684677124,-0.3060119152069092,8.959457397460938,-0.3524602651596069,-3.73755145072937,-0.2543853223323822,-0.3691301941871643,0.5552896857261658,0.3900719583034515,-0.6206157803535461,-0.5542343258857727,-0.3943402171134949
1793723,9.475150108337402,0.0100741758942604,2.5746867656707764,0.2302005290985107,-0.1159999072551727,0.6100496649742126,0.7313846349716187,-0.2373062223196029,-0.5613726377487183,-0.3059787452220917,8.951362609863281,-0.3908246755599975,-3.722525596618652,-0.5125228762626648,-0.2952631711959839,0.8396162986755371,0.3900448977947235,-0.6207072734832764,-0.5541682243347168,-0.3943159282207489
1793890,9.451898574829102,0.0071704741567373,2.5138731002807617,0.1846483647823333,-0.4362995326519012,0.4783235490322113,0.7313401103019714,-0.2374021708965301,-0.5613734722137451,-0.306009441614151,8.935776710510254,-0.4124185740947723,-3.735984563827514,-0.3148825168609619,-0.0947029516100883,1.1221883296966553,0.390064388513565,-0.6208035945892334,-0.5540711879730225,-0.3942814767360687
1794056,9.535226821899414,0.0079713659361004,2.560110330581665,-0.33378466963768,-0.015277974307537,0.4458722472190857,0.7313182353973389,-0.2375171333551406,-0.5613142251968384,-0.3060812652111053,8.869980812072754,-0.4149445295333862,-3.74280047416687,-0.3475131094455719,-0.2924842238426208,1.2183001041412354,0.3900355696678161,-0.6209699511528015,-0.5539199709892273,-0.3942606449127197
1794223,9.503080368041992,0.0300794802606105,2.562123537063598,-0.4441241919994354,-0.2914853096008301,-0.0245753843337297,0.7312690019607544,-0.2375808656215667,-0.5613113045692444,-0.3061546683311462,8.934337615966797,-0.4417645931243896,-3.750309467315674,0.1370855718851089,-0.6921191215515137,1.1349307298660278,0.3900519609451294,-0.6210704445838928,-0.5538883209228516,-0.3941302597522735
1794390,9.534497261047363,0.0004935166216455,2.5820467472076416,0.0831836387515068,0.2337862998247146,0.0373625196516513,0.7312559485435486,-0.2376203536987304,-0.5612525939941406,-0.3062629103660583,8.956646919250488,-0.3981606066226959,-3.7539663314819336,0.2177783697843551,-0.4453664124011993,0.5711183547973633,0.3900805413722992,-0.6210831999778748,-0.553925096988678,-0.3940300643444061
1794556,9.465004920959473,-0.0211578700691461,2.592003107070923,0.5145270824432373,0.0178200360387563,0.8159245252609253,0.7312880158424377,-0.2376629114151001,-0.5612190961837769,-0.3062144815921783,8.99357795715332,-0.4187881648540497,-3.750779867172241,0.0174486525356769,-0.1592853963375091,0.0422673597931861,0.3900551199913025,-0.6210882067680359,-0.553937554359436,-0.3940299451351166
1794723,9.48384952545166,0.0113091506063938,2.596177101135254,0.5342104434967041,-0.312026709318161,0.6328065395355225,0.7312650084495544,-0.2377424836158752,-0.5612106323242188,-0.306223452091217,8.975247383117676,-0.4305965900421142,-3.726697444915772,0.1352926790714264,0.2980229556560516,-0.0534024760127067,0.3900569379329681,-0.6210736036300659,-0.553915798664093,-0.3940819501876831
1794890,9.480746269226074,0.0161354858428239,2.583141326904297,0.2880212068557739,-0.1867293864488601,0.2870351076126098,0.7312541604042053,-0.2377669811248779,-0.5612092614173889,-0.3062328100204468,8.958924293518066,-0.3989935219287872,-3.732587099075317,0.3563046455383301,0.4625333249568939,0.1250475943088531,0.3901212811470032,-0.6210246682167053,-0.5539109110832214,-0.3941021263599396
1795056,9.464592933654783,0.0044627352617681,2.552772045135498,0.2855879962444305,-0.3568617403507232,0.40160071849823,0.7312222719192505,-0.2378310263156891,-0.5612120032310486,-0.306254118680954,8.93283462524414,-0.3413575291633606,-3.729167938232422,0.2975106835365295,0.7377673983573914,0.384107232093811,0.3902165591716766,-0.6209850311279297,-0.5538626313209534,-0.3941381871700287
1795223,9.475488662719728,-0.0073593691922724,2.550466060638428,0.7623811960220337,-0.4401670396327972,0.7187756299972534,0.7312124967575073,-0.2378767728805542,-0.5612327456474304,-0.3062039315700531,8.918664932250977,-0.344833642244339,-3.709853649139404,-0.0427860207855701,0.7342456579208374,0.5672380924224854,0.3903039991855621,-0.6209599375724792,-0.5538007020950317,-0.3941781222820282
1795390,9.461908340454102,0.0288904216140508,2.5524916648864746,0.7081718444824219,-0.1312522739171981,0.7353085279464722,0.7312350869178772,-0.2379007786512375,-0.5612239837646484,-0.3061474561691284,8.913068771362305,-0.3819557130336761,-3.719245672225952,-0.2276328653097152,0.6837501525878906,0.82526034116745,0.3903695046901703,-0.6209901571273804,-0.553683876991272,-0.3942297101020813
1795556,9.45438003540039,-0.0036977983545511,2.5664186477661133,0.2676591277122497,0.001709647825919,0.5554305911064148,0.7312386631965637,-0.2379627525806427,-0.5611825585365295,-0.3061667084693908,8.902328491210938,-0.4302321076393127,-3.711372613906861,-0.1818629801273346,0.6523107290267944,1.0429812669754028,0.3904842138290405,-0.6209869980812073,-0.5536081790924072,-0.3942273557186126
1795723,9.483709335327148,0.002710728906095,2.567616701126098,0.0322399884462356,0.0685587897896766,0.6203331351280212,0.7312393188476562,-0.2380576580762863,-0.5611186623573303,-0.306208461523056,8.928657531738281,-0.4255577325820923,-3.7137162685394287,0.1693319678306579,0.3758087754249573,1.1480059623718262,0.3905642628669739,-0.6210594177246094,-0.5534788966178894,-0.3942157030105591
1795890,9.497933387756348,0.0064372071065008,2.574379205703736,0.0195104721933603,0.0773311331868171,0.5516014695167542,0.7312424778938293,-0.2381382435560226,-0.5610595941543579,-0.3062464594841003,8.956340789794922,-0.4248124063014984,-3.720647811889648,0.3875649571418762,0.3974642753601074,1.070694088935852,0.3906750380992889,-0.6210922598838806,-0.5533899664878845,-0.3941790163516998
1796056,9.512883186340332,0.0050746379420161,2.579303741455078,0.0196513440459966,-0.0605740323662757,0.523209810256958,0.7312561869621277,-0.2381805330514907,-0.5610337853431702,-0.3062279820442199,8.960078239440918,-0.4318331778049469,-3.729326486587525,0.442632257938385,0.4319517612457275,0.8674444556236267,0.3908063471317291,-0.6210693120956421,-0.5533590912818909,-0.3941282331943512
1796223,9.504558563232422,-0.0157174710184335,2.564970731735229,0.2307512164115905,-0.0802317857742309,0.6104979515075684,0.731278121471405,-0.2382107079029083,-0.5610153079032898,-0.3061861097812652,8.934475898742676,-0.4234001636505127,-3.710591793060303,0.4866988956928253,0.4519425332546234,0.6066688299179077,0.3909149765968323,-0.621040403842926,-0.5533322095870972,-0.3941037654876709
1796390,9.505154609680176,-0.0114367110654711,2.5859947204589844,0.4138948619365692,-0.0618034489452838,0.5644078850746155,0.7313026785850525,-0.2382226735353469,-0.5610020756721497,-0.3061424791812897,8.943805694580078,-0.4123938381671905,-3.7146387100219727,0.4407368898391723,0.2299315929412841,0.5561989545822144,0.3909783065319061,-0.6210511922836304,-0.5532878637313843,-0.3940862417221069
1796556,9.467426300048828,-0.0204806998372077,2.5330650806427,0.6062973737716675,-0.2689845561981201,0.7018455266952515,0.7313337922096252,-0.2382155060768127,-0.5610224008560181,-0.3060363829135895,8.962639808654785,-0.3882937431335449,-3.709066390991211,0.359941691160202,0.1476892232894897,0.4811665415763855,0.3910309970378876,-0.621054470539093,-0.5532624125480652,-0.3940645456314087
1796723,9.494280815124512,-0.0245050378143787,2.527682065963745,0.5184970498085022,-0.0323616452515125,0.7949989438056946,0.7313607335090637,-0.2382594347000122,-0.5609915852546692,-0.3059943318367004,8.906387329101562,-0.4078986346721649,-3.715346813201904,0.0722598284482956,0.1284028589725494,0.6123932003974915,0.3910865783691406,-0.6210529208183289,-0.5532465577125549,-0.3940341770648956
1796890,9.478376388549805,0.0281483270227909,2.557642698287964,0.3882564902305603,-0.4951062798500061,0.3206645548343658,0.7313297390937805,-0.2382889539003372,-0.5610253214836121,-0.3059834539890289,8.930684089660645,-0.438186377286911,-3.7166264057159424,0.2435319423675537,-0.2669611573219299,0.911178171634674,0.3911702930927276,-0.6210494637489319,-0.5532798171043396,-0.3939098119735718
1797056,9.491071701049805,0.0097773503512144,2.51295804977417,0.6682929396629333,-0.1181001514196395,0.2085834145545959,0.731338620185852,-0.2382541894912719,-0.5610389113426208,-0.3059644401073456,8.876357078552246,-0.3659676015377044,-3.7039637565612793,0.2550320327281952,-0.2235220372676849,0.6183739304542542,0.3911985456943512,-0.6210799813270569,-0.5532695055007935,-0.3938481211662292
1797223,9.491999626159668,0.003996220882982,2.569986343383789,0.7402645945549011,0.1762729883193969,0.5644845962524414,0.7313870191574097,-0.2382320165634155,-0.5610105395317078,-0.3059180080890655,8.89772891998291,-0.3883260488510132,-3.7191126346588135,-0.1994716823101043,-0.652649998664856,0.2526628673076629,0.3911526203155517,-0.6210987567901611,-0.5533275604248047,-0.3937824368476867
1797390,9.49734115600586,0.0168367847800254,2.5696587562561035,0.4542475938796997,-0.0966751277446746,0.5379627346992493,0.7313709259033203,-0.2383072972297668,-0.5609748363494873,-0.3059633076190948,8.958145141601562,-0.4543232321739197,-3.738495826721192,-0.297901302576065,-0.8127676844596863,0.1221149414777755,0.3910235464572906,-0.621196985244751,-0.5533167123794556,-0.3937710523605346
1797556,9.493284225463867,-0.00814298260957,2.587017774581909,0.1078742817044258,0.02082952670753,0.2592581212520599,0.7313639521598816,-0.2383468598127365,-0.5609397292137146,-0.3060136139392853,8.990528106689453,-0.4403991997241974,-3.725599765777588,0.0938641428947448,-0.5274551510810852,0.2730377614498138,0.3909942209720611,-0.6212227940559387,-0.5533501505851746,-0.39371258020401
1797723,9.494518280029297,-0.0131925735622644,2.580730676651001,-0.0854951962828636,-0.1670332252979278,0.1974291056394577,0.7313377261161804,-0.2384005337953567,-0.5609219670295715,-0.3060671389102936,8.995401382446289,-0.3997698426246643,-3.728660821914673,0.1552065461874008,-0.0348716862499713,0.6401957869529724,0.3910391330718994,-0.6212349534034729,-0.5533384680747986,-0.3936649262905121
1797890,9.464990615844728,-0.0089655518531799,2.580526828765869,0.3514126539230346,-0.4195488393306732,0.2365268915891647,0.7313160300254822,-0.2384070307016372,-0.560955286026001,-0.3060527741909027,8.986990928649902,-0.3774972856044769,-3.734350681304932,-0.0216427315026521,0.3809824883937835,0.6678063273429871,0.3911342620849609,-0.6211912035942078,-0.5533404350280762,-0.3936366736888885
1798056,9.451662063598633,0.0076706185936927,2.5781056880950928,0.6235091090202332,-0.3762377202510834,0.2640476822853088,0.7313053011894226,-0.2383908778429031,-0.5609922409057617,-0.3060231208801269,8.932859420776367,-0.4063254296779632,-3.7178666591644287,-0.1634090095758438,0.6747986078262329,0.5916853547096252,0.391156405210495,-0.6212433576583862,-0.5531997084617615,-0.3937302529811859
1798223,9.47921657562256,0.0092766815796494,2.55359435081482,0.6879763007164001,-0.262197196483612,0.2885206341743469,0.7312764525413513,-0.2384211868047714,-0.5609946846961975,-0.30606409907341,8.904513359069824,-0.4189562499523163,-3.7069320678710938,-0.212841510772705,0.5483742952346802,0.5719507336616516,0.3911835849285126,-0.6212738156318665,-0.5530990958213806,-0.3937966227531433
1798390,9.484888076782228,-0.0060080280527472,2.571260929107666,0.5944643020629883,-0.0238710325211286,0.1924986392259597,0.7312965989112854,-0.2383746057748794,-0.5609999895095825,-0.3060422837734222,8.904162406921387,-0.424127459526062,-3.706331253051758,-0.1099297031760215,0.4579358398914337,0.5264114141464233,0.3912563025951385,-0.6212345957756042,-0.5530872941017151,-0.3938029408454895
1798556,9.474041938781738,0.0051819244399666,2.593726634979248,0.4539146423339844,0.0548559986054897,0.2430196851491928,0.7313023209571838,-0.23837710916996,-0.5609744191169739,-0.3060736060142517,8.938204765319824,-0.4247458577156067,-3.707729816436768,-0.0948950573801994,0.4414925575256347,0.3071795105934143,0.3912814259529114,-0.6212269067764282,-0.5530415773391724,-0.3938539922237396
1798723,9.467143058776855,0.0365023948252201,2.5785489082336426,0.2828730344772339,-0.0210152175277471,0.2022954821586609,0.7312994599342346,-0.2383878976106643,-0.5609545111656189,-0.3061085045337677,8.948378562927246,-0.3934972286224365,-3.713751792907715,0.0038098890800029,0.3705325424671173,0.1923449784517288,0.3912954330444336,-0.6212198138237,-0.5530033111572266,-0.3939053118228912
1798890,9.497200965881348,0.0110218711197376,2.5842676162719727,0.4191710352897644,-0.0290319919586181,0.2678640186786651,0.7313031554222107,-0.2383904010057449,-0.5609386563301086,-0.3061267435550689,8.959604263305664,-0.3800971806049347,-3.701978921890259,-0.1204949468374252,0.4028045237064361,0.177668884396553,0.3913015127182007,-0.6212130784988403,-0.5529612898826599,-0.3939687311649322
1799056,9.502007484436035,0.0133571345359086,2.583348512649536,0.4242679476737976,-0.0962013006210327,0.4243191480636596,0.7313034534454346,-0.2384174019098281,-0.5609204173088074,-0.3061384260654449,8.945184707641602,-0.3719434440135956,-3.718014717102051,-0.2892442047595978,0.31413334608078,0.1533112078905105,0.3912985324859619,-0.6211980581283569,-0.5529404878616333,-0.3940245807170868
1799223,9.493478775024414,0.0009227095870301,2.5617835521698,0.2704893350601196,-0.0451039671897888,0.4873905181884765,0.7313088774681091,-0.2384568750858307,-0.5608903169631958,-0.3061497807502746,8.942843437194824,-0.3864196240901947,-3.695552110671997,-0.3646223545074463,0.2191614806652069,0.490720123052597,0.3913060426712036,-0.6212111115455627,-0.5529001355171204,-0.3940531015396118
1799390,9.484272956848145,0.0050674858503043,2.594245195388794,0.197787657380104,-0.124183177947998,0.5902125835418701,0.7313227653503418,-0.2384922057390213,-0.560871958732605,-0.3061228692531585,8.952796936035156,-0.3951303660869598,-3.708771944046021,-0.2659366726875305,0.2431990057229995,0.9339735507965088,0.3913321495056152,-0.6212764382362366,-0.552797257900238,-0.3940685391426086
1799556,9.474892616271973,-0.0063978349789977,2.5666725635528564,0.151108518242836,-0.2523106932640075,0.5758823156356812,0.7313172221183777,-0.2385493516921997,-0.5608599185943604,-0.3061137497425079,8.949955940246582,-0.403784304857254,-3.677490234375,-0.104948028922081,0.3021081984043121,1.1819428205490112,0.3913882374763489,-0.6213537454605103,-0.5526725649833679,-0.3940659165382385
1799723,9.477364540100098,-0.0194043032824993,2.5532007217407227,0.2806063294410705,-0.320427656173706,0.7011027932167053,0.731318473815918,-0.2386011779308319,-0.560858428478241,-0.3060729205608368,8.91816234588623,-0.4221743941307068,-3.692849159240722,0.0450079143047332,0.060080986469984,1.2308374643325806,0.3914227187633514,-0.6214658617973328,-0.55253666639328,-0.3940455019474029
1799890,9.476449966430664,-0.0202268157154321,2.5485992431640625,0.4392257630825043,-0.2046838849782943,0.699386715888977,0.7313244342803955,-0.238650232553482,-0.5608433485031128,-0.3060480654239654,8.911251068115234,-0.4529676139354706,-3.6789417266845694,0.3395667672157287,-0.1635755151510238,1.0996493101119995,0.391491562128067,-0.6215162873268127,-0.552495539188385,-0.393955260515213
1800056,9.47622299194336,0.0011443863622844,2.572716474533081,0.3948005139827728,-0.0999791696667671,0.7216697931289673,0.7313281893730164,-0.2387194037437439,-0.5608066320419312,-0.3060526251792907,8.916107177734375,-0.4640729129314422,-3.6838762760162354,0.721823513507843,-0.392924427986145,1.05950129032135,0.3915913701057434,-0.6215307712554932,-0.5525200963020325,-0.3937988877296448
1800223,9.46914291381836,0.0060437903739511,2.564666271209717,0.4089387655258178,-0.0270982347428798,0.7183785438537598,0.7313157320022583,-0.2388249486684799,-0.5607447624206543,-0.3061133921146393,8.926074981689453,-0.4281211495399475,-3.691802263259888,1.0405607223510742,-0.6094542145729065,0.7082487344741821,0.3916627764701843,-0.6215390563011169,-0.5525750517845154,-0.3936372697353363
1800390,9.478541374206545,0.0162907112389802,2.5957372188568115,0.6028909087181091,0.0541900694370269,0.6237269043922424,0.7313396334648132,-0.2388480305671692,-0.5607075691223145,-0.3061061501502991,8.950896263122559,-0.4108411967754364,-3.731015205383301,1.1367876529693604,-0.5925881862640381,0.5988824963569641,0.3917622566223144,-0.6214974522590637,-0.5526837706565857,-0.3934512734413147
1800556,9.48456573486328,-0.0016727002803236,2.5860555171966557,0.7300195097923279,0.0853607207536697,0.6375577449798584,0.7313918471336365,-0.2388188987970352,-0.5606883764266968,-0.3060392439365387,8.941359519958496,-0.3834030628204345,-3.724691390991211,0.8079333901405334,-0.4464421272277832,0.1984535902738571,0.3918059468269348,-0.6214545965194702,-0.552778422832489,-0.3933425843715668
1800723,9.480588912963867,0.0106244003400206,2.599367618560791,0.7217850685119629,-0.0071203303523361,0.6448317170143127,0.7314125895500183,-0.2388395220041275,-0.5606591701507568,-0.3060273826122284,8.951690673828125,-0.382328599691391,-3.722724676132202,0.4253436923027038,-0.4172820746898651,0.3065904080867767,0.391822874546051,-0.6214407682418823,-0.5528395771980286,-0.393261581659317
1800890,9.469925880432127,0.0218996964395046,2.58388090133667,0.7039970755577087,-0.0747634619474411,0.5296642184257507,0.7314283847808838,-0.2388437986373901,-0.5606449246406555,-0.3060122430324554,8.978571891784668,-0.3828113377094269,-3.715575695037842,-0.0495349615812301,-0.1753189414739608,0.359122097492218,0.391804575920105,-0.6214641332626343,-0.5528327822685242,-0.3932526707649231
1801056,9.464056968688965,0.0236635971814394,2.6112678050994877,0.6109077334403992,-0.1702604293823242,0.4116153120994568,0.7314422726631165,-0.2388254255056381,-0.5606521964073181,-0.3059799373149872,8.958810806274414,-0.3725406527519226,-3.7142202854156494,-0.5438856482505798,0.0723750814795494,0.6171315312385559,0.3917946517467499,-0.6214947700500488,-0.5527910590171814,-0.39327272772789
1801223,9.464739799499512,0.0312276799231767,2.549224138259888,0.6457409262657166,-0.243602380156517,0.3371463716030121,0.7314550876617432,-0.2387877702713012,-0.5606763362884521,-0.3059344887733459,8.936604499816895,-0.3985666930675506,-3.729145050048828,-0.7597494721412659,0.1379563957452774,0.7219899296760559,0.391745388507843,-0.6215842366218567,-0.552676260471344,-0.3933414220809936
1801390,9.517149925231934,0.0070487046614289,2.608460664749145,0.0470441207289695,-0.1434695273637771,0.4045077264308929,0.7314517498016357,-0.2388260513544082,-0.5606558918952942,-0.3059500753879547,8.945775032043457,-0.3762221038341522,-3.719973802566528,-1.0950454473495483,0.1711120456457138,0.7742782831192017,0.3916781544685364,-0.6216855645179749,-0.5525467395782471,-0.3934303224086761
1801556,9.48791790008545,-0.0301867648959159,2.563847303390503,0.112471766769886,-0.2922152578830719,0.6147624254226685,0.7314231395721436,-0.238926887512207,-0.5606268048286438,-0.3059931993484497,8.96944808959961,-0.4497043788433075,-3.7187514305114746,-1.1125515699386597,0.125470221042633,0.924855411052704,0.3916263580322265,-0.6217841506004333,-0.5524261593818665,-0.3934955894947052
1801723,9.441648483276367,-0.0090084662660956,2.5160012245178223,0.2074948698282241,-0.4816724061965942,0.5919671058654785,0.7314048409461975,-0.2389804720878601,-0.5606414675712585,-0.3059678971767425,8.947253227233887,-0.4858181774616241,-3.7102808952331534,-0.607738196849823,0.4403143525123596,1.0876624584197998,0.3916582763195038,-0.6218441128730774,-0.55230712890625,-0.3935359716415405
1801890,9.534433364868164,-0.0280303135514259,2.568260431289673,-0.0797195211052894,-0.0008580253925174,0.724897027015686,0.7314221858978271,-0.2390530854463577,-0.5605884194374084,-0.3059670925140381,8.851493835449219,-0.4594402313232422,-3.732451915740967,-0.1210968419909477,0.3770637512207031,1.0057659149169922,0.3917332589626312,-0.6218612790107727,-0.5522407293319702,-0.39352747797966
1802056,9.479598999023438,0.0035189879126846,2.5792644023895264,-0.4168722629547119,-0.3045862019062042,0.2114136219024658,0.7313549518585205,-0.2391794025897979,-0.560550332069397,-0.3060986697673797,8.937967300415039,-0.5048359632492065,-3.7422943115234375,0.5310216546058655,-0.1834509521722793,1.1773710250854492,0.3918034434318542,-0.6219272613525391,-0.5521829128265381,-0.3934344947338104
1802223,9.50735092163086,-0.0128886513411998,2.586230754852295,0.227114200592041,0.4708831310272217,-0.0100145647302269,0.7313660979270935,-0.2391792982816696,-0.560468316078186,-0.306222528219223,8.943306922912598,-0.4151328802108764,-3.7201874256134033,0.7517391443252563,-0.1148473396897316,0.5688132047653198,0.391885757446289,-0.6218975186347961,-0.5522237420082092,-0.3933423161506653
1802390,9.48432445526123,-0.019696669653058,2.605900764465332,0.6920487284660339,0.0943123549222946,0.7838445901870728,0.7314041256904602,-0.239200472831726,-0.560423731803894,-0.3061969578266144,8.983007431030273,-0.4284403622150421,-3.739332437515259,0.2939377427101135,0.1623909175395965,-0.0152651658281683,0.3919202387332916,-0.6218241453170776,-0.5522832274436951,-0.3933403789997101
1802556,9.483343124389648,0.0245815813541412,2.589783191680908,0.7487680315971375,-0.2297330945730209,0.7016918659210205,0.7314242124557495,-0.2392047643661499,-0.5604264736175537,-0.3061403632164001,8.989001274108887,-0.4429845511913299,-3.73907470703125,0.3466742634773254,0.5753957033157349,-0.0967775806784629,0.391962468624115,-0.6217522621154785,-0.5522900819778442,-0.393402099609375
1802723,9.488421440124512,0.0155386207625269,2.611478805541992,0.3600825667381286,-0.2145191580057144,0.3755013942718506,0.7314255833625793,-0.2392076104879379,-0.5604280829429626,-0.3061319291591644,8.983182907104492,-0.4220885038375854,-3.732614278793335,0.3771149814128876,0.7722932696342468,0.0039763716049492,0.3920563459396362,-0.621636688709259,-0.5523225665092468,-0.3934455215930938
1802890,9.459239959716797,-0.0081787863746285,2.601154327392578,0.1578574627637863,-0.2999503314495086,0.3946724832057953,0.7314271330833435,-0.2392129153013229,-0.5604391694068909,-0.3061037361621856,8.955377578735352,-0.361155241727829,-3.698120594024658,0.1764010637998581,0.9091675877571106,0.3754757940769195,0.3921477794647217,-0.6215775609016418,-0.5522762537002563,-0.3935131728649139
1803056,9.464136123657228,-0.01050332095474,2.592689514160156,0.4422224462032318,-0.4489906132221222,0.5534840226173401,0.7314201593399048,-0.2392321079969406,-0.5604621767997742,-0.3060633540153503,8.961565971374512,-0.3577508628368377,-3.676664113998413,-0.421572208404541,1.0058939456939695,0.5405880808830261,0.3921888768672943,-0.6215776801109314,-0.5521551370620728,-0.3936419188976288
1803223,9.463563919067385,0.0058470987714827,2.5778732299804688,0.415649265050888,-0.1193551570177078,0.4837662577629089,0.7314143180847168,-0.239273190498352,-0.5604338645935059,-0.3060968816280365,8.917789459228516,-0.3893924057483673,-3.675435543060303,-0.6420463919639587,1.1315369606018066,0.8519615530967712,0.3922306895256042,-0.6216171383857727,-0.5519756078720093,-0.3937898278236389
1803390,9.453961372375488,-0.0254411380738019,2.567094564437866,-0.0939729884266853,0.0228145103901624,0.3629127144813537,0.7314281463623047,-0.2392948418855667,-0.5603965520858765,-0.3061152994632721,8.929256439208984,-0.4474182426929474,-3.686932802200317,-0.5048774480819702,0.8714783787727356,1.134187936782837,0.3922979831695556,-0.6216601729393005,-0.5518226027488708,-0.3938690721988678
1803556,9.475975036621094,-0.0151308551430702,2.5721981525421143,0.1224094927310943,0.1158782541751861,0.4742255210876465,0.7314583659172058,-0.2393052279949188,-0.5603519082069397,-0.3061167597770691,8.961371421813965,-0.453682392835617,-3.678854942321777,-0.2108693718910217,0.7519568800926208,1.1244168281555176,0.3923924565315246,-0.6216771602630615,-0.5517116785049438,-0.3939036428928375
1803723,9.47234344482422,-0.0122413579374551,2.6065831184387207,0.0420880652964115,0.0019785808399319,0.4748145937919616,0.731453001499176,-0.2393726259469986,-0.5602968335151672,-0.3061777651309967,8.966355323791504,-0.4740718901157379,-3.66586184501648,0.1084889844059944,0.8662790656089783,0.95261949300766,0.3925160467624664,-0.6216546893119812,-0.5516287684440613,-0.3939320147037506
1803890,9.485217094421388,0.0005543121369555,2.591616630554199,0.2440890371799469,-0.1627687066793441,0.416360080242157,0.7314387559890747,-0.2394207268953323,-0.5602699518203735,-0.3062233626842499,8.956233024597168,-0.452084481716156,-3.69140625,0.5125805139541626,0.8965020179748535,0.5726935267448425,0.3926378190517425,-0.6216037273406982,-0.5515707731246948,-0.3939721882343292
1804056,9.508641242980955,-0.0134608438238501,2.570488452911377,0.4693207144737243,-0.045680247247219,0.4477419555187225,0.7314541339874268,-0.23942232131958,-0.5602478384971619,-0.3062258064746856,8.944729804992676,-0.4572333395481109,-3.6754891872406006,0.5743071436882019,0.7280858159065247,0.178629383444786,0.3927311301231384,-0.6215240359306335,-0.5515652894973755,-0.3940126299858093
1804223,9.491872787475586,-0.0121984500437974,2.588923454284668,0.5363619327545166,0.0042453054338693,0.3512845933437347,0.7314819693565369,-0.2393872737884521,-0.5602352023124695,-0.3062098622322082,8.945889472961426,-0.4131699502468109,-3.683565139770508,0.6694455146789551,0.4015751183032989,-0.0263938847929239,0.3927985429763794,-0.6214350461959839,-0.5516093373298645,-0.3940241038799286
1804390,9.46027946472168,0.0033498131670057,2.55391263961792,0.7435045838356018,-0.3566440045833587,0.3735419809818268,0.7314870357513428,-0.2393509447574615,-0.5602678656578064,-0.3061664700508117,8.971806526184082,-0.3977243304252624,-3.673433542251587,0.510326623916626,0.2987144887447357,0.0967967882752418,0.3928805589675903,-0.6213283538818359,-0.5516876578330994,-0.3940010070800781
1804556,9.5005521774292,-0.0290352273732423,2.5520780086517334,0.4610606133937835,-0.114642433822155,0.5297026038169861,0.7315260767936707,-0.2393143475055694,-0.5602707862854004,-0.3060962855815887,8.910635948181152,-0.3901534676551819,-3.656361103057861,0.1477276235818863,0.2770973742008209,0.4422480165958404,0.3929304778575897,-0.6212959289550781,-0.551686704158783,-0.3940035700798034
1804723,9.472883224487305,0.0180956088006496,2.5715720653533936,0.232095867395401,-0.4512317180633545,0.2424818277359008,0.7314904928207397,-0.2393422871828079,-0.5602881908416748,-0.3061276078224182,8.922128677368164,-0.4333227276802063,-3.686054229736328,0.1091293022036552,-0.3332212269306183,0.8058331608772278,0.392947256565094,-0.6213304996490479,-0.5516847372055054,-0.3939350545406341
1804890,9.47610569000244,0.0182386580854654,2.5416676998138428,0.648980975151062,-0.0778369978070259,-0.0915654078125953,0.7314762473106384,-0.2392974495887756,-0.560289204120636,-0.3061949014663696,8.87523078918457,-0.3871029913425445,-3.679302215576172,0.1559109091758728,-0.4587618708610534,0.6795241236686707,0.3929309248924255,-0.6213866472244263,-0.5516729950904846,-0.3938791155815124
1805056,9.481523513793944,0.0059496918693184,2.590240240097046,0.8232753276824951,0.0485680736601352,0.4330402910709381,0.7315322756767273,-0.2392143607139587,-0.5602911710739136,-0.3061224520206451,8.906167030334473,-0.3728726804256439,-3.695482015609741,-0.378158688545227,-1.055332899093628,0.176913321018219,0.3928216397762298,-0.6214208602905273,-0.5517635941505432,-0.3938074707984924
1805223,9.48599338531494,0.0187679361552,2.57850980758667,0.3714929521083832,-0.2111510783433914,0.4453728199005127,0.73153156042099,-0.2392287701368332,-0.5602838397026062,-0.306126207113266,8.956559181213379,-0.4495877623558044,-3.690487146377564,-0.515916645526886,-1.095724105834961,0.1354719698429107,0.3926670551300049,-0.6214991211891174,-0.5518097281455994,-0.393773466348648
1805390,9.48559856414795,0.0013017228338867,2.592174768447876,0.0702236220240593,-0.0115513280034065,0.2348236441612243,0.7315389513969421,-0.2392274588346481,-0.5602585077285767,-0.3061560392379761,9.001480102539062,-0.4379357993602752,-3.715113639831543,-0.0810257643461227,-0.8378810286521912,0.1618914604187011,0.3925502896308899,-0.6215726137161255,-0.5518261790275574,-0.393750935792923
1805557,9.477742195129396,-0.0050780987367033,2.610337495803833,-0.1206998378038406,-0.3195696473121643,0.1900910437107086,0.7314797043800354,-0.2393168956041336,-0.5602323412895203,-0.3062755763530731,8.997186660766602,-0.4055919647216797,-3.6972153186798096,0.0986152961850166,-0.4860137403011322,0.3833900988101959,0.3925238251686096,-0.6215868592262268,-0.5518660545349121,-0.3936988711357116
1805723,9.467147827148438,-0.0186458453536033,2.6052634716033936,0.3203700184822082,-0.4736684560775757,0.2894811034202575,0.731468141078949,-0.239299938082695,-0.5602707266807556,-0.3062463104724884,8.984026908874512,-0.3741463422775268,-3.711570024490357,-0.1323408037424087,0.0293329413980245,0.3563814461231231,0.3924887180328369,-0.6216205358505249,-0.5518221855163574,-0.3937422037124634
1805890,9.462154388427734,0.0132261887192726,2.593663692474365,0.8528196215629578,-0.3335413634777069,0.3444203436374664,0.7314679622650146,-0.2392633557319641,-0.5602986812591553,-0.30622398853302,8.956750869750977,-0.3917234539985657,-3.734232664108277,-0.2362131029367447,0.2915173470973968,0.3352638185024261,0.3924804031848907,-0.6216194033622742,-0.5517868399620056,-0.3938018977642059
1806057,9.466670989990234,0.0095019824802875,2.5795540809631348,0.6998350620269775,-0.3313259184360504,0.2595014870166778,0.7314656376838684,-0.2392232418060302,-0.5603277683258057,-0.3062075972557068,8.937896728515625,-0.4135418832302093,-3.7027549743652335,-0.3513165414333343,0.3356095850467682,0.4617137014865875,0.3924702107906341,-0.6216338872909546,-0.5517296195030212,-0.3938692212104797
1806223,9.47343921661377,0.0087178023532032,2.579841375350952,0.7466422915458679,-0.225327730178833,0.3128783404827118,0.7314819693565369,-0.2391665577888488,-0.5603504776954651,-0.3061714768409729,8.934835433959961,-0.4222821295261383,-3.703745603561402,-0.2440633922815323,0.3630920350551605,0.4093998074531555,0.3924852013587951,-0.6216133236885071,-0.5517082810401917,-0.3939166665077209
1806390,9.475479125976562,0.0162359811365604,2.5924856662750244,0.4470376670360565,-0.0800653025507927,0.3179752826690674,0.731494128704071,-0.239145889878273,-0.5603395104408264,-0.306178480386734,8.942052841186523,-0.4008964002132416,-3.702751398086548,-0.2201155424118042,0.4775423407554626,0.5204051733016968,0.3925245106220245,-0.6215839982032776,-0.5516829490661621,-0.3939593434333801
1806557,9.471778869628906,0.0250798594206571,2.600085735321045,0.2566456198692322,-0.0452320240437984,0.2886871099472046,0.7315158247947693,-0.2391145527362823,-0.5603287220001221,-0.3061708509922027,8.956450462341309,-0.3847710490226745,-3.702132225036621,-0.153125524520874,0.5270389318466187,0.4427987337112427,0.3925614655017853,-0.6215519309043884,-0.551654040813446,-0.394013375043869
1806723,9.478269577026367,0.0218865498900413,2.59655499458313,0.3102273941040039,-0.140524074435234,0.4409418106079101,0.731537938117981,-0.2390942275524139,-0.5603249669075012,-0.3061406016349792,8.952659606933594,-0.3807332813739776,-3.690971851348877,-0.3371399641036987,0.6619153618812561,0.397617906332016,0.392572283744812,-0.6215434670448303,-0.5515829920768738,-0.3941154479980469
1806890,9.492090225219728,0.0015877517871558,2.583981990814209,0.3102017939090729,-0.0712929517030716,0.4965981841087341,0.7315563559532166,-0.2390971481800079,-0.5603020191192627,-0.3061363697052002,8.95186996459961,-0.3795666396617889,-3.69745683670044,-0.3343353569507599,0.573910117149353,0.559733510017395,0.392585813999176,-0.6215511560440063,-0.551504373550415,-0.3941998183727264
1807057,9.495144844055176,-0.0117907552048563,2.588533878326416,0.3705837428569793,-0.0306968186050653,0.6275559067726135,0.7315669655799866,-0.2391371577978134,-0.5602574944496155,-0.3061612546443939,8.968998908996582,-0.3916877508163452,-3.698807239532471,-0.3380875885486603,0.491718977689743,0.6613519191741943,0.3925955295562744,-0.6215738654136658,-0.5514189600944519,-0.3942737579345703
1807223,9.479569435119627,-0.0128351105377078,2.582969903945923,0.5043331980705261,-0.1163584887981414,0.6549871563911438,0.7315841913223267,-0.2391546219587326,-0.5602332949638367,-0.3061508536338806,8.9611234664917,-0.4193750917911529,-3.691916704177856,-0.2630296349525451,0.5387055277824402,0.9970703721046448,0.3926488757133484,-0.6215970516204834,-0.5513271689414978,-0.3943124413490295
1807390,9.488829612731934,-0.0146015733480453,2.5586116313934326,0.3223422169685364,-0.1236837208271026,0.6572410464286804,0.7315809726715088,-0.2392170280218124,-0.5601904392242432,-0.3061882853507995,8.9464750289917,-0.4333910942077636,-3.695903778076172,0.0019145495025441,0.3799964189529419,1.1316394805908203,0.3927201330661773,-0.6216257214546204,-0.5512465834617615,-0.3943089544773102
1807557,9.474238395690918,0.0047635082155466,2.551945686340332,0.3531543314456939,-0.1085209995508194,0.6633496880531311,0.7316069602966309,-0.2392267882823944,-0.5601688027381897,-0.3061583042144775,8.940736770629883,-0.4484400749206543,-3.668620586395264,0.3623364567756653,0.3013270199298858,1.211179494857788,0.3928182721138,-0.6216499209403992,-0.551177978515625,-0.3942688703536987
1807723,9.463822364807127,-0.0120252706110477,2.5641884803771973,0.5387182831764221,-0.0300436951220035,0.6974145770072937,0.7316367626190186,-0.2392349988222122,-0.5601373910903931,-0.3061380684375763,8.93628215789795,-0.4558398723602295,-3.6784610748291016,0.4867245554924011,0.1148921772837638,0.9586001038551332,0.3928834795951843,-0.6216779947280884,-0.5511263608932495,-0.3942318856716156
1807890,9.471620559692385,0.0012159104226157,2.592864751815796,0.5027709007263184,-0.001575180911459,0.6397219896316528,0.7316576242446899,-0.239254355430603,-0.5600976347923279,-0.3061456680297851,8.935035705566406,-0.4602925479412079,-3.695469379425049,0.6390047669410706,0.1172869428992271,0.7313129305839539,0.3929650485515594,-0.6216573715209961,-0.5511284470558167,-0.3941799998283386
1808057,9.466206550598145,-0.0047956937924027,2.591212511062622,0.5310088396072388,0.0587619245052337,0.6340487003326416,0.7316911816596985,-0.2392548620700836,-0.5600582361221313,-0.3061375319957733,8.932574272155762,-0.4449050724506378,-3.6812496185302734,0.8385917544364929,0.0256703272461891,0.5979732275009155,0.3930619359016418,-0.6216023564338684,-0.5511799454689026,-0.3940984606742859
1808223,9.471084594726562,-0.0002467583108227,2.594477653503418,0.5385518074035645,0.0807760432362556,0.4708703160285949,0.7317303419113159,-0.2392196804285049,-0.5600311756134033,-0.3061205446720123,8.950895309448242,-0.4227457642555237,-3.672572612762451,0.7368196845054626,-0.0730089917778968,0.4151882231235504,0.3931301832199096,-0.6215460300445557,-0.5512453317642212,-0.3940277397632599
1808390,9.47497844696045,-0.0096700647845864,2.622203826904297,0.5171780586242676,0.0789063200354576,0.5530998110771179,0.7317660450935364,-0.2392050921916961,-0.5599952340126038,-0.3061124682426452,8.976698875427246,-0.3838235139846802,-3.6712450981140137,0.5661238431930542,0.1271094232797622,0.4671051800251007,0.3932107388973236,-0.6214785575866699,-0.5513004660606384,-0.3939765095710754
1808557,9.47260570526123,0.008988925255835,2.5993635654449463,0.6701114773750305,-0.1153596043586731,0.5373993515968323,0.7318052053451538,-0.2391549348831176,-0.559998631477356,-0.3060519099235534,8.980417251586914,-0.3853721916675567,-3.685921907424927,0.0925834998488426,0.3601721525192261,0.3769741058349609,0.3932414650917053,-0.6214443445205688,-0.551292359828949,-0.3940109312534332
1808723,9.487563133239746,0.0065265782177448,2.6288092136383057,0.6141348481178284,-0.0643262863159179,0.4937807917594909,0.731833279132843,-0.2391250729560852,-0.5599863529205322,-0.3060303926467895,8.944995880126953,-0.3940048217773437,-3.6770060062408447,-0.211970716714859,0.4902207255363464,0.5971025228500366,0.3932730853557586,-0.6214308142662048,-0.5512475371360779,-0.3940636813640594
1808890,9.481527328491213,-0.0123950187116861,2.610459804534912,0.5088282823562622,0.0738350078463554,0.2704124748706817,0.7318519353866577,-0.2390954047441482,-0.5599562525749207,-0.3060643374919891,8.945207595825195,-0.4164652228355407,-3.680349588394165,-0.503238320350647,0.458089530467987,0.5811841487884521,0.3932658433914184,-0.6214461922645569,-0.5511757731437683,-0.3941471576690674
1809057,9.46536636352539,-0.0165292304009199,2.598840475082397,0.5167554020881653,0.1242536008358001,0.1524787992238998,0.7318717837333679,-0.2390491068363189,-0.5599265098571777,-0.3061071038246155,8.981877326965332,-0.4322221279144287,-3.6934001445770255,-0.6546221375465393,0.4353646337985992,0.6178807616233826,0.3932644128799438,-0.6214466691017151,-0.5511252284049988,-0.3942185342311859
1809223,9.472718238830566,-0.0108931269496679,2.594881772994995,0.4950999319553375,0.0950935557484626,0.2266659885644912,0.7318887710571289,-0.2390179336071014,-0.5598936676979065,-0.3061507046222687,8.94987678527832,-0.4472968876361847,-3.698574542999268,-0.5629798769950867,0.4547086358070373,0.5986520051956177,0.3932302594184875,-0.621496319770813,-0.5510148406028748,-0.3943284153938293
1809390,9.48472023010254,-0.0124559300020337,2.622032165527344,0.4374841749668121,0.0337639451026916,0.054651103913784,0.7319018840789795,-0.2389622628688812,-0.5598791837692261,-0.3061896562576294,8.969120025634766,-0.4455139338970184,-3.672720670700073,-0.5003952980041504,0.5290495157241821,0.4527108669281006,0.3932366669178009,-0.6214747428894043,-0.5509766340255737,-0.3944093883037567
1809557,9.458281517028809,-0.0064763533882796,2.6221251487731934,0.4887222945690155,-0.1105700209736824,0.1950727105140686,0.7319045662879944,-0.2389315515756607,-0.5598715543746948,-0.3062213063240051,8.955463409423828,-0.4500081837177276,-3.6840834617614746,-0.3584497570991516,0.4904640018939972,0.3726711571216583,0.3932249248027801,-0.6214724779129028,-0.5509195327758789,-0.3945044577121734
1809723,9.46536636352539,0.0066839312203228,2.608074426651001,0.571041464805603,-0.1255790591239929,0.2624084949493408,0.7319067716598511,-0.2389071732759475,-0.5598623752593994,-0.3062516152858734,8.9539794921875,-0.4173827171325683,-3.662311553955078,-0.106548823416233,0.6298226118087769,0.240471214056015,0.3932520151138305,-0.6214196085929871,-0.5509012937545776,-0.3945863544940948
1809890,9.456887245178224,0.0106749786064028,2.583266258239746,0.6765786409378052,-0.1951815634965896,0.3108164966106415,0.7319222688674927,-0.2388546615839004,-0.5598739981651306,-0.3062344789505005,8.952255249023438,-0.4062821865081787,-3.6682982444763184,-0.0098608881235122,0.5249002575874329,0.168243408203125,0.3932688534259796,-0.6213697791099548,-0.5508912801742554,-0.3946618735790252
1810057,9.514986038208008,-0.0007867655949667,2.637048721313477,0.2339527904987335,-0.0445148721337318,0.2937584221363067,0.7319211363792419,-0.2388639897108078,-0.5598402619361877,-0.3062912821769714,8.94665241241455,-0.3693861365318298,-3.666728258132935,-0.0917446985840797,0.3188589215278625,0.273242712020874,0.3932819366455078,-0.6213250756263733,-0.5509017705917358,-0.3947047889232635
1810223,9.484895706176758,-0.0224693100899457,2.579886674880981,0.3063342869281769,-0.2918695211410522,0.539614737033844,0.731914222240448,-0.2388946115970611,-0.5598280429840088,-0.3063062727451324,8.971125602722168,-0.4195248484611511,-3.680128574371338,-0.2362899482250213,0.0252989418804645,0.5110821723937988,0.3932725787162781,-0.6213222146034241,-0.5509017705917358,-0.3947184085845947
1810390,9.433688163757324,-0.0100241089239716,2.557227849960327,0.3446828722953796,-0.5014325976371765,0.5124716758728027,0.7318723201751709,-0.2389618456363678,-0.5598261952400208,-0.3063576221466064,8.97569751739502,-0.4272101521492004,-3.654286623001098,0.0747314542531967,0.0059485491365194,0.8006977438926697,0.3932884931564331,-0.6213504672050476,-0.5508663654327393,-0.3947076201438904
1810557,9.519980430603027,0.0042627677321434,2.5927467346191406,0.0684179216623306,-0.1201363578438758,0.5627942085266113,0.7318547964096069,-0.2390437126159668,-0.559770405292511,-0.3064371943473816,8.871658325195312,-0.4149468839168548,-3.633639335632324,0.2080327421426773,-0.0696665346622467,1.010542631149292,0.3933286964893341,-0.6213819980621338,-0.5508356690406799,-0.3946608304977417
1810723,9.468839645385742,0.0136557864025235,2.5722994804382324,-0.5723669528961182,-0.6739469170570374,0.203089490532875,0.7317999005317688,-0.2391048222780227,-0.559794545173645,-0.3064767718315124,8.945073127746582,-0.4813014566898346,-3.663886785507202,0.4653379619121551,-0.8977636098861694,1.2429906129837036,0.3933268189430237,-0.6214826107025146,-0.5508257150650024,-0.3945181965827942
1810890,9.518094062805176,0.0086902929469943,2.5923354625701904,0.011660180054605,0.14952053129673,-0.1688389033079147,0.7317821383476257,-0.2390978932380676,-0.5597430467605591,-0.3066183924674988,8.966331481933594,-0.4042459428310394,-3.677820205688477,0.6525924205780029,-0.8579742908477783,0.8660870790481567,0.3933345973491668,-0.6215245127677917,-0.5508760213851929,-0.3943739235401153
1811057,9.466843605041504,-0.0106141129508614,2.6225361824035645,0.3523474931716919,-0.1024123728275299,0.629361629486084,0.7318002581596375,-0.2391144782304763,-0.5597130060195923,-0.3066170811653137,8.99405288696289,-0.4158878624439239,-3.653467178344727,0.081685297191143,-0.6951158046722412,0.1960844248533249,0.3932768702507019,-0.6215197443962097,-0.5509635806083679,-0.3943169116973877
1811223,9.449432373046877,0.0327017456293106,2.6515488624572754,0.5356319546699524,-0.5560516119003296,0.6855046153068542,0.7317900657653809,-0.239136517047882,-0.5597370266914368,-0.3065802454948425,8.999425888061523,-0.4323384165763855,-3.6840837001800537,-0.019273554906249,-0.4485935866832733,-0.0393282994627952,0.3932074308395386,-0.6214991211891174,-0.5510392189025879,-0.3943130373954773
1811390,9.464064598083496,0.0287242867052555,2.656067132949829,0.0831580385565757,-0.4547663331031799,0.2671340703964233,0.731734037399292,-0.2392041385173797,-0.5597283244132996,-0.3066771030426025,9.003133773803711,-0.4148936867713928,-3.684755802154541,-0.0198114216327667,-0.2166322022676468,0.0085738506168127,0.3931806087493896,-0.6214396357536316,-0.5511308908462524,-0.3943054676055908
1811557,9.43299388885498,-0.0071881767362356,2.646686553955078,0.0238134060055017,-0.6348491311073303,0.2106708437204361,0.7316967248916626,-0.2392121106386184,-0.5597680807113647,-0.3066875338554382,8.990781784057617,-0.3606569170951843,-3.666595935821533,-0.1178824603557586,0.0043733683414757,0.3003024756908417,0.3931476473808288,-0.6214398145675659,-0.5511277318000793,-0.3943420946598053
1811723,9.430980682373049,0.0044403164647519,2.6222310066223145,0.4454752802848816,-0.969555914402008,0.443541556596756,0.7316591739654541,-0.2392059564590454,-0.5598548054695129,-0.306623637676239,8.982902526855469,-0.3269924521446228,-3.6504929065704346,-0.6797099113464355,0.3485824763774872,0.3678944706916809,0.3931071162223816,-0.6214402914047241,-0.5510867834091187,-0.3944390118122101
1811890,9.44476318359375,0.0222767367959022,2.618664026260376,0.5906223654747009,-0.7873599529266357,0.5083544254302979,0.7316179871559143,-0.2392291724681854,-0.5599048733711243,-0.3066122531890869,8.93718433380127,-0.4027731120586395,-3.661263465881348,-0.8913347125053406,0.5007603168487549,0.4928587675094604,0.393069326877594,-0.6214504837989807,-0.551017701625824,-0.3945570588111877
1812057,9.455998420715332,-0.0010980544611811,2.5991692543029785,0.0577758438885211,-0.6350284218788147,0.4795401692390442,0.7315799593925476,-0.2392809987068176,-0.5599240064620972,-0.3066276013851166,8.91319751739502,-0.4320877492427826,-3.655266761779785,-0.7260560393333435,0.4415821731090545,0.935497522354126,0.3930311203002929,-0.6215392351150513,-0.5508648753166199,-0.3946690261363983
1812223,9.48256778717041,-0.0035940883681178,2.605385065078736,0.1313483268022537,-0.5048519372940063,0.4174806177616119,0.7315534353256226,-0.2393124997615814,-0.5599353313446045,-0.3066459596157074,8.946331024169922,-0.4579574167728424,-3.681600332260132,-0.3505610227584839,0.2808112204074859,1.0680047273635864,0.3930648267269134,-0.6215648651123047,-0.5508015155792236,-0.3946833610534668
1812390,9.488582611083984,-0.0062333294190466,2.5855906009674072,-0.0938449427485466,-0.3775696158409118,0.4331171810626983,0.7315452098846436,-0.2393349111080169,-0.5599347949028015,-0.3066488206386566,8.985063552856445,-0.4616871476173401,-3.675443410873413,0.1569866389036178,0.2489234507083892,0.9018167853355408,0.3931071162223816,-0.6215859055519104,-0.5507426261901855,-0.3946901559829712
1812557,9.50967502593994,-0.0054894783534109,2.5955755710601807,-0.0429012700915336,-0.4017223715782165,0.396990418434143,0.7315256595611572,-0.2393678426742553,-0.5599324703216553,-0.3066740036010742,8.976930618286133,-0.4461855888366699,-3.686422348022461,0.456053227186203,0.2146536260843277,0.6748241782188416,0.3931714296340942,-0.6215579509735107,-0.5507417917251587,-0.3946714699268341
1812723,9.495859146118164,0.0018831441411748,2.622116804122925,0.3287709951400757,-0.4687892496585846,0.6476491093635559,0.7315256595611572,-0.2393830269575119,-0.559945821762085,-0.3066377341747284,8.954136848449707,-0.4364260137081146,-3.686568975448608,0.5582735538482666,0.0190750584006309,0.3923545181751251,0.3932095766067505,-0.6215177178382874,-0.5507775545120239,-0.3946468830108642
1812890,9.510382652282717,0.0063999369740486,2.605637311935425,0.4425554573535919,-0.557447612285614,0.5880868434906006,0.7314864993095398,-0.2394459247589111,-0.5599486827850342,-0.3066767454147339,8.967461585998535,-0.4292986690998077,-3.669188976287842,0.6006113290786743,-0.1540219634771347,0.2951671481132507,0.3932274878025055,-0.6214827299118042,-0.5508283376693726,-0.39461350440979
1813057,9.453636169433594,0.0032644248567521,2.576099634170532,0.4679632782936096,-0.801959216594696,0.5787893533706665,0.7314479947090149,-0.239479586482048,-0.5599949359893799,-0.3066579699516296,8.975186347961426,-0.4014686644077301,-3.6698851585388175,0.6515933871269226,-0.1956169605255127,0.4417229890823364,0.393271267414093,-0.6214372515678406,-0.5508960485458374,-0.3945468366146087
1813223,9.49767780303955,0.0021287044510245,2.5634357929229736,0.2966526746749878,-0.6513053178787231,0.7175846099853516,0.7314216494560242,-0.239536166191101,-0.5600126385688782,-0.3066443502902984,8.904999732971191,-0.3883939981460571,-3.65607476234436,0.3045157790184021,-0.105409063398838,0.3802269101142883,0.3933027982711792,-0.6213794350624084,-0.5509695410728455,-0.3945035934448242
1813390,9.484101295471191,0.0135415038093924,2.574378967285156,0.0431253872811794,-0.8850085139274597,0.49679034948349,0.7313671112060547,-0.2395943105220794,-0.5600594878196716,-0.3066434860229492,8.890620231628418,-0.4316075444221496,-3.6921420097351074,0.2154604345560073,-0.794966995716095,0.7465142607688904,0.3932817280292511,-0.6214093565940857,-0.5510287284851074,-0.394394963979721
1813557,9.472646713256836,0.0026070550084114,2.500233888626098,0.12965789437294,-0.5057355761528015,0.0610286630690097,0.7313236594200134,-0.2395965456962585,-0.5600824356079102,-0.3067033886909485,8.895350456237793,-0.4018497169017792,-3.685866594314575,0.2495253235101699,-0.9264882802963256,0.8306775093078613,0.3932465612888336,-0.6214655637741089,-0.5510738492012024,-0.3942784965038299
1813723,9.468802452087402,0.0085793212056159,2.5835952758789062,0.4511996805667877,-0.274888277053833,0.4990954399108886,0.7313524484634399,-0.239547923207283,-0.5600990056991577,-0.3066425025463104,8.911484718322754,-0.3819510638713836,-3.692887544631958,-0.4139012098312378,-1.1545180082321167,0.4865452647209167,0.393124908208847,-0.6215298175811768,-0.5511428117752075,-0.3942018747329712
1813890,9.50199031829834,0.0014805498067289,2.586216449737549,0.1531959623098373,-0.5188364386558533,0.5818756818771362,0.7313199639320374,-0.2396118938922882,-0.5600972771644592,-0.3066731095314026,8.97249984741211,-0.4503239691257477,-3.723889350891113,-0.6830650568008423,-1.370855689048767,0.3535000681877136,0.3929449617862701,-0.6216226816177368,-0.5512079000473022,-0.394144058227539
1814057,9.50784397125244,-0.0032579249236732,2.619056940078736,-0.0033296511974185,-0.4020297527313232,0.3562150299549103,0.7313024997711182,-0.2396304607391357,-0.5601008534431458,-0.3066937029361725,9.00037670135498,-0.4739979207515716,-3.738223791122437,-0.1617442071437835,-1.0325632095336914,0.2961532771587372,0.3928098678588867,-0.6216973066329956,-0.5512477159500122,-0.3941051363945007
1814223,9.498246192932127,-0.0030398429371416,2.634967088699341,-0.1924282163381576,-0.5313866138458252,0.3511180877685547,0.7312690019607544,-0.239671990275383,-0.5601108074188232,-0.3067231178283691,9.023396492004396,-0.4420333802700043,-3.7361068725585938,-0.0455265715718269,-0.5323215126991272,0.5397171974182129,0.3927551507949829,-0.6217343211174011,-0.551268994808197,-0.3940713703632355
1814390,9.478551864624023,-0.0342503301799297,2.5894665718078613,0.3143254518508911,-0.7348027229309082,0.3972081243991852,0.7312279343605042,-0.2396927177906036,-0.5601539611816406,-0.3067260086536407,9.011591911315918,-0.4190063178539276,-3.73930025100708,-0.1056523844599723,0.0686356276273727,0.5038465857505798,0.3927452266216278,-0.6217320561408997,-0.5512620806694031,-0.3940944969654083
1814557,9.449612617492676,0.0001816065050661,2.595510005950928,0.701704740524292,-0.6685811281204224,0.3478909134864807,0.7312203645706177,-0.2396345734596252,-0.5602225661277771,-0.3066642880439758,8.957695007324219,-0.4249070584774017,-3.714581489562988,-0.2214474081993103,0.5557251572608948,0.3363651931285858,0.3927611708641052,-0.6216853260993958,-0.5512473583221436,-0.3941731452941894
1814723,9.455363273620604,0.0021286029368638,2.5819954872131348,0.5900077223777771,-0.631007194519043,0.344215452671051,0.7312037944793701,-0.239600658416748,-0.560275673866272,-0.3066332340240478,8.962730407714844,-0.4501692950725555,-3.701663255691528,-0.2202179729938507,0.7458866238594055,0.3246473371982574,0.3928063511848449,-0.621606171131134,-0.5512467622756958,-0.3942537903785705
1814890,9.480669975280762,0.0031422472093254,2.5794453620910645,0.6343945264816284,-0.6522786021232605,0.4283275306224823,0.7311857342720032,-0.2395789623260498,-0.5603257417678833,-0.3066013753414154,8.950413703918457,-0.4285384714603424,-3.692395687103272,-0.0797195211052894,1.004485249519348,0.432502418756485,0.3928612172603607,-0.6215539574623108,-0.551181972026825,-0.3943720459938049
1815057,9.474775314331056,0.0214393623173236,2.568521499633789,0.2020650058984756,-0.5453199744224548,0.3997950553894043,0.7311531901359558,-0.2396084666252136,-0.5603408813476562,-0.306628406047821,8.949893951416016,-0.4109218120574951,-3.673485994338989,-0.0952792391180992,1.1105858087539673,0.5683650374412537,0.3929512202739715,-0.6214792728424072,-0.5511307120323181,-0.3944718241691589
1815223,9.465669631958008,0.0153204724192619,2.5739572048187256,-0.1320206522941589,-0.4820438027381897,0.2827321887016296,0.7311037182807922,-0.2396706938743591,-0.5603341460227966,-0.3067101836204529,8.945317268371582,-0.39816814661026,-3.665933132171631,-0.2420528382062912,1.025141954421997,0.6604682803153992,0.3930272161960602,-0.621423065662384,-0.551069974899292,-0.3945695757865906
1815390,9.466205596923828,0.0127168884500861,2.586530923843384,-0.0218988563865423,-0.4883317053318023,0.3753092288970947,0.7310716509819031,-0.2397104203701019,-0.5603378415107727,-0.306748628616333,8.951018333435059,-0.3841546773910522,-3.6710045337677,-0.5007795691490173,0.9335637092590332,0.6444860100746155,0.3930737972259521,-0.6213828921318054,-0.5510038733482361,-0.3946785926818847
1815557,9.496667861938477,-0.0042594149708747,2.5761425495147705,0.1290303766727447,-0.4495540857315063,0.4640316963195801,0.7310500741004944,-0.2397424131631851,-0.5603397488594055,-0.3067716360092163,8.926523208618164,-0.3903827667236328,-3.6675784587860103,-0.756266176700592,0.7747393250465393,0.6219851970672607,0.3930776417255401,-0.6213716864585876,-0.5509262084960938,-0.3948008716106415
1815723,9.49040985107422,-0.0080643473193049,2.586177110671997,0.2737036943435669,-0.3587570488452911,0.533083438873291,0.7310411334037781,-0.2397664189338684,-0.560333251953125,-0.3067860901355743,8.945401191711426,-0.4106162786483764,-3.6757521629333496,-0.8735722899436951,0.5370150208473206,0.7438760995864868,0.3930319547653198,-0.6214260458946228,-0.5508032441139221,-0.394932210445404
1815890,9.483804702758787,-0.0115084731951355,2.5803377628326416,0.2280874401330948,-0.4803660809993744,0.5332755446434021,0.731016993522644,-0.239807441830635,-0.5603346824645996,-0.3068090379238128,8.952527046203613,-0.4622499942779541,-3.642003297805786,-0.6327361464500427,0.3370182812213897,0.807408332824707,0.3930036723613739,-0.6214722990989685,-0.5507126450538635,-0.3950140476226806
1816057,9.487871170043944,-0.0335448235273361,2.581674814224243,0.1970064789056778,-0.3597047924995422,0.6036081314086914,0.7310212254524231,-0.2398217320442199,-0.5603325963020325,-0.3067912757396698,8.93658447265625,-0.4601577520370483,-3.65566349029541,-0.0927819982171058,0.0740270987153053,0.815143346786499,0.3930134177207947,-0.6214905977249146,-0.5506818294525146,-0.3950182497501373
1816223,9.4788236618042,-0.0173839442431926,2.5697696208953857,0.096822403371334,-0.4091116487979889,0.6492114067077637,0.7310207486152649,-0.2398515045642852,-0.5603302121162415,-0.3067733645439148,8.941763877868652,-0.4456880688667297,-3.659279584884644,0.2608077526092529,-0.2017128318548202,0.7961772084236145,0.3930369615554809,-0.62149578332901,-0.5506972670555115,-0.3949651718139648
1816390,9.464396476745604,-0.0096307266503572,2.5522139072418213,-0.088018037378788,-0.4054618179798126,0.5925817489624023,0.7309960722923279,-0.2399247735738754,-0.5603085160255432,-0.3068146407604217,8.925954818725586,-0.4524235129356384,-3.672870397567749,0.5901229381561279,-0.3833068013191223,0.7638922929763794,0.3930694460868835,-0.6214967370033264,-0.5507372617721558,-0.3948756456375122
1816557,9.473456382751465,-0.029761154204607,2.574972629547119,-0.0720869377255439,-0.3445420265197754,0.4213096797466278,0.7309691309928894,-0.2399796545505523,-0.5602870583534241,-0.3068749010562897,8.922633171081543,-0.4645639061927795,-3.672042369842529,0.8479276895523071,-0.6608717441558838,0.759730339050293,0.3931181728839874,-0.6214766502380371,-0.5508337020874023,-0.3947242200374603
1816723,9.465784072875977,-0.0049029802903532,2.5719082355499268,-0.001523955608718,-0.3231554329395294,0.4103347063064575,0.7309515476226807,-0.2400149703025818,-0.5602713823318481,-0.3069179952144623,8.947100639343262,-0.4190837442874908,-3.670815944671631,0.8812496662139893,-0.8942801356315613,0.641745388507843,0.3931400179862976,-0.6214650273323059,-0.550948441028595,-0.3945605456829071
1816890,9.470555305480955,-0.0028250485192984,2.576521158218384,0.0941586792469024,-0.2918951213359833,0.391688585281372,0.7309327721595764,-0.2400485724210739,-0.5602521300315857,-0.3069714903831482,8.967198371887207,-0.4083226323127746,-3.682492017745972,0.5394994616508484,-0.7080501914024353,0.475147545337677,0.3931447565555572,-0.6214377284049988,-0.5510609149932861,-0.3944418430328369
1817057,9.46131420135498,0.0066338647156953,2.589706897735596,0.3079351186752319,-0.2484047710895538,0.2994316816329956,0.7309525609016418,-0.2399921268224716,-0.5602664351463318,-0.3069425225257873,8.984030723571777,-0.391680508852005,-3.6766088008880615,0.1336278468370437,-0.5662711262702942,0.4359345436096191,0.3931081891059875,-0.6214411854743958,-0.5511239171028137,-0.394384890794754
1817223,9.457874298095703,0.0005618449649773,2.5967555046081543,0.2476684004068374,-0.4411275088787079,0.2887511551380157,0.7309394478797913,-0.2399763017892837,-0.5602871179580688,-0.3069482743740082,8.987794876098633,-0.4072832465171814,-3.675915718078613,-0.2611983120441437,-0.2028269469738006,0.4739565849304199,0.3930708169937134,-0.6214432716369629,-0.5511466264724731,-0.3943869769573211
1817390,9.491768836975098,-0.0200839806348085,2.6075809001922607,0.3666138052940368,-0.5230497717857361,0.1881060600280761,0.7309244275093079,-0.2399338632822036,-0.560329258441925,-0.306940346956253,8.967565536499023,-0.4205726981163025,-3.6869730949401855,-0.5373672246932983,-0.0444764532148838,0.4822039306163788,0.3930186927318573,-0.6214560866355896,-0.5511400699615479,-0.394428014755249
1817557,9.47867202758789,-0.0051715970039367,2.58103084564209,0.2762393355369568,-0.4787141382694244,0.1495973467826843,0.730888307094574,-0.2399324625730514,-0.5603476166725159,-0.3069938123226166,8.968350410461426,-0.4284955561161041,-3.702445268630981,-0.6878035068511963,0.0667530968785286,0.4783620238304138,0.3929561674594879,-0.6214783191680908,-0.5511100888252258,-0.3944972455501556
1817723,9.480847358703612,-0.0097237080335617,2.5877506732940674,0.3673437237739563,-0.5028284788131714,0.0504378043115139,0.7308412790298462,-0.2399287968873977,-0.5603695511817932,-0.3070686757564544,8.969049453735352,-0.4457383751869201,-3.690735101699829,-0.639049768447876,0.1137652173638343,0.4927179515361786,0.392901211977005,-0.6214973330497742,-0.5510774850845337,-0.3945672810077667
1817890,9.49680519104004,0.0011727085802704,2.5823075771331787,0.4483567178249359,-0.4846563041210174,-0.0017288574017584,0.7308032512664795,-0.2398984730243683,-0.5604006052017212,-0.3071261048316955,8.954916000366211,-0.4244853258132934,-3.7057838439941406,-0.3887751400470733,0.247168943285942,0.2874705195426941,0.3928810954093933,-0.621460497379303,-0.5510903000831604,-0.3946273922920227
1818057,9.492591857910156,-0.0118229417130351,2.5540270805358887,0.6065919995307922,-0.4687380194664001,0.12942735850811,0.7308008670806885,-0.2398193627595901,-0.5604508519172668,-0.3071019649505615,8.948797225952148,-0.4189741313457489,-3.67216420173645,-0.3466678559780121,0.1822919696569442,0.0147465104237198,0.3928312957286834,-0.6214200258255005,-0.5511146783828735,-0.3947066962718963
1818223,9.47134494781494,-0.0092766815796494,2.5815138816833496,0.6752980351448059,-0.4205605089664459,0.1954568922519683,0.7307963967323303,-0.2397566139698028,-0.5604879260063171,-0.307094007730484,8.96072769165039,-0.4209873080253601,-3.68273663520813,-0.2508123219013214,0.2119770646095276,-0.1020281836390495,0.3927863836288452,-0.6213622093200684,-0.551154375076294,-0.394787073135376
1818390,9.478286743164062,0.0033588842488825,2.5774741172790527,0.737434446811676,-0.5126253366470337,0.2547246813774109,0.730780303478241,-0.2397128492593765,-0.560528039932251,-0.3070933520793915,8.964058876037598,-0.4217171370983124,-3.673214912414551,-0.0143174994736909,0.2018344700336456,-0.0235508754849433,0.3927755355834961,-0.621285617351532,-0.5512150526046753,-0.3948337137699127
1818557,9.476088523864746,0.0086463578045368,2.559779405593872,0.5865244269371033,-0.5527604222297668,0.4203619956970215,0.7307736873626709,-0.2396803945302963,-0.5605685114860535,-0.3070603311061859,8.947223663330078,-0.3776009976863861,-3.6952664852142334,0.0182682573795318,0.1650034189224243,-0.0007171555189415,0.3927482366561889,-0.6212344765663147,-0.5512504577636719,-0.3948918282985687
1818723,9.49290657043457,0.0182812884449958,2.5679924488067627,0.5063310265541077,-0.3722549378871918,0.2448638081550598,0.7307700514793396,-0.2396361529827118,-0.5605915188789368,-0.3070614337921142,8.932686805725098,-0.3558326363563537,-3.7037813663482666,-0.1238117888569831,0.1849428862333297,0.2438136935234069,0.3927331268787384,-0.6211966872215271,-0.5512699484825134,-0.394939124584198
1818890,9.51345157623291,-0.0254018008708953,2.5862808227539062,-0.0413901209831237,-0.4647423923015594,0.4425938427448272,0.7307478189468384,-0.2396717369556427,-0.5605924129486084,-0.3070850074291229,8.975350379943848,-0.3605210185050964,-3.6870625019073486,-0.4758327007293701,-0.14937324821949,0.3997566103935241,0.3926641643047333,-0.6212154030799866,-0.5512690544128418,-0.3949795365333557
1819057,9.434331893920898,-0.0158998183906078,2.562828063964844,0.1773487478494644,-0.5513262748718262,0.6056827306747437,0.730729341506958,-0.2397090792655944,-0.5606030821800232,-0.3070803582668304,8.961432456970215,-0.4279511868953705,-3.684617042541504,-0.4555730819702148,0.0728361159563064,0.854971170425415,0.3926341235637665,-0.6212660670280457,-0.5512046217918396,-0.3950196504592895
1819223,9.480995178222656,0.0176304522901773,2.501230001449585,0.3527060747146606,-0.684563398361206,0.5823110938072205,0.7307019233703613,-0.2397378534078598,-0.5606337785720825,-0.3070671558380127,8.939008712768555,-0.4085626006126404,-3.664858102798462,0.0997934788465499,0.0864108428359031,1.2614063024520874,0.3926917314529419,-0.6212981343269348,-0.5511561632156372,-0.3949795961380005
1819390,9.542366981506348,0.0048345015384256,2.553600311279297,-0.6366292238235474,-0.4278985559940338,0.6071810126304626,0.7306680679321289,-0.2398505359888076,-0.5605977177619934,-0.3071256279945373,8.854023933410645,-0.4527053236961365,-3.6926443576812735,0.1080535724759101,-0.4069345891475677,1.2168657779693604,0.3927097916603088,-0.6213524341583252,-0.5511428117752075,-0.394894927740097
1819557,9.53372859954834,0.0214858539402484,2.5493388175964355,-0.5347803235054016,-0.3202739655971527,0.1210264042019844,0.7306185364723206,-0.2399192899465561,-0.560566782951355,-0.3072459697723388,8.96211051940918,-0.4503938555717468,-3.701967716217041,0.6186299324035645,-0.8495219945907593,1.217966914176941,0.3927292227745056,-0.6214156746864319,-0.5511696338653564,-0.3947384357452392
1819723,9.492307662963867,-0.0044129779562354,2.5966808795928955,0.1107045039534568,0.0955801978707313,0.4861610829830169,0.7306371927261353,-0.2399385869503021,-0.5605044364929199,-0.3073002994060516,9.011384963989258,-0.4108531773090362,-3.696716547012329,0.5011957287788391,-0.7081014513969421,0.4584992825984955,0.3927291631698608,-0.6213855147361755,-0.5512862801551819,-0.3946231007575989
1819890,9.455798149108888,0.0029970423784106,2.5881662368774414,0.6151977777481079,-0.2203460335731506,0.8773181438446045,0.7306773066520691,-0.2399279177188873,-0.5604943037033081,-0.3072319626808166,9.023736953735352,-0.4223784208297729,-3.682652950286865,0.0511037372052669,-0.0813715383410453,-0.0727016404271125,0.3926737606525421,-0.6213484406471252,-0.5513360500335693,-0.3946669697761535
1820057,9.463465690612791,0.0123305181041359,2.608267068862915,0.5965262651443481,-0.4082280397415161,0.6577790379524231,0.7306830883026123,-0.2399257719516754,-0.5605036616325378,-0.3072028458118438,8.97315502166748,-0.4240666627883911,-3.681684017181397,0.228458896279335,0.4082984328269958,-0.0944084078073501,0.3926830887794494,-0.6212571859359741,-0.5513864159584045,-0.3947310745716095
1820223,9.448171615600586,0.0182565730065107,2.592015504837036,0.5905455946922302,-0.4419855177402496,0.43393674492836,0.7306716442108154,-0.239915445446968,-0.5605204701423645,-0.3072076141834259,8.968730926513672,-0.3802259266376495,-3.679920911788941,0.2920423746109009,0.62583988904953,-0.0114360693842172,0.3927153348922729,-0.6211633086204529,-0.5514124631881714,-0.3948102295398712
1820390,9.449949264526367,-0.0083930371329188,2.5942695140838623,0.3922392725944519,-0.4614511728286743,0.4905664026737213,0.7306544780731201,-0.239931121468544,-0.5605283975601196,-0.3072215318679809,8.921850204467773,-0.3464522361755371,-3.642606735229492,-0.0646336451172828,0.692689061164856,0.2370519340038299,0.3927311599254608,-0.6211105585098267,-0.5513864159584045,-0.3949138224124908
1820557,9.456610679626465,-0.0045554172247648,2.5690457820892334,0.6985800862312317,-0.4463909566402435,0.4507899284362793,0.7306481599807739,-0.2399092465639114,-0.5605500936508179,-0.3072137832641601,8.940561294555664,-0.3579570353031158,-3.6692187786102295,-0.5102691054344177,0.6883605718612671,0.3852342665195465,0.3927214741706848,-0.6210858821868896,-0.551332414150238,-0.3950376808643341
1820723,9.444931983947754,0.0125918257981538,2.596569776535034,0.3609917759895324,-0.1514863073825836,0.4569241404533386,0.7306614518165588,-0.2398974001407623,-0.5605309009552002,-0.3072266280651092,8.951904296875,-0.410395085811615,-3.6683387756347656,-0.6910690069198608,0.6418094635009766,0.7402262091636658,0.3927223682403564,-0.6210877895355225,-0.5512557625770569,-0.3951407372951507
1820890,9.472801208496094,0.0042699915356934,2.581381559371948,0.1038146615028381,-0.4660358130931854,0.3778833448886871,0.7306364178657532,-0.2399210184812545,-0.5605359077453613,-0.3072588145732879,8.986309051513672,-0.4266711473464966,-3.664494752883911,-0.2886166870594024,0.6832507252693176,0.9690629839897156,0.3927668929100036,-0.6210950016975403,-0.5511649250984192,-0.3952118158340454
1821057,9.496346473693848,0.0012802821584045,2.588337182998657,0.1134962514042854,-0.5301060080528259,0.4077861905097961,0.7306066155433655,-0.2399511635303497,-0.5605459809303284,-0.3072874844074249,8.972681045532227,-0.4217021465301513,-3.653787612915039,-0.0253181550651788,0.8279113173484802,1.0502808094024658,0.3928452432155609,-0.6210950613021851,-0.551062285900116,-0.3952772319316864
1821223,9.506878852844238,0.0087223695591092,2.5779805183410645,-0.0121404184028506,-0.6871247291564941,0.396350085735321,0.7305538654327393,-0.2400104403495788,-0.5605632662773132,-0.3073351681232452,8.979804039001465,-0.428775429725647,-3.6523451805114746,0.0624501630663871,0.5603609681129456,0.8650240302085876,0.3929077982902527,-0.621078610420227,-0.5510103106498718,-0.3953132629394531
1821390,9.505359649658203,6.48525747237727e-05,2.562192916870117,0.1466006934642791,-0.8803724646568298,0.5537530183792114,0.7304943203926086,-0.240080788731575,-0.5605997443199158,-0.3073554039001465,8.98477840423584,-0.4178868532180786,-3.6501305103302,0.1211416646838188,0.4534535408020019,0.5231969952583313,0.3929629325866699,-0.6210166215896606,-0.5510228276252747,-0.3953383862972259
1821557,9.509651184082031,-0.0068158600479364,2.5509886741638184,0.4136898815631866,-0.757201075553894,0.6622483134269714,0.7304655909538269,-0.2401135116815567,-0.5606367588043213,-0.3073304891586303,8.928205490112305,-0.4150188565254211,-3.6426031589508057,0.1531063169240951,0.1115497201681137,0.5384877920150757,0.3929717242717743,-0.6210047006607056,-0.5510194301605225,-0.3953530192375183
1821723,9.472189903259276,-0.011033633723855,2.548097610473633,0.6710718870162964,-0.8105650544166565,0.6630935668945312,0.7304537296295166,-0.240099087357521,-0.5607008337974548,-0.3072532117366791,8.935453414916992,-0.4075945913791656,-3.647041082382202,0.1880676299333572,-0.3890312612056732,0.4266243278980255,0.3929322063922882,-0.6210169792175293,-0.5510493516921997,-0.3953314423561096
1821890,9.460522651672363,-0.0005183840985409,2.4961354732513428,0.6327425837516785,-0.7354303002357483,0.784715473651886,0.7304369211196899,-0.2401233166456222,-0.5607386231422424,-0.3072052001953125,8.889020919799805,-0.4178154468536377,-3.647559881210327,0.0372344627976417,-0.4333797097206116,0.5260527729988098,0.392890602350235,-0.621035099029541,-0.5510793328285217,-0.3953025639057159
1822057,9.49260711669922,0.0137018859386444,2.5486032962799072,0.4970079958438873,-0.6585793495178223,0.6248794198036194,0.7304199934005737,-0.2401351928710937,-0.560772716999054,-0.3071739077568054,8.862479209899902,-0.4483407139778137,-3.652551651000977,0.251920074224472,-1.4687345027923584,0.7659285664558411,0.3927940428256988,-0.621126651763916,-0.5511512756347656,-0.3951543867588043
1822224,9.476872444152832,0.0288322567939758,2.518704414367676,0.6295537352561951,-0.6545068621635437,0.2730505764484405,0.7303820252418518,-0.2401223331689834,-0.5608166456222534,-0.3071939647197723,8.924070358276367,-0.3921893537044525,-3.667394161224365,0.592338502407074,-1.657538652420044,0.6675117015838623,0.3927304446697235,-0.621171772480011,-0.5512971878051758,-0.3949432075023651
1822390,9.486346244812012,-0.0014534315560013,2.557634115219116,0.8898940086364746,-0.2789350748062134,0.6840959787368774,0.7304077744483948,-0.2400879561901092,-0.5608227849006653,-0.3071483373641968,8.907394409179688,-0.3724673688411712,-3.678289175033569,-0.0976740270853042,-1.6192219257354736,0.2445948719978332,0.3925679326057434,-0.6212394833564758,-0.5514168739318848,-0.3948308825492859
1822557,9.492594718933104,0.0008120496058836,2.5919113159179688,0.6294768452644348,-0.5063758492469788,0.8605674505233765,0.7304239869117737,-0.2400869876146316,-0.5608435869216919,-0.3070725798606872,8.941503524780273,-0.4304458200931549,-3.722560405731201,-0.2113175690174102,-1.7758564949035645,0.2138084024190902,0.3923869431018829,-0.6213120222091675,-0.551551342010498,-0.3947089314460754
1822724,9.51691436767578,-0.0106546971946954,2.5715465545654297,0.4427347183227539,-0.3858809173107147,0.67826908826828,0.7304316163063049,-0.2400927990674972,-0.5608462691307068,-0.3070452511310577,9.007834434509276,-0.4417724609375,-3.734362840652466,0.0814291685819625,-1.5739644765853882,0.5596055388450623,0.3922679424285888,-0.6213838458061218,-0.5516601204872131,-0.3945620357990265
1822890,9.497977256774902,-0.0038122369442135,2.611607551574707,0.1203732788562774,-0.3418783247470855,0.6431540250778198,0.7304298281669617,-0.2401281297206878,-0.5608310699462891,-0.3070497214794159,9.031279563903809,-0.4363300800323486,-3.7293524742126474,0.24946129322052,-1.1024730205535889,0.8243255615234375,0.3922240436077118,-0.6214314699172974,-0.551737904548645,-0.3944220542907715
1823057,9.477823257446287,-0.0197331886738538,2.5800631046295166,0.2137315571308136,-0.8030989766120911,0.5710030794143677,0.7303860783576965,-0.2401765286922454,-0.5608674883842468,-0.3070491850376129,9.027632713317873,-0.4290163516998291,-3.730683088302612,0.2169203460216522,-0.4526532292366028,0.8788421154022217,0.392225831747055,-0.621457576751709,-0.5517607927322388,-0.3943470120429992
1823224,9.465150833129885,0.0037543959915637,2.5692546367645264,0.6443706750869751,-0.809207558631897,0.51811283826828,0.7303500771522522,-0.2401835918426513,-0.5609217882156372,-0.3070299029350281,8.986006736755371,-0.4190117120742798,-3.7137680053710938,0.2376922369003296,0.1931517422199249,0.7995836138725281,0.3922672569751739,-0.6214514374732971,-0.5517412424087524,-0.3943429887294769
1823390,9.483612060546877,0.0060725356452167,2.541423797607422,0.6908833384513855,-0.8697304725646973,0.440224677324295,0.7303234934806824,-0.240151971578598,-0.5610005259513855,-0.3069740235805511,8.937064170837402,-0.4217563569545746,-3.7181220054626474,0.1093726307153701,0.4175702333450317,0.4772605895996094,0.3922933042049408,-0.621417760848999,-0.5517261028289795,-0.3943910896778106
1823557,9.491127967834473,0.0101374080404639,2.547858715057373,0.7534359097480774,-0.7473785281181335,0.498935341835022,0.7302935719490051,-0.2401463389396667,-0.5610524415969849,-0.306954562664032,8.9096097946167,-0.4428631067276001,-3.710947513580322,0.1113191917538642,0.4065183103084564,0.36369389295578,0.392304003238678,-0.6213864684104919,-0.5517095327377319,-0.3944528996944427
1823724,9.48747730255127,0.0192471481859684,2.5207648277282715,0.5527669191360474,-0.4185371696949005,0.2549552321434021,0.7302825450897217,-0.2401089966297149,-0.5610771775245667,-0.3069651424884796,8.910066604614258,-0.4269240498542785,-3.72929048538208,0.2567608654499054,0.2034608721733093,0.3698025047779083,0.3923250436782837,-0.6213420033454895,-0.5517320036888123,-0.3944705426692962
1823890,9.48176383972168,0.0167040899395942,2.546184539794922,0.3838639259338379,-0.3282011151313782,0.1865949183702469,0.7302549481391907,-0.2401079833507537,-0.5610750913619995,-0.3070353865623474,8.946351051330566,-0.3824539184570312,-3.703001737594605,0.1271094381809234,0.0719780847430229,0.1809088885784149,0.3923220932483673,-0.6212842464447021,-0.5517868995666504,-0.394487589597702
1824057,9.480146408081056,0.0141689330339431,2.529104471206665,0.4726759791374206,-0.4519873559474945,0.2110678702592849,0.7302446961402893,-0.2400612235069275,-0.5611083507537842,-0.3070355653762817,8.954769134521484,-0.370802640914917,-3.715235948562622,-0.1399862021207809,0.2378843426704406,0.1816388368606567,0.392312616109848,-0.6212264895439148,-0.5518237948417664,-0.3945366740226745
1824224,9.511438369750977,0.0080712595954537,2.5379557609558105,0.5271029472351074,-0.3014102280139923,0.2775327563285827,0.7302376627922058,-0.2400329411029815,-0.5611146092414856,-0.3070625960826874,8.914258003234863,-0.3819566965103149,-3.694797992706299,-0.4395011365413666,0.1069138199090957,0.1763114333152771,0.3922632336616516,-0.6211958527565002,-0.5518478751182556,-0.3946000933647156
1824390,9.505677223205566,0.0005650407401844,2.533292293548584,0.4915653169155121,-0.1501416265964508,0.3774351477622986,0.7302478551864624,-0.240006685256958,-0.5611013770103455,-0.3070832788944244,8.950932502746582,-0.3966440558433532,-3.6935181617736816,-0.573570728302002,-0.208372101187706,0.436690092086792,0.3921800851821899,-0.6212265491485596,-0.5518420338630676,-0.3946425318717956
1824557,9.510915756225586,-0.0097845029085874,2.5438671112060547,0.395850658416748,-0.1418431252241134,0.4382396638393402,0.7302601933479309,-0.2399911135435104,-0.5610827803611755,-0.3071000874042511,8.97916316986084,-0.4071732759475708,-3.70693302154541,-0.5644654631614685,-0.0889400988817215,0.692253589630127,0.3921167552471161,-0.6212774515151978,-0.5517988801002502,-0.3946859240531921
1824724,9.507243156433104,-0.0099561614915728,2.5404553413391118,0.4259968101978302,-0.2425650805234909,0.4184154868125915,0.7302643656730652,-0.2399748712778091,-0.5610769987106323,-0.3071134090423584,8.98239517211914,-0.4373390972614288,-3.7135937213897705,-0.2957499027252197,-0.090259164571762,0.8577245473861694,0.3921054303646087,-0.6213001608848572,-0.5517862439155579,-0.394678920507431
1824890,9.482038497924805,-0.0185426343232393,2.5542702674865723,0.5682240724563599,-0.2068353444337844,0.5465686321258545,0.7302989363670349,-0.2399219721555709,-0.5610827803611755,-0.3070623278617859,8.972135543823242,-0.4422727823257446,-3.6872754096984863,-0.0302870199084281,0.0571995675563812,0.983418881893158,0.3921295404434204,-0.621320366859436,-0.5517564415931702,-0.3946648836135864
1825057,9.473219871520996,-0.0278452709317207,2.558152675628662,0.7172003388404846,-0.2690742015838623,0.7119113206863403,0.730338454246521,-0.2398740500211715,-0.5610938668251038,-0.3069849908351898,8.942322731018066,-0.4707357287406921,-3.687338352203369,0.2420079559087753,0.138532668352127,0.8968605995178223,0.3921814560890198,-0.6213114857673645,-0.5517476201057434,-0.3946396112442016
1825224,9.485400199890137,-0.0173603594303131,2.559041976928711,0.7967278957366943,-0.2383005768060684,0.7015382647514343,0.7303740978240967,-0.2398318648338318,-0.561098575592041,-0.3069246113300323,8.937399864196777,-0.4581515789031982,-3.7088027000427246,0.5490145683288574,-0.0304278824478387,0.6144806146621704,0.3922259211540222,-0.6212804317474365,-0.5517821311950684,-0.3945961594581604
1825390,9.475628852844238,-0.0130318515002727,2.5483927726745605,0.8490161299705505,-0.2204228788614273,0.7584880590438843,0.7304108142852783,-0.2397969961166381,-0.5610978007316589,-0.3068658709526062,8.952693939208984,-0.4476988613605499,-3.693347215652466,0.9222683906555176,0.1186060085892677,0.472419798374176,0.3923026025295257,-0.6212154626846313,-0.5518340468406677,-0.3945496678352356
1825557,9.48880672454834,-0.0167016629129648,2.5791304111480717,0.7671579718589783,-0.3165729343891144,0.77768474817276,0.730446457862854,-0.2397607862949371,-0.5611097812652588,-0.3067874610424042,8.970992088317871,-0.4306601881980896,-3.678543567657471,0.9968270659446716,0.2484880238771438,0.4140484929084778,0.3923920094966888,-0.6211357116699219,-0.5518860816955566,-0.3945133090019226
1825724,9.483538627624512,-0.0088116889819502,2.530935764312744,0.9195408225059508,-0.3870207071304321,0.779067873954773,0.7304667830467224,-0.2397394478321075,-0.561123788356781,-0.3067302107810974,8.94373893737793,-0.4169435501098633,-3.674970388412476,0.9039425849914552,0.3361986577510834,0.5071890354156494,0.3924939930438995,-0.621052086353302,-0.5519327521324158,-0.3944783806800842
1825890,9.476161003112791,-0.0009097634465433,2.577021598815918,0.8732970356941223,-0.3071218729019165,0.7046374082565308,0.730495810508728,-0.2396998107433319,-0.5611358880996704,-0.3066699802875519,8.941146850585938,-0.3935944139957428,-3.682769298553467,0.7198897004127502,0.1816260516643524,0.5166913866996765,0.3925642669200897,-0.6209926009178162,-0.5519721508026123,-0.3944471180438995
1826057,9.498492240905762,-0.0098949670791625,2.5557098388671875,0.6981829404830933,-0.1926074922084808,0.6421679854393005,0.7305259108543396,-0.23966746032238,-0.5611304640769958,-0.3066332340240478,8.963937759399414,-0.3932182192802429,-3.680067300796509,0.3434983193874359,0.1344602853059768,0.6307063698768616,0.3926130831241607,-0.6209530830383301,-0.5519973039627075,-0.3944251835346222
1826224,9.473108291625977,-0.0035154118668287,2.538424015045166,0.6444091200828552,-0.2391841858625412,0.4752244055271148,0.730542004108429,-0.2396310269832611,-0.5611327886581421,-0.3066192865371704,8.948209762573242,-0.3892200589179992,-3.679996252059937,-0.1441354602575302,0.0291280392557382,0.6950709819793701,0.3926073014736175,-0.6209606528282166,-0.5519857406616211,-0.3944352567195892
1826390,9.483054161071776,0.0037907797377556,2.533442497253418,0.6020585298538208,-0.1236580982804298,0.4170323610305786,0.7305685877799988,-0.2395796030759811,-0.5611271858215332,-0.3066065311431885,8.958270072937012,-0.3972594141960144,-3.683736801147461,-0.3781074583530426,0.0238902419805526,0.6252507567405701,0.3925837576389313,-0.6209652423858643,-0.5519797205924988,-0.3944597244262695
1826557,9.496164321899414,-0.0046741031110286,2.574794054031372,0.4970720410346985,-0.1446477174758911,0.3870782852172851,0.7305718064308167,-0.2395685762166977,-0.5611068606376648,-0.3066445291042328,8.936371803283691,-0.4127576649188995,-3.671327590942383,-0.7562149167060852,-0.0878131315112114,0.6211527585983276,0.3925031125545501,-0.6210159659385681,-0.5519378185272217,-0.3945188522338867
1826724,9.504361152648926,-0.0425318330526351,2.552689552307129,0.3049768209457397,-0.1163584887981414,0.3966062366962433,0.7305842041969299,-0.2395533472299575,-0.561085045337677,-0.3066668510437011,8.93684196472168,-0.4547900557518005,-3.690866470336914,-0.9795320630073548,-0.2279017716646194,0.4092589020729065,0.3923887610435486,-0.6210577487945557,-0.551924467086792,-0.3945854604244232
1826890,9.443633079528809,-0.0227911695837974,2.5305278301239014,0.6912931203842163,-0.1891497820615768,0.3045157790184021,0.7305982708930969,-0.2394960969686508,-0.5610899925231934,-0.3066689074039459,8.941965103149414,-0.4646856784820556,-3.707378625869751,-0.5660021901130676,-0.44890096783638,0.4822295010089874,0.3922895193099975,-0.6211063265800476,-0.5519275069236755,-0.3946035504341125
1827057,9.483781814575195,0.0093872603029012,2.511378288269043,0.8046934008598328,0.252368301153183,0.4526212215423584,0.7306549549102783,-0.2394268661737442,-0.5610446929931641,-0.3066709041595459,8.909551620483398,-0.4358464181423187,-3.68666934967041,-0.343722403049469,-0.405513048171997,0.4326432943344116,0.3922367990016937,-0.6211003661155701,-0.5519855618476868,-0.3945841789245605
1827224,9.560725212097168,-0.011415253393352,2.5600388050079346,-0.1238502040505409,-0.0441434830427169,0.0591077022254467,0.730636477470398,-0.2394388318061828,-0.5610027313232422,-0.306782066822052,8.930009841918945,-0.4722267687320709,-3.725992441177368,-0.0778497979044914,-0.8963547348976135,0.4190173149108886,0.3921574056148529,-0.6211208701133728,-0.5520715117454529,-0.3945103883743286
1827390,9.504925727844238,-0.0103280022740364,2.561736822128296,0.4647616147994995,0.0742063894867897,-0.1534456759691238,0.7306408286094666,-0.2393617480993271,-0.5609837174415588,-0.3068667650222778,8.994579315185547,-0.4365108013153076,-3.723329305648804,0.3919703364372253,-0.7356991767883301,0.2326465249061584,0.392113447189331,-0.6211032271385193,-0.5521776676177979,-0.3944332301616668
1827557,9.482845306396484,-0.0314984731376171,2.6124355792999268,0.7132048010826111,0.290966659784317,0.3911122977733612,0.7307003736495972,-0.2392847239971161,-0.5609373450279236,-0.3068699538707733,9.01043701171875,-0.4028666317462921,-3.718318462371826,0.1642926633358001,-0.2019049227237701,-0.27679643034935,0.3920647203922272,-0.621024489402771,-0.5522894263267517,-0.3944494426250458
1827724,9.444817543029783,-0.0087715731933712,2.585665464401245,0.789517879486084,-0.0787334367632865,0.5703499913215637,0.7307462692260742,-0.239219844341278,-0.5609318614006042,-0.3068210482597351,9.000176429748535,-0.4396338760852813,-3.7190911769866943,0.0282315965741872,0.3157981634140014,-0.3431589305400848,0.3920502662658691,-0.6209062933921814,-0.5523834824562073,-0.3945181369781494
1827890,9.4766206741333,0.006058095023036,2.569841146469116,0.6878610253334045,-0.0817685425281524,0.4180184602737427,0.7307729125022888,-0.2391699105501175,-0.5609203577041626,-0.3068176507949829,8.981125831604004,-0.4040291607379913,-3.718966007232666,0.3184875249862671,0.5504361391067505,-0.1048712059855461,0.3920826315879822,-0.6207938194274902,-0.5524404644966125,-0.3945832550525665
1828057,9.477499961853027,0.0143620083108544,2.56075382232666,0.5391920804977417,0.0523971803486347,0.3709807097911834,0.7308082580566406,-0.2391165196895599,-0.5608934760093689,-0.3068240880966186,8.961318969726562,-0.3576975762844085,-3.7284927368164062,0.2573755979537964,0.8437142968177795,0.2284332513809204,0.3921547532081604,-0.6206905245780945,-0.5524520874023438,-0.3946578800678253
1828224,9.471963882446287,-0.0114581678062677,2.548630714416504,0.3150169849395752,-0.0831004008650779,0.4979556798934936,0.7308320999145508,-0.2391003966331482,-0.5608679056167603,-0.3068265914916992,8.927155494689941,-0.3449409604072571,-3.6934947967529297,-0.0430677533149719,0.962992787361145,0.566123902797699,0.392215758562088,-0.6206413507461548,-0.5523902177810669,-0.3947610259056091
1828390,9.471463203430176,0.0079391803592443,2.540637731552124,0.5712592005729675,0.2255518138408661,0.4314779043197632,0.7308796048164368,-0.2390520274639129,-0.5608172416687012,-0.3068439960479736,8.933940887451172,-0.3830389678478241,-3.716121673583984,-0.2802925705909729,0.9279673099517822,0.7653523683547974,0.3922832906246185,-0.6205979585647583,-0.5523279309272766,-0.3948493003845215
1828557,9.452792167663574,0.0172516237944364,2.566465139389038,0.3276953101158142,0.3810465335845947,0.4537481367588043,0.7309346199035645,-0.2390196919441223,-0.5607404708862305,-0.3068783581256866,8.943381309509277,-0.4008470773696899,-3.698520660400391,-0.3414556980133056,0.9433477520942688,0.9952518343925476,0.3923527002334595,-0.6205850839614868,-0.5522300004959106,-0.3949376046657562
1828724,9.47751808166504,0.0065802214667201,2.584542989730835,0.0215466823428869,0.3903951644897461,0.4708958864212036,0.7309769988059998,-0.2390269339084625,-0.5606458187103271,-0.3069448471069336,8.969084739685059,-0.4272933304309845,-3.688808679580689,-0.0805903598666191,0.9774125814437866,1.0285099744796753,0.3924334645271301,-0.6205801367759705,-0.5521170496940613,-0.3950230479240417
1828890,9.505248069763184,0.0098631801083683,2.571704387664795,0.1484768390655517,0.3528149425983429,0.389530748128891,0.7310243844985962,-0.239002451300621,-0.5605692863464355,-0.3069905340671539,8.985161781311035,-0.4455568790435791,-3.701570272445679,0.0589028038084507,1.1889350414276123,0.984622597694397,0.3925503194332123,-0.6205393075942993,-0.5520178079605103,-0.3951097428798675
1829057,9.500964164733888,0.0096591617912054,2.5756161212921143,0.1391986161470413,0.2764314115047455,0.3625797629356384,0.7310608625411987,-0.2389862686395645,-0.560498833656311,-0.3070451021194458,8.973565101623535,-0.4251495599746704,-3.69989538192749,0.2215818464756012,1.1586863994598389,0.6403110027313232,0.3926659822463989,-0.6204549074172974,-0.5519701838493347,-0.3951937258243561
1829224,9.504804611206056,-0.0009691521991044,2.5559725761413574,0.3319342136383056,0.1944067776203155,0.4695255756378174,0.7310989499092102,-0.2389677762985229,-0.5604394674301147,-0.3070771694183349,8.943065643310547,-0.4254011511802673,-3.6893327236175537,0.3138004243373871,1.050818681716919,0.4671180248260498,0.3927644491195678,-0.6203672289848328,-0.5519388914108276,-0.3952774405479431
1829390,9.508200645446776,-0.0157340671867132,2.547282218933105,0.6112790703773499,0.2996493875980377,0.5662776231765747,0.7311617732048035,-0.2389185726642608,-0.5603799223899841,-0.3070743083953857,8.94796371459961,-0.4287080466747284,-3.6890969276428223,0.254916787147522,0.8226349949836731,0.2217099219560623,0.3928252458572387,-0.6202766299247742,-0.5519389510154724,-0.3953591287136078
1829557,9.46028995513916,-0.012487624771893,2.5184569358825684,0.6680623292922974,-0.0065696570090949,0.6823671460151672,0.7312045693397522,-0.2388909757137298,-0.560349702835083,-0.3070490658283233,8.956376075744629,-0.3931945264339447,-3.653509140014648,0.3709935247898102,0.6890136003494263,0.3480189442634582,0.3929023444652557,-0.620184600353241,-0.5519561171531677,-0.3954028785228729
1829724,9.497445106506348,-0.0186744984239339,2.5525355339050293,0.4080423712730407,0.4575133025646209,0.6332803964614868,0.7312824130058289,-0.2388503402471542,-0.5602672696113586,-0.3070458173751831,8.894599914550781,-0.4391868710517883,-3.6804466247558594,0.2917734384536743,0.4616880714893341,0.4374328851699829,0.3929492533206939,-0.620130181312561,-0.551959216594696,-0.3954372406005859
1829890,9.486451148986816,0.0432935655117034,2.539564847946167,0.3070770502090454,-0.0400070361793041,0.1273271143436432,0.731293261051178,-0.2388019859790802,-0.5602507591247559,-0.3070876896381378,8.951264381408691,-0.4441137015819549,-3.669198751449585,0.6190652251243591,-0.0483567751944065,0.8787652850151062,0.3930187821388244,-0.620110809803009,-0.5519829392433167,-0.3953652679920196
1830057,9.47341251373291,-0.0155600775033235,2.541757106781006,0.5141685605049133,0.4538634121417999,0.2095054686069488,0.7313480377197266,-0.2387288808822631,-0.5601828694343567,-0.3071379065513611,8.947792053222656,-0.3637610673904419,-3.6627371311187744,0.4766075015068054,0.0210856553167104,0.4949333965778351,0.3930545747280121,-0.6200708746910095,-0.5520223379135132,-0.39533731341362
1830224,9.486924171447754,0.0080052083358168,2.5582268238067627,0.5253612995147705,0.4215914607048034,0.5306503176689148,0.7314027547836304,-0.238705039024353,-0.5600981116294861,-0.3071806132793426,8.917709350585938,-0.3967408537864685,-3.663616895675659,-0.1860762536525726,-0.1585041880607605,0.2369046658277511,0.3929992616176605,-0.6200605630874634,-0.5520549416542053,-0.3953631818294525
1830390,9.505834579467772,-0.0065230019390583,2.59526801109314,0.3102018237113952,0.3371720016002655,0.3418847024440765,0.7314444780349731,-0.2386738359928131,-0.5600274205207825,-0.3072344064712524,8.959046363830566,-0.4394157528877258,-3.680779218673706,-0.1172037124633789,-0.3248842656612396,0.1828170269727707,0.3929468691349029,-0.620033323764801,-0.5521261692047119,-0.3953582644462585
1830557,9.478697776794434,-0.0121877146884799,2.6123406887054443,0.1590484529733657,0.4935759007930755,0.3268372416496277,0.7314987182617188,-0.2386403232812881,-0.5599382519721985,-0.3072941899299621,9.030187606811523,-0.435810923576355,-3.702468872070313,0.0738093927502632,-0.1706702262163162,0.4187868237495422,0.3929251432418823,-0.6200227737426758,-0.5521585941314697,-0.3953511416912079
1830724,9.46084213256836,-0.0314098298549652,2.6231980323791504,0.0279498565942049,0.1942403018474578,0.2339527904987335,0.7315283417701721,-0.2386108785867691,-0.5598846673965454,-0.30734384059906,9.031044960021973,-0.4058617949485779,-3.660408973693848,0.1406841725111007,0.4898749887943268,0.7069681882858276,0.3929870426654815,-0.6199823617935181,-0.5521438121795654,-0.3953735530376434
1830890,9.461424827575684,-0.0109431939199566,2.611736297607422,0.5615264177322388,0.0600937940180301,0.2314171344041824,0.7315511107444763,-0.2385575771331787,-0.5598576068878174,-0.3073803782463074,8.989311218261719,-0.4052441716194153,-3.687381029129028,-0.0615088939666748,0.8513468503952026,0.5988697409629822,0.3930560648441314,-0.6199212074279785,-0.5521095991134644,-0.3954487144947052
1831057,9.466564178466797,0.0111327329650521,2.605374336242676,0.6669098138809204,-0.0114872939884662,0.251100480556488,0.7315837740898132,-0.2384776324033737,-0.5598506927490234,-0.3073770999908447,8.94908618927002,-0.4248512983322143,-3.6598055362701416,-0.1536889970302581,0.9350619912147522,0.4084008634090423,0.3931107223033905,-0.6198480129241943,-0.5520791411399841,-0.3955515027046203
1831224,9.474081039428713,-0.007474273443222,2.596097707748413,0.7349115610122681,0.1176071092486381,0.250255286693573,0.7316265106201172,-0.2383897453546524,-0.5598310232162476,-0.3073797821998596,8.941141128540039,-0.4276551008224487,-3.64014744758606,-0.0899261832237243,0.928684413433075,0.5213144421577454,0.3931626081466675,-0.6198000907897949,-0.5520206093788147,-0.3956567645072937
1831390,9.473766326904297,0.0087154377251863,2.588480234146118,0.7090171575546265,0.2141285836696624,0.278249979019165,0.7316761612892151,-0.2383047342300415,-0.5597979426383972,-0.3073879778385162,8.936090469360352,-0.4347487986087799,-3.657548189163208,0.0261825807392597,0.6467782855033875,0.447613924741745,0.393220990896225,-0.6197255253791809,-0.552025556564331,-0.3957087695598602
1831557,9.4688138961792,0.027576133608818,2.621821165084839,0.4000767469406128,0.1797178834676742,0.2678512036800384,0.7317137122154236,-0.238249659538269,-0.5597564578056335,-0.3074164092540741,8.980572700500488,-0.4115676581859588,-3.628308534622192,0.0157454051077365,0.5985239148139954,0.3556259572505951,0.3932591378688812,-0.6196591854095459,-0.5520272254943848,-0.3957723677158355
1831724,9.473377227783203,0.0142010394483804,2.5906758308410645,0.1616353392601013,0.0610542669892311,0.3283867835998535,0.7317360639572144,-0.2382302433252334,-0.5597147345542908,-0.3074542582035064,8.99002456665039,-0.4105328619480133,-3.6236374378204346,-0.0085418345406651,0.798302948474884,0.3429604172706604,0.3932960629463196,-0.6196019649505615,-0.551994264125824,-0.3958712518215179
1831890,9.481830596923828,0.0158103797584772,2.58329439163208,0.4099248647689819,0.0271302536129951,0.4020873308181762,0.7317652106285095,-0.2381962835788726,-0.5596834421157837,-0.3074683248996734,8.95287799835205,-0.3820569515228271,-3.635787010192871,-0.2899357378482818,0.6423985362052917,0.3112647235393524,0.3932988047599792,-0.6195603013038635,-0.551964521408081,-0.395975261926651
1832057,9.486001014709473,0.0150451036170125,2.6165356636047363,0.3975411057472229,0.0261825807392597,0.4578845798969269,0.7317861318588257,-0.2381867468357086,-0.55964195728302,-0.3075013160705566,8.977432250976562,-0.393204003572464,-3.638458251953125,-0.4770749509334564,0.250805914402008,0.4699993431568146,0.3932728469371795,-0.6195507049560547,-0.5519475340843201,-0.3960397243499756
1832224,9.46717929840088,-0.0202484130859375,2.6075985431671143,0.4089643955230713,-0.1070995107293129,0.5144246816635132,0.7317928671836853,-0.2381978034973144,-0.5596083998680115,-0.3075377643108368,8.976141929626465,-0.4085430800914764,-3.639374494552612,-0.4511548578739166,0.0867822244763374,0.7297890782356262,0.3932438790798187,-0.6195787191390991,-0.5519082546234131,-0.3960794806480407
1832390,9.467517852783203,-0.0048960377462208,2.605314016342163,0.4642493426799774,-0.2530022263526916,0.6021097302436829,0.7317997217178345,-0.2382056266069412,-0.5595943927764893,-0.3075407445430755,8.970279693603516,-0.4313013255596161,-3.628459215164185,-0.3064303398132324,0.0728745236992836,0.7775182127952576,0.3932436406612396,-0.6195844411849976,-0.5518945455551147,-0.3960899710655212
1832557,9.484015464782717,0.0044666831381618,2.5868172645568848,0.3482750654220581,-0.2089611887931823,0.5455184578895569,0.7318083047866821,-0.2382110208272934,-0.5595759749412537,-0.3075498938560486,8.968925476074219,-0.4306757152080536,-3.616163492202759,-0.0148425595834851,-0.0665545985102653,0.8669193983078003,0.3932523727416992,-0.6196034550666809,-0.5518808364868164,-0.3960703909397125
1832724,9.46412467956543,-0.0130638852715492,2.576896905899048,0.3546142876148224,-0.291088342666626,0.5137972235679626,0.7318049073219299,-0.2382241189479828,-0.5595645308494568,-0.3075684309005737,8.934097290039062,-0.443560242652893,-3.645393133163452,0.2347724139690399,-0.1481566578149795,0.8252348303794861,0.3932892680168152,-0.6195905804634094,-0.5519111752510071,-0.3960117697715759
1832890,9.475269317626951,-0.0153374038636684,2.569507598876953,0.8003392219543457,-0.1359009891748428,0.6781538128852844,0.7318374514579773,-0.2381952702999115,-0.5595513582229614,-0.307537317276001,8.916706085205078,-0.4462682604789734,-3.6480226516723633,0.6159917712211609,-0.6278184652328491,0.7692325711250305,0.3933004140853882,-0.6196039915084839,-0.5519677400588989,-0.3959007859230041
1833057,9.475831985473633,-0.0043407208286225,2.5822908878326416,0.781552255153656,-0.0267396569252014,0.7151257395744324,0.7318913340568542,-0.2381461560726165,-0.5595332384109497,-0.3074800372123718,8.949265480041504,-0.4328249394893646,-3.649381875991821,0.717379629611969,-0.947900414466858,0.6474186182022095,0.3932972550392151,-0.6196082234382629,-0.5520730018615723,-0.395750492811203
1833224,9.479914665222168,-0.0049727046862244,2.600571393966675,0.8379258513450623,-0.1168579459190368,0.7719475626945496,0.7319527864456177,-0.2380804419517517,-0.5595335364341736,-0.3073842227458954,8.990997314453125,-0.4350993931293487,-3.649658918380737,0.9105890989303588,-1.018168807029724,0.4370871484279632,0.3932815790176391,-0.6196052432060242,-0.5521937608718872,-0.3956023156642914
1833390,9.481225967407228,0.0148302400484681,2.604433298110962,0.9269556403160096,-0.206054151058197,0.7355518341064453,0.7319918870925903,-0.238036423921585,-0.559535801410675,-0.3073211312294006,8.970863342285156,-0.3984498083591461,-3.652619600296021,0.8278216123580933,-0.8594725131988525,0.3396948277950287,0.393287181854248,-0.6195612549781799,-0.5523415207862854,-0.39545938372612
1833557,9.484265327453612,-0.0038846936076879,2.612362861633301,0.7622019052505493,-0.2149545699357986,0.6743630766868591,0.7320334315299988,-0.2379845827817917,-0.5595424771308899,-0.3072501420974731,8.972559928894043,-0.386866420507431,-3.656227827072144,0.5759975910186768,-0.8220908045768738,0.298202246427536,0.3932429552078247,-0.6195623278617859,-0.5524357557296753,-0.3953697383403778
1833724,9.476065635681152,0.0063167694024741,2.601241111755371,0.8097774982452393,-0.3032799661159515,0.5334804654121399,0.7320541739463806,-0.2379359751939773,-0.5595588684082031,-0.3072082996368408,8.978143692016602,-0.3749866485595703,-3.674939632415772,0.3093822002410888,-0.6063807010650635,0.3228544592857361,0.3932052552700043,-0.6195527911186218,-0.5525174140930176,-0.3953081369400024
1833890,9.463842391967772,0.0048922142013907,2.614166498184204,0.490079790353775,-0.2886551022529602,0.6656035780906677,0.7320672869682312,-0.2379373759031295,-0.5595524907112122,-0.3071878552436828,8.96609878540039,-0.3707239627838135,-3.676230192184448,-0.0034192956518381,-0.4598888754844665,0.5505770444869995,0.3931618928909302,-0.6195738911628723,-0.5525489449501038,-0.3952740728855133
