sampleTimeFine,W4_acc_x,W4_acc_y,W4_acc_z,W4_gyro_x,W4_gyro_y,W4_gyro_z,W4_quat_w,W4_quat_x,W4_quat_y,W4_quat_z,W5_acc_x,W5_acc_y,W5_acc_z,W5_gyro_x,W5_gyro_y,W5_gyro_z,W5_quat_w,W5_quat_x,W5_quat_y,W5_quat_z
252040,0.0,0.0,0.0,0.0,0.0,0.0,0.7527198791503906,-0.2276042997837066,-0.5389668941497803,-0.3018668889999389,0.0,0.0,0.0,0.0,0.0,0.0,0.4819369614124298,-0.5451422333717346,-0.5256548523902893,-0.44073086977005
252207,9.295896530151367,-0.2134065926074981,3.1229729652404785,0.502796471118927,-0.1310729831457138,0.6308087110519409,0.7526476979255676,-0.2281801998615265,-0.5386797785758972,-0.3021247684955597,9.6569242477417,-0.6301027536392212,-1.4298068284988403,-0.0523011311888694,0.4756982326507568,0.1294017434120178,0.4826054275035858,-0.5445140600204468,-0.5261050462722778,-0.4402386844158172
252374,9.299934387207031,-0.1844428926706314,3.101379871368408,0.4313370287418365,-0.2525027990341186,0.3328946828842163,0.7527838349342346,-0.2286521047353744,-0.5382465720176697,-0.3022010028362274,9.663866996765137,-0.6219596862792969,-1.427303671836853,0.0319582447409629,0.4622131586074829,0.0851173996925354,0.4828459620475769,-0.5445106029510498,-0.5259595513343811,-0.4401528239250183
252540,9.310677528381348,-0.1686432063579559,3.112898826599121,0.4140229225158691,-0.2937520444393158,0.2680561244487762,0.7529520988464355,-0.2286484092473983,-0.5381596088409424,-0.3019395172595978,9.651572227478027,-0.5933571457862854,-1.427582621574402,0.0209319796413183,0.335660845041275,0.1620707660913467,0.4829408228397369,-0.54460209608078,-0.5257453918457031,-0.4401913285255432
253374,9.328694343566896,-0.1854263544082641,3.102020025253296,0.4659782350063324,-0.4255293905735016,0.1620707660913467,0.7527455687522888,-0.2286793142557144,-0.5383032560348511,-0.3021747171878814,9.659342765808104,-0.5803290605545044,-1.424982666969299,-0.0782852172851562,0.1389809101819992,0.1493156403303146,0.4828594624996185,-0.5446776151657104,-0.525614321231842,-0.4403437972068786
253540,9.321194648742676,-0.1685502231121063,3.0953361988067627,0.5366308689117432,-0.5173252820968628,0.2801581025123596,0.7526549696922302,-0.228757306933403,-0.5383476614952087,-0.3022625148296356,9.666037559509276,-0.5693464875221252,-1.421553134918213,-0.1948101967573166,0.0275656692683696,0.1854039281606674,0.4827165901660919,-0.5447184443473816,-0.5255457162857056,-0.4405319690704345
253707,9.312312126159668,-0.1767450720071792,3.0982754230499268,0.5347227454185486,-0.6461315751075745,0.2892634272575378,0.7526366114616394,-0.2286902219057083,-0.5384721159934998,-0.3021368086338043,9.645153045654297,-0.5883649587631226,-1.433876395225525,-0.3382028937339782,-0.046474240720272,0.3608893454074859,0.4825495481491089,-0.5447651743888855,-0.5254802107810974,-0.4407353103160858
253874,9.317276000976562,-0.1881839632987976,3.104809284210205,0.4322335124015808,-0.530746340751648,0.1924602389335632,0.7525942325592041,-0.2286780625581741,-0.5385534763336182,-0.3021067380905151,9.652945518493652,-0.5843239426612854,-1.4222288131713867,-0.2065920233726501,-0.3005650043487549,0.5172163844108582,0.482367068529129,-0.5448890924453735,-0.5253968238830566,-0.440881073474884
254040,9.322938919067385,-0.1670557558536529,3.11462950706482,0.4246136546134949,-0.6149224042892456,0.1605724096298217,0.7525419592857361,-0.2286887168884277,-0.5386300086975098,-0.3020927011966705,9.670122146606444,-0.5952025055885315,-1.4172652959823608,-0.0882869735360145,-0.2995789349079132,0.4852133393287658,0.4823564291000366,-0.5448330044746399,-0.5254940986633301,-0.4408462047576904
254207,9.29745388031006,-0.1540716588497162,3.080296516418457,0.4409418106079101,-0.9045252799987792,0.2085321843624115,0.752463698387146,-0.2287270575761795,-0.5387238264083862,-0.3020915389060974,9.677928924560549,-0.5709629654884338,-1.4042764902114868,-0.1279098242521286,-0.2087434828281402,0.3610173761844635,0.4824181795120239,-0.5447072386741638,-0.5256404876708984,-0.4407595694065094
254374,9.309123039245604,-0.1633425951004028,3.0750491619110107,0.4995948374271393,-0.6947700381278992,0.4116920828819275,0.7524166703224182,-0.2287481278181076,-0.5388011932373047,-0.3020543158054352,9.624385833740234,-0.6028519868850708,-1.4456603527069092,-0.1104675754904747,-0.2701243162155151,0.4013318419456482,0.4824719130992889,-0.5445966720581055,-0.5257618427276611,-0.4406924247741699
254540,9.326455116271973,-0.1750338822603225,3.066122055053711,0.3771405816078186,-0.7209334373474121,0.0564439818263053,0.752362847328186,-0.2287257611751556,-0.538905143737793,-0.3020199239253998,9.643160820007324,-0.6057987809181213,-1.4520832300186155,0.1900270134210586,-0.3470520675182342,0.7138962745666504,0.4824771881103515,-0.5446222424507141,-0.5257755517959595,-0.4406387209892273
254707,9.319271087646484,-0.139260709285736,3.0852017402648926,0.5306503176689148,-0.4472745358943939,0.2814002931118011,0.7523313760757446,-0.2287169694900512,-0.5389747023582458,-0.3019808530807495,9.619193077087402,-0.5517944693565369,-1.4379321336746216,0.200745940208435,-0.4094574451446533,0.508687436580658,0.4824137091636657,-0.5447146892547607,-0.5257447957992554,-0.440630555152893
254874,9.334290504455566,-0.1656996458768844,3.101349353790283,0.6090507507324219,-0.3713201284408569,0.5076500773429871,0.752346932888031,-0.2286564856767654,-0.5390549302101135,-0.3018449246883392,9.662571907043455,-0.5579562783241272,-1.4700751304626465,-0.0898621529340744,-0.5174789428710938,0.2864332199096679,0.4823343157768249,-0.5447657108306885,-0.5257785320281982,-0.4406140744686126
255040,9.32936954498291,-0.1649457365274429,3.1024746894836426,0.3232514858245849,-0.5172228217124939,0.401677519083023,0.7523033022880554,-0.2286904156208038,-0.539110541343689,-0.3018284142017364,9.68308162689209,-0.5954921841621399,-1.4650541543960571,-0.1023355424404144,-0.358385682106018,0.5426626205444336,0.4822503626346588,-0.5448561310768127,-0.5257623791694641,-0.4406138062477112
255207,9.320987701416016,-0.1626097559928894,3.083634853363037,0.2025644332170486,-0.5429508090019226,0.2233619391918182,0.7522811889648438,-0.2286664694547653,-0.5391908288002014,-0.3017581701278686,9.685099601745604,-0.5863907337188721,-1.46989643573761,0.1217819675803184,-0.0988009721040725,0.7944994568824768,0.4823396801948547,-0.5448015928268433,-0.5258625149726868,-0.4404636919498443
255374,9.32071304321289,-0.1655459851026535,3.0914669036865234,0.0985896810889244,-0.5016759037971497,0.2065087854862213,0.752242922782898,-0.2286795526742935,-0.539250373840332,-0.301737517118454,9.662055015563965,-0.6011975407600403,-1.4671601057052612,0.1926266998052597,-0.0361139066517353,0.9275317788124084,0.4823895096778869,-0.5448231101036072,-0.5258778929710388,-0.440364271402359
255540,9.3184232711792,-0.1722332090139389,3.0676283836364746,0.4218987226486206,-0.4245560765266418,0.1034816950559616,0.7522194385528564,-0.2286440730094909,-0.5393182635307312,-0.3017012774944305,9.63714599609375,-0.6096789836883545,-1.462593674659729,0.2232338786125183,-0.1220829263329505,0.7116424441337585,0.4824071824550628,-0.5448566675186157,-0.5258936285972595,-0.4402846097946167
255707,9.327707290649414,-0.1654242724180221,3.071007490158081,0.6970688104629517,-0.3954856991767883,0.01761513389647,0.7522105574607849,-0.2285599559545517,-0.5394042730331421,-0.3016334176063537,9.646349906921388,-0.6056914925575256,-1.4584808349609375,0.2494741082191467,-0.1904048323631286,0.4145863652229309,0.4823964238166809,-0.5448870062828064,-0.5259219408035278,-0.4402250647544861
255874,9.31640625,-0.1521819233894348,3.0824153423309326,0.7271637320518494,-0.3698473870754242,0.0294353980571031,0.7521905303001404,-0.2284992486238479,-0.5394781231880188,-0.3015972673892975,9.638687133789062,-0.5991327166557312,-1.4487394094467163,0.2525732517242431,-0.1815812289714813,0.0817621424794197,0.4823877811431885,-0.5448702573776245,-0.5259959697723389,-0.4401665329933166
256040,9.30998706817627,-0.1441672444343567,3.093130350112915,0.6231505274772644,-0.492160826921463,0.0017864858964458,0.7521712779998779,-0.2284262627363205,-0.5395721793174744,-0.3015323877334595,9.67149543762207,-0.5885293483734131,-1.4328579902648926,0.3075636923313141,-0.0585762374103069,-0.1880356222391128,0.4823544323444366,-0.5448505878448486,-0.5260524749755859,-0.4401600062847137
256207,9.314897537231444,-0.1308820396661758,3.074780225753784,0.4291727840900421,-0.5373929142951965,-0.10083719342947,0.7521151304244995,-0.2284087836742401,-0.5396467447280884,-0.3015520572662353,9.660615921020508,-0.5548878908157349,-1.4212884902954102,0.2087883204221725,-0.0268164947628974,-0.1621924042701721,0.4823523759841919,-0.5447974801063538,-0.5261335372924805,-0.4401311874389648
256374,9.337520599365234,-0.1255926787853241,3.097968339920044,0.152978241443634,-0.485898494720459,-0.1093534156680107,0.7520888447761536,-0.2283529192209243,-0.5397316813468933,-0.3015080392360687,9.648486137390137,-0.5256415605545044,-1.442155361175537,-0.2091532945632934,-0.036843866109848,-0.1437512785196304,0.4822877049446106,-0.544807493686676,-0.5261474251747131,-0.4401730895042419
256540,9.330224990844728,-0.1385172307491302,3.084042549133301,0.1349725276231765,-0.4444571435451507,0.1413628906011581,0.7520575523376465,-0.2283489257097244,-0.539787769317627,-0.3014885783195495,9.664292335510254,-0.5176810622215271,-1.4278007745742798,-0.6137571334838867,-0.1829515248537063,0.0298708118498325,0.4821841716766357,-0.5448687076568604,-0.5261294841766357,-0.4402320683002472
256707,9.332791328430176,-0.1685683280229568,3.073760509490967,0.0435864105820655,-0.328303575515747,0.2592325210571289,0.7520272731781006,-0.2283776998519897,-0.5398150086402893,-0.3014934957027435,9.65492057800293,-0.5389471054077148,-1.4443693161010742,-1.0291694402694702,-0.2579198777675628,0.2631128430366516,0.4820700585842132,-0.5449597239494324,-0.5260906219482422,-0.4402908980846405
256874,9.325590133666992,-0.1813098937273025,3.07922887802124,0.04730024933815,-0.3085561394691467,0.3396435678005218,0.7519906759262085,-0.2284349948167801,-0.5398281216621399,-0.3015179932117462,9.65476417541504,-0.5715886950492859,-1.4627013206481934,-1.2651904821395874,-0.3008851706981659,0.7694887518882751,0.4819628596305847,-0.5451109409332275,-0.5259960293769836,-0.4403342008590698
257040,9.308588981628418,-0.1833485662937164,3.0940988063812256,0.3406552672386169,-0.3150233626365661,0.4363827407360077,0.7519788146018982,-0.2284521907567978,-0.5398580431938171,-0.3014810085296631,9.651336669921877,-0.5921459794044495,-1.4454859495162964,-0.9241061210632324,-0.338587075471878,1.0428658723831177,0.4819112718105316,-0.5452470779418945,-0.5259199142456055,-0.4403130710124969
257207,9.333173751831056,-0.1799126267433166,3.086583375930786,0.5911859273910522,-0.4051929116249084,0.6481869220733643,0.7519532442092896,-0.2285107374191284,-0.5398797988891602,-0.3014616370201111,9.65485668182373,-0.6218451857566833,-1.4224438667297363,-0.4337510466575622,-0.2534760534763336,1.0114006996154783,0.481906533241272,-0.5453415513038635,-0.5258699059486389,-0.4402608275413513
257374,9.318965911865234,-0.1838422566652298,3.083871603012085,0.7226943373680115,-0.4224558472633362,0.5722709894180298,0.7519606351852417,-0.2284929752349853,-0.5399352312088013,-0.3013573288917541,9.659751892089844,-0.646567702293396,-1.4422158002853394,0.2140389531850814,-0.3510732650756836,0.8847459554672241,0.4820073544979095,-0.545311450958252,-0.525953471660614,-0.4400879442691803
257540,9.33882999420166,-0.1932225376367569,3.1071949005126958,0.6887190341949463,-0.4505273997783661,0.5247209668159485,0.7519677877426147,-0.2284700274467468,-0.5399959683418274,-0.3012479841709137,9.64853858947754,-0.6523520946502686,-1.4353537559509275,0.9111077785491944,-0.2936367988586426,0.9049736261367798,0.4820761382579803,-0.5453495383262634,-0.5259511470794678,-0.4399681687355041
257707,9.320141792297363,-0.1747912764549255,3.0932583808898926,0.6374552845954895,-0.4796874523162842,0.4553745985031128,0.7519698739051819,-0.2284488976001739,-0.5400583744049072,-0.3011468052864074,9.634930610656738,-0.6259560585021973,-1.4392807483673096,1.5577067136764526,-0.330070823431015,0.9847634434700012,0.4821942448616028,-0.545363187789917,-0.5259720683097839,-0.4397969543933868
257874,9.322160720825195,-0.1714641898870468,3.081223487854004,0.6885141134262085,-0.5302725434303284,0.5027709007263184,0.7519639134407043,-0.2284438461065292,-0.540119469165802,-0.3010560572147369,9.65109634399414,-0.5958585739135742,-1.4423872232437134,1.850434422492981,-0.5421056747436523,0.9179784059524536,0.4822998642921448,-0.5453863143920898,-0.5260083675384521,-0.4396086633205414
258040,9.327788352966309,-0.1469463407993316,3.084012508392334,0.5372327566146851,-0.5294016599655151,0.5037185549736023,0.7519479393959045,-0.2284654229879379,-0.5401692390441895,-0.3009901642799377,9.655099868774414,-0.5645706057548523,-1.433444619178772,1.7382760047912598,-0.5002031326293945,0.9139057993888856,0.4824263751506805,-0.5453829169273376,-0.5260668992996216,-0.4394042491912842
258207,9.330239295959473,-0.1599315702915191,3.066025495529175,0.4838815033435821,-0.5839695334434509,0.3362114727497101,0.7519094944000244,-0.2284975349903106,-0.5402215123176575,-0.3009681105613708,9.653508186340332,-0.5432685613632202,-1.439139485359192,1.3601559400558472,-0.5363554954528809,0.8159117698669434,0.4825379848480224,-0.5453696846961975,-0.5261423587799072,-0.4392076134681701
258374,9.334531784057615,-0.1487917304039001,3.068489789962769,0.4497910737991333,-0.573494017124176,0.467502236366272,0.7519007325172424,-0.2284990400075912,-0.5402860641479492,-0.300872653722763,9.656068801879885,-0.5417351126670837,-1.456568479537964,0.8090090751647949,-0.5630567073822021,0.921730637550354,0.4826030731201172,-0.5454105138778687,-0.5261695384979248,-0.4390528500080108
258540,9.319764137268066,-0.1492422819137573,3.083552598953247,0.3529365956783294,-0.4713249504566192,0.513489842414856,0.7518942356109619,-0.2285178303718567,-0.5403308868408203,-0.3007941246032715,9.638680458068848,-0.539280354976654,-1.4721661806106567,0.2230802029371261,-0.5985431671142578,0.8631543517112732,0.4825668931007385,-0.5455450415611267,-0.5261098146438599,-0.4389970600605011
258707,9.315852165222168,-0.1581825315952301,3.075594902038574,0.2147048562765121,-0.5104354619979858,0.4943827092647552,0.751843273639679,-0.2286163866519928,-0.5403467416763306,-0.3008181154727936,9.658940315246582,-0.5669398903846741,-1.450112223625183,-0.4089323282241821,-0.4991018176078796,0.8640764355659485,0.4824916124343872,-0.5457102656364441,-0.5260113477706909,-0.438992440700531
258874,9.325017929077148,-0.1602602750062942,3.09255313873291,0.248321533203125,-0.5183626413345337,0.5147704482078552,0.7518193125724792,-0.2286671996116638,-0.5403836369514465,-0.3007730841636657,9.644937515258787,-0.6044902801513672,-1.459147334098816,-0.6082631349563599,-0.3640076816082001,0.9979923367500304,0.482465386390686,-0.5458349585533142,-0.5259377956390381,-0.4389543533325195
259040,9.325886726379396,-0.161122441291809,3.08089542388916,0.3265939354896545,-0.420931875705719,0.376410573720932,0.7518094778060913,-0.2286772578954696,-0.5404244065284729,-0.3007169961929321,9.649188995361328,-0.6055095195770264,-1.4770933389663696,-0.6707069277763367,-0.379721075296402,0.8838621973991394,0.482418805360794,-0.5459659695625305,-0.5258604884147644,-0.4389353096485138
259207,9.33864402770996,-0.1713751405477523,3.099966764450073,0.2847299873828888,-0.4981414377689361,0.394531637430191,0.7517745494842529,-0.2287299633026123,-0.5404568314552307,-0.3007060289382934,9.65809154510498,-0.6308621168136597,-1.4578216075897217,-0.6925033330917358,-0.355785995721817,0.5723221302032471,0.4823747873306274,-0.5460470914840698,-0.5258326530456543,-0.4389160573482513
259374,9.308209419250488,-0.1611405909061432,3.0602002143859863,0.1419775933027267,-0.4102386236190796,0.2906465232372284,0.7517637014389038,-0.2287396788597107,-0.5404958724975586,-0.3006555736064911,9.641057968139648,-0.6209657788276672,-1.4798307418823242,-0.4594918489456177,-0.3985976278781891,0.4214633703231811,0.4823381304740906,-0.5461031794548035,-0.5258342027664185,-0.4388845860958099
259540,9.343643188476562,-0.1561875790357589,3.076925754547119,0.441044270992279,-0.4712224304676056,0.135113388299942,0.7517297267913818,-0.2287455797195434,-0.540543794631958,-0.3006497323513031,9.648958206176758,-0.6277352571487427,-1.476791262626648,-0.3307239711284637,-0.4960026741027832,0.3031454682350158,0.4822630584239959,-0.5461891889572144,-0.5258175730705261,-0.438879907131195
259707,9.323415756225586,-0.1837920248508453,3.061573266983032,0.4189917147159576,-0.3920791745185852,0.1632745414972305,0.7517027258872986,-0.2287518829107284,-0.5405815839767456,-0.3006445169448852,9.634352684020996,-0.6139456033706665,-1.4913679361343384,-0.127320721745491,-0.4782530963420868,0.1712144911289215,0.4822050929069519,-0.5462415814399719,-0.5258321762084961,-0.4388609528541565
259874,9.320744514465332,-0.1944091916084289,3.03664231300354,0.5169219374656677,-0.4504889845848083,0.5260528922080994,0.7516947984695435,-0.2287711501121521,-0.5406213402748108,-0.3005781173706054,9.639892578125,-0.6180078387260437,-1.4760472774505615,0.1111270934343338,-0.4082920253276825,0.2124253213405609,0.4822006821632385,-0.5462446212768555,-0.5258873105049133,-0.4387960135936737
260040,9.331984519958496,-0.1430625915527343,3.0488955974578857,0.4923081398010254,-0.1404728442430496,0.4348587989807129,0.7517120242118835,-0.2287630140781402,-0.5406339764595032,-0.3005184531211853,9.624418258666992,-0.5955744385719299,-1.500952124595642,0.2907233238220215,-0.2803565859794616,0.5527412295341492,0.4822407364845276,-0.5462555289268494,-0.5259154438972473,-0.4387048184871673
260207,9.381479263305664,-0.1687287241220474,3.055783748626709,0.1764138787984848,0.1245865747332573,0.1779122203588485,0.7517416477203369,-0.2287323623895645,-0.5406236052513123,-0.3004862070083618,9.676812171936035,-0.5825909376144409,-1.5184837579727173,0.3714673519134521,-0.3881988823413849,0.7500229477882385,0.4822892248630523,-0.5462851524353027,-0.5259391069412231,-0.4385862350463867
260374,9.367914199829102,-0.1683177649974823,3.057621479034424,0.1102050393819809,0.1085017919540405,0.0682130232453346,0.7517381906509399,-0.2287455946207046,-0.5405977368354797,-0.3005318343639374,9.680363655090332,-0.5612821578979492,-1.488764405250549,0.1846099197864532,-0.1992795914411544,0.6529253125190735,0.482273668050766,-0.5463763475418091,-0.5258759260177612,-0.4385654628276825
260540,9.34487247467041,-0.183749109506607,3.084249973297119,0.275675892829895,0.3119435012340545,0.4899773299694061,0.7517580986022949,-0.2287944108247757,-0.5405306816101074,-0.3005653321743011,9.667189598083496,-0.5522021651268005,-1.485148787498474,-0.2986056506633758,-0.0826393738389015,0.3180777132511139,0.4822608828544616,-0.5464028120040894,-0.5258685946464539,-0.4385553002357483
260707,9.323505401611328,-0.1850365400314331,3.081639289855957,0.2215818464756012,0.1297219097614288,0.5158973932266235,0.751792848110199,-0.2288063913583755,-0.5405024290084839,-0.300520122051239,9.654804229736328,-0.6111060380935669,-1.4871841669082642,-0.4641917645931244,0.1437064558267593,0.435832142829895,0.4822086989879608,-0.5464949607849121,-0.5257636904716492,-0.4386236369609833
260874,9.300406455993652,-0.1813172698020935,3.085301637649536,0.2291632294654846,0.005039298441261,0.2837823033332824,0.7517979741096497,-0.2288235276937484,-0.5404874682426453,-0.3005209863185882,9.64024257659912,-0.6166561245918274,-1.4758542776107788,-0.2343433946371078,0.2834621369838714,0.6844033002853394,0.4822323620319366,-0.54654461145401,-0.5256819128990173,-0.4386337399482727
261040,9.307293891906738,-0.1606682687997818,3.0661327838897705,0.1274808198213577,-0.1064848080277443,0.1959563642740249,0.7518026232719421,-0.2288226187229156,-0.5404941439628601,-0.3004980683326721,9.634900093078612,-0.5842029452323914,-1.4530736207962036,-0.148169457912445,0.3761160969734192,0.760793149471283,0.482254683971405,-0.5466131567955017,-0.5255669951438904,-0.4386615753173828
261207,9.300349235534668,-0.1624670922756195,3.098891019821167,0.2844738066196441,-0.0906689539551734,0.1792824864387512,0.7518041729927063,-0.2288181334733963,-0.5404998660087585,-0.3004873096942901,9.648700714111328,-0.5796245336532593,-1.452365756034851,-0.2958010733127594,0.4404423534870147,0.5608220100402832,0.4822704195976257,-0.5466567873954773,-0.5254696607589722,-0.4387063980102539
261374,9.317307472229004,-0.1559439450502395,3.084614515304565,0.3590452075004577,-0.0722918510437011,0.279543399810791,0.751815140247345,-0.2288113683462143,-0.5405031442642212,-0.300459086894989,9.653406143188477,-0.5928063988685608,-1.4339661598205566,-0.2700987160205841,0.5182665586471558,0.1937792748212814,0.4822813272476196,-0.5466521978378296,-0.525411069393158,-0.4387702345848083
261540,9.31694221496582,-0.1710106581449508,3.0821399688720703,0.2994572818279266,-0.0122044524177908,0.3238790333271026,0.7518342137336731,-0.2288057804107666,-0.5404982566833496,-0.300424724817276,9.647029876708984,-0.5989825129508972,-1.4565856456756592,-0.3061998188495636,0.5739485621452332,0.3084601163864136,0.4823129177093506,-0.5466413497924805,-0.5253506302833557,-0.4388213753700256
261707,9.320775985717772,-0.1704420447349548,3.0735034942626958,0.217214897274971,-0.0710240080952644,0.2984583675861358,0.7518290281295776,-0.2288385331630706,-0.5404844880104065,-0.3004374802112579,9.648285865783691,-0.5843987464904785,-1.4556915760040283,-0.147887721657753,0.4946644604206085,0.4101553559303283,0.4823370277881622,-0.5466568470001221,-0.5252717733383179,-0.4388700127601623
261874,9.328007698059082,-0.1743257939815521,3.084754228591919,0.1995293349027633,-0.0485104508697986,0.3068465292453766,0.7518358826637268,-0.2288535684347152,-0.5404753088951111,-0.3004252016544342,9.645625114440918,-0.5718963146209717,-1.4497050046920776,-0.1096863821148872,0.3200434744358063,0.5845586061477661,0.4823937118053436,-0.5466560125350952,-0.5252330303192139,-0.4388551414012909
262040,9.336833953857422,-0.1555578708648681,3.077204704284668,0.1949702501296997,-0.0682578459382057,0.3905616104602813,0.751839280128479,-0.2288870811462402,-0.5404606461524963,-0.3004177212715149,9.6551513671875,-0.5600733757019043,-1.4540536403656006,-0.1636523455381393,0.300481766462326,0.584014356136322,0.4824385046958923,-0.5466666221618652,-0.5251850485801697,-0.4388499557971954
262207,9.340598106384276,-0.1775195896625518,3.0615272521972656,0.3085369765758514,-0.1984215825796127,0.5290879011154175,0.751826822757721,-0.228952094912529,-0.5404489636421204,-0.3004204928874969,9.663348197937012,-0.5756942629814148,-1.441104292869568,-0.2139812856912613,0.0547535456717014,0.6091532111167908,0.4824247360229492,-0.5467426180839539,-0.5251029133796692,-0.4388690292835235
262374,9.33746337890625,-0.166125550866127,3.0826191902160645,0.4000127017498016,-0.188189297914505,0.414214938879013,0.7518227100372314,-0.2289803177118301,-0.5404515862464905,-0.3004043698310852,9.647802352905272,-0.5922950506210327,-1.4537426233291626,-0.1027581393718719,-0.0928588286042213,0.6343433260917664,0.4824163019657135,-0.5468142032623291,-0.5250437259674072,-0.4388597011566162
262540,9.3245849609375,-0.1656570732593536,3.100306987762451,0.3358913660049438,-0.1927227675914764,0.362848699092865,0.7518328428268433,-0.2289774864912033,-0.5404680371284485,-0.3003513514995575,9.653417587280272,-0.5937183499336243,-1.4615458250045776,0.0602602772414684,-0.1248106732964515,0.718813955783844,0.4824655055999756,-0.5468328595161438,-0.5250425934791565,-0.4387838244438171
262707,9.313573837280272,-0.1571957617998123,3.1057465076446533,0.3516303300857544,-0.4383612871170044,0.3229568898677826,0.7518209218978882,-0.2289838045835495,-0.5405114889144897,-0.3002982139587402,9.673019409179688,-0.5861654281616211,-1.4580127000808716,0.0778177827596664,-0.1014647036790847,0.6739404797554016,0.4824959337711334,-0.5468682050704956,-0.5250205993652344,-0.4387327134609222
262874,9.291333198547363,-0.1466709822416305,3.0672414302825928,0.3723381757736206,-0.39435875415802,0.5188172459602356,0.7518194317817688,-0.2290053814649582,-0.5405422449111938,-0.300230324268341,9.623273849487305,-0.5863513946533203,-1.4577909708023071,0.138891264796257,0.0190110243856906,0.6526692509651184,0.4825012385845184,-0.5469347834587097,-0.5249486565589905,-0.4387297928333282
263040,9.3239164352417,-0.1597312986850738,3.0695159435272217,0.1908209919929504,-0.3225151002407074,0.2564919590950012,0.7517995238304138,-0.2290344685316085,-0.5405609011650085,-0.3002243340015411,9.64519214630127,-0.6156691312789917,-1.4657443761825562,0.1804862767457962,-0.1099809259176254,0.7772108912467957,0.482537180185318,-0.5469810962677002,-0.5249151587486267,-0.4386726319789886
263207,9.321237564086914,-0.1414711773395538,3.092543125152588,0.2567608952522278,-0.2245081067085266,-0.0035857777111232,0.7517763376235962,-0.229034885764122,-0.540579080581665,-0.3002492785453796,9.633569717407228,-0.5708199143409729,-1.470085859298706,0.3166433572769165,-0.0667594969272613,0.7035871744155884,0.4825917780399322,-0.5469986200332642,-0.5249044895172119,-0.4386034607887268
263374,9.348002433776855,-0.1504760235548019,3.078166484832764,0.3254285156726837,-0.0775936767458915,0.4183129966259002,0.751777172088623,-0.2290688455104828,-0.5405637621879578,-0.300248920917511,9.62466526031494,-0.5442451238632202,-1.466795563697815,0.0203300807625055,-0.2434358894824981,0.2736396789550781,0.4825629293918609,-0.5470374822616577,-0.5248985886573792,-0.4385937452316284
263540,9.344114303588867,-0.1675238609313964,3.068367958068848,0.3500295281410217,-0.1895723789930343,0.4352173209190368,0.7517731785774231,-0.2291015237569809,-0.54056316614151,-0.3002348840236664,9.670089721679688,-0.5761124491691589,-1.4556666612625122,-0.318173736333847,-0.3007059097290039,0.151390254497528,0.4825133681297302,-0.5470712184906006,-0.524909257888794,-0.4385934472084045
263707,9.327993392944336,-0.1810851097106933,3.099724292755127,0.27424156665802,-0.2940594255924225,0.3191278278827667,0.7517422437667847,-0.2291581183671951,-0.5405661463737488,-0.3002638518810272,9.677038192749023,-0.5891515612602234,-1.466649055480957,-0.2997069954872131,-0.1936960220336914,0.4236660599708557,0.4825043678283691,-0.5471007227897644,-0.5249093770980835,-0.4385664463043213
263874,9.312623023986816,-0.1610974371433258,3.091209173202514,-0.156199038028717,-0.3833452463150024,0.3144022822380066,0.7516675591468811,-0.229305550456047,-0.5405428409576416,-0.300380527973175,9.662961959838867,-0.5719499588012695,-1.4820947647094729,-0.2577534019947052,-0.1017848700284957,0.6876946091651917,0.4825164675712585,-0.5471488237380981,-0.5248770117759705,-0.4385318458080292
264041,9.31319522857666,-0.1670625209808349,3.0934622287750244,0.0126078519970178,-0.3347451686859131,0.2448894381523132,0.7516505122184753,-0.2293343842029571,-0.5405626893043518,-0.3003652989864349,9.654446601867676,-0.5726670622825623,-1.4607336521148682,-0.3255373835563659,-0.0306199826300144,0.8559443950653076,0.4824880063533783,-0.5472708344459534,-0.5247585773468018,-0.4385526478290558
264207,9.325328826904297,-0.1632073670625686,3.066190004348755,0.3044901192188263,-0.4021833539009094,0.1801533102989196,0.7516117691993713,-0.2293713986873626,-0.5405865907669067,-0.3003908097743988,9.636058807373049,-0.5788770914077759,-1.4582486152648926,-0.3417630493640899,-0.106407955288887,0.5600280165672302,0.482475996017456,-0.5473246574401855,-0.5247218012809753,-0.4385426640510559
264374,9.313377380371094,-0.1530363112688064,3.090272188186645,0.5041667222976685,-0.2422064840793609,0.1409914940595626,0.7516016960144043,-0.229356363415718,-0.5406116247177124,-0.300382524728775,9.629467010498049,-0.6093642711639404,-1.464868187904358,-0.356259822845459,-0.2940337657928467,0.4118714034557342,0.4824472665786743,-0.5473702549934387,-0.5247192978858948,-0.4385204017162323
264541,9.312762260437012,-0.168507307767868,3.075777769088745,0.5728856325149536,-0.2821366786956787,0.0551249235868454,0.7515803575515747,-0.229340985417366,-0.5406413674354553,-0.3003942668437958,9.647533416748049,-0.6153435111045837,-1.4731651544570925,-0.1475675553083419,-0.3932829797267914,0.2243096083402633,0.4823715388774872,-0.5474461317062378,-0.5246966481208801,-0.4385360777378082
264707,9.321466445922852,-0.1519458889961242,3.1125805377960205,0.3654868006706238,-0.3941025733947754,0.0578142628073692,0.7515559792518616,-0.2293302565813064,-0.540683925151825,-0.3003869652748108,9.659147262573242,-0.5892555117607117,-1.4714055061340332,-0.0485616736114025,-0.2945460379123688,0.0772414952516555,0.482350617647171,-0.5474391579627991,-0.5247463583946228,-0.4385084807872772
264874,9.325933456420898,-0.1269839704036712,3.0996811389923096,0.3078070282936096,-0.5644270181655884,-0.0346411764621734,0.7515160441398621,-0.2293192893266677,-0.5407479405403137,-0.3003799319267273,9.665491104125977,-0.5691177845001221,-1.4661198854446411,-0.0638012290000915,-0.2338823527097702,0.0738094002008438,0.4822945296764374,-0.5474746823310852,-0.5247434377670288,-0.438529223203659
265041,9.320380210876465,-0.1424829959869384,3.075270175933838,0.2402919232845306,-0.7130447030067444,0.110768511891365,0.7514649033546448,-0.2293398976325988,-0.5408173203468323,-0.300367146730423,9.669724464416504,-0.5307058691978455,-1.472332000732422,-0.2941234111785888,-0.1815427988767624,0.1064783856272697,0.4822447299957275,-0.5475029349327087,-0.5247429609298706,-0.4385493099689483
265207,9.323319435119627,-0.1597634851932525,3.067667007446289,0.3062574565410614,-0.5682945847511292,0.2447869926691055,0.7514030933380127,-0.2294113337993621,-0.5408462882041931,-0.3004152476787567,9.639248847961426,-0.5395493507385254,-1.4775495529174805,-0.5844689607620239,-0.2867725789546966,0.2424818277359008,0.4821652472019195,-0.5475757122039795,-0.5247130990028381,-0.4385814666748047
265374,9.32300090789795,-0.1636687070131302,3.0763392448425293,0.1234724149107933,-0.6904159188270569,0.3714417517185211,0.7513458132743835,-0.2294916212558746,-0.5408875346183777,-0.3004228770732879,9.641942977905272,-0.5568004250526428,-1.475282907485962,-0.7757830619812012,-0.4537161886692047,0.6317949295043945,0.482092946767807,-0.5476889610290527,-0.5246657133102417,-0.4385761320590973
265541,9.320258140563965,-0.170649453997612,3.0738790035247803,0.2064063251018524,-0.6155499815940857,0.4068385362625122,0.751278817653656,-0.2295983731746673,-0.5409075021743774,-0.3004728555679321,9.646798133850098,-0.561229407787323,-1.4820696115493774,-0.7012372612953186,-0.501010000705719,0.9085529446601868,0.4820370674133301,-0.5478247404098511,-0.5246007442474365,-0.438545823097229
265707,9.335599899291992,-0.1565766930580139,3.078127384185791,0.3728120326995849,-0.5823431015014648,0.4023178517818451,0.7512466907501221,-0.2296366095542907,-0.5409517884254456,-0.3004442453384399,9.63143825531006,-0.5875619649887085,-1.4613189697265625,-0.4948374032974243,-0.5135218501091003,1.0652514696121216,0.4820042252540588,-0.5479609966278076,-0.524535059928894,-0.4384903013706207
265874,9.320158004760742,-0.1499600559473037,3.1051242351531982,0.5388720035552979,-0.5402231216430664,0.3789334893226623,0.7512311935424805,-0.2296372503042221,-0.5410060286521912,-0.3003849685192108,9.661937713623049,-0.600768506526947,-1.452977180480957,-0.2363155782222747,-0.5509035587310791,0.8006978034973145,0.482016921043396,-0.5480074286460876,-0.5245659947395325,-0.4383814930915832
266041,9.31271743774414,-0.1833231896162033,3.1142404079437256,0.6146855354309082,-0.8058395385742188,0.4116665124893188,0.7511547803878784,-0.2297230362892151,-0.5410571694374084,-0.3004178702831268,9.70041561126709,-0.6154438257217407,-1.476476550102234,0.1094110459089279,-0.3100032806396484,0.6041587591171265,0.4820400178432464,-0.5480266213417053,-0.5245885252952576,-0.4383049607276916
266207,9.318008422851562,-0.2100909501314163,3.091036081314087,0.8270404934883118,-0.9448269009590148,0.5611550807952881,0.7511059641838074,-0.2297591269016266,-0.5411460399627686,-0.3003524541854858,9.672922134399414,-0.6289886832237244,-1.4552264213562012,0.6454848647117615,-0.0237301643937826,0.7033567428588867,0.4821169674396515,-0.548018217086792,-0.5245953798294067,-0.4382225573062897
266374,9.367353439331056,-0.2386620342731475,3.0845391750335693,1.221027970314026,-0.7974643111228943,0.6412844061851501,0.7510913014411926,-0.2297425419092178,-0.5412368774414062,-0.3002381026744842,9.647963523864746,-0.6321527361869812,-1.470259666442871,1.1519887447357178,-0.0976740345358848,0.9908208847045898,0.4822251200675964,-0.5480276346206665,-0.5245887041091919,-0.4381000101566314
266541,9.356493949890137,-0.1790649443864822,3.037708044052124,1.1467254161834717,-0.8681424856185913,0.3142486214637756,0.7510833740234375,-0.2296593934297561,-0.5413652062416077,-0.3000902831554413,9.64113712310791,-0.6243889927864075,-1.4544659852981567,1.4825588464736938,-0.257868617773056,1.386549711227417,0.4824092090129852,-0.5480102300643921,-0.5246285200119019,-0.4378710687160492
266707,9.313299179077148,-0.1680823266506195,3.043239116668701,1.2468838691711426,-0.7410138249397278,0.4163152277469635,0.7510619759559631,-0.2296243906021118,-0.5414566993713379,-0.3000054359436035,9.614506721496582,-0.6052265763282776,-1.4676131010055542,1.6392831802368164,-0.595264732837677,1.4359313249588013,0.482548177242279,-0.5480491518974304,-0.5246535539627075,-0.4376389682292938
266874,9.305928230285645,-0.1395606100559234,3.034265279769897,1.374934434890747,-0.6950646638870239,0.3978612720966339,0.7510519623756409,-0.2295642495155334,-0.5415526628494263,-0.2999035716056824,9.597570419311523,-0.5786649584770203,-1.463569164276123,1.3767273426055908,-1.0150952339172363,1.0855365991592407,0.4825943410396576,-0.548127293586731,-0.5246976017951965,-0.4374376237392425
267041,9.323360443115234,-0.1247719675302505,3.0362191200256348,1.0175349712371826,-0.8971359729766846,0.333406925201416,0.7510128617286682,-0.2295435220003128,-0.5416586399078369,-0.2998258769512176,9.613938331604004,-0.5829603672027588,-1.4594470262527466,1.1730166673660278,-1.2426255941390991,0.7152793407440186,0.4826326370239258,-0.54814612865448,-0.5248365998268127,-0.4372049868106842
267207,9.32777976989746,-0.1326004564762115,3.048557996749878,0.5750626921653748,-0.9070096611976624,0.0762810185551643,0.7509315609931946,-0.2295782417058944,-0.5417435765266418,-0.2998493909835815,9.6317720413208,-0.5818451642990112,-1.5107094049453735,0.7706668972969055,-1.1439528465270996,0.3751043677330017,0.4825739562511444,-0.5482214689254761,-0.524906575679779,-0.4370913505554199
267374,9.33795928955078,-0.1403137296438217,3.023935317993164,0.427840918302536,-0.9268723726272584,-0.0167891215533018,0.7508422136306763,-0.2296175807714462,-0.5418294668197632,-0.2998876571655273,9.625582695007324,-0.5725606083869934,-1.529918909072876,0.3210615813732147,-1.1486399173736572,0.1281595379114151,0.4824918210506439,-0.5482746362686157,-0.525005042552948,-0.4369968771934509
267541,9.36064624786377,-0.1510734409093856,3.035484313964844,0.1458195000886917,-0.7210486531257629,0.0121852410957217,0.750770092010498,-0.2296636700630188,-0.5418871641159058,-0.2999287545681,9.629846572875977,-0.5467608571052551,-1.539592981338501,-0.2192831486463546,-1.1631367206573486,0.1235364601016044,0.4823381900787353,-0.5483981966972351,-0.5250376462936401,-0.4369722604751587
267707,9.350624084472656,-0.14132060110569,3.039461612701416,0.191320464015007,-0.583021879196167,0.1777585297822952,0.7507110238075256,-0.2297232896089553,-0.5419215559959412,-0.2999688684940338,9.64797592163086,-0.5273399949073792,-1.5540752410888672,-0.8371766209602356,-0.9710670113563538,0.1617505848407745,0.482186496257782,-0.5485132932662964,-0.5250596404075623,-0.4369688034057617
267874,9.33588981628418,-0.1574174910783767,3.0529937744140625,0.1976083666086197,-0.5149816870689392,0.2619602680206299,0.7506622672080994,-0.2297834753990173,-0.5419468879699707,-0.2999986410140991,9.689227104187012,-0.530698835849762,-1.5432158708572388,-1.268340826034546,-0.6364115476608276,0.2434807419776916,0.4819809794425964,-0.5487026572227478,-0.524962842464447,-0.4370741248130798
268041,9.34851360321045,-0.1691832095384597,3.043731451034546,0.2958330810070038,-0.4870254695415497,0.3386318981647491,0.7506155967712402,-0.2298506796360016,-0.5419651865959167,-0.3000310361385345,9.680704116821287,-0.5624955892562866,-1.5456775426864624,-1.53742778301239,-0.2089868187904358,0.3023002743721008,0.4818132817745209,-0.5488587617874146,-0.5248454213142395,-0.4372040033340454
268207,9.34186840057373,-0.1704348921775818,3.0541954040527344,0.3221116960048675,-0.5234594941139221,0.3412315845489502,0.7505777478218079,-0.2298967838287353,-0.5419970750808716,-0.3000329136848449,9.65363311767578,-0.5904533863067627,-1.529537558555603,-1.4413161277770996,0.0130304610356688,0.3918422758579254,0.4817045331001282,-0.5489654541015625,-0.5247490406036377,-0.4373056888580322
268374,9.335563659667969,-0.1580469012260437,3.034862518310547,0.3662423491477966,-0.4913539290428161,0.3500038981437683,0.7505384087562561,-0.2299485206604004,-0.5420220494270325,-0.300046294927597,9.631083488464355,-0.5996840000152588,-1.5257344245910645,-1.257173776626587,0.0757047459483146,0.4528645873069763,0.4816063046455383,-0.5490745902061462,-0.5246399641036987,-0.4374077320098877
268541,9.348170280456545,-0.1457876712083816,3.034537076950073,0.3860410153865814,-0.3432614207267761,0.2347852140665054,0.7504934072494507,-0.2300055921077728,-0.5420257449150085,-0.3001084625720978,9.617768287658691,-0.6319018602371216,-1.5369716882705688,-0.7095230221748352,-0.0249595772475004,0.5319437980651855,0.4815281331539154,-0.5491827130317688,-0.5245404243469238,-0.4374774992465973
268707,9.35945987701416,-0.1605180650949478,3.0287506580352783,0.6039282083511353,-0.0569882504642009,0.2749459147453308,0.7504904270172119,-0.2300101071596145,-0.5420146584510803,-0.3001323640346527,9.609317779541016,-0.624866783618927,-1.5093778371810913,-0.2277865409851074,-0.2766939699649811,0.461316704750061,0.4815119802951813,-0.5492109060287476,-0.5245549082756042,-0.4374425113201141
268874,9.334766387939451,-0.1863311231136322,3.021258592605591,0.4779906272888183,-0.3594486117362976,0.3658197522163391,0.7504708766937256,-0.2300351560115814,-0.5420340299606323,-0.3001275658607483,9.649023056030272,-0.6391682624816895,-1.5242979526519775,0.2902239263057709,-0.3053290247917175,0.3766155540943146,0.4815179109573364,-0.5492120981216431,-0.5245964527130127,-0.4373843967914581
269041,9.33472728729248,-0.1611725091934204,3.041442632675171,0.5749730467796326,0.0988970324397087,0.5275126695632935,0.7505097389221191,-0.2300203144550323,-0.5420114994049072,-0.3000824749469757,9.602970123291016,-0.6345081925392151,-1.5221810340881348,0.8766650557518005,-0.290473610162735,0.6238420605659485,0.4815858602523803,-0.5491924285888672,-0.5246524214744568,-0.4372672736644745
269207,9.32830810546875,-0.1403235048055648,3.054781675338745,0.3452911972999573,0.2442234754562378,0.2845122516155243,0.7505298852920532,-0.2300264537334442,-0.5419619679450989,-0.3001165986061096,9.649700164794922,-0.584787905216217,-1.5337196588516235,1.2074275016784668,-0.2886935174465179,0.858108639717102,0.4816569089889526,-0.5492135882377625,-0.5246620774269104,-0.437150776386261
269374,9.373861312866213,-0.1205682530999183,3.034111499786377,0.4151882827281952,0.4555283188819885,0.1677311658859253,0.7505680918693542,-0.2299988865852356,-0.5418993234634399,-0.3001554608345032,9.672076225280762,-0.5439243316650391,-1.5506110191345217,1.0033327341079712,-0.1764971315860748,0.6658598184585571,0.4817386269569397,-0.5491899847984314,-0.5247055888175964,-0.4370381832122803
269541,9.36995792388916,-0.1421477347612381,3.067406415939331,0.5813634991645813,0.583156406879425,0.7504841685295105,0.750626266002655,-0.2300313413143158,-0.5417944192886353,-0.3001743853092193,9.676484107971191,-0.5056290626525879,-1.5552493333816528,0.4358448982238769,0.052678920328617,0.0670860558748245,0.4817544519901275,-0.5491443276405334,-0.5247467160224915,-0.4370286464691162
269707,9.324892044067385,-0.1442352384328842,3.1041595935821533,0.4988392889499664,0.4855463206768036,0.7943586111068726,0.7506981492042542,-0.2300396412611007,-0.5417123436927795,-0.3001368045806885,9.662222862243652,-0.5595547556877136,-1.5277451276779177,-0.0750452056527137,0.3400790095329284,0.092634730041027,0.4817437827587127,-0.5491272807121277,-0.5247243642807007,-0.4370888173580169
269874,9.29788875579834,-0.1495140790939331,3.0881693363189697,0.3283356130123138,0.2387295812368393,0.4433878660202026,0.750728189945221,-0.2300522029399871,-0.5416595935821533,-0.3001468777656555,9.67724895477295,-0.574171781539917,-1.51958966255188,-0.1897772848606109,0.755977988243103,0.5967310667037964,0.4817873537540436,-0.549129843711853,-0.5246257781982422,-0.4371558725833893
270041,9.313895225524902,-0.1351662427186966,3.074022054672241,0.0261441618204116,0.2056507468223571,0.4316187798976898,0.7507434487342834,-0.2301013469696045,-0.5415958166122437,-0.3001860976219177,9.658535957336426,-0.551266610622406,-1.5249103307724,-0.0395332016050815,1.0626003742218018,1.0680559873580933,0.4818624854087829,-0.5491783618927002,-0.5244354605674744,-0.4372403919696808
270207,9.313570022583008,-0.1454300433397293,3.084156990051269,0.1887848079204559,0.1451919823884964,0.3822631239891052,0.7507762908935547,-0.2300963848829269,-0.5415618419647217,-0.3001690506935119,9.642248153686523,-0.5482776761054993,-1.5148332118988037,-0.2832892537117004,1.211948037147522,0.8598374724388123,0.4819793403148651,-0.5491409301757812,-0.5243179798126221,-0.4372994899749756
270374,9.306650161743164,-0.1501256078481674,3.074233055114746,0.3895627558231354,0.2631512582302093,0.6063358187675476,0.7508341670036316,-0.2300832122564315,-0.5415152907371521,-0.3001180589199066,9.625530242919922,-0.5724145770072937,-1.4652395248413086,-0.3209143280982971,1.187731385231018,0.6306167244911194,0.4820179939270019,-0.5491607189178467,-0.5241435170173645,-0.4374412000179291
270541,9.334600448608398,-0.1576394289731979,3.0741798877716064,0.4783747792243957,0.2249115109443664,0.6632344126701355,0.7508702874183655,-0.2301111817359924,-0.5414555668830872,-0.3001146018505096,9.64097499847412,-0.5927635431289673,-1.4697381258010864,-0.2231250405311584,1.2174419164657593,0.4851237535476684,0.4820838868618011,-0.5491278171539307,-0.5240191221237183,-0.4375589191913605
270707,9.33057975769043,-0.1736715286970138,3.057935953140259,0.3804958462715149,0.2061758190393448,0.6552176475524902,0.7508952617645264,-0.2301604300737381,-0.5413890480995178,-0.3001342415809631,9.62071132659912,-0.5976149439811707,-1.4503557682037354,0.3114183843135834,0.5933758020401001,0.6809840202331543,0.482254296541214,-0.5490465760231018,-0.5239101648330688,-0.4376035928726196
270874,9.341073036193848,-0.1608615219593048,3.068349838256836,0.4197601079940796,0.2544813752174377,0.7099775671958923,0.7509535551071167,-0.2301602065563202,-0.5413370728492737,-0.3000817596912384,9.647634506225586,-0.5800157189369202,-1.4690946340560913,0.5498085618019104,0.2492179423570633,0.777185320854187,0.482315331697464,-0.5490557551383972,-0.5238652229309082,-0.4375786483287811
271041,9.337743759155272,-0.1768646985292434,3.074208974838257,0.571771502494812,0.0281163435429334,0.6408233642578125,0.7509913444519043,-0.2301570773124694,-0.5413147211074829,-0.3000301718711853,9.632938385009766,-0.5755265355110168,-1.4597418308258057,0.5326352715492249,-0.1141686141490936,0.906683087348938,0.4824285805225372,-0.5490105152130127,-0.523927628993988,-0.4374357759952545
271207,9.35659408569336,-0.1739709824323654,3.0685760974884038,0.5767403841018677,-0.0347820483148098,0.734706699848175,0.7510311007499695,-0.2301585078239441,-0.5412982106208801,-0.2999591529369354,9.65378761291504,-0.5833550691604614,-1.473624348640442,0.5827977657318115,-0.3972913920879364,0.958151876926422,0.4824750125408172,-0.549045741558075,-0.5239434242248535,-0.4373215138912201
271374,9.334920883178713,-0.1647388935089111,3.0718798637390137,0.6352782249450684,-0.066106379032135,0.7308903932571411,0.7510693669319153,-0.2301563620567321,-0.541286826133728,-0.2998856008052826,9.639927864074709,-0.5882028937339783,-1.48518967628479,0.7311977744102478,-0.4777921140193939,1.0768795013427734,0.4825425148010254,-0.5490751266479492,-0.5239746570587158,-0.4371727406978607
271541,9.32569408416748,-0.1561078876256942,3.0786571502685547,0.6111637353897095,-0.0906177312135696,0.7322733998298645,0.7510865330696106,-0.2301909327507019,-0.5412627458572388,-0.2998595237731933,9.649526596069336,-0.5823532342910767,-1.4868443012237549,0.7316715121269226,-0.5388014912605286,1.0551599264144895,0.4825952053070068,-0.5491167306900024,-0.5240011215209961,-0.4370304644107818
271707,9.34335708618164,-0.1562613695859909,3.1019747257232666,0.5822086334228516,-0.1213273480534553,0.6367253065109253,0.7511138319969177,-0.2301904261112213,-0.541257381439209,-0.2998013198375702,9.665146827697754,-0.578345537185669,-1.4899241924285889,0.6827001571655273,-0.2929836809635162,0.9319884777069092,0.4826620221138,-0.549126923084259,-0.5240276455879211,-0.4369121491909027
271874,9.32205295562744,-0.1521182805299759,3.070188045501709,0.5611422061920166,-0.2598280310630798,0.730711042881012,0.7511201500892639,-0.2302304953336715,-0.5412519574165344,-0.2997646927833557,9.625347137451172,-0.5989969372749329,-1.5043061971664429,0.4870958924293518,-0.0908738449215889,0.9738140106201172,0.4826953411102295,-0.5491841435432434,-0.523978590965271,-0.4368623197078705
272041,9.309828758239746,-0.1551962047815323,3.055999994277954,0.5051784515380859,-0.2212040722370147,0.7845873832702637,0.751148521900177,-0.23024483025074,-0.5412524938583374,-0.2996814548969269,9.633016586303713,-0.6085621118545532,-1.49547016620636,0.5628839135169983,-0.0931021645665168,1.120408296585083,0.4827713072299957,-0.5492129921913147,-0.5239591598510742,-0.436765193939209
272207,9.328475952148438,-0.1450760066509246,3.05197811126709,0.5138996243476868,-0.2583425045013428,0.4113463163375854,0.7511486411094666,-0.2302473038434982,-0.5412626266479492,-0.2996608316898346,9.621012687683104,-0.5627856254577637,-1.5002301931381226,0.444591611623764,-0.2009828388690948,0.7791959643363953,0.4828017354011535,-0.5492384433746338,-0.523959219455719,-0.4366994798183441
272374,9.321362495422363,-0.1409162282943725,3.086611032485962,0.6433333158493042,0.0163601115345954,0.5547389984130859,0.7511709332466125,-0.2302525490522384,-0.5412359237670898,-0.2996489703655243,9.650394439697266,-0.5617470145225525,-1.504681944847107,0.0545614548027515,-0.1526260823011398,0.448100596666336,0.4828116297721863,-0.5492278933525085,-0.5239948034286499,-0.4366589784622192
272541,9.363207817077637,-0.1677365005016327,3.0716469287872314,0.4398020505905151,-0.0700379163026809,0.8367988467216492,0.7511964440345764,-0.2302979081869125,-0.541203498840332,-0.2996090352535248,9.681118965148926,-0.598142147064209,-1.519670009613037,-0.0876722782850265,-0.0185948200523853,0.7036513090133667,0.4827812016010284,-0.5493046641349792,-0.5239213109016418,-0.4366843998432159
272707,9.3375883102417,-0.1948102563619613,3.0953967571258545,0.3372360169887543,-0.0860330536961555,0.6499542593955994,0.7512058615684509,-0.2303458601236343,-0.5411720275878906,-0.2996051907539367,9.6732816696167,-0.6101296544075012,-1.5015794038772583,-0.0637115836143493,0.1609950363636016,0.981741189956665,0.4828117191791534,-0.5493550896644592,-0.5238513350486755,-0.4366712570190429
272874,9.315325736999512,-0.1876686364412307,3.073460578918457,0.109769620001316,-0.1769837290048599,0.6135457754135132,0.7512100338935852,-0.230400264263153,-0.5411497354507446,-0.299593061208725,9.660572052001951,-0.6100872755050659,-1.4836198091506958,0.0007619778625667,0.3050024807453155,1.2036112546920776,0.48283451795578,-0.5494541525840759,-0.5237092971801758,-0.4366916716098785
273041,9.323851585388184,-0.1731778383255005,3.089996814727783,0.1258928179740905,-0.1562502682209015,0.466119110584259,0.751196563243866,-0.2304647266864776,-0.5411201119422913,-0.2996306419372558,9.636988639831545,-0.6090380549430847,-1.502415657043457,-0.0010885396040976,0.3343033790588379,1.0251034498214722,0.4828778505325317,-0.5495010018348694,-0.5236185789108276,-0.4366936981678009
273207,9.317687034606934,-0.1754452884197235,3.072313070297241,0.4755189418792724,-0.2013414204120636,0.4187868237495422,0.7511884570121765,-0.2304909974336624,-0.5411110520362854,-0.2996474504470825,9.624361038208008,-0.6397227048873901,-1.5014100074768066,0.1343577951192855,0.2873040437698364,0.7700393199920654,0.4829266369342804,-0.5495038628578186,-0.5235794186592102,-0.436683177947998
273374,9.31680679321289,-0.1690580546855926,3.0797581672668457,0.7010515928268433,-0.2063615173101425,0.3744128346443176,0.7512058615684509,-0.2304517328739166,-0.5411297678947449,-0.2996004223823547,9.633151054382324,-0.6376770734786987,-1.4811935424804688,0.2716546952724457,0.2129375636577606,0.5746912956237793,0.4829733073711395,-0.549480140209198,-0.5235770344734192,-0.4366639256477356
273541,9.320718765258787,-0.1605326533317566,3.0909698009490967,0.8629494309425354,-0.1985624283552169,0.2177783697843551,0.7512028813362122,-0.230417788028717,-0.5411442518234253,-0.2996077835559845,9.633880615234377,-0.6075296998023987,-1.4705007076263428,0.4501240253448486,0.1764522939920425,0.1845715343952179,0.4829906225204468,-0.5494362711906433,-0.5235984325408936,-0.4366743266582489
273707,9.322800636291504,-0.1654246151447296,3.08497953414917,0.7539033889770508,-0.1911219358444214,0.1598040163516998,0.7512067556381226,-0.2303685396909713,-0.5411644577980042,-0.2995997965335846,9.657837867736816,-0.5716710686683655,-1.4654690027236938,0.4516094923019409,0.2664040923118591,0.0741551667451858,0.483018159866333,-0.5493648052215576,-0.5236366391181946,-0.4366879761219024
273874,9.318744659423828,-0.1389749944210052,3.075162887573242,0.4412619769573211,-0.3063022792339325,0.0696217194199562,0.7511829137802124,-0.230358749628067,-0.5411829948425293,-0.2996336817741394,9.645432472229004,-0.5464340448379517,-1.4915683269500732,0.1213465556502342,0.260244220495224,0.1477916687726974,0.483004093170166,-0.5493453145027161,-0.5236237645149231,-0.4367434382438659
274041,9.315662384033203,-0.1464528441429138,3.0647666454315186,0.2629335522651672,-0.445532888174057,-0.0210280232131481,0.7511338591575623,-0.2303752899169922,-0.5412082672119141,-0.2996977865695953,9.627686500549316,-0.5373716354370117,-1.4737943410873413,-0.4577757716178894,0.1600729525089264,0.175005167722702,0.4829529225826263,-0.5493554472923279,-0.5235998630523682,-0.43681600689888
274207,9.331586837768556,-0.1545064598321914,3.0628464221954346,0.0395267941057682,-0.4627702534198761,0.1081176027655601,0.7510921359062195,-0.2304074019193649,-0.5412298440933228,-0.2997389137744903,9.631182670593262,-0.5550341606140137,-1.484060764312744,-0.88041090965271,-0.2163888812065124,0.378626137971878,0.482843667268753,-0.5494437217712402,-0.5235495567321777,-0.4368861019611358
274374,9.32431697845459,-0.1791143417358398,3.050050735473633,0.1770029664039611,-0.5179784297943115,0.1847892105579376,0.7510548830032349,-0.2304313629865646,-0.5412613153457642,-0.2997568845748901,9.632150650024414,-0.5821123719215393,-1.5089139938354492,-1.0975555181503296,-0.277308702468872,0.6846339106559753,0.4827275574207306,-0.5495787262916565,-0.5234605073928833,-0.4369512796401977
274541,9.330900192260742,-0.1710285395383834,3.07765531539917,0.2563638985157013,-0.5162239670753479,0.2485776394605636,0.7510257959365845,-0.230445921421051,-0.5412963032722473,-0.299755334854126,9.643892288208008,-0.5977135300636292,-1.5028542280197144,-0.991057813167572,-0.3665945529937744,0.7259855270385742,0.4826444387435913,-0.5496795177459717,-0.5234194397926331,-0.4369657337665558
274707,9.333518028259276,-0.1710499972105026,3.0649561882019043,0.3645263314247131,-0.4166801869869232,0.2579390704631805,0.7509893178939819,-0.2304807305335998,-0.541309118270874,-0.2997970283031463,9.666569709777832,-0.6367038488388062,-1.491912603378296,-0.7300388216972351,-0.2567545175552368,0.576433002948761,0.4825432598590851,-0.549788773059845,-0.5233508944511414,-0.4370222091674804
274874,9.325042724609377,-0.1704348921775818,3.0911877155303955,0.5439944863319397,-0.4552016854286194,0.2454144656658172,0.7509702444076538,-0.2304691076278686,-0.5413461923599243,-0.2997869551181793,9.655667304992676,-0.6527328491210938,-1.4856748580932615,-0.2484815716743469,-0.0891578048467636,0.3830058872699737,0.4824860990047455,-0.5498320460319519,-0.5233238339424133,-0.4370629787445068
275041,9.319063186645508,-0.1853691339492797,3.082186460494995,0.6616336107254028,-0.4182169735431671,0.1947653740644455,0.7509444952011108,-0.2304597496986389,-0.5413765907287598,-0.299803614616394,9.65822696685791,-0.6455661654472351,-1.51908278465271,0.3714930415153503,-0.0352302677929401,0.2459651678800583,0.4824868440628052,-0.549802303314209,-0.5233602523803711,-0.4370562136173248
275207,9.31378936767578,-0.172781154513359,3.08479642868042,0.8196767568588257,-0.4446364343166351,0.157639741897583,0.7509149312973022,-0.2304416894912719,-0.5414131283760071,-0.2998254299163818,9.651446342468262,-0.6161481738090515,-1.503113865852356,0.8141444325447083,0.1997854560613632,0.1294785887002945,0.48257777094841,-0.549663782119751,-0.5234753489494324,-0.4369919896125793
275374,9.31713581085205,-0.1659431755542755,3.101229667663574,0.6265571117401123,-0.402887761592865,0.1062606945633888,0.750880241394043,-0.2304383665323257,-0.5414382219314575,-0.2998696863651275,9.657379150390623,-0.5740256905555725,-1.4895002841949463,1.0090186595916748,0.3797274529933929,0.1083353161811828,0.4826655983924866,-0.5495355725288391,-0.5235522985458374,-0.4369640350341797
275541,9.325733184814451,-0.1387465149164199,3.08125638961792,0.5654579401016235,-0.4966174066066742,0.0552401877939701,0.7508583068847656,-0.230397343635559,-0.5414913296699524,-0.2998600304126739,9.640055656433104,-0.542677640914917,-1.4806795120239258,0.909526228904724,0.3894475102424621,0.1680513173341751,0.4827364385128021,-0.549434244632721,-0.5236003398895264,-0.4369556307792663
275707,9.32116985321045,-0.1414071917533874,3.051198482513428,0.4969439804553985,-0.5157372951507568,0.1798843890428543,0.7508277297019958,-0.2303929626941681,-0.5415310859680176,-0.2998682260513305,9.647974014282228,-0.5210930109024048,-1.4998760223388672,0.5267186760902405,0.3518736660480499,0.3682913482189178,0.4828042089939117,-0.5493545532226562,-0.5236349105834961,-0.4369394481182098
275874,9.331222534179688,-0.1437563747167587,3.047025203704834,0.586396336555481,-0.5268787741661072,0.1656565219163894,0.7508052587509155,-0.2303657233715057,-0.5415817499160767,-0.2998540699481964,9.638593673706056,-0.5222943425178528,-1.5020785331726074,0.019151896238327,0.1614944785833358,0.6026860475540161,0.4828421771526336,-0.5493267178535461,-0.5236467719078064,-0.4369184374809265
276041,9.33918285369873,-0.1459128409624099,3.046334981918335,0.4735980033874511,-0.4288462102413177,0.2037169933319091,0.7507817149162292,-0.2303609997034073,-0.5416103601455688,-0.2998649477958679,9.643507957458496,-0.5447100400924683,-1.517824649810791,-0.3356032073497772,0.0177560038864612,0.6827641129493713,0.4828256666660309,-0.5493621230125427,-0.5236152410507202,-0.4369300007820129
276207,9.339879989624023,-0.1461989283561706,3.035277366638184,0.5642797946929932,-0.3176998794078827,0.2866765260696411,0.7507748007774353,-0.2303460389375686,-0.5416289567947388,-0.2998603582382202,9.649580001831056,-0.5720351338386536,-1.5087929964065552,-0.3983415067195892,-0.0820246636867523,0.7862778306007385,0.4827698171138763,-0.549455463886261,-0.5235365033149719,-0.4369686841964721
276374,9.337627410888672,-0.1386708319187164,3.057102680206299,0.5710030794143677,-0.2553842067718506,0.3281690776348114,0.7507707476615906,-0.2303377091884613,-0.5416366457939148,-0.2998629808425903,9.658053398132324,-0.5993801951408386,-1.4897717237472534,-0.422711968421936,-0.1196625307202339,0.770308256149292,0.4827055633068084,-0.5495535731315613,-0.5234586596488953,-0.4370095729827881
276541,9.340280532836914,-0.1419215351343155,3.0514557361602783,0.5091228485107422,-0.1578766703605651,0.3555362820625305,0.7507765293121338,-0.2303280532360077,-0.5416325926780701,-0.2998631298542022,9.66004753112793,-0.5948842167854309,-1.4918792247772217,-0.2262753993272781,0.186274766921997,0.6337670087814331,0.482692003250122,-0.549582839012146,-0.5234094262123108,-0.4370467960834503
276707,9.32516098022461,-0.1404305100440979,3.07421875,0.4651970267295837,-0.140524074435234,0.3877570331096649,0.750789225101471,-0.2303140461444854,-0.5416282415390015,-0.2998498976230621,9.655034065246582,-0.6106087565422058,-1.506967306137085,-0.0109878480434417,0.3321134448051452,0.4206821620464325,0.4826987981796264,-0.5495641827583313,-0.5233883261680603,-0.4370877742767334
276874,9.31910228729248,-0.1538091003894806,3.043431043624878,0.4488817453384399,-0.1921080499887466,0.4090027809143066,0.7507967352867126,-0.2303080260753631,-0.5416268110275269,-0.2998383641242981,9.65207576751709,-0.5966508388519287,-1.5155072212219238,0.1792568564414978,0.5240293741226196,0.4830362796783447,0.4827445745468139,-0.5495176315307617,-0.5233686566352844,-0.4371192157268524
277041,9.331476211547852,-0.1663365513086319,3.0701346397399902,0.5051656365394592,-0.1089820340275764,0.4471016526222229,0.7508246302604675,-0.2302763909101486,-0.5416254997253418,-0.2997951209545135,9.652580261230469,-0.5769363045692444,-1.4757583141326904,0.491168349981308,0.6082823276519775,0.571925163269043,0.4828416407108307,-0.5494332909584045,-0.523374617099762,-0.4371110498905182
277207,9.323817253112791,-0.1543229669332504,3.069774866104126,0.7285595536231995,-0.1157693862915039,0.6461890935897827,0.7508485913276672,-0.2302726507186889,-0.5416120290756226,-0.2997621893882751,9.64364528656006,-0.5610198378562927,-1.480242133140564,0.3665753602981567,0.732337474822998,0.5414204001426697,0.4828986227512359,-0.54939204454422,-0.5233184695243835,-0.4371671080589294
277374,9.333747863769531,-0.1592390835285186,3.0661263465881348,0.7515854835510254,-0.0990699231624603,0.6246232986450195,0.7508777379989624,-0.2302565276622772,-0.5416014790534973,-0.2997206747531891,9.622268676757812,-0.553388774394989,-1.458478569984436,0.5011828541755676,0.8243895769119263,0.6767195463180542,0.4829960763454437,-0.5493278503417969,-0.5232728123664856,-0.4371947944164276
277541,9.324443817138672,-0.1419971138238906,3.039811849594116,0.7538776993751526,-0.1545982360839843,0.6211143136024475,0.7509026527404785,-0.2302411645650863,-0.5415975451469421,-0.2996771335601806,9.606209754943848,-0.5703538656234741,-1.4846035242080688,0.3972593247890472,0.4522882401943207,0.9650415778160096,0.4830630719661712,-0.5493298768997192,-0.5232093930244446,-0.4371941685676574
277707,9.352787017822266,-0.1591397374868393,3.053114175796509,1.0226318836212158,0.0350701920688152,0.7404183149337769,0.7509558796882629,-0.2301991283893585,-0.5415799021720886,-0.2996079623699188,9.61090850830078,-0.5870581269264221,-1.457414150238037,0.5004657506942749,0.2039731293916702,0.978680431842804,0.4831607639789581,-0.5492922067642212,-0.5232216119766235,-0.4371189177036285
277874,9.319073677062988,-0.1645072400569915,3.0557918548583984,1.0273703336715698,0.0784196928143501,0.6936624050140381,0.7510077357292175,-0.2301562130451202,-0.5415569543838501,-0.2995524704456329,9.645462036132812,-0.6012316346168518,-1.4676766395568848,0.6219468116760254,0.1751204431056976,1.0893529653549194,0.4832593202590942,-0.5492720007896423,-0.5232181549072266,-0.4370396733283996
278041,9.321043014526367,-0.156819999217987,3.045466899871826,0.9376874566078186,0.1137011870741844,1.065136194229126,0.7510859966278076,-0.2301317453384399,-0.5415219664573669,-0.2994383573532104,9.634441375732422,-0.5976552963256836,-1.4759416580200195,0.7713072896003723,0.042882066220045,1.2858023643493652,0.4833984076976776,-0.5492323040962219,-0.5232519507408142,-0.4368951916694641
278207,9.303960800170898,-0.1355608701705932,3.0754053592681885,0.551358163356781,0.3565607964992523,1.110381007194519,0.751163899898529,-0.2301576733589172,-0.5414354205131531,-0.2993795573711395,9.683215141296388,-0.5832913517951965,-1.477495551109314,0.7891209125518799,0.0789063200354576,1.3047044277191162,0.4835126101970672,-0.5492268204689026,-0.5232438445091248,-0.4367854595184326
278374,9.356980323791504,-0.1415183395147323,3.1035964488983154,0.2565560042858124,0.3572010993957519,0.7150104641914368,0.7512322664260864,-0.2301518768072128,-0.5413631200790405,-0.2993432581424713,9.7081880569458,-0.5405003428459167,-1.488373637199402,0.60105961561203,0.2955257594585418,1.012540578842163,0.4835939705371856,-0.5492165684700012,-0.5232125520706177,-0.4367456138134002
278541,9.380541801452637,-0.1304278522729873,3.100196123123169,0.1812930852174759,0.3979252874851227,0.6867597103118896,0.7512899041175842,-0.2301691323518753,-0.5412756204605103,-0.2993436753749847,9.667375564575195,-0.5694037079811096,-1.495977520942688,-0.0316188782453537,0.5723990201950073,0.5320590138435364,0.4836418032646179,-0.5491635203361511,-0.5231955051422119,-0.4367797970771789
278707,9.319360733032228,-0.1641562581062317,3.114554643630981,0.4010244309902191,0.3187436163425445,1.2448219060897827,0.7513821125030518,-0.2301917970180511,-0.5411950349807739,-0.2992402613162994,9.651006698608398,-0.625457227230072,-1.4889861345291138,-0.1312650889158249,0.5887526869773865,0.4722917377948761,0.4836742281913757,-0.5491170287132263,-0.5231705904006958,-0.4368323981761932
278874,9.299556732177734,-0.1829668432474136,3.096513509750366,0.4872752130031585,0.403060644865036,1.2022793292999268,0.7514768242835999,-0.2302086800336837,-0.541105329990387,-0.2991518378257751,9.649908065795898,-0.6417452096939087,-1.4708911180496216,0.2645087242126465,0.6601096987724304,0.718173623085022,0.4837230741977691,-0.5491003394126892,-0.5230992436408997,-0.4368844628334045
279041,9.291889190673828,-0.1868042349815368,3.0836098194122314,0.2576445341110229,0.1001136302947998,0.8384508490562439,0.7515103816986084,-0.2302603125572204,-0.5410395860671997,-0.2991466224193573,9.642645835876465,-0.6103169322013855,-1.4560699462890625,0.5695047378540039,0.6978242993354797,0.7316331267356873,0.4838013350963592,-0.5490583777427673,-0.5230463147163391,-0.4369138181209564
279207,9.300950050354004,-0.1520853340625763,3.114654541015625,0.2826297283172607,-0.1178440302610397,0.5828618407249451,0.7515257000923157,-0.2302818298339843,-0.5410141944885254,-0.2991374731063843,9.63410186767578,-0.6044910550117493,-1.4435077905654907,0.4750067293643951,0.7208245992660522,0.445821076631546,0.4838947057723999,-0.5489524602890015,-0.5230594277381897,-0.4369279146194458
279374,9.313822746276855,-0.1651780307292938,3.0992915630340576,0.4088234603404999,-0.2600201070308685,0.5870109796524048,0.7515444159507751,-0.2302770763635635,-0.5410175323486328,-0.2990881204605102,9.618001937866213,-0.5975198745727539,-1.4249862432479858,0.3672540485858917,0.4556307196617126,0.2087114751338958,0.4839455783367157,-0.5488516688346863,-0.5231042504310608,-0.4369445741176605
279541,9.309288024902344,-0.1710688769817352,3.078827381134033,0.5298306941986084,-0.1397940963506698,0.7643917202949524,0.751566469669342,-0.2303008437156677,-0.540992259979248,-0.2990597486495971,9.632135391235352,-0.5830863118171692,-1.4553768634796145,0.2716546654701233,0.2735243737697601,0.2676590979099273,0.4839504361152649,-0.5488069653511047,-0.5231148600578308,-0.4369824826717376
279707,9.324426651000977,-0.1870476752519607,3.0751991271972656,0.5089563131332397,-0.0199779048562049,0.7034719586372375,0.7516051530838013,-0.2302978783845901,-0.5409631729125977,-0.2990175485610962,9.6380615234375,-0.5732051134109497,-1.452930569648743,0.2733835279941559,0.0845026969909668,0.6179767847061157,0.4839361310005188,-0.5488328337669373,-0.5230768918991089,-0.4370112419128418
279874,9.321288108825684,-0.2018161118030548,3.103318214416504,0.4385726451873779,-0.047024916857481,0.6357392072677612,0.7516235113143921,-0.2303220331668853,-0.5409258008003235,-0.2990205287933349,9.686925888061523,-0.5700075626373291,-1.4631016254425049,0.1052489802241325,-0.1318413615226745,0.9006897807121277,0.4839502573013305,-0.5488566160202026,-0.5230733752250671,-0.4369700849056244
280041,9.32235622406006,-0.2017275691032409,3.07167387008667,0.5677375793457031,-0.2109462022781372,0.7160991430282593,0.7516345977783203,-0.2303504347801208,-0.5409068465232849,-0.2990052402019501,9.66795539855957,-0.5842239260673523,-1.4585933685302734,0.0167699139565229,-0.0578847005963325,0.955295979976654,0.4839507937431335,-0.5489037036895752,-0.5230358242988586,-0.4369554221630096
280207,9.334029197692873,-0.1855288445949554,3.098510980606079,0.5674685835838318,-0.3143958449363708,0.7856630682945251,0.7516461610794067,-0.2303784042596817,-0.5409013032913208,-0.2989645600318908,9.659676551818848,-0.5993188619613647,-1.462365984916687,-0.1257583498954773,-0.1698378026485443,1.010107159614563,0.4839299917221069,-0.5489776730537415,-0.5229865312576294,-0.4369446039199829
280374,9.33115005493164,-0.1804608553647995,3.1102960109710693,0.6229584217071533,-0.4495540857315063,0.7732537984848022,0.7516530752182007,-0.2303966879844665,-0.5409168004989624,-0.2989052236080169,9.64149284362793,-0.6249985694885254,-1.4752200841903689,0.018319483846426,-0.405961275100708,1.0846915245056152,0.4839147329330444,-0.5490530133247375,-0.5229665637016296,-0.4368905127048492
280541,9.325922012329102,-0.1812012791633606,3.074608087539673,0.6119194030761719,-0.4514878392219543,0.7645198106765747,0.751674473285675,-0.2303871810436248,-0.5409442782402039,-0.2988087832927704,9.65868091583252,-0.6300603151321411,-1.4723210334777832,0.1614304482936859,-0.5272887349128723,1.1256334781646729,0.4839084446430206,-0.5491235256195068,-0.5229672193527222,-0.4368081092834472
280708,9.324926376342772,-0.1866321265697479,3.0854601860046387,0.4967263042926788,-0.407690167427063,0.5754213333129883,0.751663088798523,-0.230418398976326,-0.5409483909606934,-0.2988060712814331,9.674242973327637,-0.6247726678848267,-1.4567617177963257,0.3078198432922363,-0.5743520259857178,1.0573242902755735,0.483917236328125,-0.5491675138473511,-0.5230010151863098,-0.4367025196552276
280874,9.313076972961426,-0.1899252235889434,3.0689616203308105,0.3275287747383117,-0.6067264080047607,0.4711904227733612,0.7516225576400757,-0.2304740101099014,-0.5409678816795349,-0.298829436302185,9.636130332946776,-0.614020586013794,-1.4516769647598269,0.3083961009979248,-0.3595382571220398,0.9687042832374572,0.4839160144329071,-0.5492162108421326,-0.5229995250701904,-0.4366444945335388
281041,9.306299209594728,-0.1905935704708099,3.0593817234039307,0.3610813915729522,-0.7917268872261047,0.5842959880828857,0.7515864372253418,-0.2305188775062561,-0.5410156846046448,-0.2987992763519287,9.62052059173584,-0.6131677031517029,-1.4742858409881592,0.3661527335643768,-0.5966734886169434,1.0894808769226074,0.4839008450508117,-0.5492945313453674,-0.5229985117912292,-0.4365639984607696
281208,9.313469886779783,-0.1887486428022384,3.0588409900665283,0.2794281244277954,-0.6058299541473389,0.5028477311134338,0.751552402973175,-0.2305702865123748,-0.5410370826721191,-0.2988063097000122,9.629162788391112,-0.5910804867744446,-1.473398208618164,0.4166609346866607,-0.6822198033332825,1.0986502170562744,0.4838997721672058,-0.5493557453155518,-0.5230271816253662,-0.4364539086818695
281374,9.318466186523438,-0.1641729474067688,3.054295539855957,0.3370439112186432,-0.5603033900260925,0.2197377383708953,0.7515093088150024,-0.2305956184864044,-0.5410633683204651,-0.2988475859165191,9.64373779296875,-0.5708569288253784,-1.5077260732650757,0.0029262509196996,-0.7610173225402832,0.686593234539032,0.4838263988494873,-0.5494276881217957,-0.523059606552124,-0.4364059567451477
281541,9.328058242797852,-0.1846863776445388,3.0842525959014893,0.3558692336082458,-0.3529301881790161,0.6815218329429626,0.7515151500701904,-0.2306230962276458,-0.5410625338554382,-0.2988131642341614,9.69018268585205,-0.6106992363929749,-1.4902093410491943,-0.2391713708639145,-0.5109861493110657,0.8054553270339966,0.4837400317192077,-0.5495331883430481,-0.5230242013931274,-0.436410903930664
281708,9.348301887512209,-0.1951134204864502,3.0746841430664062,0.3216378688812256,-0.4697754085063934,0.7392786145210266,0.7515057921409607,-0.2306783944368362,-0.5410645008087158,-0.2987904250621795,9.682567596435549,-0.6419221758842468,-1.4912453889846802,-0.2883733808994293,-0.1242984384298324,1.071590542793274,0.4837320446968078,-0.5495941638946533,-0.5229847431182861,-0.4363905191421509
281874,9.324864387512209,-0.2039829641580581,3.11093544960022,0.26170414686203,-0.6027308106422424,0.4704348444938659,0.7514784336090088,-0.2307132631540298,-0.5410925149917603,-0.2987817525863647,9.680214881896973,-0.6179016828536987,-1.501752853393555,-0.166392907500267,0.1496358066797256,1.196324348449707,0.4837588965892792,-0.5496428608894348,-0.5229191780090332,-0.436378002166748
282041,9.33021354675293,-0.1867137849330902,3.096312522888184,0.0009028476197272,-0.6614992022514343,0.3651666641235351,0.7514361143112183,-0.2307648807764053,-0.5411213040351868,-0.2987960875034332,9.66335391998291,-0.6197405457496643,-1.4813416004180908,-0.1393330842256546,0.379765897989273,1.1252362728118896,0.4838092029094696,-0.5496585965156555,-0.5228567123413086,-0.436377078294754
282208,9.328615188598633,-0.1750267446041107,3.087643623352051,0.0315356329083442,-0.6284331679344177,0.2435319423675537,0.7513852119445801,-0.2308158874511718,-0.5411454439163208,-0.2988409698009491,9.640228271484377,-0.6344156265258789,-1.4846123456954956,-0.0221293736249208,0.3564967513084411,0.7241030335426331,0.4838217794895172,-0.5496612787246704,-0.5228093862533569,-0.4364165663719177
283708,9.316778182983398,-0.1950105875730514,3.082608461380005,0.2248858958482742,-0.4492979645729065,0.5111974477767944,0.7510789036750793,-0.2309148013591766,-0.5413886308670044,-0.2990937232971191,9.63401985168457,-0.6350557208061218,-1.479841709136963,0.0385278984904289,0.2481806427240371,0.4881075620651245,0.483827531337738,-0.5496342182159424,-0.5228079557418823,-0.4364458918571472
283874,9.343761444091797,-0.1806932836771011,3.0592103004455566,0.4975588023662567,-0.4436247944831848,0.6481613516807556,0.7510911226272583,-0.2309087663888931,-0.5414109230041504,-0.2990277111530304,9.654776573181152,-0.6243345141410828,-1.4802426099777222,0.1775280088186264,0.29961097240448,0.2228112667798996,0.4838510155677795,-0.5495502948760986,-0.5228584408760071,-0.4364650547504425
284041,9.333780288696287,-0.1938931494951248,3.0600175857543945,0.514488697052002,-0.3858169019222259,0.6828665733337402,0.7511029243469238,-0.2309141159057617,-0.5414206385612488,-0.2989762127399444,9.658284187316896,-0.5954957604408264,-1.4727178812026978,0.2657637596130371,0.4434134364128113,0.305732399225235,0.4838811755180359,-0.5494768619537354,-0.5228768587112427,-0.4365020096302032
284208,9.319639205932615,-0.1952531188726425,3.071666955947876,0.6809583902359009,-0.5463829040527344,0.7618561387062073,0.7511057257652283,-0.2309247106313705,-0.5414479374885559,-0.2989118099212646,9.632171630859377,-0.5641002058982849,-1.473061203956604,0.1315532177686691,0.3790359199047088,0.2623828649520874,0.4839208722114563,-0.5493796467781067,-0.5229312777519226,-0.4365150928497314
284374,9.327802658081056,-0.2092905938625335,3.0525898933410645,0.8095470070838928,-0.5561413764953613,0.7516879439353943,0.7511098384857178,-0.2309242337942123,-0.5414804816246033,-0.2988427281379699,9.647215843200684,-0.5437942743301392,-1.4612022638320925,-0.3468727767467499,0.2565303742885589,0.209915280342102,0.4839183688163757,-0.5493086576461792,-0.522980272769928,-0.4365485608577728
284541,9.30925464630127,-0.1882302165031433,3.062716245651245,0.7463861107826233,-0.3976371586322784,0.7845233678817749,0.7511296272277832,-0.2309193909168243,-0.5414950251579285,-0.2987706363201141,9.645414352416992,-0.5499389171600342,-1.4752691984176636,-0.8126397728919983,0.1618274450302124,0.2244248837232589,0.4838046133518219,-0.5493583083152771,-0.5229177474975586,-0.4366870820522308
284708,9.337454795837402,-0.1817900985479354,3.035021543502808,0.6658469438552856,-0.4313434958457947,0.8839263319969177,0.751142144203186,-0.2309440970420837,-0.5415010452270508,-0.2987087965011596,9.640694618225098,-0.5775408744812012,-1.493837833404541,-0.9067280292510986,0.1505322456359863,0.5507563948631287,0.4837593734264374,-0.5493713021278381,-0.5228987336158752,-0.4367435872554779
284874,9.351462364196776,-0.1782563924789428,3.0438973903656006,0.6616848707199097,-0.3793368935585022,0.8554706573486328,0.7511647939682007,-0.2309511303901672,-0.5415083765983582,-0.2986331880092621,9.64647388458252,-0.6033152937889099,-1.4712737798690796,-0.9017719626426696,0.051180575042963,0.7496901154518127,0.4836843311786651,-0.5494475364685059,-0.522825300693512,-0.4368189573287964
285041,9.323795318603516,-0.1811173409223556,3.0798346996307373,0.636879026889801,-0.3029341995716095,0.7792728543281555,0.7511813640594482,-0.2309658974409103,-0.5415025353431702,-0.2985909581184387,9.659690856933594,-0.6572061777114868,-1.4614657163619995,0.5238885879516602,0.1439369767904281,0.9942786693572998,0.4837278425693512,-0.5495231747627258,-0.5227193236351013,-0.4368020594120025
285208,9.342529296875,-0.17088283598423,3.045940637588501,0.4909377694129944,-0.4110837876796722,0.8851428627967834,0.7511889934539795,-0.2310096621513366,-0.5414984226226807,-0.2985453307628631,9.643732070922852,-0.6459668874740601,-1.4702109098434448,1.092234492301941,-0.0482031032443046,0.9637611508369446,0.4838162064552307,-0.549483597278595,-0.5227603316307068,-0.4367051124572754
285374,9.332978248596191,-0.1879048645496368,3.070991277694702,0.3584689795970917,-0.3857785165309906,0.8301268219947815,0.7511947751045227,-0.2310568243265152,-0.5414900183677673,-0.2985095083713531,9.649080276489258,-0.5888366103172302,-1.4887328147888184,1.6817489862442017,-0.2708414793014526,1.1246087551116943,0.4842053651809692,-0.5492908358573914,-0.52301025390625,-0.4362169802188873
285541,9.34091091156006,-0.1762939244508743,3.076314926147461,0.300135999917984,-0.3862010836601257,0.7720627784729004,0.7512128353118896,-0.2310738563537597,-0.5414954423904419,-0.2984406352043152,9.664904594421388,-0.5825138092041016,-1.4976905584335327,1.3104928731918335,-0.2507867217063904,1.2674379348754885,0.484315425157547,-0.5492703318595886,-0.5230565071105957,-0.4360649585723877
285708,9.321829795837402,-0.1909822821617126,3.061615228652954,0.3674717843532562,-0.4188828766345978,0.7022809386253357,0.7512109279632568,-0.231111079454422,-0.5414952635765076,-0.2984172105789184,9.678363800048828,-0.5916522145271301,-1.4806318283081057,0.9515310525894164,-0.0699867010116577,1.3485023975372314,0.4844488799571991,-0.5492289662361145,-0.5231058597564697,-0.4359096884727478
285874,9.320011138916016,-0.1821040511131286,3.039919137954712,0.4531078636646271,-0.259623110294342,0.615671694278717,0.7512315511703491,-0.2311046421527862,-0.5414934754371643,-0.2983734905719757,9.650850296020508,-0.5978485941886902,-1.472536563873291,0.6407337188720703,-0.0590628869831562,1.3827593326568604,0.4845096170902252,-0.5492722988128662,-0.5230652689933777,-0.4358362257480621
286041,9.356678009033203,-0.1878905147314071,3.033982515335083,0.6856199502944946,-0.1636523455381393,0.3804830610752105,0.7512438893318176,-0.2310753017663955,-0.5414878726005554,-0.29837566614151,9.66057586669922,-0.6137663125991821,-1.474532127380371,0.2385887056589126,-0.0708319246768951,1.397435426712036,0.4845561385154724,-0.5493236184120178,-0.5230230689048767,-0.4357705414295196
286208,9.308489799499512,-0.2125158905982971,3.039078950881958,0.6133792996406555,-0.0901054739952087,0.5942594408988953,0.751275897026062,-0.2310540825128555,-0.541469931602478,-0.2983438074588775,9.634795188903809,-0.6267609000205994,-1.4732433557510376,0.0846947953104972,-0.0800653025507927,1.2081190347671509,0.484595239162445,-0.5493500828742981,-0.5230105519294739,-0.4357085525989532
286374,9.291730880737305,-0.1902083456516266,3.0380167961120605,0.625430166721344,-0.19705131649971,0.7355903387069702,0.751298189163208,-0.2310618758201599,-0.5414530038833618,-0.2983123362064361,9.603459358215332,-0.6432189345359802,-1.459553599357605,-0.1126574650406837,-0.3336950540542602,1.031993389129639,0.4845742881298065,-0.5494099259376526,-0.5229992866516113,-0.4356699287891388
286541,9.342233657836914,-0.1714648306369781,3.0487310886383057,0.5408185720443726,0.1430405229330063,0.4769148826599121,0.7513281106948853,-0.231052964925766,-0.5413997769355774,-0.2983400225639343,9.636825561523438,-0.6576647162437439,-1.4848989248275757,-0.1370535343885421,-0.526443362236023,0.8611821532249451,0.4845340847969055,-0.5494607090950012,-0.5230245590209961,-0.4356203079223633
286708,9.374152183532717,-0.178764209151268,3.0609939098358154,0.1920119971036911,0.2593349516391754,0.186684563755989,0.7513502836227417,-0.2310408502817154,-0.5413345694541931,-0.2984121143817901,9.639423370361328,-0.678159773349762,-1.4844622611999512,-0.0179545022547245,-0.6098127365112305,0.5759592056274414,0.4844664335250854,-0.5495017170906067,-0.5230696201324463,-0.4355896711349487
286874,9.365997314453123,-0.191924050450325,3.072101831436157,0.2945268452167511,0.2683634459972381,0.2533928155899048,0.7513918280601501,-0.230998009443283,-0.5412816405296326,-0.2984366416931152,9.650763511657717,-0.6718370318412781,-1.477399230003357,0.2227024137973785,-0.4138883650302887,0.4861546158790588,0.4844229519367218,-0.5495119094848633,-0.5231173634529114,-0.4355678260326385
287041,9.328508377075195,-0.2202693372964859,3.0788962841033936,0.4607148766517639,0.255723625421524,0.5614112019538879,0.7514475584030151,-0.2309695184230804,-0.5412232875823975,-0.2984241247177124,9.630365371704102,-0.6504977941513062,-1.504152774810791,0.4065311253070831,-0.3792471885681152,0.6066303849220276,0.4844076335430145,-0.5495124459266663,-0.5231688022613525,-0.4355224967002868
287208,9.305384635925291,-0.2357292771339416,3.07214093208313,0.4029453694820404,0.1882853507995605,0.3762184977531433,0.7514790296554565,-0.2309533357620239,-0.5411680936813354,-0.2984576821327209,9.671356201171877,-0.6354562640190125,-1.515124797821045,0.3115848898887634,-0.2002144604921341,0.6151209473609924,0.4844203591346741,-0.5494827628135681,-0.5232295393943787,-0.4354725778102875
287374,9.31279468536377,-0.1988299787044525,3.090958833694458,0.3599032461643219,0.0177688095718622,-0.0089388312771916,0.7514771223068237,-0.2309228330850601,-0.5411404967308044,-0.2985363900661468,9.707032203674316,-0.6064353585243225,-1.4974616765975952,0.1714449971914291,0.0920840501785278,0.2885718643665313,0.4843958020210266,-0.5494529008865356,-0.523250937461853,-0.4355118870735168
287541,9.314260482788086,-0.1851617097854614,3.07749080657959,0.4002816379070282,-0.03220796585083,-0.009630374610424,0.7514789700508118,-0.2308773696422577,-0.5411255955696106,-0.2985934317111969,9.65972900390625,-0.6159731149673462,-1.4894260168075562,-0.3511501252651214,0.2178552150726318,0.0907137691974639,0.4843318164348602,-0.5494298934936523,-0.5232537984848022,-0.4356086552143097
287708,9.302970886230469,-0.1870392113924026,3.0781595706939697,0.4465894103050232,-0.0830619782209396,0.0020554189104586,0.7514795660972595,-0.2308290004730224,-0.5411182641983032,-0.2986426651477813,9.629915237426758,-0.6714505553245544,-1.4869794845581057,-0.3802845776081085,0.2576445341110229,0.4223598539829254,0.4842930436134338,-0.5494269132614136,-0.5232304930686951,-0.4356835484504699
287874,9.313627243041992,-0.1872823536396026,3.080287456512451,0.4717539250850677,-0.0518016815185546,0.1649521887302398,0.7514824867248535,-0.2308050096035003,-0.5410957932472229,-0.2986945807933807,9.632237434387209,-0.6516563892364502,-1.4604192972183228,-0.0279818717390298,0.1996573954820633,0.7198641300201416,0.4843296110630035,-0.5493863821029663,-0.5232523679733276,-0.4356677234172821
288041,9.327760696411133,-0.1925966441631317,3.074075698852539,0.3420895934104919,-0.111171931028366,0.0310361869633197,0.7514805793762207,-0.2307678610086441,-0.5410874485969543,-0.2987433075904846,9.633522987365724,-0.6386390924453735,-1.461356282234192,-0.0463589839637279,0.2066624760627746,0.6799723505973816,0.48433518409729,-0.5493763089179993,-0.5232405066490173,-0.4356884956359863
288208,9.330621719360352,-0.1868206858634948,3.064545154571533,0.1707918792963028,-0.1077782437205314,0.0186780616641044,0.7514644265174866,-0.2307641804218292,-0.5410642027854919,-0.2988289892673492,9.644773483276367,-0.6435778141021729,-1.4870156049728394,-0.146709531545639,0.2664296925067901,0.3467383086681366,0.4843388795852661,-0.5493170619010925,-0.5232740044593811,-0.4357188940048218
288374,9.334173202514648,-0.1767755001783371,3.080444812774658,0.138891264796257,-0.2538474798202514,0.0068193809129297,0.7514302730560303,-0.2307784110307693,-0.5410520434379578,-0.2989258766174316,9.64128303527832,-0.6542099118232727,-1.4679865837097168,-0.0732267051935195,0.2594374418258667,-0.0855848342180252,0.4842812716960907,-0.5492675304412842,-0.5232953429222107,-0.4358197450637817
288541,9.343603134155272,-0.2059680819511413,3.0764036178588867,0.1232291013002395,-0.3630984127521515,0.0524227879941463,0.7513986825942993,-0.2307842075824737,-0.5410578846931458,-0.2989901602268219,9.619622230529783,-0.6412175297737122,-1.4713375568389893,0.0815316215157508,0.1729433387517929,-0.0919880047440528,0.484244704246521,-0.5491932034492493,-0.5233537554740906,-0.4358839094638824
288708,9.342347145080566,-0.1933227777481079,3.046663522720337,0.0975523591041565,-0.3323887884616852,0.0060125808231532,0.7513650059700012,-0.230790764093399,-0.5410592555999756,-0.2990671694278717,9.635854721069336,-0.6333105564117432,-1.4939355850219729,0.0057564540766179,0.0101746441796422,0.0771646574139595,0.4842205941677093,-0.5491228699684143,-0.523431658744812,-0.4359056949615478
288874,9.337960243225098,-0.1799082607030868,3.0881049633026123,0.18947634100914,-0.2989386320114136,0.0487089492380619,0.7513434886932373,-0.2307804375886917,-0.5410637855529785,-0.2991208434104919,9.664068222045898,-0.6024014353752136,-1.4693809747695925,-0.1112871766090393,-0.0105140125378966,0.1608541458845138,0.484199196100235,-0.5490583777427673,-0.523508608341217,-0.435918390750885
289041,9.326841354370115,-0.1896426975727081,3.1062936782836914,0.1367526054382324,-0.2776160538196563,-0.0189277846366167,0.7513247728347778,-0.2307586669921875,-0.5410708785057068,-0.2991717457771301,9.6671142578125,-0.601657509803772,-1.4756468534469604,-0.4148489236831665,-0.0801549479365348,0.0869999453425407,0.484122633934021,-0.5490390062332153,-0.5235494375228882,-0.4359786808490753
289208,9.306474685668944,-0.1883803009986877,3.071239709854126,0.2850501239299774,-0.5979284048080444,0.0036946316249668,0.7512872219085693,-0.2307366728782653,-0.5411181449890137,-0.2991974055767059,9.65266227722168,-0.5921162366867065,-1.4952266216278076,-0.640368640422821,-0.1644207239151001,0.1299396306276321,0.484015554189682,-0.5490545034408569,-0.5235670804977417,-0.4360569417476654
289374,9.30306339263916,-0.1984862983226776,3.0765798091888428,0.2855879962444305,-0.4247097671031952,0.1274423748254776,0.7512558102607727,-0.2307410091161728,-0.5411313772201538,-0.2992494702339172,9.641536712646484,-0.617199718952179,-1.4663021564483645,-0.6616144180297852,-0.3238853812217712,0.3621443510055542,0.4838983118534088,-0.5491122007369995,-0.5235618352890015,-0.4361206889152527
289541,9.329044342041016,-0.1794577538967132,3.0650529861450195,0.2333764880895614,-0.5643758177757263,-0.3012821972370147,0.7511926293373108,-0.2307239472866058,-0.5411714911460876,-0.2993486821651459,9.674988746643066,-0.6334750652313232,-1.4865936040878296,-0.6125788688659668,-0.3355903625488281,0.377191811800003,0.483786940574646,-0.5491660237312317,-0.5235618948936462,-0.4361765682697296
289708,9.318462371826172,-0.1725233942270279,3.0671162605285645,0.1953928917646408,-0.4511548578739166,-0.2565624117851257,0.7511545419692993,-0.2306804209947586,-0.5412092804908752,-0.29940927028656,9.660147666931152,-0.6304066777229309,-1.4747205972671509,-0.5535800457000732,-0.0958170965313911,0.2053946405649185,0.4836957156658172,-0.5491772890090942,-0.5235734581947327,-0.4362495243549347
289874,9.359467506408691,-0.177555114030838,3.045151233673096,0.2601033747196197,-0.4241334795951843,0.1328466683626175,0.7511322498321533,-0.230669766664505,-0.5412291884422302,-0.2994371950626373,9.636788368225098,-0.6309645771980286,-1.4886893033981323,-0.3160478770732879,-0.0264963377267122,0.2589123547077179,0.4836441576480865,-0.5491573810577393,-0.523606538772583,-0.4362920522689819
290041,9.344154357910156,-0.173750028014183,3.074368953704834,0.23933145403862,-0.4091884791851043,-0.051596775650978,0.7510989904403687,-0.2306523025035858,-0.5412501692771912,-0.2994963526725769,9.647380828857422,-0.6566953659057617,-1.4681367874145508,0.1409018486738205,0.0042709172703325,0.3029021620750427,0.4836304187774658,-0.5491110682487488,-0.523658037185669,-0.4363037347793579
290208,9.331966400146484,-0.1754272729158401,3.069201231002808,-0.1197009608149528,-0.4798155128955841,-0.0064672068692743,0.7510545253753662,-0.2306717783212661,-0.5412656664848328,-0.2995648086071014,9.614744186401367,-0.5985172986984253,-1.4773166179656982,0.1930877417325973,0.0555603504180908,0.0396804697811603,0.4836056232452392,-0.549041211605072,-0.5237264633178711,-0.4363370835781097
290374,9.325450897216797,-0.1717118918895721,3.062704086303711,-0.2345995008945465,-0.4072675108909607,-0.1385006755590438,0.7509907484054565,-0.2307196706533432,-0.541259229183197,-0.2996993660926819,9.638626098632812,-0.5983245372772217,-1.4779284000396729,-0.1497446447610855,-0.3321582674980163,-0.2395940274000167,0.4835191071033478,-0.5489827394485474,-0.5238400101661682,-0.4363702833652496
290541,9.315508842468262,-0.1643195748329162,3.060607671737671,-0.0192991681396961,-0.3080567121505737,-0.1478493064641952,0.7509407997131348,-0.230740487575531,-0.5412508845329285,-0.2998234331607818,9.650144577026367,-0.6129404902458191,-1.4915430545806885,-0.2353294789791107,-0.5342040657997131,-0.1571211069822311,0.4834171235561371,-0.5489470362663269,-0.5239588022232056,-0.4363853633403778
290708,9.33346462249756,-0.1650991886854171,3.0826048851013184,0.3123916685581207,-0.3094398081302643,-0.1809152960777282,0.7509055137634277,-0.2307130545377731,-0.5412626266479492,-0.2999117076396942,9.652462005615234,-0.6099579334259033,-1.497801423072815,-0.2090252339839935,-0.4735147655010223,0.1117033809423446,0.4833041727542877,-0.5489685535430908,-0.524006724357605,-0.4364259243011474
290874,9.325189590454102,-0.1768043041229248,3.0714757442474365,0.3639372289180755,-0.4992170929908752,-0.2381340712308883,0.7508628964424133,-0.2306676208972931,-0.5413064956665039,-0.2999742329120636,9.644969940185549,-0.578140377998352,-1.500987887382507,-0.2629271447658539,-0.5209494829177856,0.2964733839035034,0.4832073152065277,-0.5489957928657532,-0.5240563154220581,-0.4364393651485443
291041,9.318201065063477,-0.1664009243249893,3.0449938774108887,0.3050920665264129,-0.5686147212982178,-0.1344794929027557,0.7508156299591064,-0.2306432425975799,-0.5413503646850586,-0.3000325262546539,9.624375343322754,-0.5738954544067383,-1.4831640720367432,-0.4121339321136474,-0.4877426326274872,0.3289503157138824,0.4831072092056274,-0.5490286350250244,-0.5240974426269531,-0.4364596009254455
291208,9.332807540893556,-0.1475149095058441,3.0643014907836914,0.1532471776008606,-0.5772078037261963,-0.2752980887889862,0.7507554888725281,-0.2306260466575622,-0.5413925051689148,-0.3001200258731842,9.655806541442873,-0.5823174118995667,-1.4632874727249146,-0.5929980278015137,-0.5305286645889282,0.1942467093467712,0.4829780757427215,-0.5490697026252747,-0.5241374969482422,-0.4365028142929077
291374,9.364672660827637,-0.1562265902757644,3.033224105834961,0.0289359465241432,-0.584366500377655,-0.145159974694252,0.750702440738678,-0.2306215316057205,-0.5414308905601501,-0.3001870214939117,9.65391445159912,-0.5871896147727966,-1.5056447982788086,-0.7737852931022644,-0.3881092667579651,0.0100978072732687,0.4828247427940368,-0.5491108298301697,-0.5241590142250061,-0.4365948438644409
291541,9.35627269744873,-0.1704526394605636,3.0577855110168457,-0.09951813519001,-0.5389807820320129,-0.011256780475378,0.7506452798843384,-0.2306572943925857,-0.5414465069770813,-0.3002744913101196,9.657637596130373,-0.5995227694511414,-1.47213876247406,-0.7057835459709167,-0.1782643795013427,-0.0900798588991165,0.4827006757259369,-0.5491088032722473,-0.5241972804069519,-0.4366886019706726
291708,9.33409023284912,-0.1885734051465988,3.055608034133911,-0.0564119666814804,-0.5210006833076477,0.1612767577171325,0.7505922913551331,-0.2307119369506836,-0.5414513945579529,-0.30035600066185,9.63964557647705,-0.5850567817687988,-1.4954161643981934,-0.5712528824806213,-0.0911555886268615,-0.1299204379320144,0.4825711846351623,-0.5491136908531189,-0.5242132544517517,-0.4368062615394592
291874,9.329005241394045,-0.1784348636865615,3.037737846374512,0.0760120823979377,-0.5763753652572632,0.339182585477829,0.7505529522895813,-0.230757936835289,-0.5414669513702393,-0.3003907799720764,9.65241241455078,-0.5636066794395447,-1.499872088432312,-0.6654947400093079,-0.1535609364509582,-0.0628151446580886,0.4824497699737549,-0.5491141676902771,-0.5242446660995483,-0.4369021356105804
292041,9.328206062316896,-0.1900936365127563,3.06239914894104,0.295474499464035,-0.6018344163894653,0.3817252814769745,0.75051349401474,-0.2307981997728347,-0.5414872765541077,-0.3004218935966491,9.645546913146973,-0.547660231590271,-1.489449977874756,-0.9197904467582704,-0.2369814962148666,-0.0444508381187915,0.4823125898838043,-0.5491271018981934,-0.5242772698402405,-0.4369982779026031
292208,9.33520793914795,-0.1873728334903717,3.051220178604126,0.4164817333221435,-0.6974338293075562,0.4194015562534332,0.7504833936691284,-0.2308114171028137,-0.5415315628051758,-0.3004071712493896,9.649316787719728,-0.5603713393211365,-1.5010353326797483,-0.901387631893158,-0.436862975358963,0.2367957979440689,0.4821649491786957,-0.5491900444030762,-0.5242837071418762,-0.4370741248130798
292374,9.335573196411133,-0.1736281365156173,3.040345430374145,0.550205647945404,-0.681938111782074,0.4277256727218628,0.7504637241363525,-0.2308023571968078,-0.5415830612182617,-0.300370305776596,9.66029930114746,-0.5699524879455566,-1.4767122268676758,-0.8761335611343384,-0.4323680102825165,0.5890088677406311,0.4820555448532104,-0.5492611527442932,-0.5242816805839539,-0.4371080100536346
292541,9.335686683654783,-0.1520800590515136,3.053339719772339,0.5332755446434021,-0.6310712695121765,0.4362418949604034,0.7504419684410095,-0.2308045625686645,-0.5416231155395508,-0.3003506064414978,9.650019645690918,-0.5898826718330383,-1.4864503145217896,-0.6461571455001831,-0.4311001002788543,0.7972400784492493,0.481964498758316,-0.5493483543395996,-0.5242591500282288,-0.4371258020401001
292708,9.327313423156738,-0.1742631942033767,3.0629801750183105,0.5926586985588074,-0.7093053460121155,0.4212841391563415,0.7504026293754578,-0.2308259308338165,-0.5416644215583801,-0.3003580570220947,9.645848274230955,-0.6190431714057922,-1.4866220951080322,-0.3072755336761474,-0.4509371519088745,0.8181528449058533,0.4818682670593261,-0.5494531989097595,-0.5242161750793457,-0.4371516108512878
292874,9.337940216064451,-0.1592109948396682,3.041999101638794,0.5091356635093689,-0.7003281116485596,0.4148297309875488,0.7503839135169983,-0.2308126986026764,-0.541720449924469,-0.3003138899803161,9.631863594055176,-0.6260800957679749,-1.4989598989486694,0.1004978194832801,-0.5792055726051331,0.8606442809104919,0.4818387329578399,-0.549491286277771,-0.5242581963539124,-0.4370858669281006
293041,9.34140396118164,-0.1642631739377975,3.043442249298096,0.4408009350299835,-0.6524322628974915,0.4252412319183349,0.7503564357757568,-0.2308260202407837,-0.5417588949203491,-0.300303190946579,9.636858940124512,-0.6459624767303467,-1.4832448959350586,0.5947973728179932,-0.6068673133850098,0.7677727937698364,0.4818356931209564,-0.549495279788971,-0.5243350267410278,-0.4369921684265136
293208,9.332598686218262,-0.1538691371679306,3.018631935119629,0.4430420398712158,-0.7180135846138,0.4821142554283142,0.7503296732902527,-0.230839729309082,-0.541805624961853,-0.3002750277519226,9.62576389312744,-0.6103861331939697,-1.5061092376708984,0.9569993615150452,-0.6639580726623535,0.7527379989624023,0.4818455278873443,-0.549490213394165,-0.5244244337081909,-0.4368803799152374
293374,9.343482971191406,-0.1543547958135604,3.0385358333587646,0.410142570734024,-0.6290735602378845,0.5069073438644409,0.7503085732460022,-0.2308572977781295,-0.5418394804000854,-0.3002531230449676,9.66108512878418,-0.5941048860549927,-1.5049299001693726,1.1295137405395508,-0.5986328721046448,0.7577581405639648,0.4818860590457916,-0.5494548082351685,-0.5245357751846313,-0.4367464482784271
293541,9.336790084838867,-0.1505123674869537,3.0473554134368896,0.2422385066747665,-0.5588178634643555,0.5902253985404968,0.7503005862236023,-0.2308786064386367,-0.541863739490509,-0.300212949514389,9.640396118164062,-0.5648288130760193,-1.5068858861923218,1.1806879043579102,-0.6054842472076416,0.798187792301178,0.4819230437278747,-0.5494313836097717,-0.5246347188949585,-0.436616450548172
293708,9.338244438171388,-0.1556292325258255,3.058981418609619,0.2484111487865448,-0.5606235265731812,0.5756646394729614,0.7502872347831726,-0.2309073656797409,-0.5418848395347595,-0.3001863360404968,9.640267372131348,-0.5628359913825989,-1.516610860824585,0.9388397932052612,-0.6831034421920776,0.9725334644317628,0.4819524586200714,-0.5494349598884583,-0.5247184038162231,-0.436478853225708
293874,9.330145835876465,-0.1590339392423629,3.03989052772522,0.2500503957271576,-0.4358000755310058,0.475877583026886,0.7502745389938354,-0.2309312671422958,-0.5418918132781982,-0.3001871407032013,9.625675201416016,-0.5332549214363098,-1.5173496007919312,0.5559556484222412,-0.724557638168335,0.9847122430801392,0.4819514453411102,-0.5494651198387146,-0.5247838497161865,-0.4363631010055542
294041,9.344738006591797,-0.165538802742958,3.041964292526245,0.233466163277626,-0.4243639707565307,0.5444555282592773,0.7502604126930237,-0.2309710383415222,-0.5418905019760132,-0.3001943826675415,9.638708114624023,-0.5453757643699646,-1.5001952648162842,-0.0971361622214317,-0.7396690845489502,1.1089850664138794,0.4819100797176361,-0.5495448708534241,-0.5248063802719116,-0.4362812638282776
294208,9.324971199035645,-0.1855765432119369,3.03411865234375,0.2229649424552917,-0.5897195935249329,0.5011060833930969,0.7502443790435791,-0.2309910655021667,-0.5419191122055054,-0.3001672327518463,9.645812034606934,-0.577190637588501,-1.5176469087600708,-0.4939665496349334,-0.6462468504905701,1.168278455734253,0.4818551540374756,-0.549642026424408,-0.5248017907142639,-0.4362249672412872
294374,9.35414981842041,-0.1802551597356796,3.008455753326416,0.3449070155620575,-0.4185115098953247,0.3715314269065857,0.7502303123474121,-0.2309985011816024,-0.541930615901947,-0.3001758158206939,9.653366088867188,-0.6018164157867432,-1.5246436595916748,-0.573647677898407,-0.535740852355957,1.0733321905136108,0.4817900061607361,-0.549737811088562,-0.5247843265533447,-0.4361975193023681
294541,9.367817878723145,-0.1891493946313858,3.0049402713775635,0.5984726548194885,-0.2524515688419342,0.3811489343643188,0.7502439618110657,-0.2309609949588775,-0.5419398546218872,-0.3001540899276733,9.667410850524902,-0.6414180397987366,-1.5219515562057495,-0.5431044697761536,-0.286452442407608,0.9432709217071532,0.4817245900630951,-0.5498224496841431,-0.5247434973716736,-0.4362122416496277
294708,9.34650707244873,-0.2022309452295303,3.007840633392334,0.5156668424606323,-0.3835629522800445,0.4829978346824646,0.7502493262290955,-0.2309450656175613,-0.5419570803642273,-0.3001214861869812,9.63985824584961,-0.6391450762748718,-1.5436596870422363,-0.4154379665851593,-0.171720340847969,0.7711406946182251,0.4816854894161224,-0.5498553514480591,-0.5247407555580139,-0.436217337846756
294874,9.315762519836426,-0.1752890944480896,3.008023262023926,0.56462562084198,-0.1275768429040908,0.682584822177887,0.7502887845039368,-0.2309218049049377,-0.5419449210166931,-0.3000626266002655,9.61208724975586,-0.6456699371337891,-1.5350404977798462,-0.098519243299961,-0.1589780151844024,0.6888214945793152,0.4816657304763794,-0.5498611330986023,-0.5247616171836853,-0.4362068176269531
295041,9.353798866271973,-0.1644161343574524,3.037573337554932,0.3728761076927185,0.071107268333435,0.4030094444751739,0.7503114938735962,-0.2309146672487259,-0.5419007539749146,-0.3000909984111786,9.626867294311523,-0.6208617687225342,-1.524379849433899,0.0168851725757122,-0.2260960936546325,0.6030829548835754,0.4816333651542663,-0.5498709082603455,-0.5247859358787537,-0.4362007975578308
295208,9.398040771484377,-0.1561196446418762,3.044150352478028,0.2451071292161941,0.2099280804395675,0.136573314666748,0.7503395080566406,-0.230875477194786,-0.5418532490730286,-0.3001369833946228,9.653027534484863,-0.6385818719863892,-1.5336421728134155,0.2964477837085724,-0.1514478772878646,0.5128110647201538,0.4816464483737945,-0.5498214364051819,-0.5248600244522095,-0.4361594915390014
295374,9.378972053527832,-0.1610187292098999,3.0412423610687256,0.4123836159706116,0.3069489598274231,0.5495012402534485,0.7503814101219177,-0.2308787256479263,-0.541774332523346,-0.300172358751297,9.613574981689451,-0.6291863918304443,-1.5273443460464478,0.6719300150871277,-0.1118378564715385,0.6217930912971497,0.4816807508468628,-0.5497739911079407,-0.5249224901199341,-0.436106264591217
295541,9.34177303314209,-0.1893063187599182,3.0433878898620605,0.410462737083435,0.186658963561058,0.718890905380249,0.7504397630691528,-0.2308657616376876,-0.5417183041572571,-0.3001372814178467,9.646994590759276,-0.6136505603790283,-1.533686280250549,0.7934877872467041,-0.111530490219593,0.937341570854187,0.4817598462104797,-0.5497244596481323,-0.5249860286712646,-0.4360047876834869
295708,9.31221866607666,-0.1803981959819793,3.052725553512573,0.4094125926494598,0.1109221950173378,0.3997950255870819,0.7504910826683044,-0.2308072596788406,-0.5416916608810425,-0.3001022338867187,9.66852569580078,-0.5853674411773682,-1.552704095840454,0.7581038475036621,-0.0766844153404235,0.8432533144950867,0.4818308353424072,-0.5496702790260315,-0.5250503420829773,-0.435917317867279
295874,9.322589874267578,-0.1802016347646713,3.043355703353882,0.1879139840602874,0.0758840218186378,0.3288094103336334,0.7505063414573669,-0.2308111190795898,-0.541642963886261,-0.3001488447189331,9.675844192504885,-0.5560609698295593,-1.542854905128479,0.1741215288639068,0.1061838567256927,0.334546685218811,0.4818312227725982,-0.5496132969856262,-0.5250981450080872,-0.4359310865402221
296041,9.317131996154783,-0.1591626852750778,3.0527470111846924,0.1918070912361145,0.0805071145296096,0.2380892485380172,0.750524640083313,-0.2307952791452407,-0.5416023135185242,-0.3001887202262878,9.662385940551758,-0.5894626975059509,-1.539689540863037,-0.2511581778526306,0.2662248611450195,0.3177191317081451,0.4817852973937988,-0.5496031641960144,-0.5250788331031799,-0.4360178411006927
296208,9.333550453186035,-0.1738072484731674,3.038170576095581,0.5215961933135986,0.0433302819728851,0.4776575863361358,0.750559389591217,-0.230767473578453,-0.5415704250335693,-0.3001807630062103,9.64409637451172,-0.6314050555229187,-1.5214977264404297,-0.2640028893947601,0.4230642020702362,0.6907553672790527,0.4817824363708496,-0.5496023893356323,-0.525028645992279,-0.4360824525356293
296374,9.348111152648926,-0.1772300750017166,3.0476136207580566,0.5464405417442322,0.2324032187461853,0.6096911430358887,0.7506217956542969,-0.2307279556989669,-0.5415194630622864,-0.300147145986557,9.623632431030272,-0.6115146279335022,-1.5160902738571167,-0.011346423998475,0.5670714974403381,1.04780912399292,0.4818287789821625,-0.5496076941490173,-0.5249497890472412,-0.4361194968223572
296541,9.353094100952148,-0.1829337328672409,3.02461314201355,0.4267395734786987,0.2112599462270736,0.4327713549137115,0.7506639957427979,-0.2307011038064956,-0.5414661169052124,-0.3001585006713867,9.611248970031738,-0.5964430570602417,-1.5223437547683716,-0.0772735103964805,0.648481547832489,0.9406071305274964,0.4818927049636841,-0.5495755672454834,-0.524900496006012,-0.4361487627029419
296708,9.34957218170166,-0.1842785626649856,3.0514698028564453,0.5551872253417969,0.154182031750679,0.523068904876709,0.7507128715515137,-0.2306643575429916,-0.5414241552352905,-0.3001402616500854,9.627803802490234,-0.613071084022522,-1.5218929052352903,-0.2532327473163605,0.643691897392273,0.546555757522583,0.4819115996360779,-0.5495332479476929,-0.5248637795448303,-0.4362255036830902
296874,9.346059799194336,-0.178488627076149,3.067366123199463,0.5052552819252014,0.0858217477798461,0.5471320152282715,0.7507490515708923,-0.2306504100561142,-0.5413811802864075,-0.3001380264759063,9.627314567565918,-0.6287437081336975,-1.5095313787460327,-0.1555715203285217,0.5675838589668274,0.2697721421718597,0.4819196164608001,-0.5494616031646729,-0.5248674154281616,-0.4363023936748504
297041,9.345813751220703,-0.1879118382930755,3.042572498321533,0.3888071477413177,-0.0207590907812118,0.5351837277412415,0.7507642507553101,-0.2306679636240005,-0.5413385629653931,-0.300163209438324,9.636818885803224,-0.6301348209381104,-1.4953336715698242,0.0763322561979293,0.4415949881076813,0.3969904482364654,0.4819560647010803,-0.5493776798248291,-0.5248990654945374,-0.4363297820091247
297208,9.338260650634766,-0.1866565644741058,3.051337957382202,0.4311065375804901,0.022353483363986,0.5558403730392456,0.7507938146591187,-0.2306651175022125,-0.5412992238998413,-0.3001626133918762,9.637797355651855,-0.5924988389015198,-1.5065524578094482,0.2712448835372925,0.314453512430191,0.5711055397987366,0.481991708278656,-0.5493240356445312,-0.5249139070510864,-0.4363402128219604
297375,9.338311195373535,-0.1739681363105774,3.0653929710388184,0.4224494397640228,0.0398213453590869,0.5687747597694397,0.7508299350738525,-0.2306535094976425,-0.5412615537643433,-0.3001489341259002,9.654779434204102,-0.5964112281799316,-1.5210860967636108,0.3943395018577575,0.4016775488853454,0.5366820693016052,0.4820283055305481,-0.5492690801620483,-0.5249167680740356,-0.436365395784378
297541,9.326287269592283,-0.1693942099809646,3.0704171657562256,0.3533720076084137,-0.0369335114955902,0.4521858394145965,0.7508587837219238,-0.2306329160928726,-0.5412378311157227,-0.300135463476181,9.661494255065918,-0.6018396615982056,-1.506404995918274,0.3867453932762146,0.3098176419734955,0.7418014407157898,0.4820972084999084,-0.5492030382156372,-0.5249443054199219,-0.4363391399383545
297708,9.324678421020508,-0.1707674711942672,3.04945707321167,0.4398532807826996,-0.1623460948467254,0.3862202763557434,0.7508691549301147,-0.2306189835071563,-0.5412268042564392,-0.300140231847763,9.655292510986328,-0.6129530668258667,-1.5090430974960327,0.3351613879203796,0.3206645846366882,0.7430307865142822,0.4821355938911438,-0.5491737723350525,-0.524931788444519,-0.436348557472229
297875,9.318172454833984,-0.1845108419656753,3.0401158332824707,0.3992187082767486,-0.0710624232888221,0.5246953368186951,0.7508941888809204,-0.2306112200021743,-0.5412017107009888,-0.3001287579536438,9.631309509277344,-0.6167594790458679,-1.506422996520996,0.3597495555877685,0.2448509931564331,0.8088809847831726,0.4821978807449341,-0.5491241216659546,-0.5249512195587158,-0.4363189339637756
298041,9.336676597595217,-0.1775910407304763,3.026107788085937,0.2457858473062515,-0.0620467588305473,0.0498871318995952,0.7508931756019592,-0.2305839508771896,-0.5411841869354248,-0.3001839220523834,9.658949851989746,-0.603713870048523,-1.5008684396743774,0.385080486536026,0.3054122030735016,0.7879682779312134,0.4822586178779602,-0.5490753650665283,-0.5249611735343933,-0.4363012909889221
298208,9.351567268371582,-0.1489704847335815,3.0365684032440186,0.3915093541145324,0.1946117132902145,0.2258079797029495,0.7509194016456604,-0.2305535674095153,-0.5411348342895508,-0.3002303540706634,9.66055393218994,-0.59757399559021,-1.4910558462142944,0.3511053025722503,0.519495964050293,0.6691125631332397,0.4823299348354339,-0.5490015745162964,-0.524968147277832,-0.4363070130348205
298375,9.358119010925291,-0.1844536215066909,3.050973415374756,0.3137363493442535,0.0686868503689765,0.3253773152828216,0.7509445548057556,-0.2305316627025604,-0.5410985350608826,-0.3002497553825378,9.630982398986816,-0.6299518346786499,-1.532823920249939,0.1812546700239181,0.5640107989311218,0.6342792510986328,0.482369065284729,-0.5489584803581238,-0.5249378085136414,-0.4363541007041931
298541,9.341121673583984,-0.1891920119524002,3.0591015815734863,0.1918583214282989,-0.0544269829988479,0.1864540576934814,0.7509446144104004,-0.2305273115634918,-0.5410708785057068,-0.300303041934967,9.627894401550291,-0.6303066611289978,-1.4925775527954102,0.409771203994751,0.6354703307151794,0.6536296606063843,0.4824382960796356,-0.548890233039856,-0.5249223113059998,-0.4363820552825928
298708,9.335535049438477,-0.1801514476537704,3.06229567527771,0.0587875470519065,0.0100465808063745,0.205471470952034,0.7509500980377197,-0.2305288165807724,-0.5410328507423401,-0.3003562986850738,9.612194061279297,-0.5751041769981384,-1.5145773887634275,0.2633817791938782,0.369636058807373,0.3075380623340606,0.4824472963809967,-0.5488315224647522,-0.5249341726303101,-0.4364319145679474
298875,9.321863174438477,-0.1770294159650802,3.0518136024475098,0.0506042912602424,0.0587235130369663,0.1774127632379531,0.7509540319442749,-0.2305339276790619,-0.5409870743751526,-0.3004249036312103,9.642520904541016,-0.5806223154067993,-1.5197020769119265,-0.0771454572677612,0.1884518563747406,0.0738222151994705,0.4824015498161316,-0.5487879514694214,-0.5249587297439575,-0.4365078508853912
299041,9.32079029083252,-0.1994665414094925,3.067945957183838,0.2128863334655761,-0.0347436219453811,0.0711584761738777,0.7509541511535645,-0.2305118888616562,-0.5409643650054932,-0.3004822731018066,9.656464576721191,-0.600169837474823,-1.502779483795166,-0.2827129662036896,0.2229393273591995,0.1216282993555069,0.4823457598686218,-0.5487581491470337,-0.5249663591384888,-0.4365975558757782
299208,9.326448440551758,-0.1903723627328872,3.050386667251587,0.4117561876773834,-0.0641726329922676,0.1048776060342788,0.7509552836418152,-0.2304815649986267,-0.5409483909606934,-0.300531804561615,9.652594566345217,-0.5996620059013367,-1.495877385139465,-0.3911187052726745,0.2134754508733749,0.3646543622016907,0.4823191463947296,-0.5487273335456848,-0.5249776840209961,-0.4366520643234253
299375,9.33229160308838,-0.1686682403087616,3.0619165897369385,0.5162815451622009,-0.2122524231672287,0.0378875844180583,0.75094074010849,-0.2304496169090271,-0.5409517288208008,-0.3005867898464203,9.644941329956056,-0.5953670144081116,-1.514763355255127,-0.383434921503067,0.1775536388158798,0.5446604490280151,0.4822831451892853,-0.5487351417541504,-0.5249530673027039,-0.4367116391658783
299541,9.328582763671877,-0.1625886857509613,3.042182922363281,0.5338903069496155,-0.2220749109983444,0.0649602115154266,0.7509410977363586,-0.2303922921419143,-0.5409672260284424,-0.3006015121936798,9.655105590820312,-0.6097970008850098,-1.5046924352645874,-0.458685040473938,0.1935487687587738,0.5570058226585388,0.4822448790073395,-0.5487452745437622,-0.5249250531196594,-0.4367749989032745
299708,9.339741706848145,-0.1546498090028762,3.054806709289551,0.3442666828632355,-0.3427235186100006,-0.0409547016024589,0.7509205937385559,-0.2303535789251327,-0.540990948677063,-0.300639808177948,9.644841194152832,-0.6153329610824585,-1.4631372690200806,-0.3018200695514679,0.2833980917930603,0.5647280216217041,0.4822267293930053,-0.5487393140792847,-0.5248996615409851,-0.4368327856063843
299875,9.330689430236816,-0.1549105644226074,3.073896884918213,0.2079687118530273,-0.3601657748222351,-0.103296011686325,0.7508813738822937,-0.2303439974784851,-0.5410046577453613,-0.3007203340530395,9.615501403808594,-0.6238159537315369,-1.4959169626235962,-0.1267828643321991,0.3069105744361877,0.3698793947696686,0.4822142422199249,-0.5487027764320374,-0.524901270866394,-0.4368906617164612
300041,9.340835571289062,-0.1651490330696106,3.062184810638428,0.1090012565255165,-0.3649682104587555,0.032688207924366,0.7508471608161926,-0.2303506582975387,-0.5410122871398926,-0.3007866740226745,9.639299392700195,-0.6073256134986877,-1.465733528137207,-0.0585250183939933,0.1685763746500015,0.043253444135189,0.4821703433990478,-0.548651933670044,-0.5249357223510742,-0.4369614124298095
300208,9.33309555053711,-0.1825656741857528,3.063514709472656,0.0826073661446571,-0.3647248148918152,0.2095822989940643,0.7508221864700317,-0.2303699254989624,-0.5410147309303284,-0.3008303940296173,9.630894660949709,-0.5857757329940796,-1.4682695865631104,-0.0246906410902738,-0.0030735239852219,-0.0089132189750671,0.4821197986602783,-0.5485972166061401,-0.5249974131584167,-0.4370118081569671
300375,9.32876968383789,-0.1962261945009231,3.063765525817871,0.1473050415515899,-0.4933902025222778,0.2388960123062133,0.7507936358451843,-0.2303848266601562,-0.5410354733467102,-0.3008531332015991,9.645106315612791,-0.5567765235900879,-1.480453610420227,-0.1735900491476059,-0.2376858294010162,-0.1163712963461875,0.482023537158966,-0.5485705137252808,-0.5250630974769592,-0.437072604894638
300541,9.320272445678713,-0.1828014105558395,3.077201128005981,0.3861690461635589,-0.4486576318740845,0.3875008821487427,0.750778079032898,-0.2303922623395919,-0.5410528182983398,-0.3008546233177185,9.647358894348145,-0.5448096990585327,-1.4694777727127075,-0.5391472578048706,-0.2342921644449234,0.0872048363089561,0.481922447681427,-0.548570990562439,-0.5251033306121826,-0.4371350705623626
300708,9.324549674987791,-0.1912806034088134,3.056455612182617,0.3846963346004486,-0.5438344478607178,0.3804574012756347,0.7507542967796326,-0.2304044663906097,-0.5410802960395813,-0.3008553087711334,9.644454002380373,-0.5579919815063477,-1.4934877157211304,-0.7470328211784363,-0.3476027250289917,0.2210055738687515,0.4818138182163238,-0.548592209815979,-0.525139331817627,-0.4371849596500397
300875,9.32765293121338,-0.1831626147031784,3.0509841442108154,0.5153851509094238,-0.5065807700157166,0.412895917892456,0.7507404088973999,-0.2304011583328247,-0.5411092638969421,-0.3008404672145843,9.654336929321287,-0.568652331829071,-1.47409987449646,-0.7804318070411682,-0.3499335348606109,0.6008931994438171,0.4817045331001282,-0.548671543598175,-0.5251151323318481,-0.4372349679470062
301041,9.33293342590332,-0.1712148636579513,3.051786422729492,0.5349019765853882,-0.6159341931343079,0.2583873271942138,0.750718891620636,-0.2303755581378936,-0.541161835193634,-0.3008192181587219,9.648051261901855,-0.5953609347343445,-1.4939682483673096,-0.7887430787086487,-0.2989386022090912,0.788582980632782,0.48162442445755,-0.5487455129623413,-0.5250893235206604,-0.4372613430023193
301208,9.327393531799316,-0.1701201200485229,3.039914846420288,0.5213144421577454,-0.6343881487846375,0.2934510707855224,0.7506953477859497,-0.2303581982851028,-0.5412132740020752,-0.3007985055446625,9.638154983520508,-0.6266398429870605,-1.4994443655014038,-0.4846947193145752,-0.2996173501014709,0.8099183440208435,0.4815571308135986,-0.5488158464431763,-0.5250642895698547,-0.4372772574424743
301375,9.338146209716797,-0.1683213412761688,3.0661864280700684,0.3834540843963623,-0.6778272390365601,0.2678256034851074,0.7506527304649353,-0.2303739041090011,-0.5412564873695374,-0.3008149862289428,9.643961906433104,-0.65853351354599,-1.503237247467041,0.0421905182301998,-0.1748194694519043,0.5687875747680664,0.4815316796302795,-0.5488166809082031,-0.5250896215438843,-0.437273770570755
301541,9.346850395202637,-0.1636651307344436,3.0380561351776123,0.4507899284362793,-0.6648672819137573,0.2044725865125656,0.7506160736083984,-0.2303667664527893,-0.5413076877593994,-0.3008197844028473,9.645410537719728,-0.6361143589019775,-1.4982845783233645,0.5047174096107483,-0.1850645691156387,0.4359473288059234,0.4815289974212646,-0.5487807989120483,-0.525150716304779,-0.4372483491897583
301708,9.360411643981934,-0.1509087979793548,3.0275955200195312,0.3380044102668762,-0.6759960055351257,0.2555955350399017,0.7505701184272766,-0.2303889095783233,-0.5413482785224915,-0.3008445203304291,9.650705337524414,-0.6139982342720032,-1.511319279670715,0.992191195487976,-0.218732476234436,0.4650306105613708,0.4815554916858673,-0.5487276911735535,-0.5252295136451721,-0.437191367149353
301875,9.353194236755373,-0.1525073647499084,3.017721652984619,0.3423328995704651,-0.6738572120666504,0.323277086019516,0.7505258321762085,-0.2304186373949051,-0.5413855314254761,-0.3008653223514557,9.627601623535156,-0.584320604801178,-1.4983333349227903,1.0413419008255005,-0.3138708472251892,0.4964573085308075,0.4816009700298309,-0.5486540794372559,-0.5253424048423767,-0.4370979964733124
302041,9.34702968597412,-0.1587943285703659,3.02888298034668,0.4043796360492706,-0.593100368976593,0.3338679075241089,0.7504974603652954,-0.2304256707429886,-0.5414220690727234,-0.3008649349212646,9.649740219116213,-0.5561211705207825,-1.5118353366851809,0.8150793313980103,-0.4248378276824951,0.4279305636882782,0.4816183745861053,-0.5485947132110596,-0.5254578590393066,-0.4370146095752716
302208,9.34206199645996,-0.1633003503084182,3.037737846374512,0.3515278697013855,-0.4715041816234588,0.3970160484313965,0.7504780888557434,-0.2304408848285675,-0.5414398908615112,-0.3008694648742676,9.657934188842772,-0.5373215675354004,-1.5242797136306765,0.3898956775665283,-0.3793624639511108,0.5350428819656372,0.4816079437732696,-0.5485755205154419,-0.5255289077758789,-0.4369645118713379
302375,9.35061264038086,-0.180706039071083,3.021062135696411,0.3426658809185028,-0.4547534584999084,0.4049687385559082,0.7504624128341675,-0.2304533421993255,-0.5414568185806274,-0.3008688986301422,9.648398399353027,-0.5470554828643799,-1.5115201473236084,0.0051289428956806,-0.4189085364341736,0.8234675526618958,0.4815810918807983,-0.5486087203025818,-0.5255546569824219,-0.43692147731781
302541,9.33542823791504,-0.1719404757022857,3.039318561553955,0.35385861992836,-0.4910082221031189,0.3651922643184662,0.7504352331161499,-0.2304756492376327,-0.5414743423461914,-0.3008880019187927,9.634706497192385,-0.5555426478385925,-1.5207555294036863,-0.4472233057022095,-0.4272069931030273,0.9710862040519714,0.4815221726894378,-0.5486915707588196,-0.5255339741706848,-0.4369073212146759
302708,9.343396186828612,-0.1704885363578796,3.0174927711486816,0.3802781701087951,-0.4067296981811523,0.2283820211887359,0.7504148483276367,-0.2304711043834686,-0.5414924621582031,-0.3009095788002014,9.647428512573242,-0.5864813923835754,-1.5001509189605713,-0.8126654028892517,-0.5012661218643188,0.78658527135849,0.4814198911190033,-0.548786997795105,-0.5255134105682373,-0.436924934387207
302875,9.336665153503418,-0.1798403114080429,3.029587507247925,0.4291471540927887,-0.3742271363735199,0.3030174374580383,0.7504019141197205,-0.2304655909538269,-0.541506826877594,-0.3009200692176819,9.643741607666016,-0.6100651025772095,-1.527700901031494,-0.790945827960968,-0.4452768266201019,0.7586162090301514,0.4813125431537628,-0.5488858222961426,-0.5254815816879272,-0.43695729970932
303041,9.335606575012209,-0.1801511496305465,3.044128179550171,0.2909794449806213,-0.3029726147651672,0.2904160022735595,0.7503960132598877,-0.2304593324661255,-0.5415129661560059,-0.300928920507431,9.644691467285156,-0.6189338564872742,-1.5267690420150757,-0.2920872569084167,-0.2709695398807525,0.3465590476989746,0.4811592102050781,-0.5489413142204285,-0.5255256295204163,-0.4370035529136657
303208,9.31982135772705,-0.166926622390747,3.042676448822021,0.4210919737815857,-0.3005777895450592,0.2857672870159149,0.7503910064697266,-0.230444923043251,-0.5415218472480774,-0.3009361028671264,9.624653816223145,-0.5978667736053467,-1.529307842254639,-0.0954072996973991,-0.262171596288681,0.2557748556137085,0.4810940623283386,-0.5489364266395569,-0.5255706310272217,-0.4370273351669311
303375,9.334490776062012,-0.1787567287683487,3.027066469192505,0.6017255187034607,-0.3180456459522247,0.4102193713188171,0.7503902316093445,-0.2304318696260452,-0.5415319800376892,-0.3009301424026489,9.655610084533691,-0.617246150970459,-1.515911340713501,0.1206550151109695,-0.2685875594615936,0.4151882231235504,0.4810506403446197,-0.5489358305931091,-0.5256099700927734,-0.4370286464691162
303541,9.327381134033203,-0.1700236201286316,3.028604030609131,0.5314058661460876,-0.3289054930210113,0.5369381904602051,0.7503965497016907,-0.2304279208183288,-0.5415398478507996,-0.3009030222892761,9.65013027191162,-0.5764417052268982,-1.5150208473205566,0.1789879351854324,-0.1744353026151657,0.5854614973068237,0.4810329377651214,-0.5489343404769897,-0.5256368517875671,-0.4370176792144775
303708,9.323275566101074,-0.1554024517536163,3.0289008617401123,0.6021097302436829,-0.354646235704422,0.5308551788330078,0.7504079341888428,-0.230408176779747,-0.5415576100349426,-0.3008578717708587,9.64946174621582,-0.5609066486358643,-1.511863112449646,0.148854598402977,-0.1250796169042587,0.6996685266494751,0.4810202419757843,-0.5489450097084045,-0.5256445407867432,-0.4370088875293731
303875,9.360599517822266,-0.1658305376768112,3.043429374694824,0.6548846960067749,-0.1935935765504837,0.4989417493343353,0.7504324913024902,-0.2303726822137832,-0.5415614247322083,-0.3008171021938324,9.637420654296877,-0.5715709328651428,-1.4976619482040403,-0.0766844153404235,-0.1440842151641845,0.8191900849342346,0.481009840965271,-0.5489641427993774,-0.5256479978561401,-0.436992198228836
304041,9.349102973937988,-0.1863421499729156,3.0155107975006104,0.5526772141456604,-0.3225663304328918,0.578725278377533,0.7504483461380005,-0.2303575277328491,-0.5415733456611633,-0.3007676303386688,9.61312770843506,-0.5845552086830139,-1.5179682970046997,-0.0392770729959011,-0.1234019920229911,1.0476938486099243,0.4810158610343933,-0.5490009188652039,-0.5256296992301941,-0.4369613826274872
304208,9.331460952758787,-0.170857235789299,3.052928924560547,0.6147752404212952,-0.1480670124292373,0.8503864407539368,0.7504810094833374,-0.2303693294525146,-0.5415515303611755,-0.3007161319255829,9.61526107788086,-0.5982264280319214,-1.511064052581787,0.0718500241637229,-0.4676879346370697,1.1014548540115356,0.481019526720047,-0.5490410923957825,-0.5256534814834595,-0.4368782639503479
304375,9.336572647094728,-0.1478367745876312,3.0432233810424805,0.4552593827247619,-0.1066128611564636,0.5644974708557129,0.7504965662956238,-0.2303790003061294,-0.5415257811546326,-0.3007164597511291,9.654184341430664,-0.6211442947387695,-1.510701298713684,0.0684435367584228,-0.6743823885917664,1.0139491558074951,0.480983555316925,-0.5491101741790771,-0.5256757140159607,-0.436804324388504
304541,9.379908561706545,-0.1427802741527557,3.029040098190308,0.3910098373889923,0.1321038752794265,0.3150810003280639,0.7505322098731995,-0.2303394824266433,-0.5414904952049255,-0.3007214367389679,9.62515926361084,-0.6249217987060547,-1.510705828666687,0.3974899053573608,-0.6013861894607544,0.9947268962860109,0.4809906780719757,-0.5491349101066589,-0.5257309675216675,-0.4366989135742187
304708,9.377643585205078,-0.1461692899465561,3.031790256500244,0.6635546088218689,0.1024828106164932,0.7163552045822144,0.7505850195884705,-0.2303159981966018,-0.5414516925811768,-0.3006775081157684,9.630260467529297,-0.6242619752883911,-1.5281367301940918,0.6194238662719727,-0.7076659798622131,1.2919747829437256,0.4810263216495514,-0.5491734147071838,-0.5257840752601624,-0.4365471601486206
