sampleTimeFine,W4_acc_x,W4_acc_y,W4_acc_z,W4_gyro_x,W4_gyro_y,W4_gyro_z,W4_quat_w,W4_quat_x,W4_quat_y,W4_quat_z,W5_acc_x,W5_acc_y,W5_acc_z,W5_gyro_x,W5_gyro_y,W5_gyro_z,W5_quat_w,W5_quat_x,W5_quat_y,W5_quat_z
1677408,-0.3877080380916595,0.3554541170597076,-0.4383452832698822,-0.3228947818279266,0.2054455578327179,-0.3866121768951416,0.7519474625587463,-0.2544754445552826,-0.5226876735687256,-0.3108294606208801,0.3745481073856354,0.375463604927063,0.3913701474666595,0.0467174984514713,-0.0716674104332923,-0.4976568222045898,0.3915186524391174,-0.5982863306999207,-0.5322068929672241,-0.4533458650112152
1677575,9.272526741027832,-0.5614568591117859,3.185997724533081,0.5751139521598816,-0.1916726380586624,0.6316283941268921,0.7519623041152954,-0.2545296549797058,-0.522634744644165,-0.3108381927013397,9.314488410949709,0.1344406902790069,-2.742130994796753,0.3761928975582123,-0.2906016707420349,1.0304948091506958,0.391266405582428,-0.598781943321228,-0.5315423607826233,-0.4536889195442199
1677742,9.28147029876709,-0.5723156929016113,3.216779947280884,0.5821958184242249,-0.1970384865999221,0.6312825679779053,0.7517881393432617,-0.2548239529132843,-0.5224743485450745,-0.3112874627113342,9.32059097290039,0.1189266443252563,-2.725123405456543,0.236770212650299,-0.4360690712928772,1.1389391422271729,0.3913610279560089,-0.5988555550575256,-0.5315004587173462,-0.4535591602325439
1677908,9.265616416931152,-0.5690820813179016,3.174527645111084,0.3809440732002258,-0.1736028492450714,0.7321325540542603,0.7519416809082031,-0.2547615468502044,-0.522326648235321,-0.3112156987190246,9.335230827331545,0.1039245277643203,-2.7405028343200684,0.168025717139244,-0.3320302367210388,1.1440616846084597,0.3915952742099762,-0.5988807082176208,-0.5314082503318787,-0.4534318447113037
1678075,9.27591609954834,-0.5629557967185974,3.1831247806549072,0.224476084113121,-0.048100646585226,0.6720708012580872,0.7518975734710693,-0.2549462616443634,-0.5221977233886719,-0.311387687921524,9.351449966430664,0.107716254889965,-2.7250804901123047,0.2123484760522842,-0.2828538119792938,0.983495593070984,0.3916091024875641,-0.5992015600204468,-0.5310184955596924,-0.4534525871276855
1678242,9.26496696472168,-0.562544584274292,3.1817946434021,0.1113832220435142,-0.0361523255705833,0.7687331438064575,0.7517684698104858,-0.255244106054306,-0.5220539569854736,-0.3116959929466247,9.354303359985352,0.0808155536651611,-2.7264132499694824,0.3731193840503692,-0.129638671875,0.8404999375343323,0.3916870057582855,-0.5994039177894592,-0.5307050943374634,-0.4534849524497986
1678408,9.262656211853027,-0.5757800936698914,3.160780668258667,0.0200355350971221,0.0371704287827014,0.5403575897216797,0.7516766786575317,-0.2554412186145782,-0.5219598412513733,-0.3119135200977325,9.376545906066896,0.0892907232046127,-2.7470061779022217,0.3613887727260589,-0.0127935428172349,0.7541083097457886,0.3919998407363891,-0.5993523001670837,-0.5306647419929504,-0.4533299207687378
1678575,9.277358055114746,-0.5857362747192383,3.173694372177124,0.2246169596910476,0.0619251020252704,0.5862810611724854,0.7515875101089478,-0.2556361258029938,-0.52189701795578,-0.3120733797550201,9.359806060791016,0.1097467392683029,-2.7339415550231934,0.4873009324073791,0.1279034316539764,0.7292256355285645,0.3920739591121673,-0.5995553731918335,-0.5303530097007751,-0.4533620178699493
1678742,9.2766752243042,-0.5864372253417969,3.1920902729034424,0.2902238965034485,-0.0374329537153244,0.6354061961174011,0.7516010403633118,-0.2556780278682709,-0.5219242572784424,-0.3119613230228424,9.353984832763672,0.1041284278035163,-2.736038446426392,0.3813026547431946,0.1084249541163444,0.5838991403579712,0.3921707570552826,-0.5996395945549011,-0.5301890969276428,-0.4533585608005523
1678908,9.282976150512695,-0.5817452073097229,3.192258596420288,0.2415469735860824,-0.1437384784221649,0.6431668996810913,0.751628041267395,-0.2557132542133331,-0.5219492316246033,-0.3118253946304321,9.369720458984377,0.1222347021102905,-2.7475175857543945,0.2338247299194336,0.393775999546051,0.4972641468048095,0.3923150599002838,-0.5996239185333252,-0.5301133990287781,-0.4533429443836212
1679075,9.29244613647461,-0.5741242170333862,3.1675896644592285,0.3098816573619842,-0.1270902305841446,0.6282090544700623,0.7516281008720398,-0.2557930648326874,-0.5219392776489258,-0.3117765188217163,9.372396469116213,0.1047500669956207,-2.732786178588867,0.0489522702991962,0.8914051055908203,0.2915045320987701,0.392416387796402,-0.5995902419090271,-0.5300070643424988,-0.4534241259098053
1679242,9.283991813659668,-0.5680125951766968,3.169116973876953,0.2465670555830001,-0.2375705987215042,0.5233250856399536,0.7516099214553833,-0.255864530801773,-0.5219594836235046,-0.3117279708385467,9.351534843444824,0.090791568160057,-2.777799367904663,-0.0019209523452445,1.1385294198989868,0.2143206596374511,0.3925175070762634,-0.5995397567749023,-0.5298888087272644,-0.4535416960716247
1679408,9.278656005859377,-0.5768422484397888,3.169463872909546,0.0981158390641212,-0.2817780673503876,0.6908705234527588,0.7515996694564819,-0.2559387385845184,-0.5219881534576416,-0.3116438090801239,9.3029203414917,0.1063994392752647,-2.751664876937866,-0.0067361393012106,1.1016085147857666,0.3146584033966064,0.3926873505115509,-0.5994216799736023,-0.5298823714256287,-0.4535582363605499
1679575,9.257473945617676,-0.5718462467193604,3.1720492839813232,-0.0312474947422742,-0.3509451746940613,0.7039843201637268,0.7515531778335571,-0.2560743689537048,-0.521996259689331,-0.3116309344768524,9.29882526397705,0.096536137163639,-2.7382519245147705,-0.0390209406614303,0.5856022834777832,0.2735500037670135,0.392691045999527,-0.599467396736145,-0.5297730565071106,-0.4536223709583282
1679742,9.241005897521973,-0.592835009098053,3.193199157714844,0.1989146173000335,-0.4007618725299835,0.6473545432090759,0.751562237739563,-0.2560925781726837,-0.5220613479614258,-0.3114847242832184,9.317056655883787,0.1055982485413551,-2.7447140216827397,0.1289279162883758,0.543917715549469,0.5219932198524475,0.3927373588085174,-0.5995071530342102,-0.5296804308891296,-0.4536377191543579
1679908,9.265634536743164,-0.5608422756195068,3.206881523132324,-0.0065184319391846,-0.4754485189914703,0.533672571182251,0.7515320181846619,-0.2561770975589752,-0.5220924615859985,-0.3114360570907593,9.332141876220703,0.1221525147557258,-2.7346792221069336,-0.0213609877973794,0.1978132575750351,0.6434614062309265,0.392712652683258,-0.5996289253234863,-0.5295435786247253,-0.4536579251289367
1680075,9.284626960754396,-0.6015859246253967,3.144219160079956,-0.1040771976113319,0.0002497238165233,0.5558403730392456,0.7515619397163391,-0.2562057673931122,-0.522078275680542,-0.3113642036914825,9.365017890930176,0.111538328230381,-2.7503466606140137,-0.2907553315162658,0.0750131905078888,0.5299971699714661,0.3926719129085541,-0.5997282266616821,-0.5294458270072937,-0.453676164150238
1680242,9.269035339355469,-0.5946338772773743,3.1521191596984863,0.3145047426223755,0.2842945158481598,0.5648176670074463,0.7515743374824524,-0.2562696039676666,-0.5220155715942383,-0.3113868832588196,9.39345932006836,0.1547353416681289,-2.724740982055664,-0.5228447914123535,0.1506987065076828,0.1595350801944732,0.3926181495189667,-0.5997739434242249,-0.5293981432914734,-0.4537179172039032
1680409,9.2795991897583,-0.5446882247924805,3.1515395641326904,0.128454104065895,0.2045878618955612,0.1088347733020782,0.7515648007392883,-0.2563034892082214,-0.52198326587677,-0.3114362955093384,9.407760620117188,0.1435325592756271,-2.72275447845459,-0.89265376329422,0.4236916601657867,-0.23671256005764,0.3925529718399048,-0.5997490286827087,-0.5293857455253601,-0.4538217782974243
1680575,9.314875602722168,-0.5655986666679382,3.1904561519622803,0.2142053991556167,0.1879652142524719,-0.1899053752422332,0.7515727281570435,-0.2562439143657684,-0.5220015048980713,-0.3114352524280548,9.358699798583984,0.0940290465950965,-2.6944425106048584,-0.7732858061790466,0.6755926012992859,0.1585105955600738,0.3924413025379181,-0.5998449921607971,-0.5291961431503296,-0.4540126919746399
1680742,9.31011199951172,-0.5171946287155151,3.2158544063568115,0.8440216183662415,0.2360402196645736,-0.1191118732094764,0.7515880465507507,-0.2561550736427307,-0.522020161151886,-0.3114404380321502,9.316645622253418,0.0882929787039756,-2.690591812133789,-0.1674814224243164,0.5377578139305115,0.5447372794151306,0.3924428522586822,-0.5999000072479248,-0.5290641784667969,-0.4540921747684479
1680909,9.273655891418455,-0.5561074018478394,3.219273090362549,0.3491074740886688,0.2471945583820343,0.0232627317309379,0.7516105771064758,-0.2560911476612091,-0.52202308177948,-0.3114337623119354,9.323883056640623,0.1258080601692199,-2.6710457801818848,0.2234644144773483,0.3629767596721649,0.7273814082145691,0.3924874067306518,-0.5999538898468018,-0.5289530754089355,-0.4541119635105133
1681075,9.291468620300291,-0.5909894704818726,3.1976778507232666,0.2283692508935928,-0.4716578722000122,-0.7167842984199524,0.75152188539505,-0.2560509741306305,-0.5221030116081238,-0.3115467429161072,9.329527854919434,0.1116967946290969,-2.670077323913574,0.7946916222572327,0.0722982436418533,0.7690916657447815,0.3925943970680237,-0.5999586582183838,-0.5289309024810791,-0.454039067029953
1681242,9.237009048461914,-0.6294742822647095,3.2164840698242188,0.7308135628700256,-0.6816179156303406,-1.1541081666946411,0.751427173614502,-0.2559200227260589,-0.5222493410110474,-0.3116376399993896,9.357300758361816,0.1121387854218483,-2.6828951835632324,1.3439432382583618,-0.2368534654378891,1.0135778188705444,0.3927629888057709,-0.5999479293823242,-0.5289629697799683,-0.4538701176643371
1681409,9.228476524353027,-0.5824833512306213,3.196829319000244,0.7492674589157104,-0.5491490364074707,-0.8034831285476685,0.7513697147369385,-0.2558041512966156,-0.5223647952079773,-0.3116772770881653,9.365845680236816,0.1166935935616493,-2.7123796939849854,1.674103617668152,-0.2627094089984894,1.08942973613739,0.3929369151592254,-0.5999573469161987,-0.5289728045463562,-0.4536954462528229
1681575,9.259211540222168,-0.5721030235290527,3.1840102672576904,0.6224333643913269,-0.36911740899086,-0.5702155232429504,0.7513501048088074,-0.255685806274414,-0.5224560499191284,-0.3116686344146728,9.346139907836914,0.1021210998296737,-2.689154863357544,1.955664157867432,-0.438912034034729,1.2713953256607056,0.3931570947170257,-0.5999481081962585,-0.5290279984474182,-0.453452467918396
1681742,9.248929977416992,-0.5902060866355896,3.1975104808807373,0.8855399489402771,-0.1707214415073394,0.0126974964514374,0.7513373494148254,-0.2556497752666473,-0.5224786996841431,-0.3116910457611084,9.36248779296875,0.1482167094945907,-2.685377836227417,2.0297741889953613,-0.6234387159347534,1.382669448852539,0.3933860063552856,-0.5999460220336914,-0.5290982723236084,-0.4531748294830322
1681909,9.266207695007324,-0.5921358466148376,3.18742299079895,1.1218937635421753,0.0567257218062877,0.4740462303161621,0.7513973712921143,-0.255573958158493,-0.5224875211715698,-0.3115943670272827,9.35340404510498,0.1371252238750457,-2.6975040435791016,1.7431941032409668,-0.7409626245498657,1.355443239212036,0.3935548365116119,-0.5999889969825745,-0.5291304588317871,-0.4529334902763366
1682075,9.252500534057615,-0.5777009725570679,3.217766761779785,1.182455062866211,0.2043957412242889,0.6217930316925049,0.7514927983283997,-0.2554726600646972,-0.5224890112876892,-0.3114446103572845,9.40127182006836,0.1362392753362655,-2.7025277614593506,1.4529634714126587,-0.6029356718063354,1.1447532176971436,0.393699437379837,-0.6000149250030518,-0.5291633009910583,-0.4527351856231689
1682242,9.254796028137209,-0.5378217101097107,3.2150356769561768,0.917683720588684,0.1926394999027252,0.5919159054756165,0.7515565752983093,-0.2554338872432709,-0.5224611163139343,-0.3113692998886108,9.4111909866333,0.1586722433567047,-2.705395221710205,1.1035679578781128,-0.1979477405548095,0.9212824106216432,0.3938164114952087,-0.6000300049781799,-0.5291536450386047,-0.4526247978210449
1682409,9.28372859954834,-0.5509124398231506,3.2063422203063965,0.7685409784317017,0.1839824169874191,0.7965868711471558,0.7516350150108337,-0.2554054856300354,-0.5224286317825317,-0.3112572133541107,9.348755836486816,0.1189343184232711,-2.731905937194824,0.5340055227279663,-0.1309065073728561,0.9255980849266052,0.3939027488231659,-0.6000532507896423,-0.5291245579719543,-0.4525528848171234
1682575,9.265609741210938,-0.5216982364654541,3.2323877811431885,0.9636715054512024,0.279889166355133,0.9046597480773926,0.7517334818840027,-0.255357563495636,-0.5223916172981262,-0.3111212849617004,9.339035034179688,0.088403545320034,-2.710367441177368,0.4880948364734649,0.0496566221117973,1.260496973991394,0.3940375745296478,-0.6000727415084839,-0.5290783047676086,-0.4524635970592499
1682742,9.235395431518556,-0.5209658741950989,3.2185583114624023,0.6373144388198853,0.1113704293966293,0.8613103628158569,0.7518032193183899,-0.2553498446941376,-0.522357702255249,-0.3110159337520599,9.372260093688965,0.1285380870103836,-2.723282814025879,0.1981334239244461,-0.1353374868631363,0.8534727692604065,0.3940739929676056,-0.6001291275024414,-0.5290153622627258,-0.4524306952953338
1682909,9.2615385055542,-0.5616706013679504,3.2258195877075195,0.2006818950176239,-0.0706014037132263,0.8373111486434937,0.751847505569458,-0.2553844451904297,-0.5223292708396912,-0.3109282851219177,9.438139915466309,0.088418148458004,-2.7130467891693115,-0.0198114216327667,0.2911715507507324,0.6223053336143494,0.3941301107406616,-0.600125789642334,-0.5289648771286011,-0.4524453282356262
1683075,9.237051010131836,-0.5557571649551392,3.208231210708618,0.818946897983551,-0.3392402231693268,0.6387999057769775,0.7518779039382935,-0.2553615570068359,-0.5223581790924072,-0.3108248710632324,9.43485164642334,0.0523462854325771,-2.7238168716430664,0.1945988684892654,0.8725542426109314,0.597550630569458,0.3942421674728393,-0.600078821182251,-0.5288865566253662,-0.4525016844272613
1683242,9.267866134643556,-0.5106754302978516,3.2308173179626465,0.4898748993873596,-0.1642926335334777,0.3816227912902832,0.7518863677978516,-0.2553664445877075,-0.5223530530929565,-0.3108090758323669,9.394109725952148,0.0334611311554908,-2.698573589324951,0.7008211016654968,1.225292444229126,0.4726119637489319,0.3943831622600555,-0.6000138521194458,-0.5287824869155884,-0.4525864422321319
1683409,9.26107120513916,-0.5670684576034546,3.252506971359253,0.1173381805419921,-0.2828666567802429,0.6791271567344666,0.7518681883811951,-0.2554661333560943,-0.522319495677948,-0.3108277022838592,9.354001998901367,0.0369250699877738,-2.701311588287353,1.073408842086792,1.454704999923706,0.2933614253997803,0.3945818543434143,-0.5998807549476624,-0.5287256240844727,-0.4526563882827759
1683575,9.25111961364746,-0.6290212869644165,3.2597944736480717,0.7372295260429382,-0.6690549850463867,0.9790005683898926,0.7518795728683472,-0.2555022239685058,-0.5223607420921326,-0.3107006549835205,9.343116760253906,0.0344386957585811,-2.65564513206482,1.5058153867721558,1.55842387676239,-0.2123420983552932,0.3947831690311432,-0.5996915698051453,-0.5287191271781921,-0.4527385830879211
1683742,9.257417678833008,-0.5993726253509521,3.2426626682281494,1.1130961179733276,-0.8530310392379761,1.111546516418457,0.7519020438194275,-0.2555125951766968,-0.5224338173866272,-0.3105150461196899,9.300094604492188,0.0465053543448448,-2.70062518119812,1.899854063987732,1.55364727973938,-0.4906881153583526,0.3950384557247162,-0.5994176864624023,-0.5288087129592896,-0.4527741372585296
1683909,9.24045753479004,-0.587317943572998,3.220270156860352,1.2180564403533936,-0.7744766473770142,1.2323228120803833,0.751936674118042,-0.2555248141288757,-0.5224937796592712,-0.3103201389312744,9.291714668273926,0.0886008888483047,-2.6665403842926025,2.004558801651001,1.2244727611541748,-0.5567048788070679,0.3952555358409881,-0.5991770029067993,-0.5289057493209839,-0.4527900218963623
1684075,9.221522331237791,-0.5945088267326355,3.1937520503997803,1.513896346092224,-0.7764617800712585,1.2358574867248535,0.7519679665565491,-0.2555299401283264,-0.5225549340248108,-0.3101370632648468,9.309356689453123,0.1286802142858505,-2.6735317707061768,1.6793925762176514,0.8752435445785522,-0.6563125848770142,0.3954484462738037,-0.5989260077476501,-0.5290607213973999,-0.4527726471424103
1684242,9.229578971862791,-0.5602437257766724,3.1988155841827397,1.7856215238571167,-0.9085848331451416,1.0965245962142944,0.7519885897636414,-0.2555091977119446,-0.5226444602012634,-0.3099533319473266,9.336790084838867,0.1712139844894409,-2.6956241130828857,1.244053602218628,0.4689749479293823,-0.4740782678127289,0.3955396115779876,-0.5987905859947205,-0.5291385650634766,-0.4527810215950012
1684409,9.24708366394043,-0.5550017952919006,3.20194935798645,1.668187141418457,-0.92802494764328,1.0015270709991455,0.7520074248313904,-0.2554797232151031,-0.5227421522140503,-0.3097672760486603,9.339648246765137,0.1800121963024139,-2.729110717773437,0.6502488255500793,0.2812082171440124,-0.107867881655693,0.3955750465393066,-0.5987419486045837,-0.529143750667572,-0.4528084099292755
1684575,9.283954620361328,-0.5638263821601868,3.154356002807617,1.4986567497253418,-0.7166560888290405,0.9723156690597534,0.752058207988739,-0.2554163634777069,-0.5228304266929626,-0.3095473349094391,9.30685043334961,0.1817392855882644,-2.7059121131896973,-0.1605404019355774,-0.187715470790863,0.364782452583313,0.3955346345901489,-0.5988036394119263,-0.5290877819061279,-0.4528277516365051
1684742,9.301554679870604,-0.5492970943450928,3.15071702003479,1.1165919303894043,-0.4006594717502594,0.929324746131897,0.7520833611488342,-0.2554316222667694,-0.5228441953659058,-0.3094500601291656,9.328689575195312,0.1574145853519439,-2.7357616424560547,-0.8461284041404724,-0.400633841753006,0.5655348300933838,0.3954322338104248,-0.5989295244216919,-0.5289880633354187,-0.4528670310974121
1684909,9.282828330993652,-0.5438060760498047,3.1848723888397217,1.0001951456069946,-0.3791447877883911,0.8359152674674988,0.752127468585968,-0.2554055154323578,-0.5228787660598755,-0.3093060255050659,9.320914268493652,0.1333709210157394,-2.735387086868286,-1.3446667194366455,-0.6874576807022095,0.6591107845306396,0.3953064382076263,-0.5990660786628723,-0.5289160013198853,-0.4528804421424866
1685075,9.285009384155272,-0.5565363764762878,3.1752383708953857,0.6327680945396423,-0.3452335596084595,0.6547182202339172,0.752132773399353,-0.2554354965686798,-0.5228854417800903,-0.3092570304870605,9.345273971557615,0.0936893746256828,-2.738775491714477,-1.5021718740463257,-1.0225101709365845,0.5972817540168762,0.3951448202133178,-0.5992186665534973,-0.5288716554641724,-0.4528712034225464
1685242,9.28546142578125,-0.5542511343955994,3.150949001312256,0.1514286696910858,-0.3364996016025543,0.5488993525505066,0.7520989775657654,-0.2555374205112457,-0.5228610038757324,-0.3092964887619018,9.35860824584961,0.0746234878897667,-2.745694160461426,-1.5118918418884275,-1.1112836599349976,0.3536920845508575,0.3949165940284729,-0.599409818649292,-0.528796911239624,-0.4529047012329101
1685409,9.286352157592772,-0.5685132741928101,3.1658053398132324,0.0450079143047332,-0.2811890244483948,0.5390768647193909,0.7520830035209656,-0.2556154429912567,-0.5228434801101685,-0.3093003034591675,9.357576370239258,0.0445973388850688,-2.744492769241333,-1.1367172002792358,-1.0161069631576538,0.3250443637371063,0.3947278559207916,-0.599570631980896,-0.5287454128265381,-0.4529164731502533
1685575,9.29351806640625,-0.5680233240127563,3.1513359546661377,-0.0835486128926277,-0.2425522655248642,0.316041499376297,0.7520601749420166,-0.2556796371936798,-0.5228298902511597,-0.3093258142471313,9.335768699645996,0.0557267181575298,-2.721019983291626,-0.6732425689697266,-1.145668864250183,-0.1082776859402656,0.3945289254188537,-0.5996963977813721,-0.528752326965332,-0.4529153108596802
1685742,9.289624214172363,-0.5734555721282959,3.155910015106201,0.0693783909082412,-0.2133665829896927,0.3244552910327911,0.752030074596405,-0.2557516098022461,-0.5228087902069092,-0.3093752562999725,9.346586227416992,0.0762619227170944,-2.735828161239624,-0.3279961943626404,-1.0290286540985107,-0.1812610626220703,0.3944222331047058,-0.5997231006622314,-0.5288568139076233,-0.452850729227066
1685909,9.280389785766602,-0.5872024893760681,3.1470444202423096,0.155321791768074,-0.2396196126937866,0.2329667061567306,0.7519909143447876,-0.2558180689811706,-0.522794246673584,-0.3094400763511657,9.35990047454834,0.0969657227396965,-2.7569026947021484,-0.0875442028045654,-0.9859224557876588,-0.1781363189220428,0.3942999243736267,-0.5997812151908875,-0.5289208889007568,-0.4528055489063263
1686075,9.282621383666992,-0.5995118021965027,3.1575193405151367,0.4389184415340423,-0.267972856760025,0.2072899937629699,0.7519882321357727,-0.2558031678199768,-0.5228219628334045,-0.309411883354187,9.380304336547852,0.1275132596492767,-2.7616755962371826,-0.0588835887610912,-0.728540301322937,-0.1625894159078598,0.3942296802997589,-0.5997886061668396,-0.5290094017982483,-0.4527535140514374
1686242,9.277568817138672,-0.5813338160514832,3.165905475616455,0.7241670489311218,-0.1797883510589599,0.1993244290351867,0.7520037293434143,-0.2557505071163177,-0.5228550434112549,-0.3093618154525757,9.398380279541016,0.1418359577655792,-2.7456510066986084,0.0031183464452624,-0.3193007409572601,-0.0205285791307687,0.3941560685634613,-0.5998339056968689,-0.5290017127990723,-0.4527665972709656
1686409,9.282292366027832,-0.5728261470794678,3.1725499629974365,0.6741198897361755,-0.0604972019791603,0.1666554361581802,0.7520116567611694,-0.2557180225849151,-0.5228635668754578,-0.309355080127716,9.393583297729492,0.1475896686315536,-2.743358612060547,-0.1981142312288284,0.3224190473556518,0.1588563621044159,0.3941618502140045,-0.5998196601867676,-0.5289769172668457,-0.4528094530105591
1686575,9.280855178833008,-0.5850711464881897,3.211455583572388,0.720888614654541,-0.0178264379501342,0.216036707162857,0.7520253658294678,-0.2556844353675842,-0.5228669047355652,-0.3093438446521759,9.3502197265625,0.1432092189788818,-2.729422092437744,-0.3273815214633941,0.6345354914665222,0.43697190284729,0.3941778838634491,-0.5998369455337524,-0.5288751721382141,-0.45289146900177
1686909,9.259340286254885,-0.5780545473098755,3.2077791690826416,0.5762665271759033,0.050284132361412,0.0684051141142845,0.7520060539245605,-0.2556881010532379,-0.5228197574615479,-0.30946746468544,9.34618854522705,0.1451810598373413,-2.703122854232788,-0.4947605431079864,0.8334308862686157,0.4089003503322601,0.3941939175128937,-0.5998461246490479,-0.5287560820579529,-0.4530041515827179
1687075,9.237797737121582,-0.5792347192764282,3.230513095855713,0.4321439266204834,0.0869359076023101,0.1292096823453903,0.7520121932029724,-0.2556771337985992,-0.5227992534637451,-0.309496134519577,9.337888717651367,0.136251151561737,-2.70550274848938,-0.6699513792991638,0.8562902808189392,0.2541612386703491,0.3941797614097595,-0.5998591780662537,-0.5286292433738708,-0.4531472325325012
1687242,9.251355171203612,-0.5527958273887634,3.207761287689209,0.2776608467102051,0.271193653345108,0.0926859527826309,0.7520290613174438,-0.2556658685207367,-0.522754967212677,-0.3095391392707824,9.32305908203125,0.1115005761384964,-2.707072496414185,-0.6288813948631287,0.900036633014679,0.1423233598470688,0.3941899240016937,-0.5998290777206421,-0.5285454392433167,-0.4532760679721832
1687409,9.242610931396484,-0.577743411064148,3.1834537982940674,0.1140469387173652,0.2130400240421295,0.1763626486063003,0.752052366733551,-0.2556591033935547,-0.5227171182632446,-0.3095521628856659,9.312837600708008,0.126154288649559,-2.717838764190674,-0.4738349318504333,0.5015029907226562,0.1518384665250778,0.3941938877105713,-0.5998054146766663,-0.5285071134567261,-0.453348696231842
1687575,9.255904197692873,-0.5746431946754456,3.2048466205596924,0.3884741961956024,0.2458242774009704,0.249576523900032,0.7520848512649536,-0.255638062953949,-0.5226796865463257,-0.3095538020133972,9.348234176635742,0.1377700269222259,-2.7039921283721924,-0.5770796537399292,0.2683506309986114,0.1603803187608719,0.3941394090652466,-0.5998408198356628,-0.5284326076507568,-0.4534360468387604
1687742,9.265813827514648,-0.5243363380432129,3.181572914123535,0.1559236943721771,0.2769692838191986,-0.110390730202198,0.7520589828491211,-0.255674660205841,-0.522611677646637,-0.3097012639045715,9.38085651397705,0.2011188268661499,-2.697773694992065,-0.8069793581962585,0.0853351131081581,-0.3452335596084595,0.3940169811248779,-0.5998627543449402,-0.5283972024917603,-0.4535546898841858
1687909,9.27500820159912,-0.5529746413230896,3.1901772022247314,0.4116536974906921,0.1150842607021331,-0.2875025570392608,0.752066433429718,-0.2556011974811554,-0.5226168036460876,-0.3097350895404815,9.394974708557127,0.1867772936820984,-2.696232557296753,-1.2360433340072632,0.1943299621343612,-0.7889479398727417,0.3937997221946716,-0.5999086499214172,-0.5283191800117493,-0.4537733793258667
1688075,9.291300773620604,-0.4988994896411896,3.199984550476074,1.1615040302276611,-0.020707868039608,-0.4572891891002655,0.7520683407783508,-0.255464494228363,-0.5226645469665527,-0.3097626864910126,9.369281768798828,0.1570074409246444,-2.687357187271118,-1.241114616394043,0.202999860048294,-0.5299395322799683,0.3936505317687988,-0.599914014339447,-0.5282857418060303,-0.453934758901596
1688242,9.277522087097168,-0.5064874887466431,3.207721710205078,0.5231329202651978,-0.0633786246180534,-0.0804238766431808,0.7520662546157837,-0.2554164528846741,-0.5226799845695496,-0.3097811937332153,9.3193998336792,0.1685231775045395,-2.6960487365722656,-1.1102207899093628,-0.0221037585288286,-0.0405577085912227,0.3935255110263824,-0.5999664068222046,-0.528228223323822,-0.454040914773941
1688409,9.27585220336914,-0.5687850117683411,3.2232213020324707,0.3457650542259216,-0.1719508618116378,0.2677871882915497,0.7520296573638916,-0.2554778754711151,-0.522657573223114,-0.3098572194576263,9.309514045715332,0.1726151257753372,-2.678642511367798,-0.9355422258377076,-0.2736716568470001,0.3091645240783691,0.3933811783790588,-0.6000960469245911,-0.5281161665916443,-0.4541248381137848
1688575,9.26052474975586,-0.5581031441688538,3.214888334274292,0.6466502547264099,-0.3594614267349243,0.0768573060631752,0.7520093321800232,-0.2554535567760467,-0.5226988196372986,-0.3098571896553039,9.336816787719728,0.1688588708639145,-2.6812386512756348,-0.954047441482544,-0.389056921005249,0.4014342725276947,0.393275499343872,-0.6001909375190735,-0.5280585885047913,-0.4541579484939575
1688742,9.227215766906738,-0.5424319505691528,3.215822219848633,0.4136130809783935,-0.2211528718471527,-0.0299156326800584,0.7519906759262085,-0.2554327249526977,-0.5227218866348267,-0.3098807632923126,9.373809814453123,0.1476069986820221,-2.699091672897339,-0.6485263109207153,-0.2626582086086273,0.470140278339386,0.3931666612625122,-0.6003159284591675,-0.5279500484466553,-0.4542132914066314
1688909,9.246119499206545,-0.5486547946929932,3.2058122158050537,0.3067952990531921,-0.1888680458068847,0.0878323540091514,0.7519691586494446,-0.2554422318935394,-0.5227261781692505,-0.3099178075790405,9.382573127746582,0.1136840507388114,-2.7029404640197754,-0.2723269760608673,-0.1156541407108306,0.6218570470809937,0.3931183516979217,-0.6004139184951782,-0.5278527736663818,-0.454238623380661
1689075,9.244953155517578,-0.5694501996040344,3.200140476226806,0.5175493955612183,-0.2440889775753021,0.4018696248531341,0.7519692182540894,-0.2554485201835632,-0.5227373242378235,-0.3098936378955841,9.357704162597656,0.1175179407000541,-2.71321964263916,0.3786133229732513,0.0057564536109566,0.8219819068908691,0.3932017683982849,-0.6004220247268677,-0.5278419852256775,-0.4541680514812469
1689242,9.264559745788574,-0.5973798036575317,3.208937168121338,0.751316487789154,-0.3147160410881042,0.6052217483520508,0.7519904375076294,-0.2554334998130798,-0.5227660536766052,-0.3098061084747314,9.365877151489258,0.133386880159378,-2.6869771480560303,0.7911699414253235,-0.0367670282721519,0.8022474050521851,0.3932964503765106,-0.6004313826560974,-0.5278360247612,-0.4540806114673614
1689409,9.249434471130373,-0.5774555802345276,3.211878061294556,0.8635258078575134,-0.3763914406299591,0.6936495900154114,0.75201016664505,-0.2554249763488769,-0.5227986574172974,-0.3097101747989654,9.357891082763672,0.1382111012935638,-2.7030346393585205,0.9010098576545716,-0.1311882436275482,0.6126493215560913,0.3933505415916443,-0.6004616022109985,-0.5278185606002808,-0.4540141224861145
1689575,9.283801078796388,-0.5577468872070312,3.215510845184326,0.7769163250923157,-0.3945764303207397,0.6244183778762817,0.7520105242729187,-0.2554416358470917,-0.5228216648101807,-0.3096567094326019,9.37974452972412,0.1597916036844253,-2.7052597999572754,1.1438312530517578,-0.1612959802150726,0.6428723335266113,0.3934603035449981,-0.6004416346549988,-0.5278623104095459,-0.4538946449756622
1689742,9.279077529907228,-0.5537187457084656,3.1909849643707275,0.649826169013977,-0.4347627460956573,0.525988757610321,0.7519985437393188,-0.2554667592048645,-0.5228467583656311,-0.3096227049827575,9.37716579437256,0.179129883646965,-2.721688032150269,1.0441336631774902,-0.1544829905033111,0.6053497195243835,0.3934708833694458,-0.6005263328552246,-0.5277857184410095,-0.4538624882698059
1689909,9.264662742614746,-0.5576663017272949,3.2248423099517822,0.8185626864433289,-0.3979444801807403,0.6777567863464355,0.7520021200180054,-0.2554835677146911,-0.5228697657585144,-0.3095613121986389,9.309748649597168,0.1686473339796066,-2.694471597671509,0.6939312219619751,-0.2957626283168793,0.5617953538894653,0.3934402763843536,-0.6006324887275696,-0.5277031064033508,-0.4538445472717285
1690075,9.24832534790039,-0.5355409383773804,3.238483190536499,0.7497156858444214,-0.4032462835311889,0.4809872508049011,0.7519883513450623,-0.2555026710033417,-0.522892415523529,-0.3095408082008362,9.329845428466797,0.1447958350181579,-2.700992584228516,0.4787077307701111,-0.6418157815933228,0.698746383190155,0.393434077501297,-0.6007131934165955,-0.5276950001716614,-0.4537525177001953
1690242,9.261550903320312,-0.5339599251747131,3.1679511070251465,0.5122475624084473,-0.3862522840499878,0.4994156062602997,0.7520002722740173,-0.2554933726787567,-0.5229282379150391,-0.3094591200351715,9.320343017578123,0.1931298077106475,-2.715569496154785,0.386630117893219,-1.0164529085159302,0.5535353422164917,0.3934331238269806,-0.6007524132728577,-0.5277836918830872,-0.4535982608795166
1690409,9.252703666687012,-0.5684375762939453,3.188088893890381,0.8832219839096069,-0.5912691950798035,0.5880740284919739,0.7519819736480713,-0.2555136680603027,-0.5229735970497131,-0.3094102144241333,9.358448028564451,0.1882577240467071,-2.720909118652344,-0.0560277737677097,-1.0745679140090942,0.4768508374691009,0.3933505415916443,-0.6008523106575012,-0.52781081199646,-0.4535061419010162
1690575,9.27228546142578,-0.5068657994270325,3.167658567428589,0.8657540082931519,-0.5219355821609497,0.2465670555830001,0.7519561052322388,-0.2555015683174133,-0.5230257511138916,-0.3093948364257812,9.347481727600098,0.1632520258426666,-2.734205722808838,-0.2077061831951141,-0.953484058380127,0.5609501600265503,0.3932444453239441,-0.600987434387207,-0.5277814269065857,-0.453453004360199
1690742,9.250321388244627,-0.5249872207641602,3.212721586227417,0.3219836354255676,-0.3740222454071045,0.4693463146686554,0.7519320845603943,-0.2555569112300873,-0.5230304598808289,-0.3093997538089752,9.347859382629396,0.1646391749382019,-2.732860565185547,-0.2883349359035492,-0.9944002032279968,0.8070753812789917,0.3931311070919037,-0.6011637449264526,-0.5277109146118164,-0.4533997774124145
1690909,9.274736404418944,-0.5654683709144592,3.211145639419556,0.295628160238266,-0.6212489008903503,0.5205332636833191,0.7518977522850037,-0.2556173503398895,-0.5230649709701538,-0.3093746304512024,9.342395782470703,0.175228863954544,-2.7359960079193115,-0.4045653641223907,-0.9850261211395264,0.8256189227104187,0.3930369615554809,-0.6013150215148926,-0.5276676416397095,-0.4533311724662781
1691075,9.273585319519045,-0.5419086813926697,3.2089998722076416,0.4654020071029663,-0.7164384126663208,0.2515999674797058,0.7518348097801208,-0.2556698620319366,-0.5231141448020935,-0.3094012439250946,9.31716251373291,0.1473410427570343,-2.73884916305542,-0.3989945948123932,-1.0331907272338867,0.7710639238357544,0.3929137587547302,-0.6014898419380188,-0.527603805065155,-0.4532802104949951
1691242,9.28434944152832,-0.5439339876174927,3.218132495880127,0.0484656281769275,-0.6539561748504639,0.3111110627651214,0.751781165599823,-0.2557398676872253,-0.5231497883796692,-0.3094134032726288,9.351804733276367,0.1514224708080291,-2.742270946502685,-0.3459763526916504,-1.1040993928909302,0.6310136914253235,0.3928053081035614,-0.6016261577606201,-0.5275936126708984,-0.4532051086425781
1691409,9.261926651000977,-0.5495092868804932,3.1901557445526123,0.2948725819587707,-0.695602536201477,0.2263842523097992,0.7517321705818176,-0.2557740807533264,-0.5232059955596924,-0.3094090521335602,9.367416381835938,0.1469484120607376,-2.761110305786133,-0.1727960705757141,-0.954393208026886,0.4726247489452362,0.3927345275878906,-0.601705014705658,-0.5276293754577637,-0.4531201124191284
1691575,9.258421897888184,-0.556057333946228,3.214545488357544,0.3701355159282684,-0.5136626958847046,0.2860362231731415,0.7516923546791077,-0.2558134198188782,-0.5232351422309875,-0.3094239830970764,9.36899471282959,0.1383646577596664,-2.7374167442321777,0.0044502061791718,-0.8033678531646729,0.4352557957172394,0.3926870822906494,-0.6017623543739319,-0.52767014503479,-0.4530377984046936
1691742,9.263896942138672,-0.5580599904060364,3.209445714950561,0.3946725130081177,-0.5474586486816406,0.2580543756484985,0.7516335844993591,-0.2558766305446625,-0.5232564210891724,-0.3094785213470459,9.367263793945312,0.136482372879982,-2.738777637481689,0.1852118372917175,-0.5599576234817505,0.4531590342521667,0.3926586210727691,-0.6018133163452148,-0.5276859402656555,-0.4529762864112854
1691909,9.276248931884766,-0.5529710650444031,3.2017569541931152,0.4004481434822082,-0.592677891254425,0.3790359497070312,0.7515743970870972,-0.2559548318386078,-0.5232759118080139,-0.3095246851444244,9.331628799438477,0.1507728546857834,-2.75488805770874,0.2710143625736236,-0.3092861473560333,0.5904046893119812,0.3926889300346374,-0.6018264889717102,-0.527711808681488,-0.4529024958610534
1692075,9.263772010803224,-0.5564187169075012,3.2045891284942627,0.493102103471756,-0.5684354305267334,0.4797578752040863,0.751563310623169,-0.2559646070003509,-0.5233246684074402,-0.3094610571861267,9.330170631408691,0.1521175503730774,-2.7508366107940674,0.2879956066608429,-0.3350141048431396,0.612546980381012,0.3926746845245361,-0.6018949151039124,-0.5276781320571899,-0.4528630673885345
1692242,9.264272689819336,-0.544724702835083,3.1907601356506348,0.4700634479522705,-0.4445083439350128,0.4056090712547302,0.7515439987182617,-0.2559885382652282,-0.5233501195907593,-0.3094450831413269,9.33570384979248,0.1619485467672348,-2.750128507614136,0.2600137293338775,-0.3332212269306183,0.6415916681289673,0.3926800787448883,-0.6019427180290222,-0.5276679396629333,-0.4528067111968994
1692409,9.272780418395996,-0.5385911464691162,3.183028221130371,0.4574748575687408,-0.3970480561256408,0.4007426798343658,0.7515071034431458,-0.2560461163520813,-0.5233528017997742,-0.3094823360443115,9.342626571655272,0.1746619641780853,-2.7521419525146484,0.1841488927602768,-0.3302245438098907,0.7362050414085388,0.3926874101161957,-0.6019988059997559,-0.5276479721069336,-0.4527490735054016
1692575,9.269840240478516,-0.5491373538970947,3.208594560623169,0.3437864482402801,-0.3468471467494964,0.5101281404495239,0.7515053749084473,-0.2560700476169586,-0.5233663320541382,-0.3094441592693329,9.36479949951172,0.1528649777173996,-2.7445638179779053,0.063026450574398,-0.3803741931915283,0.7347451448440552,0.3927121460437774,-0.602026641368866,-0.5276669263839722,-0.4526684880256653
1692742,9.25937271118164,-0.5617077350616455,3.192913055419922,0.4641725718975067,-0.2407593727111816,0.4613679051399231,0.751499593257904,-0.2560961544513702,-0.523363471031189,-0.3094412982463836,9.355426788330078,0.1616695672273636,-2.7689285278320312,0.0984360054135322,-0.3707950413227081,0.6616848111152649,0.3927214443683624,-0.6020628213882446,-0.5276750326156616,-0.4526028931140899
1692909,9.264912605285645,-0.5439661741256714,3.209617376327514,0.4732394218444824,-0.2679344415664673,0.4711904227733612,0.751483142375946,-0.2561391294002533,-0.5233554840087891,-0.3094589412212372,9.33164882659912,0.1420826315879821,-2.7363529205322266,0.0126334642991423,-0.3115016520023346,0.7294816374778748,0.3927030563354492,-0.6021385788917542,-0.5276302695274353,-0.4525702595710754
1693075,9.269572257995604,-0.5472455620765686,3.1911141872406006,0.3416541814804077,-0.4825816452503204,0.484112024307251,0.751459002494812,-0.2561853229999542,-0.5233750343322754,-0.3094465136528015,9.333306312561035,0.144997090101242,-2.732010126113892,0.0179737117141485,-0.4746801257133484,0.7445418834686279,0.3926773965358734,-0.6022209525108337,-0.5275995135307312,-0.4525188207626343
1693242,9.27099895477295,-0.5390452742576599,3.1886680126190186,0.3658581674098968,-0.4928395748138428,0.5530230402946472,0.7514179348945618,-0.2562685012817383,-0.5233772993087769,-0.3094735443592071,9.33095932006836,0.1382513791322708,-2.742939710617065,0.2392034232616424,-0.5804479122161865,0.662248432636261,0.3926303088665008,-0.6023224592208862,-0.5275607705116272,-0.4524697363376617
1693409,9.27505111694336,-0.5581209659576416,3.179856538772583,0.2977283895015716,-0.3210552036762237,0.5002608299255371,0.7514002323150635,-0.2563213109970093,-0.5233722925186157,-0.3094813525676727,9.340239524841309,0.1536460667848587,-2.7460970878601074,0.1231778711080551,-0.5195024013519287,0.7613951563835144,0.3926528394222259,-0.6023540496826172,-0.5275939106941223,-0.4523696601390838
1693575,9.286992073059082,-0.5543800592422485,3.176029682159424,0.3546398282051086,-0.4000063836574554,0.4673357009887695,0.7513726353645325,-0.2563761472702026,-0.5233761072158813,-0.3094959259033203,9.34517765045166,0.1486558765172958,-2.756150484085083,0.1112039312720298,-0.6204164028167725,0.8128125667572021,0.3926433324813843,-0.6024267673492432,-0.5275931358337402,-0.4522817730903625
1693742,9.269758224487305,-0.5602951049804688,3.202615261077881,0.3399509191513061,-0.3531607091426849,0.4015750885009765,0.7513490915298462,-0.2564187049865722,-0.5233800411224365,-0.3095115125179291,9.346714973449709,0.1543026268482208,-2.7636382579803467,0.0109558338299393,-0.552094578742981,0.7224767208099365,0.392608642578125,-0.6025118827819824,-0.5275691151618958,-0.4522264301776886
1693909,9.274718284606934,-0.5360162258148193,3.180532217025757,0.2702587842941284,-0.3189036846160888,0.370583713054657,0.7513426542282104,-0.2564336955547333,-0.5233932137489319,-0.3094925284385681,9.346158027648926,0.1534692347049713,-2.779778242111206,-0.0423377901315689,-0.4881267845630646,0.7539033889770508,0.3926489949226379,-0.602512538433075,-0.5276334285736084,-0.4521155953407287
1694075,9.265734672546388,-0.5573838353157043,3.1900696754455566,0.254942387342453,-0.2786661386489868,0.3494020402431488,0.7513163685798645,-0.2564828395843506,-0.5233843326568604,-0.3095307648181915,9.333186149597168,0.1486808210611343,-2.7548024654388428,-0.1417919099330902,-0.3912979960441589,0.668164849281311,0.3926112949848175,-0.6025883555412292,-0.5275990962982178,-0.4520874321460724
1694242,9.286412239074709,-0.554848849773407,3.203477621078491,0.1954568922519683,-0.2799596190452575,0.3662936091423034,0.751291811466217,-0.2565337419509887,-0.5233750343322754,-0.3095634579658508,9.360955238342283,0.1459450125694275,-2.7502214908599854,-0.1791352182626724,-0.0958683267235755,0.6376345157623291,0.3925867676734924,-0.6026490330696106,-0.5275429487228394,-0.4520933926105499
1694409,9.254563331604004,-0.5529746413230896,3.2054011821746826,0.2569530010223388,-0.2554866671562195,0.26411172747612,0.7512664794921875,-0.2565695345401764,-0.5233690738677979,-0.3096051216125488,9.344740867614746,0.1593200415372848,-2.781012535095215,-0.2748883068561554,0.0963229537010192,0.636738121509552,0.3925974369049072,-0.6026676297187805,-0.5275092720985413,-0.452098548412323
1694575,9.268270492553713,-0.5484471321105957,3.212038516998291,0.1291456520557403,-0.0872112512588501,0.3382477462291717,0.7512548565864563,-0.2566137909889221,-0.523337721824646,-0.3096501529216766,9.336247444152832,0.1626245975494384,-2.775090217590332,-0.2345867156982422,0.1787702292203903,0.5926458239555359,0.3926064968109131,-0.6026842594146729,-0.5274671912193298,-0.4521176218986511
1694742,9.261940956115724,-0.5517406463623047,3.216500997543335,0.1205013468861579,-0.1946821212768554,0.4166865944862366,0.7512479424476624,-0.256653219461441,-0.523322343826294,-0.3096598982810974,9.336458206176758,0.1831375807523727,-2.7858726978302,-0.3377418518066406,0.2185339480638504,0.4996973276138305,0.3925887942314148,-0.6027133464813232,-0.5274057984352112,-0.4521659016609192
1694909,9.249588012695312,-0.5499134063720703,3.195838212966919,0.0962333232164383,-0.0690518394112587,0.37728151679039,0.7512413859367371,-0.2566981911659241,-0.5232875347137451,-0.3096978664398193,9.35639190673828,0.1426909267902374,-2.757960081100464,-0.3777232468128204,0.3986168205738067,0.4273030459880829,0.3925701677799225,-0.6027337908744812,-0.5273306369781494,-0.4522424340248108
1695075,9.272676467895508,-0.5322505235671997,3.189247369766236,0.0716067031025886,-0.0226160120218992,0.2477196305990219,0.7512391209602356,-0.2567205429077148,-0.5232576131820679,-0.3097352385520935,9.317241668701172,0.1411208063364029,-2.7513718605041504,-0.1783156096935272,0.4409289956092834,0.7587825655937195,0.3926269114017486,-0.6027263402938843,-0.5272818803787231,-0.45225989818573
1695242,9.26585865020752,-0.5610353350639343,3.18165135383606,-0.1094814762473106,0.001555971452035,0.332472026348114,0.7512242197990417,-0.2567870616912842,-0.5232040882110596,-0.3098065555095672,9.32063102722168,0.1531942337751388,-2.7699103355407715,-0.1700811237096786,0.3769997060298919,0.7412762641906738,0.3926373720169067,-0.6027688980102539,-0.5271844267845154,-0.4523077607154846
1695409,9.247198104858398,-0.5679875016212463,3.1953165531158447,0.2773791253566742,-0.0186844654381275,0.5339415669441223,0.7512206435203552,-0.2568455338478088,-0.5231538414955139,-0.309851735830307,9.347894668579102,0.1518386155366897,-2.789148330688477,-0.3359361290931701,0.2854855358600616,0.6820469498634338,0.3926887810230255,-0.6027438640594482,-0.527176558971405,-0.4523054361343384
1695575,9.27574348449707,-0.522255003452301,3.1558992862701416,-0.0189918167889118,-0.0358961969614028,0.112228438258171,0.7511752843856812,-0.256922960281372,-0.5230985879898071,-0.3099907636642456,9.369820594787598,0.2042014300823211,-2.763378381729126,-0.6371671557426453,0.272602379322052,0.2979077100753784,0.3926117718219757,-0.6027954816818237,-0.5270829200744629,-0.4524127840995788
1695742,9.295735359191896,-0.538244366645813,3.1779255867004395,0.1410043090581894,0.0187292844057083,-0.0464230142533779,0.7511634826660156,-0.2569158375263214,-0.523076593875885,-0.3100624978542328,9.387495040893556,0.2004521936178207,-2.76434588432312,-0.9845009446144104,0.5850772857666016,-0.2476876080036163,0.3924981653690338,-0.6027959585189819,-0.5270060896873474,-0.4526002705097198
1695909,9.294866561889648,-0.4938026964664459,3.196986198425293,0.7186090350151062,-0.0232819411903619,-0.1913396567106247,0.7511634230613708,-0.2568356096744537,-0.5230910778045654,-0.310104638338089,9.36390781402588,0.1650742888450622,-2.728110074996948,-0.9771884679794312,0.9146358966827391,0.1196433305740356,0.3924343287944793,-0.6028016209602356,-0.5268794894218445,-0.4527952373027801
1696075,9.278130531311035,-0.5125241279602051,3.2262682914733887,0.0132353622466325,0.1070162579417228,0.1730201840400695,0.7511587142944336,-0.256861537694931,-0.5230420231819153,-0.3101771175861358,9.301633834838867,0.1559390723705291,-2.7339751720428467,-0.7498117685317993,0.9412732124328612,0.6810480952262878,0.3924615383148193,-0.6027969121932983,-0.5267613530158997,-0.4529154598712921
1696242,9.265999794006348,-0.58298259973526,3.214177131652832,0.1909234523773193,-0.1253101229667663,0.3825192451477051,0.7511551976203918,-0.2568894326686859,-0.5230206847190857,-0.3101987540721893,9.306785583496094,0.1600647270679474,-2.736316442489624,-0.4570714235305786,0.8529220819473267,0.8587233424186707,0.3925234377384186,-0.6027899980545044,-0.5266576409339905,-0.4529918134212494
1696409,9.238405227661133,-0.5642610192298889,3.2151782512664795,0.510185718536377,-0.2680496871471405,0.4810512959957123,0.7511609792709351,-0.2568901777267456,-0.5230282545089722,-0.3101711273193359,9.317155838012695,0.1674147844314575,-2.726715326309204,-0.2477388381958007,0.715100109577179,0.8413963317871094,0.3925677537918091,-0.6028059124946594,-0.5265457630157471,-0.4530620276927948
1696575,9.224833488464355,-0.5630809664726257,3.2248806953430176,0.3323952257633209,-0.2224719226360321,0.3707886338233948,0.7511786818504333,-0.256866306066513,-0.5230430364608765,-0.3101229071617126,9.35292148590088,0.1291494518518448,-2.738823413848877,0.0845667347311973,0.690396785736084,0.7130127549171448,0.3926457464694977,-0.6027763485908508,-0.5264896154403687,-0.4530991017818451
1696742,9.266366958618164,-0.5599588751792908,3.2000513076782227,0.2532135546207428,-0.0138052459806203,0.4769788980484009,0.7512103915214539,-0.2568562626838684,-0.5230237245559692,-0.3100874423980713,9.358327865600586,0.1240273565053939,-2.754685163497925,0.5360546112060547,0.698772132396698,0.7511245012283325,0.3927448391914367,-0.6027488112449646,-0.5264301896095276,-0.4531190395355224
1696909,9.248472213745115,-0.5519053339958191,3.19622802734375,0.4484462738037109,-0.1070098429918289,0.5622691512107849,0.7512001395225525,-0.2569133639335632,-0.5229813456535339,-0.3101363778114319,9.365424156188965,0.1455934643745422,-2.725269079208374,0.882274329662323,0.6499671339988708,0.929068684577942,0.3928948938846588,-0.6027031540870667,-0.526398241519928,-0.4530867636203766
1697076,9.270150184631348,-0.5849164128303528,3.2099783420562744,0.5768684148788452,-0.0091181211173534,0.8057690858840942,0.7512603998184204,-0.2568901181221008,-0.522964596748352,-0.3100377917289734,9.374500274658203,0.1754851788282394,-2.719865560531616,0.9855830669403076,0.7047013640403748,1.0007457733154297,0.393057644367218,-0.6026583313941956,-0.526357889175415,-0.4530520439147949
1697242,9.267779350280762,-0.5632162690162659,3.229076147079468,0.760985255241394,-0.1699530631303787,0.8260799646377563,0.7512998580932617,-0.2568836212158203,-0.5229586958885193,-0.3099576234817505,9.35549259185791,0.1776619404554367,-2.7198357582092285,0.8968605995178223,0.5934655070304871,0.9525299668312072,0.3931883871555328,-0.6026362180709839,-0.5263060331344604,-0.4530284404754638
1697409,9.272666931152344,-0.5337190628051758,3.2219507694244385,0.6534631252288818,-0.1928123831748962,0.75033038854599,0.7513229846954346,-0.2568964064121246,-0.5229467749595642,-0.3099110126495361,9.345794677734377,0.1892333179712295,-2.723297595977783,0.6262625455856323,0.6416813731193542,1.0764057636260986,0.3933389186859131,-0.6025977730751038,-0.5262661576271057,-0.4529950022697449
1697576,9.249515533447266,-0.5370399355888367,3.231351137161255,0.5275896191596985,-0.2693943381309509,0.7156636118888855,0.751338005065918,-0.2569164335727691,-0.5229419469833374,-0.3098658323287964,9.363170623779297,0.1761564165353775,-2.7200183868408203,0.5247465968132019,0.6319485306739807,1.21134614944458,0.3934903144836426,-0.6025730967521667,-0.5262117385864258,-0.4529593586921692
1697742,9.27059268951416,-0.5533834099769592,3.22744083404541,0.4272774755954742,-0.3460788130760193,0.6889111995697021,0.7513622045516968,-0.2569146752357483,-0.5229582786560059,-0.3097809553146362,9.317413330078123,0.1637180298566818,-2.730268716812134,0.1385326981544494,0.6120858788490295,1.10251784324646,0.393582820892334,-0.6025812029838562,-0.5261221528053284,-0.4529722929000854
1697909,9.25656032562256,-0.5332428812980652,3.1924712657928467,0.3572267591953277,-0.3888648450374603,0.6717122793197632,0.7513574957847595,-0.2569592893123626,-0.5229575634002686,-0.3097564578056335,9.32723903656006,0.1370535641908645,-2.725228309631348,0.1646960526704788,0.4590756297111511,1.1890760660171509,0.393704205751419,-0.6025658249855042,-0.5260802507400513,-0.4529362320899963
1698076,9.286169052124023,-0.5581493973731995,3.1720027923583984,0.0778946205973625,-0.3886855244636535,0.6384156942367554,0.7513595819473267,-0.2569998204708099,-0.5229611992835999,-0.3097119629383087,9.295915603637695,0.1752267330884933,-2.7208070755004883,0.0137091968208551,0.2136291116476059,0.9027259349822998,0.3937720954418182,-0.6025552153587341,-0.5260652303695679,-0.4529085457324981
1698242,9.252506256103516,-0.5531752705574036,3.1902618408203125,0.540895402431488,-0.4432661533355713,0.7004880905151367,0.7513484358787537,-0.2570460736751556,-0.5229650139808655,-0.3096944093704223,9.364315032958984,0.1534871309995651,-2.7479865550994877,-0.2163248509168625,0.1818437427282333,0.6689589023590088,0.3937567770481109,-0.6025944948196411,-0.5259971022605896,-0.4529488086700439
1698409,9.272071838378906,-0.5090730786323547,3.1943936347961426,0.4447836577892303,-0.196910411119461,0.4305814802646637,0.7513465881347656,-0.2570602595806122,-0.5229528546333313,-0.3097077012062073,9.353967666625977,0.1340936571359634,-2.7436838150024414,-0.2084105312824249,0.3437288105487823,0.7305958271026611,0.393799215555191,-0.6025786995887756,-0.5259711146354675,-0.4529630839824676
1698576,9.255560874938965,-0.5389701724052429,3.206148624420166,0.0100850006565451,-0.1263090223073959,0.603236734867096,0.7513505816459656,-0.2571157813072204,-0.522914707660675,-0.3097162842750549,9.370344161987305,0.1436599940061569,-2.7429494857788086,-0.0438745506107807,0.3499270975589752,0.8922119140625,0.3937950730323791,-0.602649450302124,-0.5258446335792542,-0.4530194699764251
1698742,9.28017520904541,-0.5666143298149109,3.193885564804077,0.3481085896492004,-0.1699658781290054,0.5534583926200867,0.7513493895530701,-0.2571532130241394,-0.5228878855705261,-0.3097333908081054,9.352893829345703,0.1357724368572235,-2.735342025756836,-0.0380860827863216,0.4472553431987762,0.9208725690841676,0.3938158452510834,-0.6026972532272339,-0.5257316827774048,-0.4530688822269439
1698909,9.273759841918944,-0.5553635358810425,3.1937499046325684,0.4323744177818298,-0.2856968343257904,0.4828954041004181,0.7513415217399597,-0.2571775019168854,-0.5228818655014038,-0.3097424805164337,9.308549880981444,0.1303850412368774,-2.73193621635437,-0.059152528643608,0.2860874533653259,0.7225662469863892,0.3938565850257873,-0.60268634557724,-0.5257081985473633,-0.4530752599239349
1699076,9.276328086853027,-0.5628520846366882,3.179509401321411,0.0976932346820831,-0.2573307752609253,0.3641037344932556,0.7513415217399597,-0.2571878135204315,-0.5228818655014038,-0.3097339570522308,9.352693557739258,0.1271234452724456,-2.733924627304077,0.108040764927864,0.2319934070110321,0.517754316329956,0.3938833475112915,-0.6026652455329895,-0.5257036089897156,-0.4530853927135467
1699242,9.25851058959961,-0.561396598815918,3.1666600704193115,0.4047766923904419,-0.2481102049350738,0.2329282909631729,0.7513325810432434,-0.2571792006492615,-0.5228870511054993,-0.3097535073757171,9.359557151794434,0.1367541700601577,-2.739027976989746,-0.0352430753409862,0.2515231072902679,0.4932045042514801,0.3938800990581512,-0.602669358253479,-0.5256674289703369,-0.4531247317790985
1699409,9.27329158782959,-0.5481071472167969,3.1775600910186768,0.3326257467269897,-0.1967439651489257,0.2817076742649078,0.7513179779052734,-0.2571957409381866,-0.5228739380836487,-0.309798002243042,9.368536949157717,0.1488097757101059,-2.7156853675842285,-0.1048711836338043,0.2371287792921066,0.2777120471000671,0.3938631117343902,-0.6026510000228882,-0.5256591439247131,-0.4531734883785248
1699576,9.274603843688965,-0.5465946793556213,3.20716404914856,0.4765435457229614,-0.2710464000701904,0.2080967873334884,0.7513144612312317,-0.2571686208248138,-0.5228907465934753,-0.3098005056381225,9.386259078979492,0.1817925721406936,-2.7224130630493164,-0.298054963350296,0.3135826587677002,0.3568297028541565,0.3938764929771423,-0.6026021838188171,-0.5256759524345398,-0.4532072842121124
1699742,9.286144256591797,-0.5668147206306458,3.222033739089966,0.6200001835823059,-0.2769629061222076,0.2209799587726593,0.7513197064399719,-0.257121205329895,-0.5229167938232422,-0.3097831010818481,9.360095977783203,0.1542305648326873,-2.722083330154419,-0.4179224073886871,0.6089867949485779,0.4469224214553833,0.3938588500022888,-0.6026041507720947,-0.5255945324897766,-0.4533144235610962
1699909,9.264451026916504,-0.5561145544052124,3.208201169967652,0.2413036227226257,-0.1541244089603424,0.1606492549180984,0.751309335231781,-0.2571189999580383,-0.5229073762893677,-0.3098261058330536,9.358759880065918,0.1760569661855697,-2.7065863609313965,-0.5388655662536621,0.6601096987724304,0.6515166163444519,0.3938521146774292,-0.602619469165802,-0.5254911184310913,-0.4534198939800262
1700076,9.255946159362791,-0.5594157576560974,3.2215263843536377,0.2450430989265442,-0.2193599641323089,0.2684402763843536,0.7512845396995544,-0.2571512758731842,-0.5228890180587769,-0.3098900020122528,9.356069564819336,0.1651743501424789,-2.7043912410736084,-0.6527780890464783,0.6883220076560974,0.7096830606460571,0.3938394486904144,-0.6026444435119629,-0.5253725051879883,-0.4535349011421203
1700242,9.264336585998535,-0.5526027083396912,3.2374653816223145,-0.0243192575871944,-0.2595590949058532,0.2230802029371261,0.7512485384941101,-0.2572053968906402,-0.5228673219680786,-0.3099693655967712,9.347437858581545,0.1496031582355499,-2.6915857791900635,-0.6478988528251648,0.690319836139679,0.6586881875991821,0.3938373923301697,-0.6026495695114136,-0.5252766609191895,-0.4536409378051758
1700409,9.244302749633787,-0.5428932905197144,3.196406841278076,-0.0492788329720497,-0.2415533512830734,0.1147128716111183,0.7512150406837463,-0.2572409510612488,-0.5228519439697266,-0.3100466132164001,9.370014190673828,0.1293278336524963,-2.676563262939453,-0.5902318954467773,0.6616080403327942,0.6677038073539734,0.3937930166721344,-0.602706253528595,-0.5251246690750122,-0.4537801444530487
1700576,9.246444702148438,-0.5598158836364746,3.2204854488372803,0.0872304514050483,-0.3167394399642944,0.2024363577365875,0.751190721988678,-0.2572614848613739,-0.5228524208068848,-0.3100874423980713,9.376608848571776,0.1247667670249939,-2.6902871131896973,-0.4087147116661072,0.5332884192466736,0.6318845748901367,0.393798828125,-0.6027039289474487,-0.5250576734542847,-0.4538556039333343
1700742,9.259709358215332,-0.5743067264556885,3.224916458129883,0.2184955328702926,-0.3546078205108642,0.3824551999568939,0.7511759996414185,-0.2572846710681915,-0.5228551030158997,-0.3100997805595398,9.362500190734863,0.1213335618376731,-2.690073251724243,-0.1939521580934524,0.4623412191867828,0.5803261399269104,0.3938143253326416,-0.602689802646637,-0.5250135660171509,-0.4539119601249695
1700909,9.251569747924805,-0.5402969717979431,3.2100751399993896,0.2036017179489135,-0.3477436006069183,0.2998542487621307,0.751144528388977,-0.2573249638080597,-0.5228480100631714,-0.3101545870304107,9.352604866027832,0.1416464149951934,-2.6883208751678467,-0.0736749321222305,0.3991675078868866,0.5766891241073608,0.3938193917274475,-0.6026903986930847,-0.5249606966972351,-0.4539680182933807
1701076,9.266246795654297,-0.5539437532424927,3.211348295211792,0.1760680973529815,-0.3053033649921417,0.3725815117359161,0.7511117458343506,-0.2573832273483276,-0.5228263139724731,-0.3102222979068756,9.35389232635498,0.1422615796327591,-2.684197425842285,0.0425490923225879,0.207815021276474,0.6850948929786682,0.3938192129135132,-0.6027138829231262,-0.5249066948890686,-0.453999400138855
1701242,9.252184867858888,-0.5647153258323669,3.212038516998291,0.1930364966392517,-0.359000414609909,0.3756550550460815,0.7510828375816345,-0.257429838180542,-0.5228170156478882,-0.3102692663669586,9.358376502990724,0.1622739881277084,-2.65079927444458,0.0720421150326728,0.0444956570863723,0.8334563374519348,0.3938210904598236,-0.602755069732666,-0.5248539447784424,-0.4540041387081146
1701409,9.25876808166504,-0.5739884376525879,3.210350513458252,0.237807497382164,-0.4570970237255096,0.3733627200126648,0.7510694265365601,-0.2574394941329956,-0.522838294506073,-0.3102577030658722,9.35887622833252,0.1577104330062866,-2.671764850616455,0.0566424876451492,-0.0093102166429162,0.8564246892929077,0.3937972784042358,-0.6028267741203308,-0.5247726440429688,-0.4540236294269562
1701576,9.268420219421388,-0.5604199767112732,3.213411808013916,0.2946549355983734,-0.5490210652351379,0.2529318332672119,0.7510329484939575,-0.2574598491191864,-0.5228652954101562,-0.3102836310863495,9.339988708496094,0.1645878404378891,-2.689182043075561,-0.0262658223509788,-0.0108085582032799,0.8969758749008179,0.3937927484512329,-0.6028783321380615,-0.524714469909668,-0.4540261030197143
1701742,9.261154174804688,-0.551823079586029,3.195283889770508,0.2839232087135315,-0.5169283747673035,0.3314859867095947,0.750982403755188,-0.257519394159317,-0.5228684544563293,-0.3103513717651367,9.380908012390137,0.1540298014879226,-2.7185819149017334,-0.1614624559879303,-0.0686292350292205,0.8261056542396545,0.393793523311615,-0.6029043197631836,-0.5246939063072205,-0.4540146887302398
1701909,9.261067390441896,-0.5575417280197144,3.2304275035858154,0.1760680824518203,-0.6053945422172546,0.3569833934307098,0.7509323954582214,-0.25757896900177,-0.5228840112686157,-0.3103965818881988,9.35720920562744,0.168771430850029,-2.68881630897522,-0.3141781687736511,0.0032720223534852,0.8738860487937927,0.3937752544879913,-0.6029539108276367,-0.5246363282203674,-0.4540311396121979
1702076,9.265695571899414,-0.5494413375854492,3.222266435623169,0.0324961096048355,-0.6281898617744446,0.3147096335887909,0.7508885860443115,-0.2576261758804321,-0.5229097008705139,-0.310420274734497,9.343412399291992,0.1744816154241562,-2.7130162715911865,-0.5262385010719299,0.1283132284879684,0.6594309210777283,0.3937460780143738,-0.6029757857322693,-0.5245941877365112,-0.45407634973526
1702242,9.279294967651367,-0.5421138405799866,3.2018423080444336,0.1241383403539657,-0.6427506804466248,0.2869198322296142,0.7508458495140076,-0.2576618790626526,-0.5229417085647583,-0.310439795255661,9.351433753967283,0.164805069565773,-2.722532033920288,-0.713019073009491,0.4026252329349518,0.6040818691253662,0.3937236666679382,-0.6029784083366394,-0.5245376229286194,-0.4541575908660888
1702409,9.27193832397461,-0.5290143489837646,3.2152318954467773,0.1533368080854416,-0.4570970237255096,0.2689013183116913,0.7508172988891602,-0.2576847076416015,-0.5229551196098328,-0.3104673027992248,9.35592269897461,0.138693481683731,-2.721837282180786,-0.8270597457885742,0.5938880443572998,0.5632040500640869,0.3937007486820221,-0.6029734015464783,-0.5244646668434143,-0.4542685151100158
1702576,9.281466484069824,-0.5469024181365967,3.208054780960083,0.0151691203936934,-0.3157533407211303,0.2884694039821625,0.7507903575897217,-0.2577256560325622,-0.5229418277740479,-0.3105209767818451,9.346491813659668,0.1454536616802215,-2.7059144973754883,-0.7416156530380249,0.5270133018493652,0.5332627296447754,0.3936441540718078,-0.6030041575431824,-0.5243588089942932,-0.4543987512588501
1702742,9.277740478515623,-0.5477998852729797,3.1940395832061768,0.0306263845413923,-0.1712593138217926,0.2535977363586426,0.7507886290550232,-0.2577297389507293,-0.5229275226593018,-0.3105458915233612,9.352585792541504,0.1585175693035125,-2.6982452869415283,-0.9338645339012146,0.6288110017776489,0.4007042944431305,0.3935960829257965,-0.6029983758926392,-0.5242820382118225,-0.4545367658138275
1702909,9.25759220123291,-0.5528959631919861,3.1738803386688232,0.0828250646591186,-0.2716995179653168,0.278903067111969,0.7507719993591309,-0.2577522099018097,-0.5229166150093079,-0.3105859160423279,9.322696685791016,0.1476477682590484,-2.7140913009643555,-0.90548574924469,0.4970848560333252,0.2297907322645187,0.393524706363678,-0.6029909253120422,-0.5242246389389038,-0.4546745121479034
1703076,9.27069854736328,-0.5263676643371582,3.163630962371826,0.2922729253768921,-0.4641661643981933,0.2457858771085739,0.7507501840591431,-0.257752001285553,-0.5229403376579285,-0.3105989098548889,9.343052864074709,0.1219203248620033,-2.7238857746124268,-0.56219881772995,0.2531111240386963,0.5088155269622803,0.3934657275676727,-0.6030211448669434,-0.5241562724113464,-0.4547643065452575
1703242,9.305273056030272,-0.5623836517333984,3.132296323776245,0.1357409060001373,-0.321170449256897,0.3874240815639496,0.7507443428039551,-0.2577652633190155,-0.5229400992393494,-0.3106023371219635,9.320164680480955,0.153079554438591,-2.699686050415039,-0.2870927453041076,0.0431894101202487,0.6464709043502808,0.3934173882007599,-0.6030669808387756,-0.5240981578826904,-0.4548122584819793
1703409,9.275956153869627,-0.6055949330329895,3.165419101715088,0.3858872950077057,-0.1627558916807174,0.5971280932426453,0.7507492899894714,-0.2577935755252838,-0.5229095816612244,-0.3106183111667633,9.354942321777344,0.1518495082855224,-2.714298725128174,-0.2958011031150818,-0.2988874018192291,0.640170156955719,0.3933887183666229,-0.6030810475349426,-0.5241233110427856,-0.4547895193099975
1703576,9.260835647583008,-0.5317391157150269,3.1659305095672607,0.6582143306732178,-0.1048968061804771,0.2166257947683334,0.7507634162902832,-0.2577405571937561,-0.5229093432426453,-0.3106282353401184,9.414809226989746,0.1816820651292801,-2.714287757873535,-0.2616464793682098,-0.2990026175975799,0.4078246057033539,0.393352597951889,-0.603068470954895,-0.5241792798042297,-0.4547727704048157
1703742,9.311113357543944,-0.537647008895874,3.1827492713928223,0.2172661125659942,-0.1462100893259048,-0.0791176259517669,0.7507399916648865,-0.257722407579422,-0.5229011178016663,-0.3107135891914367,9.466582298278809,0.1937589049339294,-2.700737476348877,-0.5025851726531982,0.3706605732440948,0.2595014572143554,0.3933000266551971,-0.603054940700531,-0.5241462588310242,-0.454874187707901
1703909,9.30669116973877,-0.5438957214355469,3.2079689502716064,0.9725205302238464,-0.1421504765748977,0.0488370098173618,0.7507547736167908,-0.2576246261596679,-0.5229251980781555,-0.3107184469699859,9.377421379089355,0.1539784222841262,-2.7062671184539795,-0.4267332255840301,0.7171108722686768,0.3309096992015838,0.3932951092720032,-0.6030086278915405,-0.5241048336029053,-0.4549876749515533
1704076,9.277783393859863,-0.5441914796829224,3.233728170394897,0.7272406220436096,-0.2929836809635162,0.2718724012374878,0.7507442831993103,-0.2576022148132324,-0.5229337811470032,-0.3107482194900512,9.308721542358398,0.1490675508975982,-2.6679835319519043,-0.0988266021013259,0.7321197986602783,0.7280346155166626,0.3933381736278534,-0.6029808521270752,-0.5240401029586792,-0.4550618231296539
1704242,9.26198387145996,-0.5799106359481812,3.2226884365081787,0.3988217413425445,-0.2606860399246216,0.6688052415847778,0.7507542967796326,-0.2576231360435486,-0.5229193568229675,-0.3107312619686126,9.28934383392334,0.1379249095916748,-2.6662158966064453,0.1663736701011657,0.4207462072372436,0.8277959823608398,0.3934200704097748,-0.6029282808303833,-0.5240459442138672,-0.4550539255142212
1704409,9.241848945617676,-0.5781545639038086,3.2243611812591557,0.6703035831451416,-0.2998863160610199,0.6804717779159546,0.7507699131965637,-0.2576208114624023,-0.5229185223579407,-0.3106966912746429,9.349407196044922,0.1568652838468551,-2.6740682125091557,0.4004353582859039,0.2123868912458419,1.048667073249817,0.3934954404830932,-0.6029217839241028,-0.5240262746810913,-0.4550200700759887
1704576,9.23080348968506,-0.5648713111877441,3.1845574378967285,0.5524210929870605,-0.2219724506139755,0.6626068949699402,0.750778317451477,-0.257640391588211,-0.5228972434997559,-0.3106959462165832,9.365018844604492,0.1422914862632751,-2.667508125305176,0.682930588722229,0.1756198853254318,0.945806622505188,0.3935984969139099,-0.6028786897659302,-0.5240539312362671,-0.4549563229084015
1704742,9.238962173461914,-0.5578292608261108,3.208524465560913,0.4139844477176666,-0.0176727604120969,0.7419165968894958,0.7508121132850647,-0.2576524019241333,-0.5228539109230042,-0.3106771409511566,9.380258560180664,0.1407505422830581,-2.640036106109619,0.8079590201377869,0.4760056436061859,0.944910168647766,0.3937220871448517,-0.6028235554695129,-0.5240547060966492,-0.4549213945865631
1704909,9.237371444702148,-0.5611314177513123,3.2117996215820312,0.6861962080001831,0.0674574449658393,0.7936927080154419,0.7508622407913208,-0.2576394379138946,-0.5228090286254883,-0.3106423914432525,9.371400833129885,0.1410503685474395,-2.648184537887573,1.0055482387542725,0.4514174461364746,1.0659302473068235,0.3938885629177093,-0.6027454137802124,-0.5240856409072876,-0.454845517873764
1705076,9.256650924682615,-0.5664714574813843,3.2376229763031006,0.7687970995903015,0.0146056413650512,0.8446747660636902,0.7509152889251709,-0.2576211392879486,-0.5227727293968201,-0.3105905950069427,9.361543655395508,0.1490154564380645,-2.671590566635132,1.1346489191055298,0.3453936576843261,1.1267602443695068,0.3940706849098205,-0.6026614308357239,-0.5241366624832153,-0.4547399580478668
1705242,9.261635780334473,-0.5714568495750427,3.2139711380004883,0.7387535572052002,-0.094920665025711,1.0593477487564087,0.7509660124778748,-0.2576319873332977,-0.522736132144928,-0.3105203807353973,9.336921691894531,0.1577409952878952,-2.658963203430176,0.9649903774261476,-0.1629479974508285,1.0440183877944946,0.3941443860530853,-0.602670431137085,-0.524147629737854,-0.4546515047550201
1705409,9.2813138961792,-0.5469180345535278,3.221163034439087,0.6939824223518372,-0.1652275323867797,1.022887945175171,0.7510234117507935,-0.2576220035552978,-0.5227192640304565,-0.3104181885719299,9.35186767578125,0.1489728093147277,-2.677670478820801,0.7076851725578308,-0.3883909583091736,0.9986198544502258,0.3942041099071502,-0.60267174243927,-0.5241981148719788,-0.4545398950576782
1705576,9.273040771484377,-0.5295301079750061,3.197442054748535,0.4372664391994476,-0.1939777880907058,0.8993067145347595,0.7510755062103271,-0.2576111853122711,-0.5227086544036865,-0.3103190958499908,9.372095108032228,0.1438521444797516,-2.706444263458252,0.4808976054191589,-0.4604779183864593,0.9930106997489928,0.3942170441150665,-0.6027140021324158,-0.5242104530334473,-0.4544582068920135
1705742,9.277576446533203,-0.5611326694488525,3.1897709369659424,0.4113335907459259,-0.0518913306295871,0.8641661405563354,0.7511388063430786,-0.2575884759426117,-0.5226854681968689,-0.3102234601974487,9.329593658447266,0.1287214457988739,-2.6953229904174805,0.24659264087677,-0.6012324690818787,0.9441544413566588,0.394222229719162,-0.6027441620826721,-0.5242560505867004,-0.4543610513210296
1705909,9.270207405090332,-0.5435011982917786,3.229419231414795,0.276790052652359,-0.0736109018325805,0.7501254677772522,0.7511661052703857,-0.2576139271259308,-0.522642195224762,-0.3102091252803802,9.359596252441406,0.1067934334278106,-2.6972298622131348,0.227997824549675,-0.7714928388595581,1.160376787185669,0.3942328095436096,-0.6027963757514954,-0.5242995619773865,-0.4542324841022491
1706076,9.274067878723145,-0.5683272480964661,3.146883487701416,0.0274248011410236,-0.1013750731945037,0.6932269334793091,0.751178503036499,-0.2576649785041809,-0.522591769695282,-0.3102218508720398,9.352283477783203,0.1560467928647995,-2.7119786739349365,0.0270790252834558,-0.8480108380317688,0.7975602746009827,0.3941640257835388,-0.6028737425804138,-0.5243234634399414,-0.4541619718074798
1706242,9.261467933654783,-0.5785767436027527,3.184144973754883,0.5580687522888184,-0.3614080250263214,0.588611900806427,0.7511705160140991,-0.2576881647109985,-0.5225847363471985,-0.3102335035800934,9.353394508361816,0.1322338581085205,-2.696630477905273,-0.3493828177452087,-0.8393281102180481,0.3798170983791351,0.3940364718437195,-0.6029378771781921,-0.5243614315986633,-0.4541435241699219
1706409,9.264236450195312,-0.5152745842933655,3.1772053241729736,0.712167501449585,-0.4761016368865967,0.225154846906662,0.7511531710624695,-0.2576556205749511,-0.5226191282272339,-0.3102450668811798,9.3825101852417,0.1053637042641639,-2.706146717071533,-0.3195312619209289,-0.7475707530975342,0.3608893454074859,0.3939154148101806,-0.6029945611953735,-0.524395763874054,-0.4541335999965668
1706576,9.25765609741211,-0.5242147445678711,3.176612615585327,0.2280362695455551,-0.2842369675636291,0.493294209241867,0.7511367201805115,-0.2576992809772491,-0.5225947499275208,-0.310289204120636,9.371953964233398,0.1004501804709434,-2.6939027309417725,0.0111223142594099,-0.6281002163887024,0.6701626777648926,0.3938933312892914,-0.6030016541481018,-0.5244722962379456,-0.4540550112724304
1706742,9.268574714660645,-0.621065616607666,3.1946651935577397,0.344804584980011,-0.3388559818267822,0.4993772208690643,0.7511351704597473,-0.2577079832553863,-0.5225939154624939,-0.3102871477603912,9.347111701965332,0.1448994725942611,-2.7112996578216557,0.1215642690658569,-0.5853910446166992,0.7297378182411194,0.3938376605510711,-0.6030612587928772,-0.5244812965393066,-0.4540136754512787
1706909,9.258208274841309,-0.5885376930236816,3.2296690940856934,0.5872799754142761,-0.4060637354850769,0.4894266426563263,0.7511318325996399,-0.2577024400234222,-0.5226067900657654,-0.3102783262729645,9.332794189453123,0.1347641795873642,-2.7077908515930176,0.0651651099324226,-0.5859289765357971,0.6247513294219971,0.3937849402427673,-0.6030995845794678,-0.5245153307914734,-0.4539691209793091
1707076,9.256772994995115,-0.5691140294075012,3.213458299636841,0.3804061710834503,-0.3161375224590301,0.2931821346282959,0.7511286735534668,-0.2576838135719299,-0.5226158499717712,-0.3102863132953644,9.357173919677734,0.1468464434146881,-2.7002434730529785,-0.0294417981058359,-0.5933693051338196,0.3925850093364715,0.3937236368656158,-0.603107750415802,-0.5245854258537292,-0.4539304673671722
1707242,9.26412582397461,-0.5642110705375671,3.190720796585083,0.2774047255516052,-0.2254301607608795,0.2143206596374511,0.7511280179023743,-0.2576614022254944,-0.5226154923439026,-0.3103071749210357,9.377276420593262,0.1327130496501922,-2.7123851776123047,0.0206758510321378,-0.4010692834854126,0.3117642402648926,0.3936665058135986,-0.6031046509742737,-0.524642825126648,-0.4539179503917694
1707409,9.272540092468262,-0.5726508498191833,3.1951334476470947,0.2413932979106903,-0.1344154626131057,0.2435575872659683,0.7511342763900757,-0.2576407790184021,-0.5226024389266968,-0.3103309869766235,9.385143280029297,0.1511663049459457,-2.713454484939575,0.0657926276326179,-0.230911299586296,0.3494533002376556,0.3936121463775635,-0.6031089425086975,-0.5246684551239014,-0.4539297819137573
1707576,9.271464347839355,-0.5611319541931152,3.214720726013184,0.4323231875896454,-0.1242216005921363,0.1669371873140335,0.7511410713195801,-0.2575995028018951,-0.522596538066864,-0.3103588223457336,9.380040168762209,0.1551858931779861,-2.716007709503174,0.0269253533333539,0.0340584889054298,0.2081736326217651,0.3935872912406921,-0.6030617952346802,-0.5247185230255127,-0.453956127166748
1707742,9.265073776245115,-0.5574734807014465,3.216684103012085,0.4520321190357208,-0.2061309963464737,0.123830996453762,0.7511340379714966,-0.2575673162937164,-0.5225964188575745,-0.3104026615619659,9.372234344482422,0.1530902832746505,-2.707489252090454,-0.0200419388711452,0.2852038443088531,0.346443772315979,0.3935697376728058,-0.6030298471450806,-0.5247173309326172,-0.4540152251720428
1707909,9.283783912658691,-0.5446957349777222,3.226779699325561,0.4848548471927643,-0.1682754456996917,0.2246426045894622,0.7511528134346008,-0.2575084567070007,-0.5226041674613953,-0.3103930056095123,9.35224437713623,0.176689863204956,-2.6820874214172363,-0.0979301556944847,0.2956666052341461,0.4621491134166717,0.3935584723949432,-0.6030054688453674,-0.5247060060501099,-0.4540703892707824
1708076,9.268200874328612,-0.5574593544006348,3.2358386516571045,0.2849604785442352,-0.1135154739022255,0.3381452560424804,0.7511562705039978,-0.2575066685676574,-0.5225778818130493,-0.3104303777217865,9.328200340270996,0.189621239900589,-2.6958415508270264,-0.144045814871788,0.1740446984767913,0.4529413878917694,0.3935275077819824,-0.6029961705207825,-0.5246933698654175,-0.4541243314743042
1708242,9.25195598602295,-0.5481324195861816,3.21781063079834,0.1793721467256546,-0.0735596790909767,0.320254772901535,0.751150369644165,-0.2575263082981109,-0.5225362181663513,-0.3104985356330871,9.345413208007812,0.161111906170845,-2.691110134124756,-0.2252636700868606,0.1709327548742294,0.5462228655815125,0.3934936225414276,-0.6029998660087585,-0.5246659517288208,-0.4541802406311035
1708409,9.266850471496582,-0.539982259273529,3.2047252655029297,0.1220765188336372,-0.0592934004962444,0.2401254475116729,0.7511475682258606,-0.2575320303440094,-0.5224998593330383,-0.3105616271495819,9.362889289855955,0.1553719043731689,-2.6873910427093506,-0.3635722696781158,0.041729487478733,0.6643741726875305,0.3934530913829803,-0.6030200123786926,-0.5246369242668152,-0.4542221128940582
1708576,9.242056846618652,-0.5527350306510925,3.193438768386841,0.0544205792248249,-0.0941650792956352,0.2655588388442993,0.7511404752731323,-0.2575487196445465,-0.5224631428718567,-0.3106265962123871,9.343565940856934,0.1437241286039352,-2.683507442474365,-0.3999679386615753,0.0709791928529739,0.6817780137062073,0.3933961391448974,-0.6030597686767578,-0.5245808362960815,-0.4542833268642425
1708742,9.260889053344728,-0.5452929139137268,3.203437805175781,0.1449230462312698,-0.1176135092973709,0.3486464619636535,0.7511433959007263,-0.257554829120636,-0.5224339962005615,-0.3106635808944702,9.356156349182127,0.1541595757007599,-2.6973111629486084,-0.1778930127620697,-0.0219885036349296,0.6474058628082275,0.3933594524860382,-0.6030786633491516,-0.5245614647865295,-0.4543125033378601
1708909,9.2664213180542,-0.5506787300109863,3.21781063079834,0.1083865389227867,-0.1918519139289856,0.4456417560577392,0.7511522173881531,-0.2575610876083374,-0.5224149227142334,-0.3106692731380462,9.35062026977539,0.1312432289123535,-2.69500470161438,0.0082921106368303,-0.0279818717390298,0.5812737941741943,0.3933321237564087,-0.6030849814414978,-0.5245572328567505,-0.4543326795101166
1709076,9.268027305603027,-0.5534287691116333,3.19839859008789,0.2677615582942962,-0.2004833966493606,0.3634505867958069,0.7511543035507202,-0.2575582861900329,-0.5223997235298157,-0.3106922209262848,9.33838939666748,0.155160903930664,-2.6944074630737305,0.1428996473550796,-0.2877714931964874,0.5933502316474915,0.3933089077472687,-0.6030892133712769,-0.5245903730392456,-0.4543089270591736
1709242,9.276373863220217,-0.5521198511123657,3.2145237922668457,0.2410219013690948,-0.1947845667600631,0.3965934216976166,0.7511612772941589,-0.25755375623703,-0.5223848223686218,-0.3107041120529175,9.341193199157717,0.142368882894516,-2.7090272903442383,0.3051560819149017,-0.38634192943573,0.6518239378929138,0.3932934999465942,-0.6030974984169006,-0.5246318578720093,-0.4542633295059204
1709409,9.278505325317385,-0.5573804974555969,3.2005767822265625,0.2905312478542328,-0.2128031104803085,0.5128622651100159,0.751174807548523,-0.25755175948143,-0.5223705768585205,-0.3106969594955444,9.35580825805664,0.1697238832712173,-2.7177131175994877,0.4230769574642181,-0.3500231206417084,0.6918181777000427,0.3932966291904449,-0.6030957698822021,-0.5246801972389221,-0.4542070627212524
1709576,9.278462409973145,-0.54925537109375,3.2073428630828857,0.3277336955070495,-0.1400246173143386,0.4761721491813659,0.7511857748031616,-0.257552832365036,-0.522344708442688,-0.3107127249240875,9.354276657104492,0.1574636846780777,-2.71272349357605,0.4574107825756073,-0.3913748264312744,0.6888726949691772,0.3932909071445465,-0.6031033396720886,-0.5247231721878052,-0.4541522562503814
1709742,9.261099815368652,-0.5690889954566956,3.217156171798706,0.495407223701477,-0.172488734126091,0.5193935632705688,0.7511923313140869,-0.2575577199459076,-0.5223195552825928,-0.3107355535030365,9.359837532043455,0.1577522456645965,-2.702718734741211,0.3712496757507324,-0.3274967670440674,0.8689556121826172,0.393296331167221,-0.6031224727630615,-0.5247443914413452,-0.4540975093841553
1709909,9.27121353149414,-0.5491158962249756,3.2089200019836426,0.4710239470005035,-0.0801037102937698,0.5243880152702332,0.7512221932411194,-0.2575323581695556,-0.5222974419593811,-0.3107212483882904,9.35842227935791,0.1513092964887619,-2.7003438472747803,0.2709246873855591,-0.217503011226654,0.7101824283599854,0.3932738304138183,-0.6031477451324463,-0.5247434973716736,-0.4540845155715942
1710076,9.26477336883545,-0.5390273928642273,3.231106758117676,0.3903823792934418,-0.1607452929019928,0.5268211960792542,0.7512354850769043,-0.2575326263904571,-0.5222738981246948,-0.3107283413410187,9.390599250793455,0.1680316925048828,-2.708211898803711,0.1804478764533996,-0.0473963022232055,0.7762376666069031,0.3932767808437347,-0.6031532883644104,-0.5247430801391602,-0.4540751576423645
1710242,9.25399398803711,-0.5439339876174927,3.2248449325561523,0.3749763369560241,-0.1365925222635269,0.5159357786178589,0.7512419819831848,-0.2575451731681824,-0.5222408175468445,-0.3107579350471496,9.355100631713867,0.149274468421936,-2.7267866134643555,0.1469976603984832,0.2042804658412933,0.7815394401550293,0.3932801485061645,-0.6031628847122192,-0.5247039794921875,-0.454104870557785
1710409,9.26651096343994,-0.5501567125320435,3.2266221046447754,0.4701274633407593,0.0148361548781394,0.5382317304611206,0.7512835264205933,-0.2575095593929291,-0.5222108960151672,-0.3107374310493469,9.354693412780762,0.1287726163864135,-2.7252891063690186,0.1561286002397537,0.3653331398963928,0.8485551476478577,0.3933320939540863,-0.6031305193901062,-0.5246925950050354,-0.4541159570217132
1710576,9.259740829467772,-0.557155191898346,3.216970205307007,0.3465333878993988,-0.0453088656067848,0.5457233190536499,0.75129634141922,-0.2575248777866363,-0.5221644043922424,-0.3107720911502838,9.337841033935549,0.1551689058542251,-2.71713662147522,0.179192841053009,0.3075509071350097,0.8165136575698853,0.3933518826961517,-0.603128969669342,-0.5246527791023254,-0.4541468322277069
1710742,9.240161895751951,-0.5415129065513611,3.2196450233459477,0.3925466239452362,-0.066452145576477,0.4638395309448242,0.7513049244880676,-0.2575304806232452,-0.5221247673034668,-0.310812771320343,9.334001541137695,0.1248060837388038,-2.722119808197021,0.122371070086956,0.1296322643756866,0.7451053857803345,0.3933629095554352,-0.6031203269958496,-0.5246455073356628,-0.454157292842865
1710909,9.263739585876465,-0.541580855846405,3.205519199371338,0.168499544262886,-0.0445276759564876,0.4396739900112152,0.7513208389282227,-0.2575326859951019,-0.5220860242843628,-0.3108378946781158,9.350757598876951,0.1133916974067688,-2.7099034786224365,0.3252492547035217,0.1861210763454437,0.9536568522453308,0.3934045433998108,-0.6031187772750854,-0.5246222615242004,-0.454149842262268
1711076,9.2720365524292,-0.576863706111908,3.205104112625122,0.2112087458372116,0.0246714353561401,0.6526308655738831,0.7513436079025269,-0.2575589418411255,-0.5220257043838501,-0.3108624517917633,9.337457656860352,0.1492149382829666,-2.709967851638794,0.3590964376926422,-0.0398661643266677,0.8972832560539246,0.3934564292430877,-0.6030932664871216,-0.5246575474739075,-0.4540980160236358
1711242,9.259645462036133,-0.5667572617530823,3.1932601928710938,0.4605355560779571,0.0881525054574012,0.5727447867393494,0.7513750791549683,-0.2575521171092987,-0.5219711661338806,-0.3108837008476257,9.373665809631348,0.153776928782463,-2.7558932304382324,0.1170308366417884,0.0035665682516992,0.6537065505981445,0.393455445766449,-0.6030814051628113,-0.5246709585189819,-0.4540992975234985
1711409,9.264286994934082,-0.5254524350166321,3.1795341968536377,0.1037250310182571,0.1040836051106453,0.258950799703598,0.7513834238052368,-0.2575541734695434,-0.5219133496284485,-0.3109588027000427,9.394543647766112,0.1939017325639724,-2.7262325286865234,-0.1884966343641281,0.1538234651088714,0.2760088145732879,0.3933997750282287,-0.6030636429786682,-0.5246708989143372,-0.4541711807250976
1711576,9.296762466430664,-0.5569334626197815,3.226543664932251,0.2623701095581054,0.0944020077586174,0.1093726381659507,0.7514036893844604,-0.2575047016143799,-0.5218811631202698,-0.311004638671875,9.404863357543944,0.1824328154325485,-2.7258362770080566,-0.548931360244751,0.7622275352478027,-0.0044053839519619,0.3933682739734649,-0.6029731035232544,-0.5246740579605103,-0.4543148279190063
1711742,9.288330078125,-0.5130046010017395,3.218302965164185,0.96869158744812,0.0527685694396495,0.0866797864437103,0.7514358162879944,-0.2573953568935394,-0.521877646446228,-0.3110234439373016,9.374192237854004,0.1475516408681869,-2.710646152496338,-0.5976082682609558,1.3658804893493652,0.3985912203788757,0.3934096992015838,-0.6028705835342407,-0.5246108770370483,-0.4544880390167236
1711909,9.259039878845217,-0.5415740609169006,3.23653507232666,0.3948774039745331,0.1637996435165405,0.3757831752300262,0.7514602541923523,-0.257378339767456,-0.5218188166618347,-0.3110770285129547,9.329572677612305,0.1339998692274093,-2.701967239379883,-0.4793033003807068,1.472480535507202,0.7242823243141174,0.3934764862060547,-0.6027956008911133,-0.5245015621185303,-0.4546560049057007
1712076,9.254179954528809,-0.5857829451560974,3.25110125541687,0.4462180733680725,0.10098447650671,0.5730137825012207,0.7514711022377014,-0.2574067413806915,-0.521744966506958,-0.3111512959003448,9.327930450439451,0.1494439244270324,-2.713420152664185,-0.2976323664188385,1.321954607963562,0.9172354936599731,0.3935708105564117,-0.6027229428291321,-0.5244096517562866,-0.4547764956951141
1712242,9.239614486694336,-0.5724506378173828,3.2523281574249268,0.4867245256900787,-0.049829501658678,0.4681168794631958,0.7514909505844116,-0.2573902606964111,-0.5217128396034241,-0.3111709654331207,9.33836555480957,0.1309906840324401,-2.671518087387085,-0.0329763516783714,1.1935453414916992,0.86772620677948,0.3936779797077179,-0.6026368141174316,-0.5243505239486694,-0.4548659026622772
1712409,9.230630874633787,-0.5796424150466919,3.206195116043091,0.1089628264307975,0.0892666578292846,0.5042435526847839,0.7515197992324829,-0.2573929131031036,-0.5216560363769531,-0.3111942112445831,9.359369277954102,0.0989527106285095,-2.6862151622772217,0.3682145774364471,1.2082598209381104,0.7184298038482666,0.3937807381153106,-0.6025500297546387,-0.5242896676063538,-0.4549620449542999
1712576,9.244837760925291,-0.5846953392028809,3.1843338012695312,0.3451631069183349,0.2153579741716385,0.6417965888977051,0.7515820860862732,-0.2573599219322204,-0.5215981602668762,-0.3111680448055267,9.37998104095459,0.1031039282679557,-2.6614575386047363,0.7347193956375122,1.14693021774292,0.8277319669723511,0.393925130367279,-0.6024463772773743,-0.524256706237793,-0.4550123214721679
1712742,9.2561674118042,-0.5850027799606323,3.224360227584839,0.7380363345146179,0.3101634085178375,0.7540058493614197,0.751652181148529,-0.2573207318782806,-0.5215274095535278,-0.3111498653888702,9.373432159423828,0.1110797077417373,-2.6743316650390625,1.1727734804153442,1.0998541116714478,0.9791542887687684,0.3941118717193603,-0.6023359298706055,-0.5242375731468201,-0.4550188481807709
1712909,9.265067100524902,-0.5946524739265442,3.20019793510437,0.774406373500824,0.2301365286111831,0.9542075395584106,0.7517349720001221,-0.2572821974754333,-0.5214667320251465,-0.3110834956169128,9.343121528625488,0.1446254104375839,-2.6747231483459477,1.3824900388717651,0.945102035999298,1.045465350151062,0.3943366706371307,-0.6021965146064758,-0.5242732763290405,-0.4549677670001983
1713076,9.272089004516602,-0.5817224383354187,3.2208917140960693,0.8971168398857117,0.1621732115745544,0.9014965891838074,0.7518140077590942,-0.2572307586669922,-0.5214203000068665,-0.3110126554965973,9.344616889953612,0.1370088160037994,-2.6713755130767822,1.2679119110107422,0.7112967371940613,0.947087287902832,0.3945164084434509,-0.6020848751068115,-0.5243076086044312,-0.4549201726913452
1713242,9.269692420959473,-0.5605259537696838,3.222529888153076,0.988234043121338,0.1709071546792984,0.8244920372962952,0.7518987655639648,-0.2571546733379364,-0.5213842391967773,-0.3109313249588012,9.374725341796877,0.146729975938797,-2.65830659866333,1.1444075107574463,0.6182329654693604,0.8240438103675842,0.3946675360202789,-0.6019791960716248,-0.5243473649024963,-0.4548830687999725
1713409,9.279037475585938,-0.5697005391120911,3.2396316528320312,0.7551199793815613,0.3228800594806671,0.7497797608375549,0.7519814968109131,-0.2570938467979431,-0.5213226079940796,-0.3108848035335541,9.3875732421875,0.1630604267120361,-2.6591603755950928,0.8267843723297119,0.8409096598625183,0.8699929714202881,0.3947924673557281,-0.6019009947776794,-0.5243251323699951,-0.4549035727977752
1713576,9.260331153869627,-0.5724555850028992,3.2487967014312744,0.7035232186317444,0.3480958044528961,0.7314153909683228,0.7520629167556763,-0.257036954164505,-0.5212560892105103,-0.3108464181423187,9.346112251281738,0.1351456046104431,-2.6691198348999023,0.4238069057464599,0.7749314308166504,0.6723781824111938,0.3948744833469391,-0.6018227338790894,-0.524311900138855,-0.4549511969089508
1713743,9.225632667541504,-0.5277999639511108,3.252935647964477,0.5598231554031372,0.2856776416301727,0.6547694802284241,0.752129077911377,-0.2569956481456756,-0.5211912989616394,-0.310829222202301,9.360816955566406,0.1175062209367752,-2.6505045890808105,0.2657253444194793,0.7589746713638306,0.911088526248932,0.3949649631977081,-0.6017649173736572,-0.5242775082588196,-0.4549887180328369
1713909,9.25801944732666,-0.5475707054138184,3.2330238819122314,0.1311050206422805,0.178398847579956,0.5825544595718384,0.7521631121635437,-0.2570082247257232,-0.5211174488067627,-0.3108604550361633,9.322868347167969,0.1750839501619339,-2.6535494327545166,-0.0094510857015848,0.5192526578903198,0.6092044115066528,0.394970566034317,-0.6017407178878784,-0.5242356657981873,-0.4550640285015106
1714076,9.222776412963867,-0.5819959044456482,3.2476673126220703,0.7002063393592834,-0.1535225063562393,0.5340055227279663,0.7521954774856567,-0.2569621205329895,-0.521111249923706,-0.3108303248882293,9.36862564086914,0.1290613412857055,-2.6652863025665283,-0.4727591872215271,0.2683506309986114,0.2796074450016022,0.3949147462844848,-0.6017120480537415,-0.5242329835891724,-0.4551534950733185
1714243,9.244402885437012,-0.509348452091217,3.2011919021606445,0.767081081867218,-0.0594470724463462,0.230917677283287,0.752206563949585,-0.2569106817245483,-0.5210942625999451,-0.3108745217323303,9.372838973999023,0.1207790151238441,-2.655892133712769,-0.4592612981796264,0.3097151517868042,0.3958890736103058,0.3948781192302704,-0.6016800999641418,-0.5242288112640381,-0.4552324712276459
1714409,9.257428169250488,-0.531682014465332,3.232765913009644,0.1173125579953193,0.0795338302850723,0.4080294966697693,0.7522363066673279,-0.2568962275981903,-0.521047055721283,-0.3108938038349151,9.381643295288086,0.131711721420288,-2.651332139968872,-0.3072243332862854,0.3622596561908722,0.6016743779182434,0.3948606252670288,-0.6016650795936584,-0.5241976380348206,-0.4553034007549286
1714576,9.25594711303711,-0.6046043038368225,3.23673939704895,0.3279129862785339,0.0196897629648447,0.4907969236373901,0.7522491216659546,-0.2569072544574737,-0.5209928154945374,-0.3109442293643951,9.35037326812744,0.1329452693462371,-2.6496872901916504,-0.2915109395980835,0.4352301657199859,0.8579805493354797,0.3948745429515838,-0.6016550064086914,-0.5241509675979614,-0.4553581774234772
1714743,9.245965957641602,-0.5817954540252686,3.244699478149414,0.3992315828800201,-0.0282892305403947,0.4010500907897949,0.7522672414779663,-0.2568891942501068,-0.5209588408470154,-0.3109724223613739,9.345516204833984,0.1272048056125641,-2.6487905979156494,-0.300577849149704,0.3768845200538635,0.7416605949401855,0.3948640525341034,-0.6016536355018616,-0.5241019129753113,-0.455425500869751
1714909,9.26465129852295,-0.5679231882095337,3.2456655502319336,0.1921912878751754,-0.0917959213256836,0.1987353414297104,0.7522526383399963,-0.2568996548652649,-0.5209206938743591,-0.3110631108283996,9.34525203704834,0.1289294213056564,-2.642409563064575,-0.1370791643857956,0.1219228506088256,0.5079061985015869,0.3948444724082947,-0.6016292572021484,-0.5241137742996216,-0.4554612636566162
1715076,9.239907264709473,-0.565570056438446,3.2349977493286133,0.1563335210084915,-0.0806800052523613,0.2504858374595642,0.7522552013397217,-0.256892055273056,-0.5208905339241028,-0.3111138045787811,9.37067413330078,0.1182293966412544,-2.6616995334625244,-0.0684499368071556,-0.0047127362340688,0.3287966251373291,0.3947899043560028,-0.6016173362731934,-0.5241275429725647,-0.4555084705352783
1715243,9.254222869873049,-0.5553420782089233,3.245933771133423,0.2664937376976013,-0.0682706534862518,0.1886695474386215,0.752256453037262,-0.2568731606006622,-0.5208631753921509,-0.3111723363399505,9.390570640563965,0.140208825469017,-2.654693841934204,-0.0124733848497271,0.0244281124323606,0.1888744384050369,0.3947569131851196,-0.601563572883606,-0.524185836315155,-0.4555408656597137
1715409,9.278347969055176,-0.564196765422821,3.2661144733428955,0.498096615076065,-0.1066768914461135,0.1626982688903808,0.7522719502449036,-0.2568122744560241,-0.5208596587181091,-0.311190664768219,9.37069320678711,0.1632431298494339,-2.6629762649536133,-0.0222574360668659,0.0972578227519989,0.2064063251018524,0.3947190344333648,-0.6015179753303528,-0.5242249369621277,-0.4555889964103699
1715576,9.260363578796388,-0.5651694536209106,3.2546632289886475,0.6404775977134705,-0.082037478685379,0.1990298926830291,0.7522871494293213,-0.2567529678344726,-0.5208507776260376,-0.3112177550792694,9.387762069702148,0.1515095978975296,-2.6756718158721924,-0.0564631931483745,0.2144871354103088,0.2946164906024933,0.3946853578090668,-0.6014816761016846,-0.5242374539375305,-0.4556516408920288
1715743,9.262309074401855,-0.5508038997650146,3.2365784645080566,0.5396659970283508,-0.1241959854960441,0.2335173934698104,0.7523092031478882,-0.25668865442276,-0.5208507776260376,-0.3112174570560455,9.376611709594728,0.1776159107685089,-2.6659982204437256,-0.0726760327816009,0.1994140893220901,0.4566680490970611,0.3946698009967804,-0.6014488339424133,-0.5242483019828796,-0.4556960165500641
1715909,9.251980781555176,-0.5528424978256226,3.2498998641967773,0.4423889219760895,-0.1345819234848022,0.3274263441562652,0.7523243427276611,-0.2566535770893097,-0.5208384990692139,-0.3112301528453827,9.3609619140625,0.1653852760791778,-2.6726927757263184,-0.278576523065567,0.2544045150279999,0.6187707781791687,0.3946583569049835,-0.6014283895492554,-0.5242376923561096,-0.4557450115680694
1716076,9.254079818725586,-0.5579634308815002,3.2549564838409424,0.2690294086933136,-0.0676815584301948,0.2794025540351867,0.7523254752159119,-0.2566483914852142,-0.5208040475845337,-0.3112895786762237,9.365833282470703,0.1653781235218048,-2.6593499183654785,-0.1768685132265091,0.2144871652126312,0.5348508358001709,0.3946313858032226,-0.6014154553413391,-0.5242235660552979,-0.4558017253875732
1716243,9.252663612365724,-0.5550273656845093,3.2368180751800537,0.374758630990982,-0.0638652667403221,0.249781459569931,0.7523502111434937,-0.2565946280956268,-0.5207922458648682,-0.3112940490245819,9.356656074523926,0.1559154838323593,-2.66999626159668,-0.188061237335205,0.083260491490364,0.6872848868370056,0.3946291208267212,-0.6013955473899841,-0.5242355465888977,-0.4558162093162536
1716409,9.250042915344238,-0.5546985864639282,3.232344388961792,0.2356304228305816,-0.2647328674793243,0.3410907089710235,0.7523539662361145,-0.2565797567367553,-0.520788848400116,-0.3113026022911072,9.366351127624512,0.1357742846012115,-2.63438081741333,-0.1548287570476532,-0.0326818004250526,0.7076212167739868,0.3945946097373962,-0.6014128923416138,-0.5242197513580322,-0.455841451883316
1716576,9.252567291259766,-0.5591362714767456,3.242457389831543,0.3553057909011841,-0.2433206588029861,0.3386319279670715,0.7523574829101562,-0.2565607130527496,-0.5207836627960205,-0.3113183677196502,9.379362106323242,0.1277921944856643,-2.6455886363983154,0.0427796132862567,-0.0731626749038696,0.6914212107658386,0.3945832848548889,-0.6014091372489929,-0.5242336988449097,-0.455839991569519
1716743,9.253239631652832,-0.549030065536499,3.238280773162842,0.4108725190162658,-0.1635370701551437,0.3869246244430542,0.7523869276046753,-0.2565105855464935,-0.5207831263542175,-0.311289370059967,9.351758003234863,0.1327809989452362,-2.6664741039276123,0.1896428167819976,-0.0889657065272331,0.7498949766159058,0.3945900797843933,-0.601399838924408,-0.52425616979599,-0.4558205604553222
1716909,9.261364936828612,-0.5685669183731079,3.251652240753174,0.3022618591785431,-0.1118634566664695,0.532097339630127,0.7523856163024902,-0.2565411329269409,-0.5207364559173584,-0.3113458752632141,9.366634368896484,0.1454979926347732,-2.649086236953736,0.2831035554409027,-0.0807056128978729,0.6912931203842163,0.3946057856082916,-0.6013754606246948,-0.5242950916290283,-0.4557945430278778
1717076,9.259940147399902,-0.566943347454071,3.2469139099121094,0.2769565284252167,-0.1225695759057998,0.4765690863132477,0.7524031400680542,-0.2565330564975738,-0.5207105875015259,-0.3113531768321991,9.361408233642578,0.1464288532733917,-2.663416147232056,0.4714721143245697,-0.1059725433588028,0.7815266847610474,0.394620805978775,-0.6013720631599426,-0.5243128538131714,-0.4557656049728393
1717243,9.25243854522705,-0.5837550163269043,3.248784065246582,0.4014342427253723,-0.1430085003376007,0.4709983170032501,0.7524160742759705,-0.2565241456031799,-0.5206867456436157,-0.3113691806793213,9.373496055603027,0.1300328969955444,-2.6537768840789795,0.538474977016449,-0.234317809343338,0.7965101599693298,0.3946445286273956,-0.6013618111610413,-0.5243557691574097,-0.4557090699672699
1717409,9.24615478515625,-0.5726044178009033,3.254305839538574,0.4838815033435821,-0.1996637880802154,0.5545469522476196,0.7524235248565674,-0.2565283477306366,-0.5206629633903503,-0.3113873302936554,9.363988876342772,0.132060557603836,-2.6612355709075928,0.5883941650390625,-0.2692791223526001,0.8408328294754028,0.3946677446365356,-0.6013607382774353,-0.5243929028511047,-0.455647736787796
1717576,9.263059616088867,-0.5675119161605835,3.218382835388184,0.5584784746170044,-0.1817733198404312,0.5705036520957947,0.7524412274360657,-0.2565163969993591,-0.5206443667411804,-0.3113858997821808,9.38686180114746,0.1570399403572082,-2.665754795074463,0.564753532409668,-0.1919927895069122,0.7451182007789612,0.3946999311447143,-0.6013352274894714,-0.5244478583335876,-0.4555901885032654
1717743,9.263774871826172,-0.5641753077507019,3.240222692489624,0.4956376850605011,-0.0308504905551671,0.6153642535209656,0.7524711489677429,-0.2565061450004577,-0.5206056833267212,-0.3113865852355957,9.37718391418457,0.1535373032093048,-2.6605515480041504,0.36415496468544,-0.0578462816774845,0.5536377429962158,0.3947091400623321,-0.6013006567955017,-0.5244951844215393,-0.4555733799934387
1717909,9.24655532836914,-0.5441199541091919,3.2417104244232178,0.4217194616794586,-0.1032063663005828,0.5450317859649658,0.7524908185005188,-0.2564992904663086,-0.5205755233764648,-0.3113950490951538,9.364946365356444,0.1542132049798965,-2.658716917037964,0.2540587782859802,0.0499255545437336,0.5955913066864014,0.3947092890739441,-0.6012800335884094,-0.5245118737220764,-0.4555812776088714
1718076,9.252306938171388,-0.5499385595321655,3.248487710952759,0.4510203897953033,-0.1577998250722885,0.4587169587612152,0.7525038719177246,-0.2564857006072998,-0.5205557942390442,-0.3114078044891357,9.351871490478516,0.1691402941942215,-2.6599936485290527,0.1936640441417694,0.1339352130889892,0.65606290102005,0.3947342336177826,-0.6012405157089233,-0.5245393514633179,-0.4555801153182983
1718243,9.240930557250977,-0.5597694516181946,3.253436803817749,0.4888631701469421,-0.1607324779033661,0.4925642311573028,0.752528965473175,-0.2564546465873718,-0.520544707775116,-0.3113912940025329,9.381518363952637,0.1734246015548706,-2.6702823638916016,0.0702620297670364,0.0383230000734329,0.8122490644454956,0.3947574198246002,-0.6012191772460938,-0.5245589017868042,-0.4555657207965851
1718409,9.25649356842041,-0.5641860365867615,3.2636396884918213,0.1719444841146469,-0.0972001999616622,0.5031167268753052,0.7525367736816406,-0.2564738690853119,-0.520503044128418,-0.3114263713359833,9.364928245544434,0.1729954481124878,-2.66005802154541,-0.177662506699562,0.1267252415418625,0.7349756956100464,0.3947444558143616,-0.6012176871299744,-0.5245434641838074,-0.4555967152118683
1718576,9.244341850280762,-0.5513474345207214,3.251809597015381,0.2759448289871216,-0.020848736166954,0.4003969132900238,0.7525684833526611,-0.2564401030540466,-0.520476758480072,-0.3114213347434997,9.371504783630373,0.1150859296321868,-2.679187297821045,-0.1670460253953933,0.0874481573700904,0.7448365092277527,0.3947350084781647,-0.6012133955955505,-0.5245366096496582,-0.4556185901165008
1718743,9.263263702392578,-0.563424289226532,3.221215009689331,0.1099489107728004,-0.0873649194836616,0.4196704626083374,0.7525866031646729,-0.2564341723918915,-0.52044677734375,-0.3114323616027832,9.354280471801758,0.1362656950950622,-2.681541681289673,0.0073060221038758,0.0997550562024116,0.9493666291236876,0.3947654664516449,-0.6012020111083984,-0.5245363712310791,-0.4556073546409607
1718909,9.24182415008545,-0.589673638343811,3.222813606262207,0.2565687894821167,-0.0432214252650737,0.5587345361709595,0.7526031136512756,-0.2564475536346435,-0.5204002857208252,-0.3114590644836426,9.387218475341797,0.1224372908473014,-2.6880974769592285,-0.0294033847749233,-0.0156493615359067,0.8447517156600952,0.3947697281837463,-0.6012011170387268,-0.5245397090911865,-0.4556009471416473
1719076,9.260159492492676,-0.5444632768630981,3.247718334197998,0.292260080575943,-0.017595924437046,0.4341032207012176,0.7526337504386902,-0.2564199268817901,-0.5203706622123718,-0.3114572167396545,9.395283699035645,0.1559871584177017,-2.6849803924560547,-0.1212121024727821,0.1751844584941864,0.5425986051559448,0.3947731554508209,-0.6011558175086975,-0.5245687961578369,-0.4556242525577545
1719243,9.26844310760498,-0.5476887822151184,3.2483723163604736,-0.0419536009430885,-0.0412876717746257,0.0283980797976255,0.752629280090332,-0.2564030885696411,-0.520341694355011,-0.3115304410457611,9.42874240875244,0.179293155670166,-2.661692380905152,-0.3975218832492828,0.4687700271606445,0.0035025363322347,0.3947314023971557,-0.6010743379592896,-0.5245999097824097,-0.4557320773601532
1719409,9.274374961853027,-0.5560215711593628,3.2755842208862305,0.7477179169654846,0.0079719526693224,0.0131841357797384,0.7526391744613647,-0.2563256621360779,-0.5203291177749634,-0.3115912079811096,9.418642044067385,0.1524215340614318,-2.677835702896118,-0.561519980430603,0.9991833567619324,0.0327010117471218,0.3947054147720337,-0.600983202457428,-0.5245710611343384,-0.4559080600738525
1719576,9.266447067260742,-0.5088728666305542,3.258708000183105,0.5365796089172363,0.0384254530072212,0.1356640607118606,0.7526584267616272,-0.2562643885612488,-0.5203064680099487,-0.3116329610347748,9.360422134399414,0.1423647105693817,-2.641960382461548,-0.2755414545536041,1.1336501836776731,0.4665289223194122,0.3947309255599975,-0.6009133458137512,-0.5244998335838318,-0.4560601115226745
1719743,9.233420372009276,-0.5766777396202087,3.304222345352173,0.3281434774398803,-0.0569114163517952,0.4677582681179046,0.7526818513870239,-0.2562475800514221,-0.5202762484550476,-0.3116405010223388,9.339604377746582,0.1565588265657425,-2.6121480464935303,-0.1129520013928413,0.9765930771827698,0.7784916162490845,0.3947780132293701,-0.600868821144104,-0.5244202613830566,-0.4561691582202911
1719909,9.251537322998049,-0.5969297885894775,3.272480010986328,0.5739229321479797,-0.163729190826416,0.4883509576320648,0.7527052164077759,-0.2562142610549927,-0.5202658772468567,-0.3116292655467987,9.339216232299805,0.1689545810222625,-2.603111743927002,-0.0995821803808212,0.9555778503417968,0.9263536930084229,0.3948590755462646,-0.6008104681968689,-0.5243598222732544,-0.4562456309795379
1720076,9.222517013549805,-0.5725114941596985,3.2728989124298096,0.5183945894241333,-0.1340568512678146,0.4287885725498199,0.7527179718017578,-0.2561942040920257,-0.5202454328536987,-0.3116490244865417,9.368056297302246,0.1231775879859924,-2.6251466274261475,0.0193952154368162,0.8644093871116638,0.9624035358428956,0.3949343562126159,-0.6007667183876038,-0.5242942571640015,-0.4563131928443908
1720243,9.226496696472168,-0.565991997718811,3.237046957015991,0.2343754023313522,-0.1787382066249847,0.4681040942668915,0.752715528011322,-0.2562150657176971,-0.5202129483222961,-0.3116920590400696,9.383325576782228,0.1265981495380401,-2.64306640625,0.3852598369121551,0.7759944200515747,1.0633049011230469,0.3950549662113189,-0.6007012128829956,-0.5242657661437988,-0.4563277661800384
1720409,9.233677864074709,-0.5802110433578491,3.256916284561157,0.4554257988929748,-0.2271718531847,0.5755621790885925,0.7527367472648621,-0.2561992406845093,-0.5202031135559082,-0.3116701543331146,9.371526718139648,0.1263261586427688,-2.6502761840820312,0.7033568024635315,0.7145366668701172,1.1653969287872314,0.3951765596866607,-0.6006600856781006,-0.524217426776886,-0.4563322961330414
1720576,9.237180709838867,-0.5957844853401184,3.2658653259277344,0.5971664786338806,-0.1813507229089737,0.7804252505302429,0.7527660727500916,-0.2561981081962585,-0.5201787948608398,-0.3116409182548523,9.38800048828125,0.1316519379615783,-2.641050100326538,0.8998190760612488,0.5821702480316162,1.324144721031189,0.3953370153903961,-0.6006054282188416,-0.5242026448249817,-0.4562822878360748
1720743,9.257680892944336,-0.5965451598167419,3.2745110988616943,0.7505865693092346,-0.2465478479862213,1.0209158658981323,0.7528173327445984,-0.2561847567558288,-0.5201677083969116,-0.3115465044975281,9.387495994567873,0.1565223336219787,-2.640192031860352,1.0215816497802734,0.4515966773033142,1.3972431421279907,0.3955005407333374,-0.6005606651306152,-0.5241938233375549,-0.4562094807624817
1720909,9.255290031433104,-0.5780602693557739,3.236079692840576,0.7556963562965393,-0.2580479681491852,1.0581694841384888,0.7528563141822815,-0.2561957538127899,-0.5201459527015686,-0.3114795982837677,9.391372680664062,0.1494127362966537,-2.643520832061768,0.9157757759094238,0.375693529844284,1.4402085542678833,0.3956591486930847,-0.6005224585533142,-0.5241877436637878,-0.4561292231082916
1721076,9.267486572265623,-0.5507103204727173,3.244028329849243,0.5157052874565125,-0.3315435647964477,0.9782323241233826,0.7528775334358215,-0.2562297880649566,-0.5201247930526733,-0.3114354014396667,9.39950180053711,0.133669376373291,-2.6340904235839844,0.773266613483429,0.3385294675827026,1.3292542695999146,0.3957815170288086,-0.6005011796951294,-0.524167001247406,-0.4560748934745788
1721243,9.25814437866211,-0.5732380747795105,3.253114700317383,0.4079526662826538,-0.3793112635612488,0.9290429949760436,0.752885103225708,-0.2562803328037262,-0.5201029181480408,-0.3114121556282043,9.358553886413574,0.1442094445228576,-2.6087677478790283,0.7168930172920227,0.4534536004066467,1.084255933761597,0.3958985209465027,-0.6004486680030823,-0.5241666436195374,-0.4560428559780121
1721409,9.25835132598877,-0.5617432594299316,3.268000602722168,0.4420815706253052,-0.4038866460323334,0.8411786556243896,0.7528936266899109,-0.2563124299049377,-0.5200931429862976,-0.3113812804222107,9.357145309448242,0.1281460076570511,-2.631424188613892,0.4970336854457855,0.1606748700141906,1.190164566040039,0.3959918618202209,-0.6004246473312378,-0.5241726636886597,-0.4559864699840545
1721576,9.246753692626951,-0.5583111047744751,3.241363286972046,0.241585373878479,-0.4567256271839142,0.8350443840026855,0.7529011964797974,-0.2563510537147522,-0.5200889110565186,-0.3113383650779724,9.342107772827148,0.1178047955036163,-2.637221097946167,0.6369430422782898,0.0751284509897232,1.2683089971542358,0.3960752189159393,-0.6004276871681213,-0.5241588950157166,-0.4559258818626404
1721743,9.259235382080078,-0.5922369956970215,3.235764980316162,0.0780610963702201,-0.4321886897087097,0.9163903594017028,0.7529051303863525,-0.2564177215099334,-0.5200690627098083,-0.3113071918487549,9.36413860321045,0.1739028692245483,-2.640259027481079,0.4200930297374725,-0.2357904911041259,0.9965709447860718,0.3961035013198852,-0.6004377007484436,-0.5241788029670715,-0.4558652341365814
1721909,9.239398002624512,-0.5474885702133179,3.255668878555298,0.9922807216644288,-0.6312505602836609,0.7663255929946899,0.7529235482215881,-0.2563783228397369,-0.5201199650764465,-0.3112095594406128,9.402395248413086,0.1373897641897201,-2.630811929702759,0.2031663358211517,-0.1913012564182281,0.8714401721954346,0.3961104154586792,-0.6004435420036316,-0.5241976380348206,-0.4558298289775848
1722076,9.229432106018066,-0.5268479585647583,3.253518581390381,0.4076325297355652,-0.5240742564201355,0.5369510054588318,0.7529160380363464,-0.2563832700252533,-0.5201398730278015,-0.3111906051635742,9.40189266204834,0.1076064631342887,-2.626784086227417,0.2031407356262207,0.0616049505770206,0.941247582435608,0.3961468338966369,-0.6004325747489929,-0.5242018699645996,-0.4558077156543731
1722243,9.24866008758545,-0.5608610510826111,3.2405824661254883,0.104621484875679,-0.5359585285186768,0.7564902901649475,0.7529129385948181,-0.2564281821250915,-0.5201444029808044,-0.3111535608768463,9.3800630569458,0.1308786571025848,-2.613948345184326,0.1657973825931549,0.1103843301534652,1.212780475616455,0.396193116903305,-0.6004507541656494,-0.5241659879684448,-0.4557848274707794
1722409,9.253978729248049,-0.5876812934875488,3.2760086059570312,0.4718563556671142,-0.6669034957885742,0.7719091773033142,0.7529132962226868,-0.2564413547515869,-0.5201786756515503,-0.3110845386981964,9.365029335021973,0.1223948970437049,-2.6269118785858154,0.1400566399097442,0.0436888635158538,1.1941345930099487,0.3962367475032806,-0.6004666090011597,-0.5241417288780212,-0.4557540714740753
1722576,9.25111961364746,-0.5574933290481567,3.2833123207092285,0.1871968209743499,-0.7023003101348877,0.6715714335441589,0.7528753280639648,-0.2565122842788696,-0.5201914310455322,-0.3110968172550201,9.350046157836914,0.1199642643332481,-2.6353132724761963,0.0327778533101081,-0.1368486583232879,1.110137701034546,0.3962617814540863,-0.6004829406738281,-0.5241410136222839,-0.4557115435600281
1722743,9.247065544128418,-0.5687242746353149,3.2571563720703125,0.1473946720361709,-0.7830314040184021,0.5608220100402832,0.7528390288352966,-0.2565610110759735,-0.520226240158081,-0.3110862672328949,9.377729415893556,0.098075732588768,-2.6398234367370605,0.0206246264278888,-0.4459043145179748,1.0475786924362185,0.3962371051311493,-0.600537896156311,-0.5241371989250183,-0.4556651413440704
1722909,9.25106143951416,-0.5663624405860901,3.246717691421509,0.1904240250587463,-0.684601902961731,0.5011700987815857,0.7528129816055298,-0.2565891742706299,-0.5202576518058777,-0.311073362827301,9.384462356567385,0.1021279618144035,-2.661394596099853,0.1817925423383712,-0.5419391393661499,0.999081015586853,0.3962363600730896,-0.6005653738975525,-0.5241780281066895,-0.4555826485157013
1723076,9.253865242004396,-0.5734115839004517,3.2354001998901367,0.0481198579072952,-0.7464821338653564,0.5343257784843445,0.7527680397033691,-0.2566547691822052,-0.5202800035476685,-0.3110906183719635,9.40963649749756,0.1042172685265541,-2.6146512031555176,0.218265026807785,-0.3984695971012115,1.0540715456008911,0.3962616920471191,-0.6005760431289673,-0.5242189168930054,-0.4554992914199829
1723243,9.272446632385254,-0.5837163329124451,3.25242280960083,0.304490178823471,-0.6997645497322083,0.4521090090274811,0.7527249455451965,-0.2566955089569092,-0.5203061103820801,-0.3111175298690796,9.39709186553955,0.1094076782464981,-2.6273748874664307,0.2514975070953369,-0.2042228579521179,1.0171892642974854,0.3962809443473816,-0.6005929708480835,-0.5242264866828918,-0.4554515480995178
1723409,9.2704439163208,-0.5888957977294922,3.2495152950286865,0.2664553523063659,-0.6705916523933411,0.5379883646965027,0.752692461013794,-0.2567365169525146,-0.5203286409378052,-0.311124712228775,9.37339210510254,0.1040157079696655,-2.593329429626465,0.277519941329956,-0.1708366870880127,0.936406672000885,0.396301120519638,-0.6005977392196655,-0.5242435336112976,-0.4554081559181213
1723576,9.246374130249023,-0.5792749524116516,3.2541375160217285,0.2216074913740158,-0.7223550081253052,0.5057932138442993,0.7526565790176392,-0.2567766308784485,-0.5203589797019958,-0.3111275136470794,9.36589241027832,0.1023020520806312,-2.612738132476806,0.2940914034843445,-0.1655348837375641,1.0445820093154907,0.3963331580162048,-0.60060715675354,-0.5242541432380676,-0.4553555250167846
1723743,9.231218338012695,-0.5816205143928528,3.258023262023926,0.128607764840126,-0.7574059367179871,0.6086921691894531,0.7526268362998962,-0.2568239271640777,-0.5203912258148193,-0.3111066222190857,9.364374160766602,0.097620815038681,-2.637333631515503,0.2327874153852462,-0.2281707227230072,0.9634537100791932,0.3963484466075897,-0.600619375705719,-0.5242697596549988,-0.4553081691265106
1723909,9.232590675354004,-0.594088077545166,3.21348237991333,0.2371928095817566,-0.7506442070007324,0.5468247532844543,0.7526008486747742,-0.2568520903587341,-0.5204311013221741,-0.3110796511173248,9.381006240844728,0.0968289300799369,-2.641439914703369,0.234170526266098,-0.2809329032897949,1.1668570041656494,0.3963828682899475,-0.600639820098877,-0.5242831707000732,-0.4552357792854309
1724076,9.225345611572266,-0.584040105342865,3.237385034561157,0.1503401547670364,-0.8626101613044739,0.5902767181396484,0.7525486946105957,-0.2569239437580108,-0.5204648375511169,-0.3110900819301605,9.380053520202637,0.1033215671777725,-2.6300857067108154,0.3084345459938049,-0.3193775713443756,1.0253340005874634,0.3963990807533264,-0.600662112236023,-0.5242994427680969,-0.4551734924316406
1724243,9.254321098327637,-0.5918133854866028,3.2391629219055176,0.178053081035614,-0.8381883502006531,0.6562036871910095,0.7525088787078857,-0.2569864690303802,-0.5204998254776001,-0.3110762238502502,9.391009330749512,0.0889462679624557,-2.6563503742218018,0.2725127041339874,-0.3829226493835449,1.0944370031356812,0.3964092433452606,-0.6006984710693359,-0.5243080854415894,-0.4551067054271698
1724409,9.22752857208252,-0.5781347751617432,3.247533798217773,0.242725133895874,-0.8472040295600891,0.6304886341094971,0.7524780035018921,-0.2570268809795379,-0.5205464363098145,-0.311039537191391,9.368890762329102,0.0946558564901351,-2.6590209007263184,0.2433142066001892,-0.4594021439552307,1.130947828292847,0.3964103460311889,-0.6007470488548279,-0.5243128538131714,-0.4550361335277557
1724576,9.27467918395996,-0.5877901911735535,3.2372050285339355,0.0678544417023658,-0.837791383266449,0.6465862393379211,0.7524347901344299,-0.2570988833904266,-0.5205776691436768,-0.3110323250293731,9.383374214172363,0.1010821312665939,-2.640183448791504,0.2823352217674255,-0.4504121243953705,1.2102705240249634,0.3964389860630035,-0.6007808446884155,-0.5243337154388428,-0.4549424648284912
1724743,9.25217056274414,-0.6138449311256409,3.2234857082366943,0.1208599284291267,-0.9170626997947692,0.5881124138832092,0.7523890733718872,-0.2571575939655304,-0.5206254720687866,-0.311014324426651,9.391067504882812,0.1007380187511444,-2.6700940132141118,0.330192506313324,-0.3039587140083313,1.203752040863037,0.3964714407920837,-0.6008124351501465,-0.5243375301361084,-0.4548681974411011
1724909,9.270259857177734,-0.590765118598938,3.2175323963165283,0.0190878640860319,-0.9101601839065552,0.6179640293121338,0.7523402571678162,-0.2572311162948608,-0.5206659436225891,-0.3110035955905914,9.359549522399902,0.0851847603917121,-2.691343069076538,0.3424353897571563,-0.3122700154781341,1.4605449438095093,0.3965206146240234,-0.6008644700050354,-0.5243191123008728,-0.4547778964042663
1725076,9.269818305969238,-0.5984243154525757,3.2308192253112797,-0.0648641660809516,-0.8440665602684021,0.6432949900627136,0.7522947192192078,-0.257312923669815,-0.5206944942474365,-0.310998260974884,9.36852741241455,0.0954623892903328,-2.660174608230591,0.2299059778451919,-0.2347916215658188,1.441028118133545,0.3965798914432525,-0.6008989810943604,-0.5243105888366699,-0.4546903371810913
1725243,9.265658378601074,-0.5970802307128906,3.2185990810394287,-0.0475883930921554,-0.8144325613975525,0.6217930316925049,0.7522411346435547,-0.2574054598808288,-0.5207136869430542,-0.3110193908214569,9.39655590057373,0.090995118021965,-2.6536319255828857,0.0638204514980316,-0.1462997496128082,1.2338982820510864,0.3966096639633178,-0.6009318232536316,-0.5242922306060791,-0.4546419978141784
1725409,9.276812553405762,-0.5914226174354553,3.216801643371582,0.0417166836559772,-0.6460035443305969,0.4729833602905273,0.7521985769271851,-0.2574666440486908,-0.5207253694534302,-0.3110520541667938,9.38896369934082,0.0783348456025123,-2.646625518798828,0.0296787172555923,0.1327057927846908,1.140334963798523,0.3966365158557892,-0.6009560227394104,-0.5242463946342468,-0.4546394944190979
1725576,9.2525053024292,-0.5680407285690308,3.238124132156372,0.1645680218935012,-0.5860570669174194,0.6178615689277649,0.7521886229515076,-0.2574962675571441,-0.5207441449165344,-0.3110202252864837,9.35631275177002,0.0941093564033508,-2.6613619327545166,-0.1009268537163734,0.2849733233451843,1.102095365524292,0.3966639339923858,-0.6009732484817505,-0.5241882801055908,-0.4546598196029663
1725743,9.261783599853516,-0.5829790234565735,3.237755060195923,-0.0775808617472648,-0.4916357398033142,0.5398836731910706,0.752167820930481,-0.257550299167633,-0.5207404494285583,-0.311032086610794,9.360050201416016,0.115479789674282,-2.672030448913574,-0.3914644718170166,0.2162287980318069,0.9308359026908876,0.3966550230979919,-0.6009921431541443,-0.5241376757621765,-0.454701155424118
1725909,9.256815910339355,-0.5784443616867065,3.22465181350708,-0.3852534294128418,-0.2789863049983978,0.591249942779541,0.7521498203277588,-0.2576383650302887,-0.5206945538520813,-0.3110794425010681,9.3467435836792,0.1120693534612655,-2.653712749481201,-0.7347642183303833,0.2294705659151077,0.8163215517997742,0.3966192603111267,-0.6010112166404724,-0.5240854024887085,-0.4547674357891083
1726076,9.241939544677734,-0.5493448376655579,3.2272019386291504,-0.2711104452610016,-0.2117273956537246,0.5167170763015747,0.7521412372589111,-0.2577000856399536,-0.5206518769264221,-0.3111203908920288,9.37220573425293,0.055633794516325,-2.661515712738037,-0.8534791469573975,-0.0012037969427183,0.8450974225997925,0.3965576589107513,-0.6010535359382629,-0.52403724193573,-0.4548207521438598
1726243,9.251998901367188,-0.5681344270706177,3.1902883052825928,-0.5397363901138306,-0.1650482267141342,0.3461876213550567,0.7521162033081055,-0.2577792704105377,-0.5205966234207153,-0.3112077713012695,9.337658882141112,0.0865449830889701,-2.67279314994812,-0.7645006775856018,-0.120610199868679,1.191470742225647,0.3965194225311279,-0.6011235117912292,-0.5239731669425964,-0.4548351168632507
1726409,9.255462646484377,-0.6237404942512512,3.197636604309082,-0.36911740899086,-0.1231074407696724,0.4977763891220093,0.7521123290061951,-0.2578420341014862,-0.5205427408218384,-0.311255007982254,9.379006385803224,0.0776873901486396,-2.688894510269165,-0.8307479023933411,-0.3474875390529632,0.8803277611732483,0.3964195251464844,-0.6012075543403625,-0.5239232182502747,-0.4548686742782593
1726576,9.255921363830566,-0.5807403922080994,3.1840763092041016,-0.1588243395090103,-0.191109150648117,0.2501015961170196,0.7520991563796997,-0.2578673362731933,-0.5205146670341492,-0.3113128542900085,9.417425155639648,0.096784807741642,-2.6736671924591064,-0.915141761302948,-0.2467911392450332,0.5625637173652649,0.3963104784488678,-0.6012548804283142,-0.5239024758338928,-0.4549252092838287
1726743,9.29173755645752,-0.5537936091423035,3.188567876815796,-0.3540442883968353,-0.0220909528434276,-0.0502136908471584,0.7520803809165955,-0.2578798830509186,-0.5204727053642273,-0.3114180862903595,9.477049827575684,0.1206569522619247,-2.7074873447418213,-1.0911649465560913,0.2411499768495559,0.3578798174858093,0.3961949646472931,-0.6012786030769348,-0.5238432884216309,-0.4550625085830688
1726909,9.309386253356934,-0.5726974010467529,3.2314462661743164,0.0427027717232704,-0.1889961063861847,-0.1602330356836319,0.7520555853843689,-0.2578529119491577,-0.5204688906669617,-0.3115068078041076,9.430639266967772,0.0759586542844772,-2.6737465858459477,-1.06108295917511,0.9257262945175172,0.3694695830345154,0.3961411714553833,-0.6012495756149292,-0.5237532258033752,-0.4552512764930725
1727076,9.287997245788574,-0.5641753077507019,3.271678924560547,0.1900910437107086,-0.0793353393673896,0.0516800247132778,0.7520496845245361,-0.2578280568122864,-0.5204483270645142,-0.3115760087966919,9.34924602508545,0.0720481127500534,-2.6518423557281494,-0.7973361015319824,1.222935914993286,0.6772574186325073,0.3961451649665832,-0.6012170910835266,-0.523627519607544,-0.4554353952407837
1727243,9.272704124450684,-0.5975449681282043,3.24434232711792,0.0052313935011625,-0.1885863095521927,0.3600441217422485,0.7520413398742676,-0.2578532695770263,-0.5204187035560608,-0.3116247057914734,9.29638957977295,0.0721168369054794,-2.6336166858673096,-0.5013685822486877,0.8907776474952698,0.7711535692214966,0.3961698412895202,-0.6011836528778076,-0.5235475897789001,-0.455549955368042
1727409,9.253318786621094,-0.623515248298645,3.2354624271392822,-0.117152489721775,-0.2411563694477081,0.2719236314296722,0.7520238161087036,-0.2578829228878021,-0.5203951001167297,-0.3116817474365234,9.343812942504885,0.069347009062767,-2.6375083923339844,-0.253335177898407,0.807715654373169,0.8053977489471436,0.3962127566337585,-0.6011426448822021,-0.523487389087677,-0.4556358754634857
1727576,9.22796630859375,-0.603420615196228,3.213465452194214,0.0385919325053691,-0.1516783982515335,0.3102530241012573,0.7520198822021484,-0.2578954696655273,-0.5203666687011719,-0.3117282092571258,9.396231651306152,0.0815686136484146,-2.6457035541534424,0.0642174407839775,1.0140643119812012,0.590955376625061,0.3962871134281158,-0.6010523438453674,-0.5234563946723938,-0.4557259678840637
1727743,9.23023796081543,-0.6042968034744263,3.204392671585083,0.12685327231884,0.194137841463089,0.3688676655292511,0.7520489692687988,-0.2578855454921722,-0.5203031301498413,-0.3117724955081939,9.420160293579102,0.0645327866077423,-2.6524031162261963,0.2873680889606476,1.4816498756408691,0.7323631644248962,0.3964312672615051,-0.6009223461151123,-0.5234085321426392,-0.4558270275592804
1727909,9.236380577087402,-0.6000769138336182,3.245582103729248,0.5952968001365662,0.4293009042739868,0.5571722388267517,0.7521284222602844,-0.257817804813385,-0.520233154296875,-0.3117536008358001,9.426583290100098,0.0744595602154731,-2.6102540493011475,0.6634393930435181,1.9572521448135376,0.8182553648948669,0.3966436982154846,-0.6007529497146606,-0.523341953754425,-0.4559419155120849
1728076,9.232367515563965,-0.6223953366279602,3.252819061279297,0.7828713059425354,0.3246089518070221,0.7050599455833435,0.7521982192993164,-0.2577704787254333,-0.520164966583252,-0.3117381930351257,9.405599594116213,0.0900232791900634,-2.6341538429260254,0.8048726916313171,2.2330496311187744,0.9822790622711182,0.3968855142593384,-0.6005851626396179,-0.5232359766960144,-0.4560740292072296
1728243,9.24010181427002,-0.6271722912788391,3.251760005950928,0.705661952495575,0.3492611944675445,0.9214490056037904,0.7522902488708496,-0.2577260136604309,-0.5200929641723633,-0.3116729855537414,9.391654014587402,0.0953849405050277,-2.604015588760376,0.690460741519928,2.1558146476745605,0.9643374681472778,0.397125631570816,-0.600411593914032,-0.5231472253799438,-0.456195205450058
