sampleTimeFine,W4_acc_x,W4_acc_y,W4_acc_z,W4_gyro_x,W4_gyro_y,W4_gyro_z,W4_quat_w,W4_quat_x,W4_quat_y,W4_quat_z,W5_acc_x,W5_acc_y,W5_acc_z,W5_gyro_x,W5_gyro_y,W5_gyro_z,W5_quat_w,W5_quat_x,W5_quat_y,W5_quat_z
4994276,0.0935592725872993,0.1966183632612228,0.161868155002594,-0.2610893845558166,0.097363457083702,-0.2513555586338043,0.6457844972610474,-0.3077729046344757,-0.6380493640899658,-0.2848352193832397,-0.195868581533432,0.0882241278886795,0.0193089097738266,-0.0465312041342258,-0.0483737513422966,-0.3730051815509796,0.3708726763725281,-0.6506055593490601,-0.5486077070236206,-0.3717465698719024
4994443,9.831862449645996,-0.4599653780460357,0.0142237702384591,0.0332644954323768,1.37010657787323,0.1183370873332023,0.6460259556770325,-0.3078769445419311,-0.6378626227378845,-0.2845936417579651,8.699270248413086,-0.6573440432548523,-4.344679355621338,0.1040451899170875,1.8308663368225095,1.172146201133728,0.3709502518177032,-0.6507970094680786,-0.5481098294258118,-0.3720683753490448
4994609,9.787764549255373,-0.4433540403842926,0.0832427367568016,0.8193438649177551,1.0741389989852903,0.7626374363899231,0.6468900442123413,-0.3083650171756744,-0.6371347904205322,-0.2837315499782562,8.59376049041748,-0.6633330583572388,-4.328834533691406,-0.3170980513095855,2.3352572917938232,1.1909840106964111,0.3708922863006592,-0.6504558324813843,-0.5480232834815979,-0.3728493154048919
4994776,9.83163070678711,-0.4025643765926361,0.0871139764785766,-0.1513966470956802,0.7171876430511475,0.7721908092498779,0.6476776003837585,-0.3092848062515259,-0.635874330997467,-0.283761590719223,8.527706146240234,-0.7218607068061829,-4.305800914764404,0.0189598016440868,1.9208821058273315,1.3580429553985596,0.3708168566226959,-0.6501288414001465,-0.5481948852539062,-0.3732422590255737
4994943,9.800119400024414,-0.4701183140277862,0.0481110662221908,-0.5538618564605713,0.8110069632530212,0.7442090511322021,0.6483219861984253,-0.309746652841568,-0.6348971128463745,-0.2839743494987488,8.548572540283203,-0.7706942558288574,-4.318059921264648,0.570349931716919,1.305229425430298,1.258473515510559,0.3709338307380676,-0.6500277519226074,-0.5482802391052246,-0.3731766045093536
4995109,9.746126174926758,-0.4743344485759735,0.0373984538018703,0.4710367321968078,0.2525988221168518,0.9396466612815856,0.64879310131073,-0.3101160228252411,-0.6342837810516357,-0.2838655114173889,8.614825248718262,-0.7992173433303833,-4.328190803527832,1.291065692901611,0.876152753829956,1.08229660987854,0.3712076842784881,-0.6500873565673828,-0.5482437014579773,-0.3728542029857635
4995276,9.767952919006348,-0.4680787026882171,-0.0007295731920748,0.6653602719306946,0.3589171469211578,1.0418797731399536,0.6490291953086853,-0.3106977641582489,-0.6337270736694336,-0.2839329838752746,8.669596672058105,-0.7887845635414124,-4.328097820281982,1.9988856315612795,0.7440298199653625,0.830639123916626,0.3715895116329193,-0.6501956582069397,-0.5481073260307312,-0.3724855184555053
4995443,9.758036613464355,-0.4553472101688385,0.0106742344796657,1.0000287294387815,0.8013893961906433,0.9563334584236144,0.6492366790771484,-0.3110637068748474,-0.6333747506141663,-0.2838444709777832,8.666162490844727,-0.7390386462211609,-4.312229156494141,2.27787184715271,0.8069857954978943,0.5021049976348877,0.3720313608646393,-0.6502069234848022,-0.5480111837387085,-0.3721657395362854
4995609,9.769861221313477,-0.4476808309555053,0.0216114018112421,0.635956883430481,0.6255837678909302,0.8815442323684692,0.6493777632713318,-0.3113260865211487,-0.6331571936607361,-0.2837195098400116,8.685338973999023,-0.6912961006164551,-4.322757244110107,1.8963704109191892,0.0905729010701179,0.3081143498420715,0.3723973631858825,-0.6501109600067139,-0.5480901598930359,-0.3718513250350952
4995776,9.83193302154541,-0.4717861413955688,0.0166227743029594,0.2514078617095947,0.533173143863678,0.7596918344497681,0.6493520140647888,-0.3117959201335907,-0.6328727602958679,-0.2838971018791199,8.626087188720703,-0.7085201740264893,-4.361254215240479,1.6904447078704834,0.2936560213565826,0.5952584147453308,0.3726266920566559,-0.6501123905181885,-0.548016369342804,-0.371727705001831
4995943,9.84371566772461,-0.4577608108520508,0.013561375439167,0.7167137861251831,0.2188540995121002,0.7699112892150879,0.6494090557098389,-0.3119728863239288,-0.632782518863678,-0.2837733030319214,8.648014068603516,-0.6165565252304077,-4.309274196624756,0.948700785636902,-0.4371447265148163,0.7226559519767761,0.3727006018161773,-0.6501690149307251,-0.5480097532272339,-0.3715642690658569
4996109,9.811959266662598,-0.4405798017978668,0.0376198664307594,1.272061109542847,0.1651442795991897,0.9038913249969482,0.649405837059021,-0.3122454285621643,-0.6326583027839661,-0.283757597208023,8.577386856079102,-0.6547120809555054,-4.302493095397949,-0.1299460381269455,-0.6424689888954163,0.8694806694984436,0.3725582361221313,-0.6503475904464722,-0.5478822588920593,-0.3715825378894806
4996276,9.83289909362793,-0.4269590079784393,0.0193188581615686,0.4998126029968261,-0.5126381516456604,0.8564822673797607,0.6493063569068909,-0.3125738203525543,-0.6325812339782715,-0.2837955951690674,8.611172676086426,-0.7296310067176819,-4.32649564743042,-0.775783121585846,-1.1626372337341309,1.0636378526687622,0.3723699450492859,-0.6504989862442017,-0.547859251499176,-0.3715398907661438
4996443,9.89417839050293,-0.433264672756195,-0.0217612218111753,0.2265379279851913,-0.4537161886692047,0.5087386965751648,0.649259626865387,-0.31268510222435,-0.6326080560684204,-0.2837201654911041,8.57640552520752,-0.7559111714363098,-4.317273139953613,-0.5838159322738647,-1.5799577236175537,1.1996667385101318,0.3721864819526672,-0.6506818532943726,-0.547849178314209,-0.3714185357093811
4996609,9.789280891418455,-0.4672068655490875,-0.030391426756978,0.9417470097541808,-0.1479261517524719,0.3936223983764648,0.6492080092430115,-0.3127952218055725,-0.6326110363006592,-0.2837100625038147,8.582878112792969,-0.7416365146636963,-4.326811790466309,-0.5562950372695923,-1.8373783826828003,0.9774127006530762,0.371962696313858,-0.6509096026420593,-0.5478177666664124,-0.3712900280952453
4996776,9.762943267822266,-0.4277947247028351,0.0127286463975906,0.6032239198684692,-0.6086218357086182,0.5840911865234375,0.6491210460662842,-0.3129279315471649,-0.6326680779457092,-0.2836357951164245,8.594893455505371,-0.7322942614555359,-4.348629951477051,-0.6065471768379211,-1.9710893630981443,0.6322687268257141,0.3717197775840759,-0.6511147022247314,-0.5478309392929077,-0.3711543977260589
4996943,9.790196418762209,-0.4475341141223907,-0.0372724272310733,0.1122796833515167,-0.8043156862258911,0.4198498129844665,0.6489590406417847,-0.3131546080112457,-0.6326977014541626,-0.2836902439594269,8.605873107910156,-0.737793505191803,-4.373326778411865,-0.591397225856781,-2.055649757385254,0.285011738538742,0.3714229464530945,-0.6513464450836182,-0.5478249192237854,-0.3710536658763885
4997109,9.77616024017334,-0.4452016949653625,0.0068805036135017,0.2306871563196182,-0.5472921133041382,0.1714577972888946,0.6488243341445923,-0.3133046329021454,-0.6327409744262695,-0.2837362587451935,8.673227310180664,-0.7562568783760071,-4.391744613647461,-0.5339223146438599,-1.9774155616760252,0.3276568651199341,0.3711716532707214,-0.6515334844589233,-0.5478664636611938,-0.3709153831005096
4997276,9.77272129058838,-0.4379673898220062,-0.0052025858312845,-0.1634986698627472,-0.935401439666748,0.1572811901569366,0.6486790180206299,-0.313413918018341,-0.6328449845314026,-0.2837153375148773,8.69660472869873,-0.7421740889549255,-4.415151119232178,-0.2815220057964325,-1.602945327758789,0.6211528182029724,0.3710049092769623,-0.6516995429992676,-0.5478842258453369,-0.3707640469074249
4997443,9.802992820739746,-0.4691265225410461,0.0109609635546803,0.3981430232524872,-0.9457361698150636,0.2177015244960785,0.6485522985458374,-0.3134962022304535,-0.6329571008682251,-0.2836643755435943,8.715957641601562,-0.7220082879066467,-4.395060062408447,-0.2703932821750641,-1.0470983982086182,0.7829098105430603,0.3709491789340973,-0.6517676711082458,-0.54795241355896,-0.3705995082855224
4997609,9.81920051574707,-0.4445680677890777,0.0489331036806106,0.2848964631557464,-0.9664952754974364,0.308831512928009,0.6484367847442627,-0.3135789632797241,-0.6330657601356506,-0.2835943698883056,8.680424690246582,-0.7165062427520752,-4.395949363708496,-0.4916997849941253,-0.7488128542900085,0.6018151640892029,0.3708642423152923,-0.6518504619598389,-0.547964334487915,-0.3705210387706756
4997776,9.824326515197754,-0.4716435074806213,0.0305251628160476,-0.0593702346086502,-0.9171138405799866,0.0810065641999244,0.6482862234115601,-0.3137169778347015,-0.63313227891922,-0.2836377322673797,8.613541603088379,-0.724791407585144,-4.38530158996582,-0.7166177034378052,-0.4169747233390808,0.4123452305793762,0.3707443475723266,-0.6519556045532227,-0.5479105710983276,-0.3705354928970337
4997943,9.85641384124756,-0.4587363302707672,0.0408594906330108,0.0912004262208938,-0.8680784702301025,0.1336791068315506,0.6481807827949524,-0.313786506652832,-0.6332194209098816,-0.2836070656776428,8.5953369140625,-0.7366217970848083,-4.400853157043457,-0.7726070284843445,-0.6564534306526184,0.145268827676773,0.3705838918685913,-0.6520586609840393,-0.5478886961936951,-0.3705469965934753
4998109,9.844557762145996,-0.4505704045295715,0.0115956459194421,0.0457506850361824,-1.0438071489334106,0.0742320045828819,0.6480327844619751,-0.3139210045337677,-0.6332879066467285,-0.2836434245109558,8.583769798278809,-0.7209870219230652,-4.403000354766846,-0.7113799452781677,-0.7365955710411072,0.1403255760669708,0.3704695701599121,-0.6520956158638,-0.5479570627212524,-0.3704952001571655
4998276,9.821975708007812,-0.4390957355499267,-0.003735864534974,0.3845810890197754,-1.0263649225234983,0.0157326031476259,0.6479241847991943,-0.3139649927616119,-0.6333949565887451,-0.283604085445404,8.57663345336914,-0.7164069414138794,-4.412713050842285,-0.6433525681495667,-0.9502310752868652,0.0118138566613197,0.3702893555164337,-0.6522008180618286,-0.5479713082313538,-0.3704692423343658
4998443,9.81990909576416,-0.4453114867210388,-0.0414244160056114,0.5130800008773804,-1.0523360967636108,0.016091177240014,0.6478297710418701,-0.3139725923538208,-0.6335213780403137,-0.2835286855697632,8.579228401184082,-0.7017918229103088,-4.404341697692871,-0.4694807827472687,-1.011919379234314,0.0235316697508096,0.3701652884483337,-0.6522347331047058,-0.5480785965919495,-0.3703747391700744
4998609,9.810256004333496,-0.44551882147789,-0.0538884475827217,0.5509355664253235,-0.8723685145378113,0.0954777374863624,0.6477044820785522,-0.3140899837017059,-0.6335750222206116,-0.2835653424263,8.607659339904785,-0.716251790523529,-4.429086685180664,-0.3261776864528656,-1.1060972213745115,0.2717571556568146,0.370041936635971,-0.6523115038871765,-0.548145592212677,-0.3702636361122131
4998776,9.794598579406738,-0.443572998046875,-0.0655607879161834,0.550935685634613,-0.7270293831825256,-0.0593446269631385,0.6476216912269592,-0.3141031861305237,-0.6336661577224731,-0.283535748720169,8.623908996582031,-0.7223973870277405,-4.422451019287109,-0.0687444806098938,-0.792712926864624,0.5278456807136536,0.3699530959129333,-0.6524204015731812,-0.5481358766555786,-0.3701748847961426
4998943,9.79380989074707,-0.4500986933708191,-0.0630512088537216,0.5934655070304871,-0.6006050109863281,0.1304519027471542,0.6475688219070435,-0.3141014873981476,-0.6337528228759766,-0.2834647297859192,8.657708168029785,-0.7004395127296448,-4.42857837677002,0.043291863054037,-0.4086250066757202,0.6777696013450623,0.369932472705841,-0.6524881720542908,-0.5481281876564026,-0.3700875341892242
4999109,9.811084747314451,-0.4442614912986755,-0.0280768033117055,0.5797369480133057,-0.4473513960838318,0.2178552150726318,0.6475298404693604,-0.3141079545021057,-0.6338198184967041,-0.2833970189094543,8.640894889831543,-0.6965126991271973,-4.42724084854126,0.100728340446949,-0.1304838955402374,0.5590419769287109,0.369927316904068,-0.6525360941886902,-0.548109233379364,-0.3700361251831054
4999276,9.8126802444458,-0.4492325782775879,-0.0071591464802622,0.4458338916301727,-0.1817093193531036,0.3374025225639343,0.647493302822113,-0.3141748607158661,-0.6338260173797607,-0.2833921611309051,8.632291793823242,-0.7299861311912537,-4.436263561248779,0.3170660436153412,0.2867918014526367,0.5638956427574158,0.3699914813041687,-0.65252685546875,-0.5481062531471252,-0.3699928522109985
4999443,9.80214500427246,-0.46816486120224,0.0036370027810335,0.496995210647583,-0.232909083366394,0.314158946275711,0.6474606394767761,-0.3142250776290893,-0.6338437795639038,-0.2833717167377472,8.62331771850586,-0.7269369959831238,-4.434037685394287,0.6740429997444153,0.3226111531257629,0.453095018863678,0.3700233697891235,-0.6525829434394836,-0.5480172634124756,-0.3699936270713806
4999609,9.815855979919434,-0.449622243642807,0.0090406518429517,0.7656340003013611,-0.1696969270706176,0.2806062996387481,0.6474559903144836,-0.3142247796058655,-0.6338750720024109,-0.283312439918518,8.603729248046875,-0.6957189440727234,-4.411242485046387,0.6606091856956482,0.4183258712291717,0.5237605571746826,0.370114266872406,-0.6525693535804749,-0.548000156879425,-0.3699519634246826
4999776,9.81968879699707,-0.4520523846149444,0.003777943085879,0.7744959592819214,-0.2820086181163788,0.5226591229438782,0.6474515199661255,-0.3142542541027069,-0.633901834487915,-0.2832300662994385,8.55704116821289,-0.7257311940193176,-4.3990864753723145,0.6800619959831238,0.0585826449096202,0.7113222479820251,0.3701617419719696,-0.6526275277137756,-0.5479393601417542,-0.3698920905590057
4999943,9.801223754882812,-0.4182634651660919,-0.034079011529684,0.7943458557128906,-0.2635674774646759,0.5444939136505127,0.6474652290344238,-0.314253568649292,-0.633939266204834,-0.2831158638000488,8.505064010620117,-0.6918354630470276,-4.447142601013184,1.0601671934127808,-0.4278345108032226,1.043186068534851,0.3702457547187805,-0.6526878476142883,-0.5479292273521423,-0.3697166442871094
5000109,9.837910652160645,-0.4042723476886749,-0.0349145121872425,0.3326257169246673,-0.3632648885250091,0.4632633030414581,0.6474279165267944,-0.3143293857574463,-0.6339526772499084,-0.2830869853496551,8.649578094482422,-0.6860286593437195,-4.451905250549316,0.733925461769104,-0.9249257445335388,1.111546277999878,0.3702701032161712,-0.6527836322784424,-0.5479418635368347,-0.3695040941238403
5000276,9.85977840423584,-0.4745807349681854,-0.1028873547911644,0.1560005396604538,-0.4977059066295624,0.5431749224662781,0.6473929286003113,-0.3143877387046814,-0.6339911818504333,-0.28301602602005,8.600292205810547,-0.597552478313446,-4.418326377868652,0.3266323804855346,-0.4811089932918548,1.093630313873291,0.370309829711914,-0.6528449058532715,-0.5479474067687988,-0.369347870349884
5000443,9.812300682067873,-0.4466132223606109,-0.1165580078959465,0.8779584765434265,0.0449566878378391,0.861476719379425,0.6474460959434509,-0.3144009411334991,-0.6339887976646423,-0.2828851342201233,8.629611015319824,-0.6371971964836121,-4.419934272766113,-0.7377482056617737,-0.422046035528183,0.6973505616188049,0.3702169060707092,-0.6529436111450195,-0.5479117631912231,-0.3693194091320038
5000610,9.828039169311523,-0.3594691157341003,-0.0104461517184972,0.4278025031089782,0.5650737881660461,0.6673964858055115,0.6475130319595337,-0.314425379037857,-0.6339266896247864,-0.2828438878059387,8.667895317077637,-0.7148023843765259,-4.427869319915772,-0.864915132522583,0.0155853265896439,0.7686882019042969,0.3701408803462982,-0.6530418395996094,-0.547825276851654,-0.3693503141403198
5000776,9.827631950378418,-0.3693321943283081,-0.0535310804843902,-1.0371222496032717,0.2374361306428909,-0.12723109126091,0.6474593877792358,-0.3145036697387695,-0.6338819861412048,-0.2829797863960266,8.706917762756348,-0.7280978560447693,-4.411161422729492,-0.4413580894470215,0.4869550764560699,1.0655587911605835,0.3701668083667755,-0.6531052589416504,-0.5477184653282166,-0.3693705201148987
5000943,9.853958129882812,-0.488533616065979,-0.0369372144341468,0.3732346594333648,0.9859544634819032,0.1888104081153869,0.647502064704895,-0.314555287361145,-0.6337570548057556,-0.2831044793128967,8.709186553955078,-0.6971396207809448,-4.381568431854248,-0.2060669660568237,1.4430450201034546,1.227206826210022,0.3702793717384338,-0.653150737285614,-0.5475149750709534,-0.3694787323474884
5001110,9.814275741577148,-0.395272821187973,0.0852558687329292,1.0432502031326294,0.6345226764678955,0.7390352487564087,0.6475834250450134,-0.3145727813243866,-0.6336852312088013,-0.2830598056316376,8.6476411819458,-0.7390556931495667,-4.369569778442383,-0.1462229043245315,2.123965263366699,1.394733190536499,0.370489090681076,-0.6531291604042053,-0.5473073720932007,-0.3696144223213196
5001276,9.845943450927734,-0.4001610875129699,0.0521546080708503,-0.1325200945138931,0.4285580515861511,0.7731641530990601,0.647611141204834,-0.3146770298480987,-0.6335960626602173,-0.2830802500247955,8.556028366088867,-0.756538987159729,-4.394531726837158,0.3238790035247803,2.222074508666992,1.404312252998352,0.3707437813282013,-0.6530926823616028,-0.5470983386039734,-0.3697327375411987
5001443,9.786958694458008,-0.4792702198028564,0.0537988282740116,-0.2645535469055176,0.4233843088150024,0.7857911586761475,0.647652804851532,-0.3147520124912262,-0.6335198283195496,-0.2830716073513031,8.539422988891602,-0.8098149299621582,-4.377768516540527,1.0257309675216677,1.7933562994003296,1.3222620487213137,0.3710271418094635,-0.6530366539955139,-0.5469562411308289,-0.3697579801082611
5001610,9.812824249267578,-0.4800158441066742,0.0216961037367582,0.1192719414830207,-0.13970448076725,0.9900396466255188,0.6476790904998779,-0.314815491437912,-0.6335095167160034,-0.2829644381999969,8.559956550598145,-0.8023112416267395,-4.3593597412109375,1.923763394355774,1.2986854314804075,1.2524545192718506,0.3713664710521698,-0.6529377698898315,-0.5469141006469727,-0.3696543276309967
5001776,9.801631927490234,-0.4719448983669281,-0.0091983443126082,0.7335413098335266,0.1722646057605743,1.174002766609192,0.6477577090263367,-0.3148560523986816,-0.6334698796272278,-0.282828152179718,8.619464874267578,-0.7868617177009583,-4.349417686462402,2.5034430027008057,0.9788340926170348,1.104490041732788,0.3717201650142669,-0.6528275609016418,-0.5469163060188293,-0.3694902062416076
5001943,9.778339385986328,-0.4638690054416656,0.0157121811062097,0.9108708500862122,0.4867373704910278,1.201177954673767,0.6478670239448547,-0.3148877024650574,-0.6333973407745361,-0.2827048599720001,8.658352851867676,-0.7387887835502625,-4.372815608978272,2.6954355239868164,0.9260847568511964,0.76772141456604,0.3720519840717315,-0.6527124643325806,-0.5469269156455994,-0.3693439364433288
5002110,9.796014785766602,-0.4683808088302612,-0.0354523211717605,0.3113031387329101,0.5544061064720154,1.3774445056915283,0.6479418873786926,-0.3150372803211212,-0.63326096534729,-0.2826722264289856,8.616595268249512,-0.7221617698669434,-4.367790699005127,2.398520469665528,0.7254733443260193,0.6971456408500671,0.3723567724227905,-0.6525874733924866,-0.5469749569892883,-0.3691862225532532
5002276,9.809877395629885,-0.4911938011646271,-0.0298505034297704,0.6745041012763977,0.5128494501113892,1.2316187620162964,0.6480306386947632,-0.3151246011257171,-0.6331585645675659,-0.2826003134250641,8.693442344665527,-0.7442197203636169,-4.35924243927002,1.8710782527923584,0.9316172003746032,0.864588737487793,0.3726411759853363,-0.6524866819381714,-0.5469750761985779,-0.3690774440765381
5002443,9.839117050170898,-0.4601343274116516,0.0054825134575366,1.1078197956085205,0.6439225077629089,1.1873087882995603,0.6481794714927673,-0.3150952458381653,-0.6330973505973816,-0.282429039478302,8.61473560333252,-0.6783807277679443,-4.334467887878418,1.7018424272537231,0.5017592310905457,1.1125837564468384,0.3728611469268799,-0.6524791121482849,-0.5469150543212891,-0.3689577281475067
5002610,9.828457832336426,-0.4615429639816284,0.0075905257835984,1.0745487213134766,0.3679200112819671,1.167382001876831,0.6482870578765869,-0.3151092827320099,-0.6330457329750061,-0.2822819948196411,8.608490943908691,-0.6603180766105652,-4.339852333068848,0.4279433190822601,0.5148216485977173,0.90162456035614,0.3729619979858398,-0.6525028944015503,-0.5468289256095886,-0.3689410388469696
5002776,9.793353080749512,-0.4382483065128326,0.0365878008306026,0.918874740600586,0.2947573363780975,1.3206355571746826,0.6483862996101379,-0.3151573538780212,-0.6329860687255859,-0.2821342051029205,8.60807991027832,-0.7136583924293518,-4.338661193847656,-0.4851941168308258,0.2030894756317138,0.9779248237609864,0.3730148673057556,-0.6525077819824219,-0.5468121767044067,-0.3689039647579193
5002943,9.883700370788574,-0.4189347922801971,0.0227661356329917,0.0481454692780971,0.1392498463392257,0.8227887153625488,0.6484184861183167,-0.3152314722537994,-0.6329354047775269,-0.2820911705493927,8.589706420898438,-0.7878188490867615,-4.342291355133057,-0.4693911075592041,-0.0128063485026359,1.0199040174484253,0.3730034828186035,-0.6526015400886536,-0.5467139482498169,-0.3688951432704925
5003110,9.830294609069824,-0.4662661254405975,0.0099742859601974,0.5309191942214966,0.3793048560619354,0.5371302962303162,0.6484429240226746,-0.3153132200241089,-0.6328498721122742,-0.2821354866027832,8.605345726013184,-0.7883530855178833,-4.35500431060791,-0.4119546413421631,-0.3340024054050445,1.0588994026184082,0.3729447722434997,-0.652758002281189,-0.5465778708457947,-0.368879497051239
5003276,9.736210823059082,-0.4569035172462463,0.0328923724591732,0.8229039907455444,0.206316664814949,0.9072721600532532,0.6485201120376587,-0.3153190016746521,-0.6328200697898865,-0.2820185124874115,8.60016918182373,-0.7640793323516846,-4.334628105163574,-0.509244441986084,-0.5798587203025818,0.8459298014640808,0.3728944957256317,-0.6528450846672058,-0.5465545654296875,-0.3688106834888458
5003443,9.823280334472656,-0.4361433684825897,-0.0245901364833116,0.1482783108949661,-0.4087018072605133,0.6036977171897888,0.6484785079956055,-0.3154287338256836,-0.6328122615814209,-0.2820089757442474,8.603166580200195,-0.7720467448234558,-4.356443881988525,-0.5154427886009216,-0.818300187587738,0.6287342309951782,0.3727995157241821,-0.652948796749115,-0.5465389490127563,-0.3687460422515869
5003776,9.792635917663574,-0.479594349861145,0.0118515007197856,0.0318173766136169,-0.2184378951787948,0.4150217473506927,0.6484043002128601,-0.3156411945819855,-0.6327440738677979,-0.2820949852466583,8.621621131896973,-0.7701058387756348,-4.371374607086182,-0.3909906446933746,-0.8843424320220947,0.5120682716369629,0.3727188408374786,-0.6530202627182007,-0.5465682148933411,-0.3686576783657074
5003943,9.80688190460205,-0.4817152023315429,0.0035011954605579,0.0623861290514469,-0.470479667186737,0.3805214762687683,0.648348331451416,-0.3157297074794769,-0.6327547430992126,-0.2821005582809448,8.643158912658691,-0.7722074389457703,-4.371238708496094,-0.3090043663978576,-0.886173665523529,0.5442505478858948,0.3726218044757843,-0.6531283259391785,-0.5465527772903442,-0.3685871064662933
5004110,9.800374031066896,-0.4522829353809356,0.0105498116463422,0.261038213968277,-0.3166753947734833,0.293835312128067,0.6483157277107239,-0.3157773315906524,-0.6327669024467468,-0.2820947468280792,8.642826080322266,-0.7663170099258423,-4.373310565948486,-0.3219644427299499,-0.84279865026474,0.5624100565910339,0.3725418448448181,-0.653216540813446,-0.5465558767318726,-0.3685072064399719
5004276,9.82009983062744,-0.4702501595020294,0.0008085162844508,0.3841200172901153,-0.361407995223999,0.2669419348239898,0.6482818126678467,-0.3158165514469147,-0.6327874064445496,-0.282082736492157,8.639058113098145,-0.7535485625267029,-4.386112213134766,-0.2566264271736145,-0.651125967502594,0.6106003522872925,0.3724632859230041,-0.6533282399177551,-0.5465070009231567,-0.3684610724449157
5004443,9.823695182800291,-0.4857848584651947,0.0237674731761217,0.4236276149749756,-0.5425922274589539,0.2729737460613251,0.6482438445091248,-0.3158364295959472,-0.6328381299972534,-0.2820340692996979,8.644486427307129,-0.746704638004303,-4.377735614776611,-0.232524886727333,-0.5375208854675293,0.5202130675315857,0.3723889589309692,-0.653428852558136,-0.5464573502540588,-0.3684312999248504
5004610,9.83907985687256,-0.4857705533504486,0.0066052549518644,0.6421423554420471,-0.3922712802886963,0.2351950109004974,0.6482117176055908,-0.3158640265464782,-0.6328659057617188,-0.2820145487785339,8.631566047668457,-0.7528131008148193,-4.381905555725098,-0.1773167252540588,-0.3459891676902771,0.5957705974578857,0.3723671734333038,-0.6534804701805115,-0.5464429259300232,-0.3683831989765167
5004776,9.814865112304688,-0.4834134876728058,0.0470662862062454,0.5163072347640991,-0.4552913308143616,0.2568761706352234,0.6481994390487671,-0.3158401250839233,-0.6329273581504822,-0.2819319367408752,8.628643989562988,-0.7619825005531311,-4.385799884796143,-0.1980246156454086,-0.3244232535362243,0.6845186352729797,0.3723460435867309,-0.653544545173645,-0.5464112162590027,-0.368338018655777
5004943,9.80538845062256,-0.4776167869567871,0.0292319189757108,0.4673613011837005,-0.4910466372966766,0.3007506728172302,0.6481695175170898,-0.3158588409423828,-0.6329709887504578,-0.2818816900253296,8.62086296081543,-0.7592002153396606,-4.39210844039917,-0.0781699493527412,-0.1293057054281234,0.6142116785049438,0.3723343312740326,-0.6536065340042114,-0.546357274055481,-0.3683197498321533
5005110,9.81333065032959,-0.4781174659729004,0.0139185991138219,0.5026171803474426,-0.3492035269737243,0.338094025850296,0.6481744647026062,-0.3158307373523712,-0.6330209970474243,-0.2817893326282501,8.590707778930664,-0.7651081085205078,-4.377199172973633,-0.004392578266561,-0.1896492391824722,0.5296386480331421,0.372336745262146,-0.6536365747451782,-0.5463480949401855,-0.3682776093482971
5005276,9.80787754058838,-0.4742554128170013,0.0014593187952414,0.4467431008815765,-0.4357360303401947,0.3535256683826446,0.6481674313545227,-0.3158179819583893,-0.6330734491348267,-0.2817021310329437,8.601812362670898,-0.7602587342262268,-4.405497550964356,0.0382845811545848,-0.3658005893230438,0.5544957518577576,0.3723284900188446,-0.6536790132522583,-0.5463445782661438,-0.3682159781455993
5005443,9.82151699066162,-0.4767370522022247,0.0060902810655534,0.5133489370346069,-0.4712992906570434,0.3940577507019043,0.6481450796127319,-0.315841943025589,-0.6331110596656799,-0.2816421389579773,8.626641273498535,-0.7494729161262512,-4.4060235023498535,0.1783860325813293,-0.3288286328315735,0.5741918683052063,0.3723184168338775,-0.653741717338562,-0.5463109612464905,-0.3681646585464477
5005610,9.826380729675291,-0.4758608639240265,-7.867655949667096e-05,0.5001839995384216,-0.2646431922912597,0.4072226583957672,0.6481495499610901,-0.31584233045578,-0.6331366300582886,-0.2815737426280975,8.624878883361816,-0.750209629535675,-4.383800506591797,0.3123020529747009,-0.2239062041044235,0.5490275025367737,0.3723502159118652,-0.6537559628486633,-0.5463218688964844,-0.3680911064147949
5005776,9.80960178375244,-0.4726280570030212,0.0021782242693006,0.4571546018123626,-0.2066816538572311,0.4910914599895477,0.6481562852859497,-0.3158624172210693,-0.6331459879875183,-0.2815147042274475,8.630196571350098,-0.7469338774681091,-4.405694484710693,0.1843794137239456,-0.1390769481658935,0.4507514536380768,0.372391402721405,-0.6537346243858337,-0.5463665127754211,-0.3680208623409271
5005943,9.816117286682127,-0.4582981169223785,0.0115153873339295,0.486391544342041,-0.1739230453968048,0.4824472069740295,0.6481608748435974,-0.3158915936946869,-0.6331466436386108,-0.2814698815345764,8.61793327331543,-0.7598653435707092,-4.385202407836914,0.3678944110870361,0.0212393291294574,0.4245880842208862,0.3724548816680908,-0.6537021994590759,-0.5464034676551819,-0.3679592311382293
5006110,9.80592918395996,-0.4885967671871185,0.0049233729951083,0.7154843211174011,-0.1597592085599899,0.4845346510410309,0.6481677293777466,-0.3159205317497253,-0.633144199848175,-0.2814273536205292,8.600006103515625,-0.7531135082244873,-4.388070583343506,0.3613247871398926,0.0046294955536723,0.5148985385894775,0.3725296556949615,-0.6536653637886047,-0.5464479327201843,-0.367883026599884
5006276,9.794451713562012,-0.4762340486049652,0.0018628218676894,0.6856710910797119,-0.2254301607608795,0.5423424243927002,0.6481786370277405,-0.3159399926662445,-0.6331540942192078,-0.2813582420349121,8.567977905273438,-0.7433719038963318,-4.380471229553223,0.2537001967430115,-0.1153980195522308,0.5839247107505798,0.3725712299346924,-0.6536714434623718,-0.5464562773704529,-0.3678176701068878
5006443,9.804030418395996,-0.45685875415802,-0.0068706241436302,0.6730440855026245,-0.2861450314521789,0.5216858386993408,0.6481930613517761,-0.3159373700618744,-0.6331819891929626,-0.2812651991844177,8.58137321472168,-0.7689380645751953,-4.397629737854004,0.0987433493137359,-0.3677471578121185,0.6474826335906982,0.3725384771823883,-0.6537678837776184,-0.5463881492614746,-0.3677807450294494
5006610,9.82809352874756,-0.4311151206493377,-0.0010730262147262,0.23926742374897,-0.3582320213317871,0.2346827387809753,0.6481660604476929,-0.315958708524704,-0.6332087516784668,-0.2812431752681732,8.545997619628906,-0.7363339066505432,-4.411849498748779,0.5587859153747559,-0.7309480905532837,0.8797770738601685,0.3725611865520477,-0.6538353562355042,-0.5463926792144775,-0.3676310777664184
5006776,9.838343620300291,-0.5239465236663818,-0.0783869847655296,0.0531143322587013,-0.3749826848506927,0.479155957698822,0.6481475234031677,-0.3160004615783691,-0.6332281827926636,-0.2811949253082275,8.693603515625,-0.747954785823822,-4.430487155914307,0.428122729063034,-0.8934093713760376,1.0125277042388916,0.372568815946579,-0.6539232134819031,-0.5463942885398865,-0.3674648702144623
5006943,9.814273834228516,-0.4765939116477966,-0.0487071610987186,0.8716321587562561,0.0876658633351326,0.608948290348053,0.6482018828392029,-0.315986305475235,-0.6332183480262756,-0.2811077833175659,8.669909477233887,-0.6490492820739746,-4.395430564880371,0.093774490058422,-0.1909170448780059,0.6545005440711975,0.3725948631763458,-0.6539422273635864,-0.5463988780975342,-0.367397665977478
5007110,9.834641456604004,-0.3981463015079498,0.0502707473933696,0.1811137795448303,0.4803085029125213,0.3853238224983215,0.6482315063476562,-0.3160449862480163,-0.6331316828727722,-0.2811686992645263,8.614717483520508,-0.6965283155441284,-4.399357318878174,-0.8452703952789307,-0.0821399316191673,0.1680385172367096,0.3725306987762451,-0.653940737247467,-0.5464257001876831,-0.3674253225326538
5007276,9.805373191833496,-0.3944500684738159,0.0126884113997221,-1.289778709411621,0.051910538226366,-0.3845106661319732,0.6481285095214844,-0.3161748945713043,-0.6330670118331909,-0.28140589594841,8.631558418273926,-0.7428908944129944,-4.368843078613281,-1.0174646377563477,0.262818306684494,0.2411371916532516,0.3724685907363891,-0.6539539098739624,-0.5463961362838745,-0.3675087094306946
5007443,9.858407974243164,-0.5218435525894165,-0.0016236467054113,0.1427203565835952,0.4620594680309295,-0.150103211402893,0.6481747031211853,-0.3160917162895202,-0.6330526471138,-0.2814250290393829,8.65467357635498,-0.7257246971130371,-4.383044242858887,-0.8736363053321838,0.2343882173299789,0.5037569999694824,0.3723967671394348,-0.6540336012840271,-0.5462881326675415,-0.3676003217697143
5007610,9.83196258544922,-0.4262230992317199,0.0556171759963035,0.7008466720581055,-0.0443996116518974,0.2227728515863418,0.6481850147247314,-0.3160802721977234,-0.6330569982528687,-0.2814046740531921,8.698748588562012,-0.7119395732879639,-4.364912509918213,-0.93718159198761,1.045081377029419,0.8399365544319153,0.3724243640899658,-0.6540650129318237,-0.5461426973342896,-0.3677329123020172
5007776,9.816184997558594,-0.4194033443927765,0.0405646301805973,-0.4547406733036041,0.0986152961850166,0.2258335649967193,0.6481568217277527,-0.3161686062812805,-0.633001446723938,-0.2814949154853821,8.620864868164062,-0.7498201727867126,-4.369491100311279,-1.0113813877105713,1.398037075996399,1.0891478061676023,0.3724657595157623,-0.6541312336921692,-0.5459134578704834,-0.3679134249687195
5007943,9.763700485229492,-0.4746947586536407,0.0590142793953418,-0.7154651284217834,-0.2064767479896545,0.2989450097084045,0.6480912566184998,-0.3163012266159057,-0.6329598426818848,-0.2815904021263122,8.565311431884766,-0.7969781160354614,-4.384135246276856,-0.5806142091751099,1.4013794660568235,1.088008165359497,0.3725879192352295,-0.6541147232055664,-0.5457778573036194,-0.3680200576782226
5008110,9.81344985961914,-0.51481693983078,-0.0115395449101924,-0.4363123178482055,-0.7706989645957947,0.4412620365619659,0.6479990482330322,-0.316429853439331,-0.6329826712608337,-0.2816071510314941,8.560173034667969,-0.8287973403930664,-4.368743896484375,0.1432454288005828,1.03721821308136,1.0738699436187744,0.3726831972599029,-0.6541756987571716,-0.5455840229988098,-0.3681024610996246
5008276,9.813958168029783,-0.4977495670318603,-0.0160577427595853,0.6844289302825928,-0.2498646825551986,0.5242087244987488,0.6479927897453308,-0.3164777457714081,-0.6329789757728577,-0.2815757393836975,8.58333683013916,-0.8474321365356445,-4.377547740936279,1.1470199823379517,0.8087145686149597,0.8696344494819641,0.3728883266448974,-0.6541151404380798,-0.5455520153045654,-0.3680500388145447
5008443,9.78285789489746,-0.4727467894554138,0.0411152020096778,0.759640634059906,-0.0614448636770248,0.6380956172943115,0.6480410099029541,-0.3164559304714203,-0.632988452911377,-0.2814681231975555,8.620071411132812,-0.8144330978393555,-4.39703369140625,2.057833194732666,0.5297282934188843,0.6474570631980896,0.3731553256511688,-0.6539895534515381,-0.5456203818321228,-0.367901086807251
5008610,9.797314643859863,-0.4964263439178467,-0.0159792434424161,0.2948469817638397,-0.1977940648794174,0.8100848197937012,0.6480360627174377,-0.3165588676929474,-0.6329534649848938,-0.2814423739910126,8.657576560974121,-0.7763786911964417,-4.370551109313965,2.4791104793548584,0.6413483023643494,0.3399765491485595,0.3734310269355774,-0.6538466811180115,-0.5456913113594055,-0.3677700459957123
5008776,9.82663345336914,-0.4968074560165405,-0.0086853066459298,0.6148648262023926,0.1367525905370712,0.7323118448257446,0.6480593681335449,-0.3166426122188568,-0.6328876614570618,-0.2814424037933349,8.617233276367188,-0.7194940447807312,-4.375614643096924,2.2386715412139893,0.6297202110290527,0.2740110456943512,0.3737159669399261,-0.6536571979522705,-0.5458220839500427,-0.3676233291625976
5008943,9.834200859069824,-0.4610475897789001,0.044032871723175,0.9945347905158995,0.3504009842872619,0.7501384019851685,0.648146390914917,-0.3166252970695495,-0.6328456401824951,-0.281356006860733,8.66979694366455,-0.740849494934082,-4.375305652618408,1.735356330871582,0.7113094329833984,0.5257326364517212,0.3739505708217621,-0.6535425782203674,-0.5458592772483826,-0.3675334751605987
5009110,9.81704807281494,-0.4718422293663025,0.0034518523607403,0.8201634287834167,-0.0296851173043251,0.7885445356369019,0.6481830477714539,-0.3166638612747192,-0.632819652557373,-0.2812864184379577,8.59615421295166,-0.6756395101547241,-4.342612266540527,1.6037070751190186,0.1239334493875503,1.0295729637145996,0.3741443753242492,-0.6535181999206543,-0.5458592772483826,-0.3673798441886902
5009276,9.789962768554688,-0.4652420282363891,0.0250981003046035,0.934703290462494,0.0672013163566589,1.1812511682510376,0.648240864276886,-0.3167440593242645,-0.6327610015869141,-0.2811949849128723,8.60122013092041,-0.6606536507606506,-4.365012645721436,0.1740062832832336,0.2628567516803741,0.9034047722816468,0.3742061853408813,-0.6535526514053345,-0.5457887053489685,-0.3673600852489471
5009443,9.869685173034668,-0.4176045656204223,-0.0116407787427306,0.2707966566085815,-0.02420399710536,0.6007394194602966,0.6482532024383545,-0.3167978525161743,-0.6327300071716309,-0.2811756432056427,8.611778259277344,-0.7599651217460632,-4.362618923187256,-0.535689651966095,-0.0139845330268144,1.0736907720565796,0.3741692006587982,-0.6536796689033508,-0.5456485152244568,-0.3673800528049469
5009610,9.82850170135498,-0.4709291160106659,-0.0354398749768734,0.4634810090065002,0.2394339144229889,0.5526644587516785,0.6482751369476318,-0.316865861415863,-0.6326602101325989,-0.281205415725708,8.60193920135498,-0.7985888123512268,-4.3633646965026855,-0.2983879446983337,-0.1511533409357071,1.1597877740859983,0.3741622865200043,-0.6537867188453674,-0.5455458164215088,-0.3673492670059204
5009776,9.757243156433104,-0.4546761810779571,0.0236047841608524,0.6882836818695068,0.1382381319999694,0.7099775671958923,0.6483286023139954,-0.3168759644031524,-0.6326301097869873,-0.2811385691165924,8.572269439697266,-0.7795942425727844,-4.381382942199707,-0.236341193318367,-0.441690981388092,1.1345592737197876,0.374152809381485,-0.6538803577423096,-0.5454928874969482,-0.3672707080841064
5009943,9.827876091003418,-0.449042797088623,-0.0166329871863126,0.0474539287388324,-0.3579759001731872,0.5475290417671204,0.6482892632484436,-0.3169759809970855,-0.6326156854629517,-0.281148761510849,8.6016206741333,-0.7739495635032654,-4.372398376464844,-0.1925947219133377,-0.8011268973350525,0.8199586272239685,0.3740960955619812,-0.6539742946624756,-0.5454820394515991,-0.3671775162220001
5010110,9.808177947998049,-0.4701961576938629,-0.0188895277678966,-0.1004914119839668,0.042421031743288,0.3036961853504181,0.6482642889022827,-0.3170633018016815,-0.6325626969337463,-0.2812272608280182,8.596367835998535,-0.7931926250457764,-4.38058614730835,-0.2126750499010086,-0.8906303644180298,0.5684802532196045,0.3739906549453735,-0.6540929079055786,-0.5454519391059875,-0.3671181499958038
5010276,9.78946590423584,-0.4688908159732818,-0.0071524521335959,-0.0394691675901412,-0.249403640627861,0.2480781823396682,0.6482427716255188,-0.317083328962326,-0.6325769424438477,-0.2812223136425018,8.631725311279297,-0.7752248644828796,-4.371583461761475,-0.1223646700382232,-0.9656242728233336,0.2842689156532287,0.373890221118927,-0.6541611552238464,-0.5454905033111572,-0.3670414984226227
5010443,9.812872886657717,-0.4860207140445709,-0.0087833181023597,-0.1228257045149803,-0.2461636811494827,0.2522659003734588,0.6481885313987732,-0.3171773850917816,-0.6325539350509644,-0.2812928557395935,8.648807525634766,-0.7545199990272522,-4.375406742095947,-0.1575052887201309,-0.7829289436340332,0.336185872554779,0.37379851937294,-0.6542328000068665,-0.5455036163330078,-0.3669877052307129
5010610,9.79054069519043,-0.4598748683929443,0.0213603079319,0.2004001587629318,-0.1731930822134018,0.1668218970298767,0.6481505036354065,-0.3172340989112854,-0.6325393319129944,-0.2813494205474853,8.63650131225586,-0.7446021437644958,-4.37876558303833,-0.2393122464418411,-0.6936559081077576,0.2149866074323654,0.37370765209198,-0.6542819738388062,-0.5455342531204224,-0.3669473528861999
5010776,9.807538032531738,-0.4463571608066559,0.0302654448896646,-0.0042260959744453,-0.4985127747058868,-0.0020874352194368,0.6480710506439209,-0.3172966837882995,-0.6325602531433105,-0.2814150750637054,8.644322395324707,-0.7582489252090454,-4.381179332733154,-0.3703212141990661,-0.539467453956604,0.2485648393630981,0.3736172020435333,-0.6543334722518921,-0.5455448627471924,-0.3669314682483673
5010943,9.817315101623535,-0.4796373546123504,0.0258845891803503,0.0018761301180347,-0.5422848463058472,0.0352622829377651,0.6480053663253784,-0.3173268437385559,-0.6326021552085876,-0.2814377546310425,8.635764122009277,-0.7323317527770996,-4.386375427246094,-0.6476171612739563,-0.2971713542938232,0.4054554402828216,0.3735408782958984,-0.6543797850608826,-0.5455365180969238,-0.3669390380382538
5011110,9.800771713256836,-0.4729855954647064,0.0179632883518934,0.1251116245985031,-0.4124028384685516,-0.0357169061899185,0.6479333639144897,-0.317381739616394,-0.6326155066490173,-0.2815118134021759,8.616427421569824,-0.7451417446136475,-4.373152256011963,-0.8025354743003845,-0.2242904007434845,0.3508235216140747,0.3734524250030517,-0.6544256806373596,-0.5455217957496643,-0.3669691383838653
5011276,9.814844131469728,-0.4578618109226227,0.025745116174221,0.1459603756666183,-0.5485215783119202,-0.0349229127168655,0.6478590965270996,-0.3174193203449249,-0.632652759552002,-0.2815567255020141,8.608116149902344,-0.7579447627067566,-4.400241851806641,-0.7262992858886719,-0.2425394654273986,0.4190685749053955,0.3733573853969574,-0.6544967889785767,-0.5454778075218201,-0.3670044541358948
5011443,9.805198669433594,-0.4575470983982086,0.0236387308686971,0.1165441870689392,-0.6155115962028503,0.0742960348725318,0.6478047370910645,-0.3174198269844055,-0.6327164173126221,-0.2815378308296203,8.613520622253418,-0.7770240306854248,-4.403770446777344,-0.526789128780365,-0.2943283021450043,0.3884357511997223,0.3732894957065582,-0.6545354127883911,-0.5454767942428589,-0.3670059740543365
5011610,9.809854507446287,-0.4610231816768646,-0.0014483639970421,0.0952216014266014,-0.6606027483940125,0.0826329737901687,0.6477186679840088,-0.3174862563610077,-0.6327518224716187,-0.2815818190574646,8.598679542541504,-0.7705832719802856,-4.399800777435303,-0.3974578976631164,-0.2743504643440246,0.3817892670631408,0.3732140362262726,-0.6545971035957336,-0.5454440116882324,-0.367021381855011
5011776,9.81700038909912,-0.4784497320652008,-0.0024926336482167,0.1824200600385666,-0.6185466647148132,0.0292945243418216,0.647642195224762,-0.3175280690193176,-0.6327941417694092,-0.2816153466701507,8.608438491821289,-0.7698143720626831,-4.399367809295654,-0.1974866986274719,-0.4367605447769165,0.2363859862089157,0.3731154203414917,-0.654676616191864,-0.545406699180603,-0.3670353889465332
5011943,9.81928253173828,-0.4912380874156952,-0.008250406011939,0.5344409942626953,-0.6316220164299011,0.1221661642193794,0.6475933790206909,-0.3175258338451385,-0.6328577399253845,-0.2815870642662048,8.62061595916748,-0.7770276069641113,-4.404063701629639,0.1337302923202514,-0.4470952451229095,0.2483983486890792,0.3730642795562744,-0.6547150015830994,-0.5454161763191223,-0.3670046925544739
5012110,9.821900367736816,-0.4724151194095611,-0.0069283107295632,0.6705340147018433,-0.5100769400596619,0.240022987127304,0.6475704908370972,-0.3175082504749298,-0.6329143643379211,-0.2815323173999786,8.623880386352539,-0.7247827053070068,-4.397583961486816,0.4875185191631317,-0.4245176613330841,0.4279433786869049,0.373086929321289,-0.654703676700592,-0.5454792976379395,-0.3669081628322601
5012276,9.826323509216309,-0.4587379992008209,0.0196619872003793,0.5099679827690125,-0.4907520711421966,0.3129167556762695,0.6475145220756531,-0.3175806999206543,-0.6329240798950195,-0.2815575897693634,8.644841194152832,-0.7272002696990967,-4.388153076171875,0.4618546366691589,-0.2293361127376556,0.4027276933193207,0.3731376230716705,-0.6546556949615479,-0.5455639362335205,-0.3668164908885956
5012443,9.813152313232422,-0.4617132246494293,-0.0116479517892003,0.4393922388553619,-0.305764377117157,0.3939681053161621,0.647496223449707,-0.3176127076148987,-0.6329332590103149,-0.2815429866313934,8.619782447814941,-0.7322785258293152,-4.382087707519531,0.3727864325046539,0.2153195589780807,0.4955096840858459,0.37320676445961,-0.6546148061752319,-0.545587956905365,-0.3667832612991333
5012610,9.799078941345217,-0.4651249349117279,0.0153762055560946,0.6584576964378357,-0.2124957591295242,0.5063951015472412,0.6475052237510681,-0.3176208436489105,-0.632942259311676,-0.2814926207065582,8.591044425964355,-0.7432752847671509,-4.388278007507324,0.4341672360897064,0.1463317573070526,0.5982678532600403,0.3732732534408569,-0.6545946598052979,-0.5455943942070007,-0.3667420148849487
5012776,9.790687561035156,-0.4582977592945099,0.0083386311307549,0.7454383969306946,-0.3779409825801849,0.6077061295509338,0.6474913954734802,-0.3176727294921875,-0.6329474449157715,-0.281454473733902,8.572179794311523,-0.7272896766662598,-4.403652191162109,0.2752788662910461,0.0972194075584411,0.6517471075057983,0.3733138740062713,-0.6546033024787903,-0.5455739498138428,-0.3667157590389251
5012943,9.783397674560549,-0.4621209502220154,-0.0281387828290462,0.7957417964935303,-0.2767196297645569,0.5849876999855042,0.6474977135658264,-0.3176917731761932,-0.6329569816589355,-0.2813969552516937,8.564915657043457,-0.7776604294776917,-4.419530391693115,0.1765931695699691,-0.132622554898262,0.6507226228713989,0.3733552396297455,-0.6545858979225159,-0.5456135869026184,-0.3666454255580902
5013110,9.831169128417969,-0.442537784576416,-0.0138649558648467,0.4927178919315338,-0.3343609869480133,0.4420943856239319,0.6474829912185669,-0.3177188038825989,-0.6329709887504578,-0.2813686430454254,8.545269012451172,-0.7558749914169312,-4.412637233734131,0.7386894226074219,-0.4613871276378631,0.7952550649642944,0.3733860850334167,-0.6546350121498108,-0.5456057786941528,-0.3665382862091064
5013276,9.858316421508787,-0.4844473302364349,-0.0730404555797576,0.3011221289634704,-0.2545646131038666,0.5027452707290649,0.6474656462669373,-0.3177734315395355,-0.6329631805419922,-0.2813642919063568,8.683457374572754,-0.7564223408699036,-4.433938980102539,0.468052864074707,-0.8027916550636292,0.7140756249427795,0.3733810782432556,-0.6546776294708252,-0.5456498861312866,-0.3664015233516693
5013443,9.805326461791992,-0.4528944790363312,-0.0407917648553848,1.0480525493621826,0.2030510902404785,0.7685410380363464,0.6475654244422913,-0.3176949620246887,-0.6329659223556519,-0.2812171280384063,8.668641090393066,-0.6729063391685486,-4.420553207397461,0.1655028462409973,0.1880420446395874,0.5919287204742432,0.3733958005905151,-0.6547083854675293,-0.5455941557884216,-0.3664145469665527
5013610,9.84829044342041,-0.3865984380245209,0.033773586153984,0.3006739020347595,0.6923689246177673,0.5302021503448486,0.6476414799690247,-0.3176999986171722,-0.6328750848770142,-0.281240850687027,8.633318901062012,-0.6865335702896118,-4.440837383270264,-0.8692693710327148,0.4057627320289612,0.3257871270179748,0.3733177781105041,-0.6547561883926392,-0.545504629611969,-0.3665419220924377
5013776,9.816190719604492,-0.378894954919815,0.0157221183180809,-0.9672635197639464,0.3655764460563659,-0.1453520506620407,0.6476054787635803,-0.3177646696567535,-0.6327995657920837,-0.2814206779003143,8.641430854797363,-0.7459802031517029,-4.4306182861328125,-1.1507786512374878,0.6569209694862366,0.1726488173007965,0.3732242584228515,-0.6547933220863342,-0.5454018712043762,-0.366723895072937
5013943,9.872342109680176,-0.5295040011405945,-0.0330226980149745,0.092762790620327,0.5139380097389221,-0.1868702471256256,0.6476296186447144,-0.3177200853824615,-0.6327547430992126,-0.2815161347389221,8.635835647583008,-0.7581415176391602,-4.414804458618164,-0.9270901679992676,0.778414785861969,0.4772349894046783,0.3731785416603088,-0.6548333168029785,-0.5452786684036255,-0.3668819069862366
5014110,9.825972557067873,-0.4295646548271179,0.072597324848175,1.3395248651504517,0.4064415395259857,0.4204260408878326,0.6477099657058716,-0.317655861377716,-0.6327241063117981,-0.2814726531505584,8.68364429473877,-0.7262075543403625,-4.357460021972656,-0.7830057144165039,1.397844910621643,0.90926992893219,0.3732177913188934,-0.6548677086830139,-0.5450871586799622,-0.3670651614665985
5014276,9.836769104003906,-0.4113639593124389,0.0534035041928291,0.0991147384047508,0.1370599418878555,0.4065439403057098,0.6477048397064209,-0.3177244961261749,-0.6326647400856018,-0.2815402746200561,8.613457679748535,-0.7546099424362183,-4.369828224182129,-0.7382605075836182,1.8257821798324585,1.1512205600738523,0.373319536447525,-0.6548776030540466,-0.5448735952377319,-0.3672611117362976
5014443,9.7672758102417,-0.4775201976299286,0.0343057252466678,-0.6569272875785828,0.1720853149890899,0.5841552019119263,0.6476932764053345,-0.3178378045558929,-0.6325834393501282,-0.2816215455532074,8.541972160339355,-0.7985514998435974,-4.396075248718262,-0.1806591898202896,1.6897019147872925,1.2413771152496338,0.3734618723392486,-0.6548808813095093,-0.5446772575378418,-0.3674020171165466
5014610,9.792778968811035,-0.5178775787353516,0.0038585073780268,-0.3477692604064941,-0.3604218959808349,0.4905151724815368,0.6476320028305054,-0.317961037158966,-0.6325558423995972,-0.2816857397556305,8.524080276489258,-0.8352183699607849,-4.378633975982666,0.5213016867637634,1.1613118648529053,1.1742334365844729,0.3736110329627991,-0.6548906564712524,-0.5445271730422974,-0.3674551248550415
5014776,9.819981575012209,-0.508257269859314,-0.0292201898992061,0.6848259568214417,0.1734683811664581,0.6459330320358276,0.6476849913597107,-0.3179545104503631,-0.6325255036354065,-0.2816393971443176,8.577418327331543,-0.862278938293457,-4.384164810180664,1.351166009902954,0.6628630757331848,0.8422544598579407,0.3737885653972626,-0.6548458337783813,-0.5444926023483276,-0.3674057722091675
5014943,9.775875091552734,-0.4749985933303833,0.0365246087312698,0.776391327381134,0.5574796199798584,0.7659285664558411,0.6477756500244141,-0.317950040102005,-0.6324493885040283,-0.2816067039966583,8.613595962524414,-0.8584854006767273,-4.378549575805664,2.311091661453247,0.3064111471176147,0.4922313094139099,0.3740336894989013,-0.6547060012817383,-0.5446034073829651,-0.3672410547733307
5015110,9.790590286254885,-0.4914998114109039,-0.0192625280469656,0.2891097664833069,0.4968671798706054,0.8897275924682617,0.6478574275970459,-0.3179730474948883,-0.6323695778846741,-0.281572014093399,8.753945350646973,-0.7764778733253479,-4.372771739959717,2.674215316772461,0.8392320275306702,0.2869070470333099,0.3743265867233276,-0.654529333114624,-0.5446906089782715,-0.3671282529830932
5015276,9.826091766357422,-0.4953811168670654,-0.0248328018933534,0.7596663236618042,0.8135169744491577,0.8613359332084656,0.6479856967926025,-0.3179430961608886,-0.6322769522666931,-0.2815186679363251,8.627474784851074,-0.7147452235221863,-4.344820976257324,2.365031719207764,0.8683409094810486,0.1998879015445709,0.3746165037155151,-0.654316782951355,-0.5448211431503296,-0.3670177161693573
5015443,9.837132453918455,-0.4728330075740814,0.05876150354743,0.9136369824409484,0.9246888160705566,0.8320221900939941,0.6481404304504395,-0.3178673088550567,-0.6321938633918762,-0.2814345061779022,8.692425727844238,-0.7210811972618103,-4.354924201965332,1.5776206254959106,1.158481478691101,0.5180231928825378,0.374845415353775,-0.654195249080658,-0.5448167324066162,-0.3670074939727783
5015610,9.8117094039917,-0.4650360643863678,0.0404936149716377,1.0432244539260864,0.3006354868412018,0.6585089564323425,0.648219108581543,-0.3178292512893677,-0.6321617960929871,-0.2813682854175567,8.561637878417969,-0.6536868810653687,-4.3330488204956055,1.1098815202713013,0.422974556684494,1.0959738492965698,0.3750180602073669,-0.6541590690612793,-0.5448025465011597,-0.3669165074825287
5015776,9.803953170776367,-0.4495584368705749,0.0546160526573658,0.7432612776756287,-0.2382237166166305,1.0506521463394165,0.6482486724853516,-0.3178811967372894,-0.632148027420044,-0.2812724709510803,8.626694679260254,-0.6610727310180664,-4.328720569610596,-0.3085049390792846,0.5772653818130493,0.9559106826782228,0.3750476241111755,-0.6541980504989624,-0.5446968078613281,-0.366973727941513
5015943,9.881662368774414,-0.4179656207561493,-0.0106215570122003,0.1562054604291916,-0.1098272651433944,0.49936443567276,0.6482523083686829,-0.3179050981998443,-0.6321371793746948,-0.281261533498764,8.587230682373047,-0.7616894841194153,-4.345914363861084,-1.002160906791687,0.2229137420654297,1.1428322792053225,0.3750071823596954,-0.6542855501174927,-0.5445833802223206,-0.3670274913311004
5016110,9.807469367980955,-0.479616105556488,-0.0284168869256973,0.4101809561252594,0.0836830884218216,0.3102017641067505,0.6482772827148438,-0.317879170179367,-0.632127583026886,-0.2812545895576477,8.603331565856934,-0.8090464472770691,-4.326601505279541,-0.9214937090873718,-0.184001624584198,1.1611580848693848,0.3749288320541382,-0.6544119715690613,-0.5444701313972473,-0.3670500218868255
5016276,9.750935554504396,-0.4530222117900848,0.0357381887733936,0.6430259943008423,-0.1753061115741729,0.5201234221458435,0.6482844352722168,-0.3178911507129669,-0.6321271657943726,-0.2812256813049316,8.587194442749023,-0.8053604364395142,-4.35023832321167,-0.7400405406951904,-0.5383917689323425,0.9227294325828552,0.3748257756233215,-0.6545304656028748,-0.5444059371948242,-0.3670391142368316
5016443,9.8330717086792,-0.4489677846431732,-0.0062082959339022,-0.0927948057651519,-0.5183625817298889,0.3577773571014404,0.6482255458831787,-0.3179571628570556,-0.6321434378623962,-0.28125,8.621145248413086,-0.7994970083236694,-4.362319946289063,-0.7012757658958435,-0.5523250699043274,0.6374680995941162,0.3747248947620392,-0.6546023488044739,-0.5443994998931885,-0.3670234382152557
5016610,9.801193237304688,-0.480155885219574,-0.0066517456434667,-0.3052393496036529,-0.387481689453125,0.2244376689195633,0.6481641530990601,-0.3180225491523742,-0.6321466565132141,-0.2813101708889007,8.608590126037598,-0.8056307435035706,-4.366353511810303,-0.6090571284294128,-0.6349387764930725,0.2764698565006256,0.3745895028114319,-0.6546710729598999,-0.5444049835205078,-0.367031067609787
5016776,9.780168533325195,-0.4808353781700134,0.0015055832918733,-0.1966031044721603,-0.497283399105072,0.1397749185562133,0.648090124130249,-0.3180839419364929,-0.6321636438369751,-0.2813735604286194,8.620037078857422,-0.7811327576637268,-4.359537601470947,-0.4037202000617981,-1.0930603742599487,0.1566408723592758,0.3744274973869324,-0.6547479629516602,-0.5444525480270386,-0.3669886887073517
5016943,9.80717658996582,-0.481386125087738,0.0230021644383668,-0.0152779761701822,-0.7095357775688171,0.1731866896152496,0.6480004787445068,-0.3181528449058532,-0.6321998238563538,-0.2814209461212158,8.658102035522461,-0.7548440098762512,-4.378404140472412,-0.5356768369674683,-0.5540540218353271,0.2065472304821014,0.3742947876453399,-0.6548125743865967,-0.5444521903991699,-0.3670093119144439
5017110,9.807205200195312,-0.4689623713493347,0.0203665010631084,0.0851045921444892,-0.4979493021965027,0.0441114716231823,0.647942841053009,-0.3181611001491546,-0.6322416663169861,-0.2814501523971557,8.639578819274902,-0.7622978687286377,-4.355312824249268,-0.6771101355552673,-0.62311851978302,0.320574939250946,0.3741627633571625,-0.6548764109611511,-0.544463038444519,-0.3670140206813812
5017277,9.816481590270996,-0.4507809281349182,0.0282878000289201,-0.2543597221374511,-0.3537881970405578,-0.0466535314917564,0.6478514075279236,-0.3182500302791595,-0.6322277784347534,-0.2815911471843719,8.63526439666748,-0.7511535286903381,-4.369167327880859,-0.7046694159507751,-0.3827433884143829,0.5142326354980469,0.374075710773468,-0.6549159288406372,-0.5444751381874084,-0.3670141100883484
5017443,9.800649642944336,-0.4932272136211395,0.0340812690556049,-0.2201795876026153,-0.42441526055336,0.0043477565050125,0.6477577090263367,-0.3183417022228241,-0.6322200894355774,-0.2817203104496002,8.619926452636719,-0.7506081461906433,-4.390432357788086,-0.6092620491981506,-0.3577837944030761,0.6148136258125305,0.3739840984344482,-0.6549873352050781,-0.5444441437721252,-0.3670260012149811
5017610,9.817787170410156,-0.4845403134822845,0.0405398868024349,-0.0641726180911064,-0.6511900424957275,-0.0215530861169099,0.6477041244506836,-0.3183005750179291,-0.6323052048683167,-0.2816990613937378,8.608989715576172,-0.7702324986457825,-4.380736827850342,-0.5670908093452454,-0.2834813892841339,0.5919415354728699,0.3738986551761627,-0.6550537943840027,-0.5444098711013794,-0.3670452237129211
5017777,9.826505661010742,-0.4774951934814453,0.0158962421119213,0.0187805145978927,-0.3380108177661896,0.0490163080394268,0.6476570963859558,-0.3183118402957916,-0.6323263645172119,-0.281747043132782,8.608331680297852,-0.7870910167694092,-4.388649940490723,-0.3555682897567749,-0.4222253262996673,0.4923977255821228,0.3738040626049042,-0.6551266312599182,-0.5443815588951111,-0.3670535385608673
5017943,9.80495548248291,-0.462593138217926,0.0259525366127491,0.1156733483076095,-0.2138404250144958,0.0767804682254791,0.6476354002952576,-0.3182923197746277,-0.6323481202125549,-0.2817701995372772,8.601336479187012,-0.7899948954582214,-4.375063896179199,0.055163349956274,-0.5902446508407593,0.4175190329551697,0.3737268149852752,-0.6551868915557861,-0.5443831086158752,-0.3670222163200378
5018110,9.816256523132324,-0.4726029336452484,-0.0249476227909326,0.2960251569747925,-0.3141653537750244,0.1409402787685394,0.6476082801818848,-0.3182817101478576,-0.6323754191398621,-0.2817831337451935,8.596365928649902,-0.7689666748046875,-4.397418975830078,0.2891737818717956,-0.7325359582901001,0.2477708756923675,0.3736826181411743,-0.6551816463470459,-0.5444790124893188,-0.3669346868991852
5018277,9.818845748901367,-0.4768944084644317,-0.022533681243658,0.4021769762039184,-0.163088858127594,0.2089932113885879,0.6476090550422668,-0.3182463347911834,-0.6323972940444946,-0.2817720472812652,8.607473373413086,-0.741147518157959,-4.377163410186768,0.2697209417819977,-0.6999566555023193,0.2157549858093261,0.373604267835617,-0.6552222967147827,-0.5445149540901184,-0.3668884336948395
5018443,9.815476417541504,-0.4638626873493194,0.0098524512723088,0.6032494902610779,-0.2834173142910003,0.2998286485671997,0.6475799083709717,-0.3182776272296905,-0.6323975920677185,-0.2818029522895813,8.649006843566895,-0.7297108173370361,-4.385502815246582,0.2463237345218658,-0.5965197682380676,0.3362627029418945,0.3735696971416473,-0.655220091342926,-0.5445916652679443,-0.3668138980865478
5018610,9.816434860229492,-0.4534302353858948,-0.0027659991756081,0.6870158910751343,-0.322015643119812,0.4019849002361297,0.6475783586502075,-0.3182591497898102,-0.6324272751808167,-0.281761109828949,8.65345573425293,-0.7154309749603271,-4.374427318572998,0.2170484364032745,-0.4561365842819214,0.5334420204162598,0.3735205233097076,-0.6552767753601074,-0.5445797443389893,-0.3667802214622497
5018777,9.822250366210938,-0.4570857882499695,0.0196011923253536,0.4771197736263275,-0.1862299442291259,0.356548011302948,0.6475670337677002,-0.3182742297649383,-0.6324254274368286,-0.281773954629898,8.625500679016113,-0.7339950799942017,-4.375736236572266,-0.0722406134009361,-0.178251564502716,0.646458089351654,0.3735172748565674,-0.6552741527557373,-0.5446110963821411,-0.3667415678501129
5018943,9.807211875915527,-0.4521470367908478,-0.0046955603174865,0.6228047609329224,-0.278755784034729,0.4818196892738342,0.6475481390953064,-0.318315714597702,-0.6324196457862854,-0.2817835509777069,8.60690689086914,-0.7427281141281128,-4.391321659088135,-0.0870319530367851,-0.0562839061021804,0.6545516848564148,0.3734876811504364,-0.6553177237510681,-0.5445714592933655,-0.3667528033256531
5019110,9.816905975341797,-0.4651326239109039,0.0057770628482103,0.7715633511543274,-0.1755878627300262,0.3889992535114288,0.6475608944892883,-0.3182862102985382,-0.6324371695518494,-0.2817483246326446,8.579621315002441,-0.7691670656204224,-4.380521297454834,-0.001280635013245,-0.0485616773366928,0.6285932660102844,0.373485803604126,-0.6553234457969666,-0.5445759296417236,-0.3667378425598144
5019277,9.78054904937744,-0.4656074643135071,0.0323585830628871,0.7314153909683228,-0.2138148099184036,0.4516607224941253,0.6475462913513184,-0.3183237016201019,-0.6324248909950256,-0.2817671000957489,8.610283851623535,-0.7459253072738647,-4.384648323059082,0.2754838168621063,-0.0357425212860107,0.513541042804718,0.3735050857067108,-0.6553030610084534,-0.544607400894165,-0.3667080104351043
5019443,9.79587459564209,-0.45423224568367,0.0143820792436599,0.8220844268798828,-0.3167522549629211,0.487057477235794,0.6475583910942078,-0.3182901740074157,-0.6324599981307983,-0.2816983163356781,8.606922149658203,-0.7535319328308105,-4.399514675140381,0.1613280028104782,-0.1465046405792236,0.4733419418334961,0.3734983503818512,-0.6552967429161072,-0.5446362495422363,-0.3666833639144897
5019610,9.803757667541504,-0.4292593002319336,0.0084076635539531,0.4870062470436096,-0.1271414309740066,0.4128318727016449,0.6475590467453003,-0.3182975947856903,-0.6324542164802551,-0.2817015647888183,8.577014923095703,-0.7809044122695923,-4.411148548126221,0.5129647254943848,-0.1055883467197418,0.6205508708953857,0.373548150062561,-0.655263364315033,-0.5446888208389282,-0.3666140139102936
5019777,9.851850509643556,-0.4659331142902374,-0.0386768579483032,0.114341489970684,-0.2174902409315109,0.2685171365737915,0.6475197076797485,-0.318348616361618,-0.6324390769004822,-0.2817680537700653,8.607587814331055,-0.7226523756980896,-4.422677516937256,0.5617313385009766,-0.6533415913581848,0.6520545482635498,0.3735406398773193,-0.6552883982658386,-0.544735312461853,-0.366507887840271
5019943,9.8225679397583,-0.5139899849891663,-0.0703452304005622,0.6138403415679932,-0.1579407155513763,0.6775135397911072,0.647525429725647,-0.3183880150318146,-0.632420003414154,-0.2817533612251282,8.686585426330566,-0.7171560525894165,-4.44189977645874,0.3962604403495788,-0.0691414773464202,0.793590247631073,0.3735813498497009,-0.6552863121032715,-0.5447476506233215,-0.3664516806602478
5020110,9.827998161315918,-0.4173851013183594,0.0035974744241684,0.919297456741333,0.532520055770874,0.5842064619064331,0.6476213932037354,-0.3183232545852661,-0.6323728561401367,-0.2817113995552063,8.632203102111816,-0.6516350507736206,-4.411455631256104,-0.4748466610908508,0.288879245519638,0.4728552401065826,0.3735582828521728,-0.6552733182907104,-0.544741690158844,-0.3665074408054352
5020277,9.81235122680664,-0.3631993234157562,0.0251802448183298,-0.5311817526817322,0.4141381382942199,0.2163184434175491,0.647602915763855,-0.3184144198894501,-0.6322696805000305,-0.2818827033042907,8.658512115478516,-0.7159700989723206,-4.411505699157715,-1.2623218297958374,0.5010548233985901,0.1736220866441726,0.3734507262706756,-0.6552810072898865,-0.5446950793266296,-0.3666724860668182
5020443,9.865047454833984,-0.4506433308124542,-0.0328243598341941,-1.0446139574050903,0.1267124116420745,-0.3896715641021728,0.6475234627723694,-0.3184764981269836,-0.6322174072265625,-0.2821124494075775,8.645034790039062,-0.7519702911376953,-4.408793449401856,-1.2886134386062622,0.8900221586227417,0.477042943239212,0.3733668625354767,-0.655324399471283,-0.5445589423179626,-0.3668826222419739
5020610,9.842122077941896,-0.4819070100784302,0.0377550460398197,1.120113730430603,0.9741469621658324,0.1356128454208374,0.6476437449455261,-0.3183470368385315,-0.6321504712104797,-0.2821322679519653,8.68718433380127,-0.7586202621459961,-4.3830180168151855,-0.81544429063797,1.2154570817947388,0.8362482190132141,0.3733819425106048,-0.6553393602371216,-0.5444129109382629,-0.3670572340488434
5020777,9.815702438354492,-0.3925532400608063,0.0893332064151763,0.6490705609321594,0.112228438258171,0.5142838358879089,0.6476722359657288,-0.3183468282222748,-0.6321200132369995,-0.2821354568004608,8.625997543334961,-0.7340607643127441,-4.366647243499756,-0.6384989619255066,1.8611915111541748,1.0972161293029783,0.3734607398509979,-0.6553574800491333,-0.5441835522651672,-0.3672848045825958
5020943,9.815320014953612,-0.4464857876300812,0.0298521537333726,-0.7772173285484314,0.1815235912799835,0.3885766267776489,0.6476379036903381,-0.3184613585472107,-0.6320323944091797,-0.2822812497615814,8.558937072753906,-0.7700912356376648,-4.37824010848999,-0.3743296265602112,1.8358479738235476,1.1598647832870483,0.3735906183719635,-0.6553298234939575,-0.5440096259117126,-0.3674595952033996
5021110,9.777043342590332,-0.5251802206039429,0.0304188933223485,-0.4504120945930481,-0.2051577121019363,0.5461716055870056,0.6475946307182312,-0.318563848733902,-0.6319929361343384,-0.2823530435562134,8.514666557312012,-0.8261479735374451,-4.374630928039551,0.3566504716873169,1.3114792108535769,1.0598984956741333,0.3737561106681824,-0.6552626490592957,-0.5439373254776001,-0.3675181567668915
5021277,9.792226791381836,-0.5176838040351868,-0.0248127970844507,0.4509691596031189,-0.2105876058340072,0.7252171039581299,0.6475990414619446,-0.3186007738113403,-0.6319813132286072,-0.2823274433612823,8.557930946350098,-0.8386662006378174,-4.366404056549072,1.178971767425537,0.6872976422309875,0.8490417003631592,0.3739160299301147,-0.6552019715309143,-0.5439210534095764,-0.3674878478050232
5021443,9.794163703918455,-0.48307666182518,0.0055345557630062,1.225253939628601,0.3472121655941009,0.9110246300697328,0.6476870179176331,-0.3185842931270599,-0.631927490234375,-0.282264769077301,8.633990287780762,-0.8377727270126343,-4.339462757110596,2.118394613265991,0.3564967513084411,0.7090044021606445,0.3741402626037597,-0.6550847291946411,-0.5440009832382202,-0.3673499822616577
5021610,9.773493766784668,-0.5018879175186157,0.0080025680363178,0.6687284111976624,0.2771614491939544,1.0537641048431396,0.6477299928665161,-0.3186786770820617,-0.6318287253379822,-0.2822803556919098,8.702948570251465,-0.789900004863739,-4.338223457336426,2.6014115810394287,0.568749189376831,0.5163840055465698,0.3744005262851715,-0.6549398899078369,-0.5440824031829834,-0.3672224581241607
5021777,9.804387092590332,-0.4851060211658478,-0.0043019717559218,0.8979364633560181,0.3703788816928863,1.0579261779785156,0.647820234298706,-0.3186846375465393,-0.6317630410194397,-0.2822137176990509,8.637694358825684,-0.7342882752418518,-4.368534564971924,2.6172657012939453,0.9735067486763,0.4089003801345825,0.3747177422046661,-0.6547196507453918,-0.5442068576812744,-0.3671073615550995
5021943,9.837678909301758,-0.467503160238266,0.0535673797130584,1.1184360980987549,0.4538377821445465,0.9989657402038574,0.647923469543457,-0.3186660706996918,-0.6316986680030823,-0.2821416854858398,8.701313018798828,-0.7239581346511841,-4.360123634338379,1.822734236717224,0.6770524382591248,0.4954840838909149,0.3749486207962036,-0.6545525789260864,-0.5443119406700134,-0.3670136928558349
5022110,9.81756591796875,-0.4631828665733337,0.0220013372600078,1.0786083936691284,-0.1074965074658393,0.8449693322181702,0.6479634642601013,-0.3186683356761932,-0.631688117980957,-0.2820709943771362,8.591418266296387,-0.712670087814331,-4.354994297027588,1.7122795581817627,0.8055898547172546,1.0315195322036743,0.3751817047595978,-0.654464840888977,-0.5443066954612732,-0.3669398128986358
5022277,9.811141967773438,-0.4668505489826202,0.055304005742073,1.389098048210144,0.0374137423932552,1.241633057594299,0.6480788588523865,-0.3185999691486358,-0.6316949725151062,-0.2818677425384521,8.634418487548828,-0.6644797325134277,-4.343219757080078,0.5958858728408813,0.5312649607658386,1.0784674882888794,0.3752996325492859,-0.6544395089149475,-0.5442731380462646,-0.3669141829013824
5022443,9.849964141845703,-0.4214642941951751,0.0262138545513153,0.4739693999290466,-0.3674653470516205,0.857545018196106,0.6480813026428223,-0.3186390101909637,-0.6316994428634644,-0.2818077802658081,8.630127906799316,-0.7032806873321533,-4.334314823150635,-0.3638924360275268,0.4622132182121277,0.9968782663345336,0.3753143548965454,-0.6544651389122009,-0.5441980957984924,-0.36696457862854
5022610,9.825912475585938,-0.4417939186096191,-0.0094447638839483,0.2727816104888916,0.0066785109229385,0.5066383481025696,0.6480959057807922,-0.3186455070972442,-0.6316786408424377,-0.2818138003349304,8.541500091552734,-0.7778590321540833,-4.341296195983887,-0.845603346824646,0.2321983426809311,1.1492483615875244,0.3752520084381103,-0.6545725464820862,-0.5440570116043091,-0.367046058177948
5022777,9.75833225250244,-0.4689304530620575,0.0341738238930702,0.5902767181396484,0.172751247882843,0.5233891606330872,0.6481279730796814,-0.3186457455158233,-0.6316395998001099,-0.2818271815776825,8.6162109375,-0.787042498588562,-4.3289079666137695,-0.8116023540496826,-0.5008435249328613,1.2330914735794067,0.3751587569713592,-0.6546939015388489,-0.5439866781234741,-0.3670291602611542
5022943,9.800289154052734,-0.4412231147289276,-0.0049135703593492,0.0847844332456588,-0.849393904209137,0.5632808804512024,0.648057758808136,-0.3187086582183838,-0.631689727306366,-0.281805008649826,8.56104564666748,-0.8059247732162476,-4.363100528717041,-0.8056091070175171,-0.2851718068122864,0.8104626536369324,0.375079482793808,-0.6547414660453796,-0.5439797639846802,-0.3670355975627899
5023110,9.82020092010498,-0.448864072561264,-0.0425819009542465,-0.5750178694725037,-0.508450448513031,0.2826169431209564,0.6479705572128296,-0.3188070654869079,-0.6316872239112854,-0.2818998992443084,8.597886085510254,-0.8048221468925476,-4.340384483337402,-0.6582080125808716,-0.9843473434448242,0.4123324453830719,0.3749194145202636,-0.6548137664794922,-0.5440241098403931,-0.3670042157173157
5023277,9.789470672607422,-0.4919108748435974,-0.0228126253932714,-0.0519681647419929,0.0373881347477436,0.2879443764686584,0.6479621529579163,-0.3188241124153137,-0.6316598653793335,-0.2819615304470062,8.624429702758789,-0.8252981305122375,-4.359464645385742,-0.5224862694740295,-0.9761512279510498,0.2476556152105331,0.3747760951519012,-0.6548469662666321,-0.5441132187843323,-0.3669593930244446
5023443,9.768689155578612,-0.4621461033821106,0.0443163625895977,0.223336324095726,-0.4517951905727386,0.230162113904953,0.6479180455207825,-0.3188317418098449,-0.6316918730735779,-0.2819823622703552,8.647253036499023,-0.7737310528755188,-4.36611795425415,-0.3303141891956329,-0.9790453910827636,0.2781603038311004,0.3746286630630493,-0.654908299446106,-0.544165313243866,-0.3669231832027435
5023610,9.817253112792969,-0.454496830701828,0.0125525826588273,0.1625445783138275,-0.4884597659111023,0.1907953917980194,0.6478683352470398,-0.3188379406929016,-0.631729006767273,-0.2820062041282654,8.678375244140625,-0.7551266551017761,-4.365138530731201,-0.5339863300323486,-0.7438439726829529,0.2684402763843536,0.3744947910308838,-0.6549448370933533,-0.5442224740982056,-0.3669101595878601
5023777,9.804492950439451,-0.4824516475200653,0.0331835784018039,-0.1029374301433563,-0.3357568681240082,0.0906625464558601,0.647831380367279,-0.3188187777996063,-0.6317635178565979,-0.2820355594158172,8.67070484161377,-0.7467119693756104,-4.355302810668945,-0.6833211779594421,-0.4011973142623901,0.3225471377372741,0.3743830323219299,-0.6549650430679321,-0.544260561466217,-0.3669314980506897
5023943,9.820886611938477,-0.5038661360740662,0.0716814920306205,0.0078823082149028,-0.4663304388523102,0.030319033190608,0.6477676033973694,-0.3188288509845733,-0.6317968368530273,-0.2820959687232971,8.646246910095215,-0.7485767602920532,-4.382693290710449,-0.7818660736083984,-0.1680193096399307,0.4183642566204071,0.3742860853672027,-0.6549841165542603,-0.5442730188369751,-0.3669777810573578
5024110,9.809500694274902,-0.5012447834014893,0.0367240719497203,0.1293633431196212,-0.61175936460495,0.049349270761013,0.6476988792419434,-0.3188313245773315,-0.6318495273590088,-0.282133013010025,8.627447128295898,-0.7828221321105957,-4.369789123535156,-0.7924056649208069,-0.0684371292591095,0.4747633635997772,0.3741866052150726,-0.6550208926200867,-0.5442521572113037,-0.3670444786548614
5024277,9.81032371520996,-0.4754996597766876,0.0260526705533266,0.2018472552299499,-0.62370765209198,0.0478637292981147,0.6476436257362366,-0.3188020884990692,-0.6319191455841064,-0.2821371555328369,8.594815254211426,-0.77520352602005,-4.363839626312256,-0.7184234857559204,-0.1081496328115463,0.4874801635742187,0.3740978837013244,-0.6550476551055908,-0.5442471504211426,-0.3670945167541504
5024443,9.810484886169434,-0.4757354855537414,-0.0214526150375604,0.3743872046470642,-0.778562068939209,-0.0007555746124126,0.6475720405578613,-0.318776398897171,-0.6320033073425293,-0.2821416556835174,8.615734100341797,-0.7813440561294556,-4.3679938316345215,-0.5342296361923218,-0.3031775057315826,0.3235716223716736,0.3739925324916839,-0.6550764441490173,-0.5442603230476379,-0.3671309947967529
5024610,9.815679550170898,-0.47934091091156,0.0059508574195206,0.4104371070861816,-0.6720132231712341,0.0817237123847007,0.6474962830543518,-0.3187938630580902,-0.6320528388023376,-0.2821848094463348,8.615386962890625,-0.7851026654243469,-4.360802173614502,-0.3137427568435669,-0.2324481010437011,0.1738526225090026,0.3739224970340729,-0.655052661895752,-0.5443263649940491,-0.3671468496322632
5024777,9.807129859924316,-0.4607191979885101,0.0088654179126024,0.3403479158878326,-0.5428354740142822,0.1185675933957099,0.6474382877349854,-0.3187984824180603,-0.6320945620536804,-0.2822191417217254,8.597606658935547,-0.7555453181266785,-4.3968825340271,-0.1929020434617996,-0.2555507123470306,0.2002720981836319,0.3738355040550232,-0.6550673246383667,-0.5443460941314697,-0.3671799302101135
5024943,9.813459396362305,-0.4891142845153808,-0.0106106074526906,0.5463380813598633,-0.515622079372406,0.1804606765508651,0.6473974585533142,-0.318782091140747,-0.6321425437927246,-0.2822239696979522,8.620147705078125,-0.7599619030952454,-4.383056640625,-0.0842401608824729,-0.3074163794517517,0.1806399524211883,0.3737753331661224,-0.6550439596176147,-0.544417679309845,-0.3671768605709076
5025110,9.810602188110352,-0.4843722581863403,-3.5762072911893483e-06,0.6727239489555359,-0.4349164366722107,0.2305335104465484,0.6473742127418518,-0.3187498450279236,-0.6321884989738464,-0.2822108566761017,8.635414123535156,-0.7495837807655334,-4.378229141235352,0.1164417341351509,-0.3365892767906189,0.3160286843776703,0.3737230896949768,-0.655046284198761,-0.5444586277008057,-0.3671651184558868
5025277,9.826422691345217,-0.4673089683055877,0.0034813825041055,0.8034511208534241,-0.2682673931121826,0.2360402196645736,0.647375226020813,-0.318693071603775,-0.6322267055511475,-0.2821870744228363,8.658753395080566,-0.742910623550415,-4.395359516143799,0.2099280804395675,-0.1119018793106079,0.515039324760437,0.3737125694751739,-0.6550397872924805,-0.5444826483726501,-0.3671517670154571
5025610,9.818187713623049,-0.471426397562027,0.0131609598174691,0.5495652556419373,-0.0529542528092861,0.3432677686214447,0.6474275588989258,-0.3185618817806244,-0.6322731375694275,-0.2821109890937805,8.66203498840332,-0.7404966354370117,-4.389941215515137,0.2959611415863037,0.197288230061531,0.6346122622489929,0.3737626373767853,-0.6549887657165527,-0.5445237755775452,-0.3671309947967529
5025777,9.815788269042969,-0.4471725225448608,0.0247723869979381,0.4347051680088043,0.0089452350512146,0.3333812952041626,0.6474565267562866,-0.3185012638568878,-0.6322840452194214,-0.2820886373519897,8.644691467285156,-0.7276226878166199,-4.381978988647461,0.1087579205632209,0.4809616506099701,0.6934317350387573,0.3738013207912445,-0.6549650430679321,-0.5444996953010559,-0.3671697378158569
5025943,9.824889183044434,-0.4705466330051422,0.01624670997262,0.5502439141273499,0.0562390834093093,0.5395122170448303,0.6474900245666504,-0.3184775710105896,-0.6322696805000305,-0.2820706367492676,8.630464553833008,-0.7584949135780334,-4.378902435302734,0.1414013057947158,0.7536472678184509,0.6404903531074524,0.373856782913208,-0.6549282670021057,-0.544458270072937,-0.3672404289245605
5026110,9.79372215270996,-0.4665417075157165,0.0123394262045621,0.7871358394622803,-0.0468968488276004,0.5691717863082886,0.6475311517715454,-0.3184272646903991,-0.6322790384292603,-0.2820119857788086,8.58782958984375,-0.7639438509941101,-4.37298059463501,0.223221093416214,0.6372119784355164,0.6984776258468628,0.3739290535449981,-0.6548748016357422,-0.544450044631958,-0.3672739267349243
5026277,9.787357330322266,-0.4425592422485351,-0.0275296438485384,0.5496805310249329,-0.2001632302999496,0.4887222945690155,0.647540807723999,-0.3184051811695099,-0.6322931051254272,-0.2819831371307373,8.590993881225586,-0.7349857091903687,-4.382266521453857,0.2132961452007293,0.3670747876167297,0.6660005450248718,0.3739583492279053,-0.6548617482185364,-0.5444250702857971,-0.367304652929306
5026443,9.81584358215332,-0.4263161718845367,-0.0247543267905712,0.0482735373079776,-0.1053834483027458,0.1560901999473571,0.6475210785865784,-0.3183981478214264,-0.6322919726371765,-0.2820388972759247,8.580111503601074,-0.7796918749809265,-4.372231483459473,-0.0786181762814521,0.2286509424448013,0.6514653563499451,0.3739505112171173,-0.6548668146133423,-0.5443982481956482,-0.3673432767391205
5026610,9.825718879699709,-0.5026752948760986,-0.068791925907135,0.0913669019937515,-0.055169753730297,0.4739693999290466,0.6475086808204651,-0.31844162940979,-0.63225919008255,-0.2820918262004852,8.539037704467773,-0.7491250038146973,-4.383413314819336,0.2735628485679626,-0.2392866611480713,0.7953959703445435,0.3739568889141083,-0.6548737287521362,-0.5444211959838867,-0.3672904074192047
5026777,9.803732872009276,-0.4489808082580566,-0.0525190606713295,0.8612974286079407,0.2800044119358063,0.5596438646316528,0.6475707292556763,-0.3183959126472473,-0.632228434085846,-0.2820698320865631,8.701481819152832,-0.7438471913337708,-4.410843372344971,-0.0344875007867813,-0.5068113207817078,0.7885830402374268,0.3739009797573089,-0.6549274921417236,-0.54442298412323,-0.3672487139701843
5026943,9.834710121154783,-0.3759846687316894,0.0207490921020507,0.1337174773216247,0.6714176535606384,0.4312345385551452,0.6476404666900635,-0.318365603685379,-0.6321502923965454,-0.2821190953254699,8.67220687866211,-0.6945852041244507,-4.398505687713623,-0.3010388314723968,0.1977364271879196,0.7187243103981018,0.3738816082477569,-0.6549375653266907,-0.5443973541259766,-0.3672884106636047
5027110,9.802291870117188,-0.3920810222625732,0.0116448337212204,-1.1553761959075928,0.4152651131153106,-0.2474058866500854,0.6475791335105896,-0.3184497356414795,-0.6320515275001526,-0.2823863327503204,8.656866073608398,-0.6988933086395264,-4.379266738891602,-1.159435749053955,0.3361603021621704,0.1030591055750846,0.3737525045871734,-0.6549461483955383,-0.5443671941757202,-0.3674491941928863
5027277,9.880899429321287,-0.5133431553840637,-0.0255412496626377,-0.0253181550651788,0.5706445574760437,-0.3271766304969787,0.6475845575332642,-0.3184048235416412,-0.6319926381111145,-0.2825563251972198,8.596314430236816,-0.7786106467247009,-4.382558822631836,-1.213440179824829,0.2809008955955505,0.0557140260934829,0.3736240267753601,-0.6549363732337952,-0.5443670153617859,-0.3675978779792785
5027443,9.812566757202148,-0.4421012699604034,0.0630850940942764,1.382400631904602,0.7622787952423096,0.38437619805336,0.6477150321006775,-0.3182554543018341,-0.6319558024406433,-0.2825081050395965,8.757001876831055,-0.8107333183288574,-4.343629360198975,-0.4084328711032867,0.0610542669892311,0.4914500415325165,0.3735648691654205,-0.6549496054649353,-0.5443548560142517,-0.3676523566246032
5027610,9.830224990844728,-0.4112280905246734,0.0466051325201988,0.0492980368435382,0.4811152815818786,0.4233074486255646,0.6477615237236023,-0.3182421624660492,-0.6318908333778381,-0.2825616300106048,8.688689231872559,-0.7574991583824158,-4.34431791305542,0.2355151772499084,1.5266896486282349,0.8659461140632629,0.3737223446369171,-0.6548507809638977,-0.5442960262298584,-0.3677554428577423
5027777,9.776517868041992,-0.4881594479084015,0.0639390125870704,-0.4631672501564026,0.3832556307315826,0.3615360260009765,0.647761344909668,-0.3183013200759887,-0.6318034529685974,-0.2826910614967346,8.549895286560059,-0.7340734601020813,-4.352578639984131,0.3304358720779419,1.3425216674804688,1.0957818031311035,0.3738616406917572,-0.6548111438751221,-0.5441855192184448,-0.3678480088710785
5027943,9.780996322631836,-0.5246971845626831,0.057765319943428,0.2314043343067169,-0.7199090123176575,0.6662439703941345,0.6477116942405701,-0.3183519840240478,-0.6318424940109253,-0.282660037279129,8.538731575012207,-0.7856034636497498,-4.334715843200684,0.545121431350708,0.8569048047065735,1.066147804260254,0.3739776015281677,-0.6547887921333313,-0.5441092252731323,-0.3678827285766601
5028110,9.807750701904297,-0.4772261381149292,-0.0039717401377856,1.0025643110275269,-0.1786870062351226,0.8722853660583496,0.6477614045143127,-0.3183153867721557,-0.6318582892417908,-0.2825519442558288,8.58100700378418,-0.8284651041030884,-4.346199989318848,1.251622200012207,0.5027452707290649,1.0272293090820312,0.3741458654403686,-0.6547220945358276,-0.5441204309463501,-0.367813766002655
5028277,9.769082069396973,-0.4620880782604217,0.0251221507787704,1.3180872201919556,0.5272694826126099,1.014448642730713,0.6478809714317322,-0.3182683885097503,-0.6317959427833557,-0.2824704349040985,8.619194984436035,-0.8171522617340088,-4.351294040679932,1.9817636013031008,0.352706104516983,0.8658437728881836,0.3743601441383362,-0.654615044593811,-0.5441893339157104,-0.3676844537258148
5028443,9.76091480255127,-0.4742445945739746,0.0179837550967931,0.8799307942390442,-0.1683778911828994,1.0649183988571167,0.6479299068450928,-0.3182693421840668,-0.6317923665046692,-0.282365083694458,8.664595603942871,-0.7843387126922607,-4.3477396965026855,2.303010940551758,0.3486080169677734,0.8979108929634094,0.374606728553772,-0.6544933915138245,-0.5442720055580139,-0.3675271272659302
5028610,9.827770233154297,-0.4751931130886078,0.0028912737034261,1.003255844116211,0.0008260095492005,0.88254314661026,0.6479870676994324,-0.3182474672794342,-0.6317798495292664,-0.2822864353656769,8.653546333312988,-0.7404616475105286,-4.361197471618652,2.0660293102264404,0.8001856207847595,0.732875406742096,0.3748528957366943,-0.6543548703193665,-0.544323742389679,-0.3674460649490356
5028777,9.837940216064451,-0.4486821591854095,0.0381232798099517,1.1720564365386963,0.0760761201381683,0.764788806438446,0.648074209690094,-0.3181502819061279,-0.6317959427833557,-0.2821600437164306,8.614063262939453,-0.6910898089408875,-4.364750385284424,1.6710046529769895,-0.0481262654066085,0.6974786520004272,0.3749938011169433,-0.6542778015136719,-0.5444071292877197,-0.36731618642807
5028943,9.829704284667969,-0.4650024473667145,0.0270946156233549,1.184196710586548,-0.0394563637673854,0.9106659293174744,0.6481362581253052,-0.3181174099445343,-0.6317923665046692,-0.2820625603199005,8.697996139526367,-0.7429330348968506,-4.340246677398682,0.7899661064147949,0.7867517471313477,1.020147442817688,0.3751525580883026,-0.6542003750801086,-0.5444033741950989,-0.367297351360321
5029110,9.81439971923828,-0.4104556441307068,0.0545680783689022,0.5042564272880554,-0.0905280858278274,1.1041314601898191,0.6481696963310242,-0.3181694447994232,-0.6317561268806458,-0.2820082306861877,8.652698516845703,-0.6670264005661011,-4.308017730712891,0.4745713174343109,0.1611487120389938,1.3556225299835205,0.3752369582653045,-0.6542197465896606,-0.5443606972694397,-0.3672400414943695
5029277,9.8510103225708,-0.4217957556247711,0.0174089763313531,-0.2435639649629593,0.0712353214621543,0.4578461945056915,0.6481630206108093,-0.3182113170623779,-0.6317111253738403,-0.282076895236969,8.606350898742676,-0.7027683258056641,-4.341577529907227,-0.5610718131065369,0.5134001970291138,1.1206260919570925,0.375233381986618,-0.6542631387710571,-0.5442593693733215,-0.3673163652420044
5029443,9.803861618041992,-0.4693843722343445,0.0003004014142788,0.2351181656122207,0.0890873670578002,0.3429348468780517,0.6481736898422241,-0.318200409412384,-0.6316875219345093,-0.2821176648139953,8.596789360046387,-0.7870513200759888,-4.352721214294434,-1.1741758584976196,0.2138724327087402,0.9035584926605223,0.3751451075077057,-0.6543259024620056,-0.5441781878471375,-0.3674151003360748
5029610,9.757445335388184,-0.446460872888565,0.0321179181337356,0.3252748548984527,-0.3669403195381164,0.6279913187026978,0.6481617093086243,-0.3182177543640136,-0.631701648235321,-0.2820938229560852,8.595319747924805,-0.8200485706329346,-4.346746444702148,-0.8424272537231445,-0.0659527033567428,0.9115495085716248,0.375056117773056,-0.6544007062911987,-0.5441115498542786,-0.3674715757369995
5029777,9.825640678405762,-0.4434103667736053,-0.0382976047694683,-0.0896956697106361,-0.3408537805080414,0.3065391778945923,0.64811110496521,-0.3182631433010101,-0.6317011117935181,-0.2821601033210754,8.605201721191406,-0.7981505393981934,-4.32958984375,-0.5353182554244995,-0.2966975569725036,0.6890521049499512,0.3749585151672363,-0.6544662117958069,-0.5440793037414551,-0.3675024211406708
5029943,9.798395156860352,-0.4970068633556366,-0.0120196752250194,-0.0169940255582332,-0.1234660223126411,0.1841104924678802,0.6480695009231567,-0.3183017075061798,-0.6316786408424377,-0.28226238489151,8.596823692321777,-0.7959886193275452,-4.343214511871338,-0.2654115855693817,-0.489817202091217,0.48835089802742,0.3748706877231598,-0.654495358467102,-0.5441108345985413,-0.3674931824207306
5030110,9.784306526184082,-0.4945894777774811,0.0136396549642086,0.1474202871322631,-0.221191257238388,0.1731482446193695,0.6480384469032288,-0.3182997107505798,-0.6316871643066406,-0.2823167741298675,8.629888534545898,-0.7948621511459351,-4.361438751220703,-0.2187708616256714,-0.5857751965522766,0.2717571556568146,0.3747639060020447,-0.6545170545578003,-0.544161856174469,-0.3674877882003784
5030277,9.805327415466309,-0.4664840698242187,0.0384227707982063,0.2744720876216888,-0.2666665911674499,0.1191310510039329,0.648003101348877,-0.318291425704956,-0.6317033767700195,-0.2823713421821594,8.66071605682373,-0.7885429859161377,-4.342087745666504,-0.1187532693147659,-0.4873712360858917,0.2714241743087768,0.3746812343597412,-0.6545172929763794,-0.5442265272140503,-0.3674763143062591
5030443,9.813613891601562,-0.4674067199230194,0.0424281246960163,0.0900990664958953,-0.2024939805269241,0.1769005060195922,0.6479758620262146,-0.3182841539382934,-0.631712794303894,-0.2824209630489349,8.663949012756348,-0.7605734467506409,-4.357089996337891,-0.0211817026138305,-0.2128927409648895,0.279837965965271,0.3746295273303985,-0.6544986963272095,-0.5442795753479004,-0.3674833476543426
5030610,9.813084602355955,-0.4905054271221161,0.0314527414739131,0.0620147436857223,-0.286285936832428,0.0576221719384193,0.6479282379150391,-0.3182865679264068,-0.6317268013954163,-0.2824959456920624,8.665990829467773,-0.7565001845359802,-4.353399276733398,-0.1340312510728836,-0.0866989865899086,0.5001968145370483,0.3745919466018677,-0.6544920802116394,-0.544304609298706,-0.3674962520599365
5030777,9.821317672729492,-0.4822804629802704,0.0403504595160484,0.2837823033332824,-0.3535704910755157,0.1389040648937225,0.6478903293609619,-0.3182734251022339,-0.631754994392395,-0.2825346291065216,8.63710880279541,-0.7671679854393005,-4.360319137573242,-0.2226639986038208,0.0335846506059169,0.5429188013076782,0.3745489716529846,-0.6545004844665527,-0.5442980527877808,-0.3675349652767181
5030943,9.81993579864502,-0.4744265973567962,0.0217110030353069,0.235079750418663,-0.3338615298271179,0.2185339480638504,0.6478533744812012,-0.3182759881019592,-0.6317731142044067,-0.2825759947299957,8.605642318725586,-0.7673396468162537,-4.349551200866699,-0.2089868038892746,-0.0164177380502223,0.5205460786819458,0.374498188495636,-0.654514729976654,-0.5442897081375122,-0.3675734102725982
5031110,9.821942329406738,-0.4655041694641113,-0.0014698212035,0.3366469144821167,-0.1565448194742202,0.1448718160390854,0.6478352546691895,-0.3182530105113983,-0.6317829489707947,-0.2826213240623474,8.62513256072998,-0.7730615735054016,-4.349701404571533,-0.358360081911087,-0.2494548708200454,0.4304534196853637,0.3744197785854339,-0.654528021812439,-0.5443126559257507,-0.3675957024097442
5031277,9.819467544555664,-0.4671456515789032,-0.0138685321435332,0.3858360946178436,-0.2308344393968582,0.1662328094244003,0.6478282809257507,-0.3181965947151184,-0.6318182945251465,-0.282621681690216,8.605076789855957,-0.7713557481765747,-4.382749557495117,-0.224559336900711,-0.2695480287075043,0.409207671880722,0.3743459284305572,-0.6545416712760925,-0.5443356037139893,-0.3676127791404724
5031443,9.81600570678711,-0.4615345895290375,0.0001966913987416,0.228958323597908,-0.2869262397289276,0.2133217602968216,0.6478022336959839,-0.3181808888912201,-0.6318405270576477,-0.2826493680477142,8.619514465332031,-0.7730687260627747,-4.368394374847412,-0.1447629481554031,-0.3967791199684143,0.3909458220005035,0.3742768466472626,-0.6545434594154358,-0.5443873405456543,-0.3676033318042755
5031610,9.798532485961914,-0.4798268973827362,0.0014660026645287,0.5591444373130798,-0.1500904113054275,0.3131216466426849,0.6478147506713867,-0.3181225657463074,-0.6318666338920593,-0.2826281189918518,8.627635955810547,-0.7673038840293884,-4.367793560028076,0.0368246547877788,-0.3754949271678924,0.4436695575714111,0.3742115497589111,-0.654565155506134,-0.544409990310669,-0.3675977289676666
5031777,9.810054779052734,-0.4675354659557342,0.0092266146093606,0.7139092087745667,-0.1438537389039993,0.286305159330368,0.6478200554847717,-0.3180778324604034,-0.6318840980529785,-0.2826273143291473,8.619610786437988,-0.7696570158004761,-4.365905284881592,0.2001056224107742,-0.3464885950088501,0.4311833679676056,0.3741794228553772,-0.6545513272285461,-0.5444703698158264,-0.3675654232501983
5031943,9.806780815124512,-0.4811679422855377,0.0001787824439816,0.955885112285614,-0.0632249489426612,0.3171428740024566,0.6478469371795654,-0.3180060386657715,-0.6319044232368469,-0.2826012372970581,8.63650131225586,-0.7539753317832947,-4.37321138381958,0.4058908522129059,-0.1787510365247726,0.3513742387294769,0.3741711974143982,-0.6545179486274719,-0.5445320010185242,-0.3675419986248016
5032110,9.806072235107422,-0.4716676473617553,0.0211030095815658,1.0273189544677734,-0.0226160120218992,0.4419406950473785,0.6478995680809021,-0.3179067075252533,-0.6319336891174316,-0.2825267910957336,8.646857261657715,-0.7495087385177612,-4.381282329559326,0.4679888188838959,-0.1320718675851822,0.432002991437912,0.3741794526576996,-0.6544813513755798,-0.5445910692214966,-0.3675112128257751
5032277,9.82109546661377,-0.4604562819004059,0.0302433799952268,0.8695192337036133,-0.0178264398127794,0.5710031986236572,0.6479371190071106,-0.3178643882274627,-0.6319344639778137,-0.2824864983558655,8.666123390197754,-0.7660199999809265,-4.380778789520264,0.5592085123062134,-0.0029454606119543,0.5861146450042725,0.3742118179798126,-0.6544482707977295,-0.5446298122406006,-0.3674798309803009
5032443,9.83796501159668,-0.4650035202503204,0.0447404161095619,0.759141206741333,0.1189902052283287,0.7514190077781677,0.6479865908622742,-0.317850112915039,-0.6319060325622559,-0.2824527621269226,8.678055763244629,-0.7556288838386536,-4.36373233795166,0.5638187527656555,0.4510588645935058,0.7783764004707336,0.3742817938327789,-0.6544198393821716,-0.5446085333824158,-0.3674908280372619
5032610,9.813213348388672,-0.4490714967250824,0.0404969714581966,0.4424657821655273,0.2081095874309539,0.6578941941261292,0.6480445265769958,-0.3178113102912903,-0.6318817138671875,-0.282417744398117,8.663209915161133,-0.7394282817840576,-4.3543620109558105,0.5335829854011536,0.7882757186889648,0.9882084131240844,0.3744034767150879,-0.6543670296669006,-0.5445770621299744,-0.3675073087215423
5032777,9.78859806060791,-0.4554764926433563,0.0210316758602857,0.4279049932956695,0.1527989506721496,0.5111590623855591,0.6480770111083984,-0.3177936673164367,-0.631852924823761,-0.2824276387691498,8.621354103088379,-0.7440626621246338,-4.366775035858154,0.2319550216197967,0.9142261743545532,0.8779201507568359,0.3744946122169494,-0.6543238162994385,-0.5445225834846497,-0.3675721287727356
5032943,9.807440757751465,-0.4556195437908172,0.0278765354305505,0.4716258347034454,0.1392370462417602,0.5705292820930481,0.6481056213378906,-0.3177936673164367,-0.6318163275718689,-0.2824437618255615,8.592818260192871,-0.7657731175422668,-4.344182968139648,0.0794954150915145,1.0080710649490356,0.9252780675888062,0.3745935261249542,-0.6542702317237854,-0.5444716215133667,-0.3676423132419586
5033110,9.790897369384766,-0.4589458703994751,-0.0164657216519117,0.5695815682411194,0.0073060221038758,0.7662614583969116,0.6481460332870483,-0.3177821338176727,-0.6318002939224243,-0.2823997735977173,8.577733993530273,-0.7428810596466064,-4.340472221374512,0.2028717994689941,0.6430260539054871,1.004677414894104,0.3746577501296997,-0.654266357421875,-0.5444020628929138,-0.3676867485046386
5033277,9.815770149230955,-0.4303536415100097,-0.0061796861700713,0.3838767409324646,0.2261793464422226,0.6859528422355652,0.6482005715370178,-0.3177580237388611,-0.6317669749259949,-0.2823763489723205,8.609634399414062,-0.7320506572723389,-4.3698930740356445,-0.071613110601902,0.4876081049442291,0.713422417640686,0.3746809065341949,-0.6542436480522156,-0.5443775057792664,-0.3677398860454559
5033443,9.852075576782228,-0.4360255002975464,-0.0046705268323421,-0.03175975009799,0.2757271230220794,0.4444636106491089,0.6482135653495789,-0.3177866041660309,-0.6317038536071777,-0.2824555933475494,8.610091209411621,-0.7971889972686768,-4.3568549156188965,-0.3927195072174072,0.3987064659595489,0.6501975655555725,0.3746573328971863,-0.65424644947052,-0.5443364977836609,-0.3678195774555206
5033610,9.82955837249756,-0.5272684097290039,-0.0416723191738128,0.3826729357242584,0.1573708206415176,0.8393857479095459,0.6482676863670349,-0.317779392004013,-0.6316701173782349,-0.2824149429798126,8.610021591186523,-0.7503031492233276,-4.37531042098999,0.0904704555869102,0.1392754763364792,0.8531142473220825,0.3746635019779205,-0.6542624831199646,-0.544304609298706,-0.3678320050239563
5033777,9.821675300598145,-0.4431504905223846,0.0025039103347808,0.8313817977905273,0.626838743686676,0.8033870458602905,0.6483730673789978,-0.3177323639392853,-0.6315997242927551,-0.2823835015296936,8.718952178955078,-0.7764185667037964,-4.390013217926025,-0.3188780844211578,0.5024122595787048,0.7277528047561646,0.3746441006660461,-0.6542839407920837,-0.5442277193069458,-0.3679274916648865
5033944,9.813992500305176,-0.3869595825672149,0.0885832160711288,0.0576349720358848,0.6631191372871399,0.6486223340034485,0.648443341255188,-0.3177337348461151,-0.6315059065818787,-0.2824304103851318,8.629999160766602,-0.7285393476486206,-4.36547327041626,-0.4445467889308929,0.8630134463310242,0.3868221938610077,0.3746311366558075,-0.654254138469696,-0.5441712141036987,-0.3680771291255951
5034110,9.822184562683104,-0.4453679323196411,0.0186077747493982,-0.8254972696304321,0.2633561789989471,-0.2512093484401703,0.6483935117721558,-0.3177644610404968,-0.6314484477043152,-0.2826384902000427,8.674476623535156,-0.7285738587379456,-4.343725204467773,-1.0489554405212402,0.8129919171333313,-0.06043316796422,0.3745371997356415,-0.6542173027992249,-0.5441367626190186,-0.3682892620563507
5034277,9.858311653137209,-0.5337189435958862,0.0269455295056104,0.9635560512542723,1.1649487018585205,-0.1226079910993576,0.6485174894332886,-0.317594051361084,-0.6313772797584534,-0.282704621553421,8.663551330566406,-0.7963661551475525,-4.330605030059815,-1.1266130208969116,1.403607964515686,-0.2125213891267776,0.3744850754737854,-0.6541250944137573,-0.5440995097160339,-0.3685609698295593
5034444,9.783315658569336,-0.4570986330509186,0.0980005785822868,1.4787172079086304,0.6957498788833618,0.4493556022644043,0.648648738861084,-0.3174403607845306,-0.6313484311103821,-0.2826405465602875,8.689952850341797,-0.7872359752655029,-4.3097662925720215,-0.3272406756877899,1.3401652574539185,0.2839487791061401,0.3745207786560058,-0.6540461778640747,-0.5440437197685242,-0.3687468469142914
5034610,9.793343544006348,-0.4361506700515747,0.1062884554266929,0.2123612761497497,0.3386062979698181,0.5079318284988403,0.6486846804618835,-0.3174411654472351,-0.6312904357910156,-0.2826865911483764,8.68763542175293,-0.7471134066581726,-4.298271656036377,-0.0076581970788538,1.7304770946502686,0.88055819272995,0.3746468424797058,-0.6539813280105591,-0.5439205169677734,-0.3689156472682953
5034777,9.80482006072998,-0.5200055837631226,0.0421527884900569,-0.035115011036396,0.0696217194199562,0.6501079201698303,0.648689866065979,-0.317490667104721,-0.63124018907547,-0.2827313840389251,8.610321998596191,-0.7706263661384583,-4.297155380249023,0.1614048331975937,1.760636329650879,1.2299154996871948,0.3748290240764618,-0.6539055109024048,-0.5438050627708435,-0.3690352141857147
5034944,9.809747695922852,-0.5281235575675964,0.0079856710508465,0.2699642777442932,0.0508860312402248,0.7051880359649658,0.648714005947113,-0.3175082802772522,-0.6312061548233032,-0.2827323675155639,8.563661575317383,-0.7936702370643616,-4.293446063995361,0.5432389378547668,1.3225693702697754,1.1893447637557983,0.3750042617321014,-0.6538382768630981,-0.5437265038490295,-0.3690918087959289
5035110,9.804585456848145,-0.5124651193618774,0.0188568588346242,1.0213384628295898,0.3862074911594391,0.93243670463562,0.6488102078437805,-0.3174682557582855,-0.6311578750610352,-0.2826642990112304,8.583524703979492,-0.8196808099746704,-4.273528575897217,1.1436007022857666,0.6720452904701233,1.2292110919952393,0.3751859664916992,-0.6537789702415466,-0.5437087416648865,-0.369038462638855
5035277,9.783528327941896,-0.4717061519622803,0.0594057738780975,0.94100421667099,0.4862763285636902,0.977963387966156,0.648913562297821,-0.3174365162849426,-0.6310945749282837,-0.2826040983200073,8.63342571258545,-0.8522443175315857,-4.270330429077148,1.7869789600372314,0.380534291267395,1.1722357273101809,0.3754110634326935,-0.6536843180656433,-0.543760359287262,-0.3689012229442596
5035444,9.784952163696287,-0.4841278493404388,0.0223063323646783,0.4182490110397339,0.2347724139690399,1.0272806882858276,0.6489888429641724,-0.3174308836460113,-0.6310504078865051,-0.2825358510017395,8.67651653289795,-0.8131943941116333,-4.311967372894287,2.3560802936553955,0.2408298254013061,0.8325471878051758,0.3756530880928039,-0.6535518765449524,-0.5438665747642517,-0.3687327802181244
5035610,9.813740730285645,-0.5032343864440918,0.0119415055960416,0.9379947185516356,0.2538538873195648,1.037051796913147,0.6490710377693176,-0.3174191415309906,-0.631003737449646,-0.2824644446372986,8.630900382995605,-0.7795586585998535,-4.3018341064453125,2.1339924335479736,0.3117898106575012,0.5168194770812988,0.3758554458618164,-0.6534129977226257,-0.5439743399620056,-0.3686136603355407
5035777,9.822432518005373,-0.4617785513401031,0.0512182042002677,1.0399460792541504,-0.0866733789443969,1.0150249004364014,0.6491442918777466,-0.3173685371875763,-0.6310155391693115,-0.2823266386985779,8.677992820739746,-0.7319549322128296,-4.320257186889648,1.5878400802612305,-0.455841988325119,0.4392129480838775,0.3759598135948181,-0.6533113121986389,-0.5441359281539917,-0.3684490919113159
5035944,9.798370361328123,-0.4733144044876098,0.0556736215949058,1.2268801927566528,-0.0574748963117599,1.028484344482422,0.649215817451477,-0.3173304796218872,-0.6310163140296936,-0.2822034657001495,8.629781723022461,-0.7594767808914185,-4.330439567565918,1.1183336973190308,-0.1103010848164558,0.9184008240699768,0.3760470747947693,-0.6532918214797974,-0.5441625118255615,-0.3683553338050842
5036110,9.827420234680176,-0.4367348253726959,0.0436790771782398,0.324589729309082,-0.6571065783500671,1.003992199897766,0.6491890549659729,-0.3174011409282684,-0.6310369968414307,-0.2821390330791473,8.691394805908203,-0.6856886148452759,-4.289027690887451,0.4772222340106964,-0.4292816817760467,1.0830777883529663,0.3760582208633423,-0.6533351540565491,-0.5441592931747437,-0.3682717680931091
5036277,9.86469841003418,-0.4627826511859894,0.0129209123551845,0.0482351146638393,-0.1943363398313522,0.4765178561210632,0.649174153804779,-0.3174218833446502,-0.631031334400177,-0.282162457704544,8.617517471313477,-0.731566846370697,-4.310998916625977,-0.642533004283905,-0.50918048620224,1.0142821073532104,0.3759650886058807,-0.6534197926521301,-0.5441300868988037,-0.3682601153850555
5036444,9.788826942443848,-0.4961022138595581,0.0221259947866201,0.6913187503814697,0.2532519400119781,0.3876673877239227,0.6492239236831665,-0.3173605501651764,-0.6310114860534668,-0.2821614444255829,8.585052490234375,-0.8378337025642395,-4.310810089111328,-1.2695447206497192,-0.5633001327514648,0.8754228949546814,0.3758078813552856,-0.6535205245018005,-0.5440953373908997,-0.3682928383350372
5036610,9.780104637145996,-0.4623604416847229,0.0504994243383407,0.2290223836898803,-0.5336533784866333,0.5640107989311218,0.6491787433624268,-0.3174107074737549,-0.6310291290283203,-0.2821698784828186,8.661823272705078,-0.8389772772789001,-4.3117780685424805,-0.8001279234886169,-1.3257004022598269,0.7415708899497986,0.3756111860275268,-0.6536501049995422,-0.5441105365753174,-0.3682411313056946
5036777,9.821967124938965,-0.4724313020706177,-0.0157353114336729,-0.0633145943284034,0.0012870382051914,0.3380044102668762,0.649158775806427,-0.3174476623535156,-0.6309936046600342,-0.2822533547878265,8.645941734313965,-0.8210914134979248,-4.323009967803955,-0.790574312210083,-0.6407784819602966,0.5115175843238831,0.3754682540893554,-0.6537084579467773,-0.5441299676895142,-0.3682546615600586
5036944,9.79076862335205,-0.4826982021331787,0.0526707842946052,0.3343673646450043,0.1758631914854049,0.2304694801568985,0.6491838693618774,-0.3173962533473968,-0.6309804320335388,-0.2822829782962799,8.596822738647461,-0.7892844676971436,-4.342131614685059,-0.8344745635986328,-0.980799913406372,0.2447229623794555,0.3752886056900024,-0.6537548899650574,-0.544204592704773,-0.3682449460029602
5037110,9.766318321228027,-0.4638121128082275,0.0566582009196281,0.3300260305404663,-0.8333475589752197,0.047927763313055,0.6490963697433472,-0.3173971772193908,-0.6310568451881409,-0.2823122441768646,8.62397289276123,-0.7753098011016846,-4.34379768371582,-0.9821062088012696,-1.1840367317199707,-0.1441226601600647,0.3750572800636291,-0.6537901163101196,-0.5443189740180969,-0.368249237537384
5037277,9.825945854187012,-0.4767934381961822,0.0160674955695867,0.1146232187747955,-0.9986262917518616,-0.0980966314673423,0.6489768028259277,-0.3174141049385071,-0.6311455965042114,-0.2823698222637176,8.640103340148926,-0.7819472551345825,-4.374871253967285,-1.0236114263534546,-1.1126283407211304,-0.1492067575454712,0.3748291432857513,-0.6538205146789551,-0.5444311499595642,-0.3682619333267212
5037444,9.822009086608888,-0.4968964159488678,0.0484074875712394,0.3104579150676727,-0.6887638568878174,-0.0991979837417602,0.648902177810669,-0.3173829019069671,-0.6312217116355896,-0.2824061214923858,8.679715156555176,-0.7670915126800537,-4.3402419090271,-1.0238291025161743,-1.0006240606307983,-0.0469096563756465,0.3746088147163391,-0.6538628339767456,-0.5445153117179871,-0.3682864308357239
5037610,9.793874740600586,-0.4857451617717743,0.0348646081984043,0.0219436809420585,-0.8927178978919983,-0.1837327182292938,0.6487975120544434,-0.3173676431179046,-0.6313152313232422,-0.2824548482894897,8.669389724731445,-0.7871775031089783,-4.369272232055664,-1.040669560432434,-0.6029869914054871,0.1768941134214401,0.3744186460971832,-0.6539192199707031,-0.5445349812507629,-0.368350476026535
5037777,9.826616287231444,-0.4790322482585907,0.03125661611557,0.0344939045608043,-0.8865835666656494,-0.325434923171997,0.6486889719963074,-0.317336231470108,-0.6314159631729126,-0.2825142741203308,8.672257423400879,-0.7596933245658875,-4.37188720703125,-0.9739614129066468,-0.3180457353591919,0.1557188332080841,0.3742701411247253,-0.6539346575737,-0.5445695519447327,-0.3684228062629699
5037944,9.80307674407959,-0.4925068616867065,0.0467044115066528,0.3198834657669067,-0.906804859638214,-0.2404776513576507,0.6485835313796997,-0.3173124492168426,-0.6315134167671204,-0.28256556391716,8.637259483337402,-0.7607015371322632,-4.367834091186523,-0.9157821536064148,-0.083561435341835,0.188503086566925,0.3741374313831329,-0.6539518237113953,-0.544573187828064,-0.3685216307640075
5038110,9.807286262512209,-0.4764187037944793,0.0307656563818454,0.3592629432678222,-0.9628965854644777,-0.2082952857017517,0.6484804153442383,-0.317280650138855,-0.6316208243370056,-0.2825975120067596,8.637506484985352,-0.7856927514076233,-4.363119602203369,-0.736941397190094,0.1418367326259613,0.1645552068948745,0.3740342855453491,-0.6539508104324341,-0.5445698499679565,-0.3686331212520599
5038277,9.812865257263184,-0.4892204999923706,0.0293529164046049,0.4365364611148834,-1.0140708684921265,-0.1224415227770805,0.6483803391456604,-0.3172502517700195,-0.6317329406738281,-0.2826105058193207,8.60498046875,-0.7980844974517822,-4.380642414093018,-0.3900814056396484,0.2414701133966446,0.2257311046123504,0.3739907741546631,-0.653907835483551,-0.5446012020111084,-0.368707001209259
5038444,9.82083511352539,-0.4865656495094299,0.0061142230406403,0.4507002234458923,-0.8571801781654358,0.069532074034214,0.6482916474342346,-0.3172553777694702,-0.6318089962005615,-0.2826382219791412,8.650712966918945,-0.7832108736038208,-4.369492530822754,0.1700875163078308,0.0020426122937351,0.3729016482830047,0.3739829957485199,-0.6538695096969604,-0.5446493029594421,-0.3687122464179992
5038610,9.815468788146973,-0.4892519414424896,0.0126701276749372,0.391496479511261,-0.7746944427490234,0.141619011759758,0.6482316851615906,-0.3172229826450348,-0.6318951845169067,-0.2826193869113922,8.635832786560059,-0.7781614661216736,-4.38008975982666,0.5341976881027222,0.4430420398712158,0.300456166267395,0.3740398287773132,-0.6537829637527466,-0.5446985363960266,-0.3687353134155273
5038777,9.821159362792969,-0.486500471830368,-0.0111344205215573,0.6864651441574097,-0.5254189372062683,0.2905568778514862,0.6481990814208984,-0.3172002136707306,-0.6319458484649658,-0.2826063632965088,8.606372833251953,-0.7647308707237244,-4.386220932006836,0.7235395312309265,0.2011941373348236,0.4237300753593445,0.3740787208080292,-0.6537421941757202,-0.5447188019752502,-0.3687380850315094
5038944,9.80167007446289,-0.4590498805046081,-0.0147091886028647,0.7115015387535095,-0.7577772736549377,0.3900749683380127,0.6481626629829407,-0.3171666264533996,-0.6320288181304932,-0.2825420498847961,8.60166072845459,-0.7782629132270813,-4.3862714767456055,0.8965148329734802,0.2644959390163421,0.5094045400619507,0.3741718530654907,-0.6536556482315063,-0.54478520154953,-0.3686988651752472
5039110,9.842089653015137,-0.4725085496902466,-0.0095959510654211,0.5637418627738953,-0.7510539889335632,0.5044484734535217,0.6481170058250427,-0.3171741068363189,-0.6320914030075073,-0.2824984788894653,8.651097297668457,-0.7487689852714539,-4.378444194793701,0.8912386894226074,0.0024011903442442,0.6911137700080872,0.3742412030696869,-0.6536152362823486,-0.5448276996612549,-0.368637353181839
5039277,9.823848724365234,-0.4593209028244018,-0.0016271743224933,0.6068353056907654,-0.2614672482013702,0.4969440400600433,0.6481286287307739,-0.3171332478523254,-0.6321218609809875,-0.2824496328830719,8.643218040466309,-0.7448937892913818,-4.364555358886719,0.7682721614837646,0.495061457157135,0.557044267654419,0.37433922290802,-0.6535319685935974,-0.5448646545410156,-0.3686308562755584
5039444,9.801311492919922,-0.4556978940963745,0.0036365617997944,0.394979864358902,-0.3198642134666443,0.3937504887580871,0.648120105266571,-0.317106693983078,-0.632153332233429,-0.282428503036499,8.620336532592773,-0.7162356376647949,-4.367650508880615,0.4631864428520202,0.5003377199172974,0.4455777108669281,0.3744032382965088,-0.6534556150436401,-0.5448963046073914,-0.3686544895172119
5039610,9.819955825805664,-0.4629473388195038,-0.0072738509625196,0.7039970755577087,-0.3696808815002441,0.3494788706302643,0.6481137275695801,-0.3170616030693054,-0.6321978569030762,-0.282394140958786,8.629095077514648,-0.7426030039787292,-4.361248970031738,0.0323424339294433,0.4375865459442138,0.4093869626522064,0.3744246959686279,-0.6533949971199036,-0.5449216365814209,-0.3687025010585785
5039777,9.807088851928713,-0.4601005315780639,0.0105396416038274,1.0698232650756836,-0.1744993478059768,0.5050632357597351,0.6481528282165527,-0.3169784843921661,-0.632236897945404,-0.2823101580142975,8.654293060302734,-0.7553092837333679,-4.3505706787109375,-0.0769277438521385,0.5425729751586914,0.451801598072052,0.3744345903396606,-0.6533548831939697,-0.5449111461639404,-0.3687789738178253
5039944,9.787988662719728,-0.4464757442474365,0.0263596177101135,0.881557047367096,-0.1443787813186645,0.5295617580413818,0.6481766104698181,-0.3169374465942383,-0.6322524547576904,-0.2822668850421905,8.661026000976562,-0.7359403967857361,-4.353170871734619,-0.0631096959114074,0.7461812496185303,0.4408778250217438,0.3744634985923767,-0.6532989740371704,-0.544895350933075,-0.3688720166683197
5040110,9.779343605041504,-0.4358700215816498,0.0073378589004278,0.8213545083999634,-0.2823031842708587,0.5220829844474792,0.6481881141662598,-0.3168991208076477,-0.6322829127311707,-0.2822153270244598,8.572576522827148,-0.7473762631416321,-4.367982864379883,-0.1414845287799835,1.0159212350845337,0.5798779129981995,0.3745242357254028,-0.6532287001609802,-0.5448657274246216,-0.3689785003662109
5040277,9.81570053100586,-0.4636504650115967,-0.0370130278170108,0.55149906873703,-0.5073620676994324,0.4202339947223663,0.6481518745422363,-0.3169090747833252,-0.6323166489601135,-0.28221195936203,8.621587753295898,-0.7933019399642944,-4.350857257843018,-0.1552129536867141,0.4237941205501556,0.7804893255233765,0.3745411336421966,-0.6532160639762878,-0.5448378920555115,-0.3690250217914581
5040444,9.804970741271973,-0.5023057460784912,-0.0441401861608028,0.5872415900230408,-0.1093406230211258,0.7588850855827332,0.6481704115867615,-0.3169241845607757,-0.6323019862174988,-0.2821849882602691,8.592817306518555,-0.7474360466003418,-4.361355781555176,0.3048999607563019,0.3960299491882324,0.877241313457489,0.3745953142642975,-0.6532019376754761,-0.5448094606399536,-0.3690371215343475
5040610,9.802931785583496,-0.4298036396503448,-0.0407114177942276,0.8680464625358582,-0.0592934004962444,0.7572330832481384,0.648206889629364,-0.3169094920158386,-0.6322951912879944,-0.282133013010025,8.674286842346191,-0.7454035878181458,-4.381869792938232,0.2198658287525177,0.2593221962451935,0.8185243010520935,0.3746339678764343,-0.6531848311424255,-0.5448021292686462,-0.3690389394760132
5040777,9.853924751281738,-0.3802688419818878,0.0019490330014377,-0.0465510860085487,0.300251305103302,0.3922649025917053,0.648220419883728,-0.3169297277927398,-0.6322354674339294,-0.282213032245636,8.672538757324219,-0.6586014628410339,-4.334810256958008,-0.1048327758908271,0.3956841826438904,0.4104498922824859,0.3746273815631866,-0.6531509160995483,-0.5448026061058044,-0.3691050112247467
5040944,9.899547576904297,-0.4272624552249908,0.0296366326510906,-0.6161390542984009,0.5769708156585693,-0.2028013467788696,0.648216962814331,-0.3169188499450683,-0.6321630477905273,-0.2823953628540039,8.758917808532715,-0.7459380030632019,-4.330517292022705,-0.9191374182701112,0.8996397852897644,0.1965454518795013,0.3745708167552948,-0.6531177759170532,-0.5447517037391663,-0.3692961931228637
5041110,9.812132835388184,-0.5145138502120972,0.1068483740091323,0.6593157052993774,1.0735371112823486,0.1807552129030227,0.6483339071273804,-0.3168015778064728,-0.6320792436599731,-0.2824462354183197,8.723698616027832,-0.8153036236763,-4.3383564949035645,-0.5385966300964355,1.758843183517456,0.5666489601135254,0.3746482729911804,-0.6530332565307617,-0.5446553826332092,-0.3695089221000671
5041277,9.778749465942385,-0.4629970788955688,0.1340151876211166,0.4985959827899933,0.2163184732198715,0.5708109736442566,0.6483767628669739,-0.3167801201343536,-0.6320462822914124,-0.2824455797672272,8.714003562927246,-0.7756706476211548,-4.323091506958008,-0.0196449421346187,2.083791732788086,0.7024731040000916,0.374809205532074,-0.6529115438461304,-0.5445591807365417,-0.3697027564048767
5041444,9.813616752624512,-0.4758751690387726,0.076752558350563,-0.0396740697324276,0.2138724327087402,0.3184490799903869,0.6483842730522156,-0.3167870938777923,-0.6320022344589233,-0.2825192213058471,8.615407943725586,-0.7462738752365112,-4.28618049621582,0.0764218866825103,2.7040157318115234,0.6222028732299805,0.375014454126358,-0.6527602076530457,-0.5444227457046509,-0.3699625432491302
5041610,9.773138046264648,-0.4861100614070892,0.0359268113970756,0.4060316979885101,0.396849513053894,0.4446684420108795,0.6484361886978149,-0.3167523145675659,-0.6319549679756165,-0.2825445234775543,8.564702033996582,-0.7729748487472534,-4.276134014129639,-0.0023051430471241,2.132366180419922,0.4989546239376068,0.3751618564128876,-0.6526304483413696,-0.5443293452262878,-0.3701792657375335
5041777,9.76606273651123,-0.4770940542221069,0.0258445125073194,0.5432517528533936,0.0190494451671838,0.6615695953369141,0.6484610438346863,-0.3167572021484375,-0.6319304704666138,-0.2825370728969574,8.569253921508789,-0.7894565463066101,-4.28852653503418,0.3607996702194214,1.852611303329468,0.3016983568668365,0.3753071129322052,-0.6524869799613953,-0.5442814230918884,-0.3703556358814239
5041944,9.793705940246582,-0.4800484478473663,0.0125943562015891,1.2227694988250732,0.4048663377761841,0.7374600768089294,0.6485641002655029,-0.316670686006546,-0.6319031715393066,-0.2824583351612091,8.61940860748291,-0.7985485792160034,-4.285309314727783,0.743030846118927,1.091363549232483,0.1965070366859436,0.3754230439662933,-0.6523546576499939,-0.5443063378334045,-0.3704345524311065
5042110,9.780534744262695,-0.4450914561748504,0.033921156078577,1.3243494033813477,0.5392561554908752,0.7862650752067566,0.6486798524856567,-0.3165876567363739,-0.631858229637146,-0.2823863923549652,8.688541412353516,-0.7719501852989197,-4.295172691345215,1.2446171045303345,1.0159342288970947,0.3100353479385376,0.3755951523780823,-0.6521962285041809,-0.544365644454956,-0.3704518973827362
5042277,9.804224014282228,-0.4787430465221405,0.0117359450086951,0.7793880701065063,0.4383037686347961,0.7818213105201721,0.648766815662384,-0.3165466487407684,-0.6318070888519287,-0.2823465764522552,8.687994003295898,-0.766707181930542,-4.290750026702881,1.3688645362854004,0.8372728228569031,0.4934862852096557,0.3757722377777099,-0.6520591378211975,-0.5444191098213196,-0.3704349100589752
5042444,9.831533432006836,-0.4869372248649597,0.0474192947149276,0.9015989899635316,0.4608173370361328,0.8142340779304504,0.6488627195358276,-0.316496729850769,-0.6317571401596069,-0.2822940349578857,8.654399871826172,-0.734859824180603,-4.284433841705322,1.4124058485031128,0.8928778767585754,0.7634056806564331,0.3759723603725433,-0.6519386768341064,-0.544445276260376,-0.370405375957489
5042610,9.83745574951172,-0.4824216961860657,0.0507946200668811,0.8106611967086792,0.1009972840547561,0.8731304407119751,0.6489255428314209,-0.3164719045162201,-0.6317365169525146,-0.2822236716747284,8.727578163146973,-0.7471383213996887,-4.273353576660156,1.282024383544922,0.1526837050914764,1.1038881540298462,0.3761289715766907,-0.6518798470497131,-0.5444872379302979,-0.370288223028183
5042777,9.79028606414795,-0.475891649723053,0.0545555055141449,0.8779073357582092,0.380060464143753,1.1445739269256592,0.6490256786346436,-0.3164601027965545,-0.6316767930984497,-0.2821405231952667,8.625153541564941,-0.7611491680145264,-4.304308891296387,1.5575275421142578,0.4480621218681335,1.5719730854034424,0.3763414025306701,-0.6518527269363403,-0.5444527268409729,-0.3701708614826202
5042944,9.829774856567385,-0.4414548873901367,0.0295264422893524,-0.0446173213422298,-0.2672172784805298,1.0737419128417969,0.6490115523338318,-0.3165758550167084,-0.6316331624984741,-0.2821405827999115,8.689493179321289,-0.7338375449180603,-4.256340503692627,1.1425248384475708,0.0786758065223693,1.5188651084899902,0.3764993548393249,-0.651840090751648,-0.5444499254226685,-0.3700368106365204
5043110,9.824660301208496,-0.4826985895633697,0.0111577669158577,-0.0009348635212518,-0.0243832878768444,0.833046555519104,0.6490243673324585,-0.3166280686855316,-0.6315933465957642,-0.2821417450904846,8.638653755187988,-0.7755635380744934,-4.2575297355651855,0.8549326658248901,-0.0531079284846782,1.3041794300079346,0.3766014873981476,-0.6518425941467285,-0.5444476008415222,-0.3699316382408142
5043277,9.743947982788086,-0.4675624966621399,0.0364166349172592,0.8524355292320251,0.344010591506958,0.9421055912971495,0.6491153240203857,-0.316593587398529,-0.6315491795539856,-0.2820700705051422,8.613935470581055,-0.8233020305633545,-4.268311500549316,0.8399365544319153,-0.0500472150743007,1.2086312770843506,0.3767037987709045,-0.6518293023109436,-0.5444639921188354,-0.3698267340660095
5043444,9.775583267211914,-0.4522493183612823,0.0701258555054664,0.2786341607570648,-0.5738268494606018,0.8979876041412354,0.6490891575813293,-0.3166567087173462,-0.6315653324127197,-0.2820232808589935,8.647215843200684,-0.7912757992744446,-4.261904716491699,0.9338198304176332,-0.5405048727989197,1.0617552995681765,0.3767577707767486,-0.6518403887748718,-0.5445083975791931,-0.3696867823600769
5043610,9.818347930908203,-0.4760803282260895,0.0039919912815093,0.065754197537899,-0.5989529490470886,0.680407702922821,0.649038553237915,-0.3167283833026886,-0.6315813064575195,-0.2820233106613159,8.610771179199219,-0.7654537558555603,-4.283167362213135,0.7322606444358826,-0.4173973798751831,0.9698441624641418,0.3767897188663482,-0.6518584489822388,-0.5445322394371033,-0.3695873022079468
5043777,9.783987998962402,-0.4625001549720764,0.024958349764347,0.3696232438087463,-0.5242407321929932,0.5396018624305725,0.6490139961242676,-0.3167315125465393,-0.631621241569519,-0.2819870412349701,8.631782531738281,-0.732994019985199,-4.278684616088867,0.3701227605342865,-0.9431237578392028,0.7167778015136719,0.3767493963241577,-0.6518819332122803,-0.5446164608001709,-0.3694630563259125
5043944,9.777965545654297,-0.4661049842834472,0.0191184040158987,0.0077926637604832,-0.642481803894043,0.4826904833316803,0.6489457488059998,-0.316798448562622,-0.6316452026367188,-0.2820154428482055,8.667460441589355,-0.7499878406524658,-4.296248435974121,-0.0745073407888412,-0.888837456703186,0.7181480526924133,0.3766545951366424,-0.6519495844841003,-0.5446466207504272,-0.369395911693573
5044110,9.815305709838867,-0.471723347902298,0.0361092574894428,0.4233843088150024,-0.3022554516792297,0.4849316477775574,0.6489330530166626,-0.3168011605739593,-0.6316595077514648,-0.2820092737674713,8.678991317749023,-0.7755329608917236,-4.307956218719482,-0.3729721307754516,-0.9192014336586,0.6851205229759216,0.3765330910682678,-0.6520236730575562,-0.5446760654449463,-0.369345486164093
5044277,9.806364059448242,-0.4795088469982147,0.0684202462434768,0.3378122746944427,-0.2575484812259674,0.257170706987381,0.6489080786705017,-0.3167959451675415,-0.631673276424408,-0.2820416688919067,8.702302932739258,-0.7791723012924194,-4.296402454376221,-0.3658645749092102,-0.7248522043228149,0.7797338366508484,0.3764360547065735,-0.6520906090736389,-0.5446909070014954,-0.3693042993545532
5044444,9.833702087402344,-0.4665127694606781,0.0379435941576957,-0.088824838399887,-0.4564566910266876,0.1903983950614929,0.6488414406776428,-0.3168355524539947,-0.6316900849342346,-0.2821129858493805,8.683835983276367,-0.7944676280021667,-4.294490337371826,-0.4965534806251526,-0.3099265098571777,0.7433510422706604,0.3763570189476013,-0.6521402597427368,-0.5446785092353821,-0.3693153858184814
5044610,9.816731452941896,-0.4917785823345184,0.0383226387202739,-0.0328867062926292,-0.2772830724716186,0.0346475839614868,0.6487959027290344,-0.3168296217918396,-0.631708562374115,-0.2821828424930572,8.65788745880127,-0.8103006482124329,-4.307108879089356,-0.442369669675827,-0.2521441876888275,0.613673746585846,0.376276433467865,-0.6521798968315125,-0.5446703433990479,-0.3693395853042602
5044777,9.812222480773926,-0.4869471192359924,0.0571835562586784,0.0229169614613056,-0.3082231879234314,0.0541644468903541,0.6487491130828857,-0.3168255090713501,-0.6317294836044312,-0.2822481989860534,8.657425880432129,-0.8024687170982361,-4.316965103149414,-0.2779106199741363,-0.1370791792869568,0.3489538431167602,0.3762100636959076,-0.652178943157196,-0.5446951389312744,-0.3693723976612091
5044944,9.815279960632324,-0.4836283922195434,0.0370208993554115,-0.1172037124633789,-0.2241879403591156,0.002721349010244,0.6486939191818237,-0.3168432712554931,-0.6317304968833923,-0.2823528051376343,8.66659164428711,-0.8103715777397156,-4.31427526473999,-0.1405624896287918,-0.1373865157365799,0.0759352520108223,0.3761468231678009,-0.6521419286727905,-0.5447615385055542,-0.3694042265415191
5045110,9.818284034729004,-0.4894824624061584,0.0337522067129612,0.2826169431209564,-0.0670924559235572,0.012940814718604,0.6486744284629822,-0.3168126344680786,-0.6317352056503296,-0.2824214398860931,8.679015159606934,-0.7997651100158691,-4.298379421234131,0.1537850499153137,0.0706846341490745,-0.0435159765183925,0.3761279881000519,-0.6520611047744751,-0.5448518991470337,-0.3694325685501098
