// Start Time: Unknown
// Update Rate: 60.0Hz
//Filter Profile: human (46.1)
// Option Flags: AHS Disabled ICC Disabled
// Firmware Version: 4.0.2
0	sampleTimeFine	Year	Month	Day	Second	UTC_Nano	UTC_Year	UTC_Month	UTC_Day	UTC_Hour	UTC_Minute	UTC_Second	UTC_Valid	Acc_X	Acc_Y	Acc_Z	Mat[1][1]	Mat[2][1]	Mat[3][1]	Mat[1][2]	Mat[2][2]	Mat[3][2]	Mat[1][3]	Mat[2][3]	Mat[3][3]
0	299718													0.000000	0.000000	0.000000	0.312795	-0.685091	-0.657883	-0.004305	-0.693655	0.720295	-0.949811	-0.222472	-0.219920
1	299884													9.324366	-0.026306	3.093438	0.312907	-0.685582	-0.657317	-0.004021	-0.693020	0.720907	-0.949775	-0.222934	-0.219608
2	300051													9.328152	-0.032253	3.079380	0.313267	-0.685117	-0.657631	-0.003789	-0.693383	0.720559	-0.949657	-0.223236	-0.219810
3	300218													9.332616	-0.010514	3.085901	0.313385	-0.685790	-0.656873	-0.003683	-0.692590	0.721322	-0.949619	-0.223633	-0.219573
4	300718													9.328379	-0.011013	3.079494	0.313505	-0.685579	-0.657036	-0.002961	-0.692621	0.721296	-0.949582	-0.224184	-0.219170
5	300884													9.309282	0.005472	3.086793	0.313538	-0.685395	-0.657212	-0.002788	-0.692772	0.721151	-0.949572	-0.224276	-0.219121
6	301051													9.309565	0.009820	3.090487	0.313559	-0.685433	-0.657163	-0.002613	-0.692685	0.721236	-0.949565	-0.224433	-0.218989
7	301218													9.331870	0.006262	3.126424	0.313562	-0.685236	-0.657366	-0.002419	-0.692853	0.721075	-0.949565	-0.224512	-0.218910
8	301384													9.302381	0.018925	3.072509	0.313606	-0.685105	-0.657482	-0.002279	-0.692953	0.720979	-0.949550	-0.224605	-0.218876
9	301551													9.339512	0.019308	3.094939	0.313609	-0.685060	-0.657528	-0.002104	-0.692960	0.720973	-0.949550	-0.224720	-0.218760
10	301718													9.363544	-0.013150	3.106483	0.313595	-0.685080	-0.657513	-0.002019	-0.692922	0.721010	-0.949555	-0.224777	-0.218680
11	301884													9.300144	-0.031453	3.049046	0.313536	-0.684996	-0.657629	-0.001963	-0.693016	0.720920	-0.949574	-0.224743	-0.218630
12	302051													9.368977	-0.025055	3.076937	0.313477	-0.684838	-0.657821	-0.001967	-0.693205	0.720738	-0.949594	-0.224641	-0.218651
13	302218													9.356528	-0.008390	3.082412	0.313296	-0.684962	-0.657779	-0.002022	-0.693130	0.720810	-0.949653	-0.224497	-0.218540
14	302384													9.325533	0.002468	3.066959	0.313187	-0.684937	-0.657856	-0.001929	-0.693163	0.720778	-0.949689	-0.224470	-0.218411
15	302551													9.375565	-0.007557	3.091546	0.313108	-0.684834	-0.658001	-0.001947	-0.693300	0.720646	-0.949715	-0.224359	-0.218412
16	302718													9.312757	0.013431	3.111106	0.312983	-0.684735	-0.658164	-0.002074	-0.693471	0.720481	-0.949757	-0.224133	-0.218465
17	302884													9.337090	0.023059	3.129782	0.312851	-0.684562	-0.658407	-0.002121	-0.693706	0.720255	-0.949800	-0.223936	-0.218479
18	303051													9.305906	0.036767	3.097797	0.312791	-0.684579	-0.658418	-0.002157	-0.693712	0.720250	-0.949820	-0.223867	-0.218463
19	303218													9.308546	-0.009931	3.090405	0.312653	-0.684605	-0.658456	-0.002186	-0.693725	0.720236	-0.949865	-0.223744	-0.218392
20	303384													9.305275	0.002654	3.089896	0.312580	-0.684517	-0.658582	-0.002196	-0.693842	0.720124	-0.949889	-0.223650	-0.218384
21	303551													9.312652	0.003419	3.093734	0.312540	-0.684454	-0.658667	-0.002225	-0.693929	0.720040	-0.949902	-0.223575	-0.218403
22	303718													9.326095	-0.017252	3.080613	0.312522	-0.684437	-0.658693	-0.002285	-0.693966	0.720004	-0.949908	-0.223512	-0.218443
23	303884													9.318874	-0.005558	3.100833	0.312489	-0.684429	-0.658717	-0.002350	-0.693998	0.719973	-0.949918	-0.223436	-0.218476
24	304051													9.347966	-0.003812	3.095930	0.312475	-0.684459	-0.658692	-0.002427	-0.693987	0.719984	-0.949923	-0.223378	-0.218515
25	304218													9.346847	0.004706	3.091785	0.312435	-0.684399	-0.658774	-0.002508	-0.694082	0.719891	-0.949936	-0.223267	-0.218572
26	304384													9.343352	-0.019319	3.089542	0.312385	-0.684203	-0.659001	-0.002592	-0.694329	0.719653	-0.949952	-0.223100	-0.218671
27	304551													9.311777	0.003241	3.076939	0.312229	-0.684151	-0.659128	-0.002716	-0.694454	0.719532	-0.950003	-0.222869	-0.218687
28	304718													9.348002	-0.010687	3.073865	0.312146	-0.684114	-0.659206	-0.002822	-0.694540	0.719448	-0.950030	-0.222713	-0.218729
29	304885													9.340781	0.022878	3.063185	0.311908	-0.684151	-0.659281	-0.002844	-0.694567	0.719422	-0.950108	-0.222519	-0.218587
30	305051													9.299823	0.039310	3.043385	0.311770	-0.683977	-0.659526	-0.002830	-0.694788	0.719209	-0.950153	-0.222362	-0.218550
31	305218													9.332668	0.004962	3.077202	0.311632	-0.683934	-0.659637	-0.002905	-0.694889	0.719112	-0.950198	-0.222182	-0.218537
32	305385													9.339623	-0.011410	3.070079	0.311424	-0.683865	-0.659806	-0.002977	-0.695033	0.718972	-0.950267	-0.221941	-0.218485
33	305551													9.332810	0.001538	3.092275	0.311301	-0.683904	-0.659823	-0.003048	-0.695038	0.718967	-0.950306	-0.221804	-0.218451
34	305718													9.333901	-0.024808	3.101290	0.311123	-0.683936	-0.659874	-0.003090	-0.695058	0.718947	-0.950365	-0.221642	-0.218362
35	305885													9.326817	-0.017826	3.100417	0.310900	-0.683977	-0.659937	-0.003139	-0.695082	0.718923	-0.950437	-0.221442	-0.218248
36	306051													9.333120	-0.008524	3.104840	0.310689	-0.683943	-0.660071	-0.003142	-0.695173	0.718836	-0.950506	-0.221261	-0.218131
37	306218													9.328820	-0.017398	3.082553	0.310471	-0.683886	-0.660233	-0.003147	-0.695292	0.718720	-0.950578	-0.221064	-0.218021
38	306385													9.339207	-0.015592	3.070224	0.310331	-0.683761	-0.660428	-0.003151	-0.695464	0.718554	-0.950623	-0.220908	-0.217979
39	306551													9.306721	0.007778	3.062180	0.310201	-0.683794	-0.660455	-0.003162	-0.695463	0.718555	-0.950666	-0.220809	-0.217895
40	306718													9.316491	0.004516	3.073454	0.310065	-0.683876	-0.660434	-0.003223	-0.695423	0.718593	-0.950710	-0.220682	-0.217830
41	306885													9.333447	-0.028457	3.057727	0.309935	-0.683870	-0.660502	-0.003298	-0.695480	0.718538	-0.950752	-0.220521	-0.217809
42	307051													9.321262	-0.003652	3.071352	0.309798	-0.683916	-0.660518	-0.003424	-0.695494	0.718524	-0.950796	-0.220336	-0.217805
43	307218													9.329104	-0.006082	3.060397	0.309675	-0.683888	-0.660605	-0.003597	-0.695595	0.718425	-0.950836	-0.220102	-0.217868
44	307385													9.344357	-0.022978	3.073853	0.309526	-0.683874	-0.660689	-0.003800	-0.695694	0.718328	-0.950883	-0.219831	-0.217934
45	307551													9.328541	-0.008770	3.076666	0.309395	-0.683914	-0.660709	-0.003971	-0.695724	0.718299	-0.950925	-0.219614	-0.217969
46	307718													9.345688	-0.026624	3.053706	0.309256	-0.683843	-0.660848	-0.004165	-0.695880	0.718146	-0.950970	-0.219338	-0.218054
47	307885													9.334283	-0.014755	3.051626	0.309108	-0.683826	-0.660934	-0.004339	-0.695976	0.718052	-0.951017	-0.219088	-0.218099
48	308051													9.353245	-0.001521	3.039369	0.308993	-0.683809	-0.661006	-0.004470	-0.696053	0.717976	-0.951054	-0.218895	-0.218132
49	308218													9.330727	-0.012075	3.068242	0.308901	-0.683744	-0.661116	-0.004604	-0.696178	0.717855	-0.951083	-0.218703	-0.218198
50	308385													9.331579	-0.009187	3.077134	0.308791	-0.683662	-0.661252	-0.004719	-0.696321	0.717715	-0.951118	-0.218504	-0.218244
51	308551													9.329453	-0.017180	3.061716	0.308722	-0.683766	-0.661177	-0.004854	-0.696256	0.717778	-0.951140	-0.218384	-0.218268
52	308718													9.330371	-0.027128	3.069131	0.308630	-0.683786	-0.661199	-0.004988	-0.696288	0.717745	-0.951169	-0.218220	-0.218306
53	308885													9.335770	-0.010772	3.090912	0.308550	-0.683665	-0.661362	-0.005078	-0.696460	0.717578	-0.951194	-0.218050	-0.218365
54	309051													9.318489	0.003651	3.074393	0.308465	-0.683703	-0.661362	-0.005166	-0.696460	0.717577	-0.951222	-0.217931	-0.218365
55	309218													9.324699	-0.028277	3.050115	0.308400	-0.683767	-0.661326	-0.005235	-0.696422	0.717613	-0.951242	-0.217850	-0.218356
56	309385													9.351600	-0.039850	3.081089	0.308326	-0.683764	-0.661364	-0.005329	-0.696466	0.717570	-0.951266	-0.217721	-0.218382
57	309551													9.305509	-0.042217	3.056646	0.308249	-0.683805	-0.661357	-0.005437	-0.696465	0.717570	-0.951290	-0.217594	-0.218403
58	309718													9.324385	-0.034868	2.996776	0.308183	-0.683913	-0.661276	-0.005493	-0.696377	0.717655	-0.951311	-0.217537	-0.218368
59	309885													9.394825	-0.029786	3.070975	0.308088	-0.684001	-0.661230	-0.005614	-0.696333	0.717697	-0.951341	-0.217402	-0.218372
60	310051													9.374352	-0.022469	3.083381	0.307982	-0.684100	-0.661177	-0.005607	-0.696251	0.717777	-0.951376	-0.217355	-0.218269
61	310218													9.355215	-0.030144	3.091592	0.307948	-0.684119	-0.661173	-0.005663	-0.696250	0.717777	-0.951386	-0.217293	-0.218283
62	310385													9.307438	-0.019765	3.085794	0.307865	-0.684140	-0.661190	-0.005819	-0.696284	0.717743	-0.951412	-0.217120	-0.218342
63	310551													9.304541	-0.033443	3.086747	0.307720	-0.684333	-0.661057	-0.005904	-0.696130	0.717892	-0.951458	-0.217007	-0.218254
64	310718													9.305280	-0.012939	3.075503	0.307619	-0.684423	-0.661011	-0.005977	-0.696073	0.717946	-0.951491	-0.216903	-0.218217
65	310885													9.299419	-0.031856	3.070396	0.307505	-0.684496	-0.660989	-0.006051	-0.696040	0.717978	-0.951527	-0.216782	-0.218177
66	311051													9.308493	-0.020459	3.048971	0.307398	-0.684533	-0.661000	-0.006105	-0.696038	0.717979	-0.951561	-0.216670	-0.218140
67	311218													9.303621	0.002249	3.046231	0.307355	-0.684568	-0.660984	-0.006148	-0.696021	0.717996	-0.951575	-0.216616	-0.218135
68	311385													9.335382	-0.022695	3.057514	0.307306	-0.684693	-0.660877	-0.006212	-0.695911	0.718101	-0.951590	-0.216572	-0.218111
69	311551													9.365018	-0.010006	3.052640	0.307277	-0.684874	-0.660703	-0.006248	-0.695729	0.718277	-0.951600	-0.216582	-0.218061
70	311718													9.362257	0.000046	3.055644	0.307282	-0.685059	-0.660509	-0.006272	-0.695533	0.718467	-0.951598	-0.216629	-0.218021
71	311885													9.365504	-0.024840	3.082501	0.307273	-0.685208	-0.660359	-0.006296	-0.695379	0.718616	-0.951601	-0.216653	-0.217985
72	312051													9.335246	-0.031753	3.091771	0.307271	-0.685315	-0.660248	-0.006338	-0.695272	0.718719	-0.951601	-0.216656	-0.217980
73	312218													9.314070	-0.044102	2.983908	0.307184	-0.685564	-0.660031	-0.006410	-0.695039	0.718943	-0.951629	-0.216617	-0.217899
74	312385													9.345978	-0.012238	3.053534	0.307148	-0.685849	-0.659751	-0.006482	-0.694754	0.719218	-0.951640	-0.216630	-0.217838
75	312551													9.340961	0.022634	3.028239	0.307009	-0.686023	-0.659634	-0.006430	-0.694586	0.719380	-0.951685	-0.216615	-0.217656
76	312718													9.317894	-0.010800	3.007694	0.306935	-0.686126	-0.659562	-0.006444	-0.694496	0.719468	-0.951709	-0.216579	-0.217587
77	312885													9.331937	-0.022026	3.053313	0.306910	-0.686318	-0.659374	-0.006518	-0.694309	0.719647	-0.951716	-0.216569	-0.217564
78	313051													9.362979	-0.035948	3.067088	0.306808	-0.686416	-0.659320	-0.006581	-0.694242	0.719711	-0.951749	-0.216474	-0.217516
79	313218													9.335418	-0.015431	3.081564	0.306768	-0.686489	-0.659262	-0.006659	-0.694190	0.719761	-0.951761	-0.216410	-0.217526
80	313385													9.325780	-0.034550	3.083774	0.306664	-0.686693	-0.659098	-0.006712	-0.694006	0.719938	-0.951794	-0.216355	-0.217435
81	313551													9.341769	-0.011066	3.060738	0.306540	-0.686722	-0.659125	-0.006733	-0.694009	0.719935	-0.951834	-0.216251	-0.217365
82	313718													9.329121	0.006812	3.063773	0.306426	-0.686771	-0.659128	-0.006768	-0.693992	0.719951	-0.951871	-0.216151	-0.217305
83	313885													9.334109	-0.000235	3.043163	0.306291	-0.686774	-0.659187	-0.006805	-0.694031	0.719913	-0.951914	-0.216017	-0.217249
84	314051													9.334584	-0.008901	3.045259	0.306226	-0.686853	-0.659134	-0.006866	-0.693974	0.719968	-0.951934	-0.215947	-0.217228
85	314218													9.320540	0.008390	3.059799	0.306161	-0.687040	-0.658970	-0.006914	-0.693796	0.720138	-0.951955	-0.215922	-0.217163
86	314385													9.339314	0.005916	3.036681	0.306074	-0.686962	-0.659092	-0.006963	-0.693915	0.720024	-0.951982	-0.215792	-0.217173
87	314551													9.343732	-0.019204	3.049800	0.306065	-0.686957	-0.659101	-0.007007	-0.693932	0.720006	-0.951985	-0.215751	-0.217201
88	314718													9.334166	-0.010013	3.054825	0.306112	-0.686960	-0.659076	-0.007055	-0.693928	0.720010	-0.951969	-0.215754	-0.217266
89	314885													9.348806	-0.023174	3.082383	0.306132	-0.687017	-0.659008	-0.007098	-0.693871	0.720064	-0.951963	-0.215757	-0.217292
90	315051													9.359460	-0.044756	3.049303	0.306147	-0.687100	-0.658914	-0.007155	-0.693789	0.720143	-0.951957	-0.215755	-0.217318
91	315218													9.325022	-0.053734	3.065073	0.306133	-0.687199	-0.658817	-0.007262	-0.693708	0.720220	-0.951961	-0.215699	-0.217358
92	315385													9.328758	-0.034405	3.064839	0.306062	-0.687193	-0.658856	-0.007383	-0.693760	0.720168	-0.951983	-0.215552	-0.217407
93	315551													9.317039	-0.046118	3.046855	0.306009	-0.687156	-0.658919	-0.007540	-0.693849	0.720081	-0.951999	-0.215383	-0.217505
94	315718													9.331652	-0.033623	3.019796	0.305983	-0.687110	-0.658979	-0.007680	-0.693937	0.719995	-0.952006	-0.215245	-0.217610
95	315885													9.350153	-0.032643	3.017795	0.305937	-0.687086	-0.659027	-0.007787	-0.694000	0.719933	-0.952020	-0.215122	-0.217671
96	316051													9.346643	-0.054943	3.036023	0.305945	-0.687066	-0.659044	-0.007904	-0.694046	0.719887	-0.952016	-0.215037	-0.217770
97	316218													9.292834	-0.040453	3.009453	0.305855	-0.687065	-0.659086	-0.007999	-0.694091	0.719843	-0.952044	-0.214896	-0.217787
98	316385													9.353780	0.011912	3.031651	0.305819	-0.687110	-0.659056	-0.008080	-0.694069	0.719863	-0.952055	-0.214822	-0.217812
99	316551													9.421902	-0.026936	3.083102	0.305708	-0.687434	-0.658769	-0.008125	-0.693752	0.720168	-0.952091	-0.214809	-0.217671
100	316718													9.357285	-0.006348	3.087271	0.305620	-0.687635	-0.658600	-0.008110	-0.693550	0.720363	-0.952119	-0.214817	-0.217540
101	316885													9.320187	-0.033291	3.057747	0.305654	-0.687728	-0.658488	-0.008163	-0.693452	0.720456	-0.952108	-0.214836	-0.217571
102	317051													9.299730	-0.055589	3.100092	0.305626	-0.687705	-0.658524	-0.008261	-0.693506	0.720403	-0.952116	-0.214734	-0.217635
103	317218													9.321114	-0.050428	3.085189	0.305543	-0.687594	-0.658679	-0.008275	-0.693652	0.720263	-0.952142	-0.214621	-0.217630
104	317385													9.321411	-0.029866	3.083545	0.305518	-0.687584	-0.658701	-0.008261	-0.693666	0.720250	-0.952151	-0.214607	-0.217608
105	317551													9.309340	-0.049373	3.058104	0.305499	-0.687600	-0.658693	-0.008219	-0.693643	0.720272	-0.952157	-0.214629	-0.217558
106	317718													9.299365	-0.040286	3.022836	0.305533	-0.687575	-0.658704	-0.008149	-0.693646	0.720270	-0.952147	-0.214698	-0.217535
107	317885													9.319478	-0.023410	3.045691	0.305608	-0.687551	-0.658694	-0.008103	-0.693644	0.720273	-0.952123	-0.214784	-0.217554
108	318051													9.338210	-0.031457	3.040692	0.305694	-0.687610	-0.658593	-0.008082	-0.693554	0.720360	-0.952095	-0.214887	-0.217572
109	318218													9.370969	-0.020782	3.045952	0.305820	-0.687592	-0.658552	-0.008051	-0.693534	0.720378	-0.952055	-0.215004	-0.217633
110	318385													9.357121	-0.016755	3.063554	0.305897	-0.687682	-0.658423	-0.008050	-0.693417	0.720491	-0.952031	-0.215096	-0.217650
111	318551													9.380781	-0.017695	3.070768	0.305955	-0.687691	-0.658386	-0.008037	-0.693390	0.720518	-0.952012	-0.215155	-0.217673
112	318718													9.319231	-0.018285	3.062843	0.305938	-0.687666	-0.658421	-0.008091	-0.693434	0.720474	-0.952017	-0.215093	-0.217712
113	318885													9.350402	-0.015095	3.033622	0.306005	-0.687667	-0.658388	-0.008132	-0.693425	0.720483	-0.951995	-0.215117	-0.217784
114	319051													9.354794	0.003286	3.045205	0.305922	-0.687681	-0.658412	-0.008091	-0.693421	0.720487	-0.952022	-0.215086	-0.217697
115	319218													9.320498	0.014630	3.010408	0.305887	-0.687709	-0.658400	-0.008011	-0.693382	0.720526	-0.952034	-0.215125	-0.217605
116	319385													9.339005	-0.000390	3.041965	0.305893	-0.687613	-0.658497	-0.008030	-0.693489	0.720422	-0.952032	-0.215084	-0.217655
117	319551													9.333200	-0.013568	3.076901	0.305877	-0.687622	-0.658495	-0.008058	-0.693489	0.720422	-0.952037	-0.215054	-0.217663
118	319718													9.335303	-0.018278	3.069419	0.305867	-0.687627	-0.658494	-0.008079	-0.693491	0.720420	-0.952040	-0.215032	-0.217671
119	319885													9.336662	-0.031581	3.040445	0.305894	-0.687654	-0.658453	-0.008056	-0.693449	0.720460	-0.952031	-0.215080	-0.217662
120	320051													9.346625	-0.017391	3.077198	0.305905	-0.687655	-0.658448	-0.008017	-0.693437	0.720472	-0.952028	-0.215117	-0.217639
121	320218													9.313613	-0.013618	3.072341	0.305916	-0.687520	-0.658584	-0.007950	-0.693567	0.720348	-0.952025	-0.215130	-0.217639
122	320385													9.331543	-0.004841	3.070843	0.305937	-0.687515	-0.658578	-0.007877	-0.693550	0.720365	-0.952019	-0.215199	-0.217598
123	320551													9.333440	-0.002915	3.044611	0.305961	-0.687450	-0.658635	-0.007836	-0.693607	0.720311	-0.952012	-0.215226	-0.217603
124	320718													9.333444	0.005300	3.063461	0.306029	-0.687366	-0.658692	-0.007794	-0.693673	0.720248	-0.951990	-0.215283	-0.217641
125	320885													9.332077	-0.005103	3.055991	0.306100	-0.687422	-0.658600	-0.007757	-0.693585	0.720333	-0.951968	-0.215385	-0.217639
126	321051													9.336479	-0.001434	3.049714	0.306171	-0.687344	-0.658648	-0.007724	-0.693645	0.720276	-0.951945	-0.215440	-0.217683
127	321218													9.328239	-0.018142	3.058226	0.306273	-0.687331	-0.658614	-0.007722	-0.693634	0.720286	-0.951912	-0.215518	-0.217749
128	321385													9.341997	-0.018196	3.062474	0.306387	-0.687313	-0.658581	-0.007685	-0.693617	0.720303	-0.951876	-0.215630	-0.217797
129	321552													9.342731	-0.005729	3.070081	0.306500	-0.687310	-0.658531	-0.007669	-0.693588	0.720331	-0.951840	-0.215731	-0.217855
130	321718													9.350680	-0.010267	3.074448	0.306558	-0.687257	-0.658559	-0.007670	-0.693632	0.720289	-0.951821	-0.215759	-0.217910
131	321885													9.331476	-0.027297	3.051213	0.306610	-0.687251	-0.658541	-0.007704	-0.693634	0.720286	-0.951804	-0.215774	-0.217969
132	322052													9.333256	-0.020148	3.074162	0.306672	-0.687293	-0.658468	-0.007738	-0.693580	0.720338	-0.951784	-0.215812	-0.218020
133	322218													9.329524	-0.029121	3.080044	0.306715	-0.687291	-0.658451	-0.007768	-0.693579	0.720339	-0.951770	-0.215824	-0.218070
134	322385													9.321437	-0.019513	3.058167	0.306782	-0.687294	-0.658416	-0.007822	-0.693570	0.720346	-0.951748	-0.215840	-0.218151
135	322552													9.348703	-0.019776	3.083560	0.306872	-0.687345	-0.658321	-0.007872	-0.693505	0.720409	-0.951718	-0.215890	-0.218228
136	322718													9.345415	-0.032201	3.079303	0.306941	-0.687328	-0.658307	-0.007973	-0.693528	0.720385	-0.951695	-0.215867	-0.218352
137	322885													9.290965	-0.029711	3.021377	0.306952	-0.687356	-0.658272	-0.008000	-0.693501	0.720411	-0.951691	-0.215865	-0.218370
138	323052													9.369841	-0.021225	3.073028	0.307023	-0.687380	-0.658214	-0.008036	-0.693466	0.720445	-0.951668	-0.215904	-0.218434
139	323218													9.349454	-0.011233	3.066412	0.306976	-0.687547	-0.658061	-0.007995	-0.693285	0.720619	-0.951684	-0.215951	-0.218319
140	323385													9.353709	-0.024082	3.090755	0.307070	-0.687662	-0.657898	-0.007890	-0.693112	0.720787	-0.951654	-0.216141	-0.218259
141	323552													9.324885	-0.025427	3.090637	0.307160	-0.687741	-0.657773	-0.007894	-0.693004	0.720891	-0.951625	-0.216236	-0.218292
142	323718													9.308056	-0.021765	3.108686	0.307195	-0.687781	-0.657715	-0.007910	-0.692955	0.720937	-0.951614	-0.216266	-0.218313
143	323885													9.301114	-0.012749	3.104813	0.307226	-0.687812	-0.657668	-0.007866	-0.692903	0.720988	-0.951604	-0.216333	-0.218288
144	324052													9.300210	-0.030723	3.102742	0.307221	-0.687802	-0.657680	-0.007770	-0.692893	0.720998	-0.951607	-0.216395	-0.218215
145	324218													9.303627	-0.020959	3.066416	0.307167	-0.687739	-0.657772	-0.007714	-0.692963	0.720932	-0.951624	-0.216373	-0.218160
146	324385													9.286734	-0.024367	3.040259	0.307181	-0.687671	-0.657836	-0.007636	-0.693017	0.720881	-0.951620	-0.216418	-0.218133
147	324552													9.321527	-0.012424	3.093040	0.307239	-0.687592	-0.657892	-0.007599	-0.693081	0.720820	-0.951602	-0.216464	-0.218166
148	324718													9.321485	-0.022351	3.053387	0.307308	-0.687588	-0.657863	-0.007622	-0.693072	0.720828	-0.951579	-0.216502	-0.218227
149	324885													9.341910	-0.007546	3.063497	0.307397	-0.687686	-0.657720	-0.007638	-0.692947	0.720948	-0.951551	-0.216593	-0.218262
150	325052													9.361527	-0.001899	3.076686	0.307508	-0.687770	-0.657580	-0.007671	-0.692835	0.721056	-0.951515	-0.216686	-0.218328
151	325218													9.358980	-0.016265	3.079311	0.307587	-0.687759	-0.657554	-0.007720	-0.692838	0.721052	-0.951489	-0.216710	-0.218417
152	325385													9.342477	-0.021121	3.098866	0.307660	-0.687751	-0.657528	-0.007745	-0.692834	0.721056	-0.951465	-0.216747	-0.218484
153	325552													9.318548	-0.015406	3.040667	0.307673	-0.687798	-0.657474	-0.007837	-0.692801	0.721087	-0.951460	-0.216706	-0.218546
154	325718													9.346153	-0.006219	3.076146	0.307703	-0.687762	-0.657496	-0.007877	-0.692841	0.721047	-0.951450	-0.216689	-0.218607
155	325885													9.322014	0.029754	3.048177	0.307645	-0.687769	-0.657517	-0.007803	-0.692832	0.721057	-0.951469	-0.216699	-0.218513
156	326052													9.305549	0.013153	3.040080	0.307694	-0.687711	-0.657555	-0.007737	-0.692868	0.721023	-0.951454	-0.216767	-0.218512
157	326218													9.329638	-0.014809	3.061480	0.307741	-0.687715	-0.657528	-0.007760	-0.692857	0.721033	-0.951439	-0.216789	-0.218557
158	326385													9.349979	-0.000733	3.077666	0.307796	-0.687771	-0.657444	-0.007777	-0.692786	0.721102	-0.951421	-0.216839	-0.218586
159	326552													9.323030	-0.001767	3.139052	0.307881	-0.687864	-0.657307	-0.007787	-0.692664	0.721218	-0.951393	-0.216931	-0.218614
160	326718													9.321548	-0.017269	3.114347	0.307874	-0.688036	-0.657130	-0.007717	-0.692461	0.721414	-0.951396	-0.217034	-0.218500
161	326885													9.308849	-0.016622	3.107409	0.307895	-0.687998	-0.657160	-0.007648	-0.692482	0.721395	-0.951390	-0.217088	-0.218473
162	327052													9.319343	-0.017827	3.113003	0.307929	-0.687925	-0.657220	-0.007564	-0.692534	0.721345	-0.951379	-0.217152	-0.218455
163	327218													9.324810	-0.013944	3.067591	0.307986	-0.687888	-0.657233	-0.007444	-0.692534	0.721347	-0.951362	-0.217272	-0.218412
164	327385													9.341157	-0.011158	3.051088	0.308123	-0.687900	-0.657155	-0.007341	-0.692462	0.721417	-0.951318	-0.217461	-0.218414
165	327552													9.314411	0.014223	3.075023	0.308225	-0.687935	-0.657072	-0.007266	-0.692382	0.721495	-0.951286	-0.217608	-0.218408
166	327718													9.308542	0.006298	3.100289	0.308268	-0.687912	-0.657076	-0.007213	-0.692384	0.721493	-0.951272	-0.217674	-0.218402
167	327885													9.342512	0.003294	3.088416	0.308350	-0.687892	-0.657058	-0.007183	-0.692378	0.721499	-0.951246	-0.217755	-0.218436
168	328052													9.315769	-0.019551	3.087851	0.308452	-0.687794	-0.657113	-0.007189	-0.692462	0.721419	-0.951213	-0.217799	-0.218536
169	328218													9.323080	-0.013321	3.104269	0.308508	-0.687787	-0.657094	-0.007217	-0.692462	0.721418	-0.951194	-0.217821	-0.218594
170	328385													9.335947	-0.019326	3.113847	0.308532	-0.687745	-0.657126	-0.007256	-0.692510	0.721372	-0.951186	-0.217798	-0.218652
171	328552													9.333415	-0.014108	3.083495	0.308549	-0.687788	-0.657073	-0.007295	-0.692468	0.721412	-0.951180	-0.217798	-0.218678
172	328718													9.321191	-0.033602	3.085831	0.308573	-0.687836	-0.657012	-0.007379	-0.692429	0.721448	-0.951172	-0.217771	-0.218740
173	328885													9.319384	-0.028538	3.085970	0.308592	-0.687859	-0.656979	-0.007434	-0.692411	0.721465	-0.951165	-0.217754	-0.218786
174	329052													9.313611	-0.021641	3.090245	0.308654	-0.687815	-0.656995	-0.007478	-0.692453	0.721424	-0.951145	-0.217758	-0.218872
175	329218													9.324943	-0.020739	3.073693	0.308693	-0.687741	-0.657054	-0.007503	-0.692531	0.721349	-0.951132	-0.217746	-0.218940
176	329385													9.319712	-0.006780	3.088456	0.308733	-0.687653	-0.657128	-0.007515	-0.692620	0.721263	-0.951119	-0.217740	-0.219002
177	329552													9.312303	0.002633	3.094317	0.308777	-0.687629	-0.657132	-0.007518	-0.692636	0.721248	-0.951105	-0.217765	-0.219040
178	329718													9.316202	-0.005071	3.092575	0.308809	-0.687560	-0.657190	-0.007478	-0.692695	0.721192	-0.951095	-0.217796	-0.219052
179	330218													9.326434	-0.011605	3.097070	0.309029	-0.687444	-0.657208	-0.007343	-0.692736	0.721154	-0.951024	-0.218031	-0.219123
180	330385													9.335725	-0.013858	3.068819	0.309155	-0.687397	-0.657197	-0.007270	-0.692739	0.721152	-0.950984	-0.218170	-0.219161
181	330552													9.323093	0.000497	3.088369	0.309251	-0.687393	-0.657156	-0.007200	-0.692702	0.721187	-0.950953	-0.218297	-0.219168
182	330718													9.316960	-0.003061	3.072774	0.309325	-0.687400	-0.657115	-0.007154	-0.692667	0.721222	-0.950929	-0.218391	-0.219177
183	330885													9.333029	0.018875	3.087397	0.309408	-0.687452	-0.657021	-0.007097	-0.692575	0.721311	-0.950903	-0.218517	-0.219167
184	331052													9.367972	-0.016229	3.089539	0.309531	-0.687466	-0.656948	-0.007135	-0.692537	0.721347	-0.950863	-0.218592	-0.219266
185	331218													9.281320	-0.011097	3.064291	0.309569	-0.687455	-0.656942	-0.007189	-0.692552	0.721332	-0.950850	-0.218579	-0.219335
186	331385													9.332838	-0.038169	3.057965	0.309644	-0.687451	-0.656910	-0.007208	-0.692542	0.721342	-0.950825	-0.218624	-0.219397
187	331552													9.363018	-0.035598	3.117648	0.309626	-0.687551	-0.656815	-0.007267	-0.692451	0.721428	-0.950831	-0.218600	-0.219397
188	331718													9.285891	0.016050	3.076597	0.309651	-0.687608	-0.656743	-0.007160	-0.692357	0.721519	-0.950823	-0.218717	-0.219312
189	331885													9.343113	-0.021514	3.094249	0.309784	-0.687612	-0.656676	-0.007205	-0.692329	0.721546	-0.950780	-0.218792	-0.219427
190	332052													9.295112	-0.017282	3.114366	0.309855	-0.687577	-0.656680	-0.007292	-0.692370	0.721506	-0.950756	-0.218773	-0.219548
191	332218													9.311217	0.011748	3.122323	0.309921	-0.687531	-0.656696	-0.007296	-0.692404	0.721473	-0.950734	-0.218808	-0.219607
192	332385													9.289907	0.008383	3.139463	0.310010	-0.687600	-0.656582	-0.007242	-0.692293	0.721580	-0.950706	-0.218942	-0.219598
193	332552													9.290912	-0.023489	3.115685	0.310018	-0.687632	-0.656545	-0.007211	-0.692250	0.721622	-0.950703	-0.218982	-0.219569
194	332718													9.293558	-0.001688	3.124797	0.310083	-0.687650	-0.656495	-0.007202	-0.692211	0.721659	-0.950682	-0.219046	-0.219596
195	332885													9.306086	-0.029675	3.108103	0.310125	-0.687691	-0.656433	-0.007162	-0.692146	0.721722	-0.950669	-0.219123	-0.219577
196	333052													9.309746	-0.037275	3.084998	0.310183	-0.687758	-0.656335	-0.007126	-0.692049	0.721815	-0.950650	-0.219218	-0.219563
197	333218													9.327521	-0.020177	3.097428	0.310260	-0.687791	-0.656264	-0.007061	-0.691979	0.721884	-0.950626	-0.219337	-0.219550
198	333385													9.334259	-0.010593	3.096985	0.310368	-0.687891	-0.656108	-0.007013	-0.691831	0.722026	-0.950591	-0.219492	-0.219547
199	333552													9.316174	-0.040386	3.097779	0.310442	-0.687914	-0.656048	-0.006977	-0.691777	0.722077	-0.950567	-0.219586	-0.219556
200	333718													9.335969	-0.015278	3.108515	0.310495	-0.687905	-0.656034	-0.006907	-0.691758	0.722096	-0.950550	-0.219676	-0.219539
201	333885													9.315601	-0.020513	3.090131	0.310509	-0.687773	-0.656166	-0.006862	-0.691890	0.721971	-0.950546	-0.219676	-0.219557
202	334052													9.334892	-0.013625	3.038907	0.310493	-0.687766	-0.656180	-0.006861	-0.691901	0.721959	-0.950551	-0.219661	-0.219549
203	334218													9.325472	-0.018553	3.095615	0.310430	-0.687743	-0.656234	-0.006822	-0.691933	0.721929	-0.950572	-0.219632	-0.219488
204	334385													9.322275	0.021342	3.068296	0.310373	-0.687728	-0.656277	-0.006615	-0.691917	0.721947	-0.950592	-0.219731	-0.219301
205	334552													9.310205	0.024122	3.067224	0.310397	-0.687673	-0.656323	-0.006514	-0.691948	0.721918	-0.950585	-0.219806	-0.219258
206	334718													9.316285	0.004259	3.084125	0.310363	-0.687661	-0.656352	-0.006482	-0.691962	0.721905	-0.950596	-0.219798	-0.219217
207	334885													9.337989	-0.000504	3.125487	0.310353	-0.687678	-0.656338	-0.006427	-0.691933	0.721933	-0.950600	-0.219836	-0.219163
208	335052													9.338024	-0.007982	3.138580	0.310359	-0.687759	-0.656250	-0.006360	-0.691826	0.722036	-0.950598	-0.219916	-0.219089
209	335218													9.314697	-0.027440	3.105621	0.310314	-0.687859	-0.656167	-0.006320	-0.691719	0.722140	-0.950613	-0.219943	-0.218998
210	335385													9.310645	-0.007496	3.113006	0.310303	-0.687740	-0.656297	-0.006240	-0.691834	0.722029	-0.950617	-0.219953	-0.218970
211	335552													9.310082	0.006386	3.111190	0.310250	-0.687658	-0.656408	-0.006143	-0.691916	0.721952	-0.950635	-0.219954	-0.218891
212	335718													9.334813	0.008994	3.097571	0.310239	-0.687687	-0.656383	-0.006032	-0.691860	0.722006	-0.950640	-0.220035	-0.218790
213	335885													9.319182	0.032135	3.086274	0.310233	-0.687705	-0.656367	-0.005932	-0.691819	0.722047	-0.950642	-0.220109	-0.218704
214	336052													9.316889	0.036928	3.077762	0.310240	-0.687663	-0.656408	-0.005853	-0.691846	0.722022	-0.950640	-0.220158	-0.218663
215	336218													9.311314	0.019791	3.080019	0.310232	-0.687725	-0.656346	-0.005768	-0.691759	0.722105	-0.950643	-0.220235	-0.218573
216	336385													9.320812	0.014165	3.097074	0.310206	-0.687737	-0.656346	-0.005746	-0.691747	0.722117	-0.950652	-0.220233	-0.218536
217	336552													9.341313	0.003372	3.084168	0.310210	-0.687766	-0.656314	-0.005731	-0.691712	0.722151	-0.950651	-0.220257	-0.218517
218	336718													9.325163	-0.005193	3.082219	0.310250	-0.687831	-0.656227	-0.005742	-0.691632	0.722227	-0.950638	-0.220304	-0.218528
219	336885													9.329986	-0.015220	3.126098	0.310266	-0.687925	-0.656121	-0.005761	-0.691530	0.722325	-0.950632	-0.220333	-0.218521
220	337052													9.329023	-0.018442	3.073450	0.310250	-0.687960	-0.656092	-0.005791	-0.691502	0.722351	-0.950637	-0.220310	-0.218523
221	337218													9.319061	-0.015304	3.100621	0.310251	-0.687987	-0.656063	-0.005827	-0.691480	0.722372	-0.950637	-0.220293	-0.218541
222	337385													9.326131	0.001903	3.103293	0.310275	-0.687939	-0.656102	-0.005876	-0.691539	0.722316	-0.950629	-0.220261	-0.218609
223	337552													9.328039	-0.012374	3.117777	0.310294	-0.687936	-0.656096	-0.005919	-0.691547	0.722307	-0.950622	-0.220244	-0.218654
224	337718													9.307344	0.002249	3.104012	0.310308	-0.687922	-0.656104	-0.005926	-0.691560	0.722295	-0.950618	-0.220245	-0.218673
225	337885													9.321044	0.004367	3.105167	0.310332	-0.687915	-0.656100	-0.005938	-0.691564	0.722291	-0.950610	-0.220254	-0.218699
226	338052													9.328740	0.007034	3.109416	0.310332	-0.687905	-0.656111	-0.005933	-0.691575	0.722281	-0.950610	-0.220254	-0.218699
227	338219													9.316809	-0.009048	3.101069	0.310405	-0.687926	-0.656054	-0.005934	-0.691532	0.722321	-0.950586	-0.220320	-0.218737
228	338385													9.315351	0.001083	3.090924	0.310436	-0.687935	-0.656030	-0.005883	-0.691503	0.722350	-0.950576	-0.220384	-0.218714
229	338552													9.329713	0.003029	3.097192	0.310489	-0.687915	-0.656026	-0.005846	-0.691503	0.722350	-0.950559	-0.220446	-0.218726
230	338719													9.309011	-0.002221	3.096699	0.310549	-0.687880	-0.656034	-0.005785	-0.691512	0.722342	-0.950540	-0.220527	-0.218727
231	338885													9.301976	0.008987	3.102138	0.310584	-0.687847	-0.656052	-0.005701	-0.691520	0.722334	-0.950529	-0.220605	-0.218697
232	339052													9.292696	-0.005214	3.090751	0.310632	-0.687785	-0.656094	-0.005637	-0.691561	0.722296	-0.950514	-0.220670	-0.218698
233	339219													9.286309	0.024415	3.103129	0.310659	-0.687730	-0.656139	-0.005524	-0.691588	0.722271	-0.950505	-0.220755	-0.218647
234	339385													9.361448	-0.004971	3.131968	0.310714	-0.687740	-0.656103	-0.005481	-0.691554	0.722304	-0.950488	-0.220834	-0.218645
235	339552													9.304870	-0.012992	3.103461	0.310747	-0.687705	-0.656124	-0.005513	-0.691591	0.722268	-0.950477	-0.220825	-0.218701
236	339719													9.305113	-0.016125	3.050519	0.310717	-0.687748	-0.656092	-0.005522	-0.691553	0.722305	-0.950486	-0.220809	-0.218675
237	339885													9.348606	-0.021060	3.132554	0.310696	-0.687888	-0.655956	-0.005587	-0.691420	0.722431	-0.950493	-0.220792	-0.218665
238	340052													9.300494	0.006970	3.081396	0.310605	-0.688020	-0.655860	-0.005508	-0.691279	0.722567	-0.950523	-0.220821	-0.218504
239	340219													9.356596	-0.011126	3.095590	0.310616	-0.688021	-0.655854	-0.005404	-0.691251	0.722595	-0.950520	-0.220906	-0.218432
240	340385													9.313741	-0.016277	3.092334	0.310629	-0.687935	-0.655939	-0.005420	-0.691347	0.722503	-0.950516	-0.220875	-0.218481
241	340552													9.310686	0.026486	3.107741	0.310626	-0.687828	-0.656052	-0.005417	-0.691464	0.722391	-0.950517	-0.220840	-0.218513
242	340719													9.293203	0.024983	3.127354	0.310671	-0.687771	-0.656091	-0.005375	-0.691506	0.722351	-0.950502	-0.220887	-0.218527
243	340885													9.292402	-0.022892	3.144745	0.310605	-0.687806	-0.656084	-0.005325	-0.691472	0.722384	-0.950524	-0.220882	-0.218438
244	341052													9.288783	0.005665	3.117534	0.310499	-0.687767	-0.656177	-0.005284	-0.691533	0.722325	-0.950559	-0.220814	-0.218354
245	341219													9.288208	0.003525	3.132911	0.310452	-0.687711	-0.656257	-0.005297	-0.691610	0.722252	-0.950574	-0.220749	-0.218355
246	341385													9.305053	-0.005060	3.114586	0.310408	-0.687775	-0.656210	-0.005302	-0.691551	0.722308	-0.950589	-0.220731	-0.218309
247	341552													9.317275	-0.008787	3.096802	0.310386	-0.687831	-0.656162	-0.005314	-0.691498	0.722359	-0.950596	-0.220724	-0.218286
248	341719													9.333100	-0.004820	3.114229	0.310385	-0.687932	-0.656057	-0.005325	-0.691390	0.722462	-0.950596	-0.220748	-0.218260
249	341885													9.344529	-0.023296	3.099689	0.310346	-0.687960	-0.656046	-0.005316	-0.691367	0.722484	-0.950609	-0.220732	-0.218220
250	342052													9.327672	-0.015313	3.091778	0.310286	-0.687949	-0.656086	-0.005291	-0.691389	0.722464	-0.950628	-0.220699	-0.218168
251	342219													9.334528	-0.004757	3.094016	0.310247	-0.687899	-0.656157	-0.005293	-0.691454	0.722401	-0.950641	-0.220650	-0.218163
252	342385													9.308207	-0.008620	3.038715	0.310146	-0.687876	-0.656229	-0.005302	-0.691507	0.722350	-0.950674	-0.220555	-0.218115
253	342552													9.331995	-0.008037	3.096954	0.310089	-0.687915	-0.656214	-0.005314	-0.691481	0.722375	-0.950693	-0.220513	-0.218076
254	342719													9.313775	0.030955	3.050816	0.309923	-0.687908	-0.656300	-0.005182	-0.691501	0.722357	-0.950748	-0.220474	-0.217877
255	342885													9.318733	0.034429	3.085253	0.309891	-0.687832	-0.656395	-0.005087	-0.691570	0.722291	-0.950758	-0.220492	-0.217811
256	343052													9.345473	0.013899	3.065562	0.309855	-0.687821	-0.656424	-0.005091	-0.691594	0.722269	-0.950770	-0.220457	-0.217795
257	343219													9.334911	0.009598	3.085391	0.309777	-0.687843	-0.656437	-0.005099	-0.691590	0.722272	-0.950796	-0.220396	-0.217746
258	343385													9.335396	0.005264	3.104438	0.309743	-0.687871	-0.656424	-0.005091	-0.691566	0.722295	-0.950807	-0.220384	-0.217710
259	343552													9.337584	-0.021096	3.094989	0.309658	-0.687966	-0.656364	-0.005065	-0.691477	0.722380	-0.950835	-0.220366	-0.217606
260	343719													9.312464	-0.027183	3.066764	0.309598	-0.687915	-0.656446	-0.005017	-0.691538	0.722323	-0.950854	-0.220337	-0.217550
261	343885													9.317616	-0.006329	3.098501	0.309557	-0.687833	-0.656552	-0.004957	-0.691625	0.722240	-0.950868	-0.220320	-0.217506
262	344052													9.343774	0.000836	3.067165	0.309557	-0.687717	-0.656673	-0.004905	-0.691740	0.722130	-0.950868	-0.220319	-0.217506
263	344219													9.318663	0.024268	3.057539	0.309578	-0.687656	-0.656727	-0.004841	-0.691787	0.722086	-0.950862	-0.220362	-0.217491
264	344385													9.302174	0.029507	3.061978	0.309640	-0.687613	-0.656743	-0.004805	-0.691811	0.722063	-0.950842	-0.220424	-0.217517
265	344552													9.316692	0.026307	3.068887	0.309715	-0.687604	-0.656717	-0.004788	-0.691797	0.722076	-0.950817	-0.220494	-0.217552
266	344719													9.327385	0.032629	3.083778	0.309781	-0.687697	-0.656588	-0.004799	-0.691681	0.722188	-0.950796	-0.220569	-0.217570
267	344885													9.330767	0.007853	3.089260	0.309845	-0.687732	-0.656521	-0.004835	-0.691634	0.722232	-0.950775	-0.220606	-0.217625
268	345052													9.333386	-0.009134	3.100046	0.309888	-0.687793	-0.656438	-0.004912	-0.691574	0.722289	-0.950761	-0.220604	-0.217688
269	345219													9.326387	-0.021997	3.109423	0.309862	-0.687843	-0.656397	-0.004975	-0.691540	0.722321	-0.950768	-0.220554	-0.217704
270	345385													9.321296	-0.029307	3.082632	0.309836	-0.687841	-0.656412	-0.005050	-0.691566	0.722295	-0.950777	-0.220478	-0.217745
271	345552													9.322867	-0.019319	3.088182	0.309832	-0.687811	-0.656445	-0.005118	-0.691616	0.722247	-0.950778	-0.220416	-0.217804
272	345719													9.313589	-0.014542	3.092907	0.309851	-0.687754	-0.656496	-0.005177	-0.691688	0.722178	-0.950771	-0.220369	-0.217881
273	345885													9.301962	-0.009882	3.078246	0.309868	-0.687689	-0.656556	-0.005240	-0.691770	0.722099	-0.950765	-0.220314	-0.217961
274	346052													9.313946	-0.015740	3.077179	0.309908	-0.687619	-0.656610	-0.005284	-0.691846	0.722025	-0.950752	-0.220292	-0.218042
275	346219													9.318110	-0.002426	3.124256	0.309935	-0.687519	-0.656702	-0.005319	-0.691957	0.721919	-0.950743	-0.220254	-0.218119
276	346385													9.328067	-0.002881	3.096792	0.309941	-0.687447	-0.656774	-0.005341	-0.692040	0.721839	-0.950741	-0.220220	-0.218163
277	346552													9.317937	-0.000937	3.105417	0.309984	-0.687395	-0.656809	-0.005382	-0.692096	0.721785	-0.950727	-0.220207	-0.218238
278	346719													9.304461	0.007793	3.108672	0.310011	-0.687372	-0.656820	-0.005397	-0.692118	0.721764	-0.950717	-0.220211	-0.218274
279	346885													9.313045	-0.006258	3.096116	0.310037	-0.687331	-0.656851	-0.005384	-0.692154	0.721730	-0.950709	-0.220227	-0.218294
280	347052													9.321280	-0.001441	3.082205	0.310036	-0.687350	-0.656831	-0.005385	-0.692133	0.721750	-0.950710	-0.220232	-0.218287
281	347219													9.325118	0.000908	3.094439	0.310034	-0.687358	-0.656824	-0.005341	-0.692114	0.721768	-0.950710	-0.220265	-0.218250
282	347385													9.355866	-0.029879	3.092278	0.310018	-0.687419	-0.656767	-0.005362	-0.692056	0.721824	-0.950716	-0.220257	-0.218236
283	347552													9.317056	-0.029561	3.072388	0.309975	-0.687449	-0.656757	-0.005410	-0.692046	0.721833	-0.950729	-0.220197	-0.218237
284	347719													9.293307	-0.037374	3.015731	0.309879	-0.687442	-0.656810	-0.005442	-0.692085	0.721795	-0.950760	-0.220095	-0.218204
285	347885													9.383364	-0.022601	3.064473	0.309867	-0.687516	-0.656738	-0.005538	-0.692029	0.721848	-0.950764	-0.220040	-0.218244
286	348052													9.355701	-0.001094	3.093380	0.309794	-0.687579	-0.656706	-0.005515	-0.691973	0.721902	-0.950788	-0.220019	-0.218160
287	348219													9.356141	-0.004156	3.101376	0.309832	-0.687565	-0.656702	-0.005459	-0.691965	0.721910	-0.950776	-0.220086	-0.218146
288	348385													9.302108	-0.008267	3.117233	0.309813	-0.687544	-0.656734	-0.005514	-0.692007	0.721870	-0.950782	-0.220023	-0.218184
289	348552													9.307338	-0.002617	3.128846	0.309725	-0.687516	-0.656804	-0.005568	-0.692072	0.721807	-0.950810	-0.219905	-0.218180
290	348719													9.297796	0.012675	3.089524	0.309671	-0.687485	-0.656863	-0.005584	-0.692124	0.721757	-0.950827	-0.219839	-0.218170
291	348885													9.289577	-0.007927	3.108044	0.309589	-0.687485	-0.656902	-0.005620	-0.692153	0.721729	-0.950854	-0.219747	-0.218147
292	349052													9.296936	-0.014618	3.062255	0.309511	-0.687406	-0.657021	-0.005642	-0.692265	0.721622	-0.950879	-0.219643	-0.218142
293	349219													9.283833	-0.000772	3.068099	0.309477	-0.687357	-0.657087	-0.005641	-0.692326	0.721563	-0.950890	-0.219601	-0.218136
294	349385													9.319889	0.008436	3.075814	0.309481	-0.687385	-0.657057	-0.005649	-0.692297	0.721591	-0.950889	-0.219607	-0.218136
295	349552													9.331351	-0.020223	3.079232	0.309510	-0.687465	-0.656959	-0.005685	-0.692209	0.721674	-0.950879	-0.219631	-0.218154
296	349719													9.352920	-0.005879	3.064041	0.309568	-0.687511	-0.656884	-0.005728	-0.692154	0.721727	-0.950860	-0.219661	-0.218207
297	349885													9.345588	-0.012384	3.071100	0.309618	-0.687570	-0.656798	-0.005742	-0.692080	0.721798	-0.950844	-0.219711	-0.218229
298	350052													9.338328	-0.015971	3.089389	0.309646	-0.687531	-0.656826	-0.005762	-0.692121	0.721759	-0.950834	-0.219705	-0.218274
299	350219													9.306199	-0.009711	3.076782	0.309575	-0.687516	-0.656875	-0.005801	-0.692164	0.721717	-0.950857	-0.219615	-0.218265
300	350385													9.317468	-0.018336	3.035939	0.309522	-0.687512	-0.656905	-0.005890	-0.692203	0.721679	-0.950874	-0.219506	-0.218302
301	350552													9.324824	-0.020955	3.057387	0.309440	-0.687594	-0.656858	-0.005954	-0.692148	0.721731	-0.950900	-0.219421	-0.218273
302	350719													9.326689	0.028294	3.012932	0.309336	-0.687601	-0.656899	-0.005904	-0.692155	0.721725	-0.950935	-0.219377	-0.218168
303	350885													9.322753	0.002281	3.056313	0.309364	-0.687605	-0.656881	-0.005954	-0.692155	0.721724	-0.950925	-0.219364	-0.218222
304	351052													9.327531	-0.022017	3.082606	0.309292	-0.687675	-0.656842	-0.006086	-0.692127	0.721750	-0.950948	-0.219234	-0.218255
305	351219													9.318669	-0.017400	3.084787	0.309217	-0.687794	-0.656753	-0.006187	-0.692039	0.721834	-0.950971	-0.219140	-0.218245
306	351385													9.324835	-0.027759	3.075968	0.309147	-0.687910	-0.656664	-0.006246	-0.691942	0.721926	-0.950994	-0.219080	-0.218209
307	351552													9.327425	-0.018842	3.082492	0.309059	-0.687983	-0.656629	-0.006281	-0.691892	0.721974	-0.951022	-0.219009	-0.218157
308	351719													9.322320	-0.021500	3.080213	0.309033	-0.687977	-0.656647	-0.006303	-0.691910	0.721956	-0.951030	-0.218969	-0.218160
309	351885													9.326619	-0.017572	3.068242	0.309011	-0.687929	-0.656709	-0.006297	-0.691968	0.721901	-0.951038	-0.218940	-0.218158
310	352052													9.320933	-0.017541	3.057006	0.308992	-0.687922	-0.656725	-0.006303	-0.691982	0.721888	-0.951044	-0.218918	-0.218153
311	352219													9.319077	0.003315	3.063697	0.309033	-0.687882	-0.656748	-0.006274	-0.692009	0.721862	-0.951031	-0.218959	-0.218169
312	352385													9.326767	0.010357	3.069587	0.309025	-0.687897	-0.656736	-0.006291	-0.691998	0.721872	-0.951033	-0.218944	-0.218172
313	352552													9.323988	-0.009066	3.045698	0.309025	-0.687946	-0.656685	-0.006299	-0.691946	0.721922	-0.951033	-0.218955	-0.218162
314	352719													9.323616	-0.021282	3.045427	0.309057	-0.688020	-0.656592	-0.006349	-0.691868	0.721996	-0.951022	-0.218969	-0.218195
315	352885													9.329860	-0.023056	3.074655	0.309103	-0.688061	-0.656527	-0.006459	-0.691837	0.722025	-0.951007	-0.218939	-0.218293
316	353052													9.332746	-0.032218	3.074555	0.309104	-0.688137	-0.656446	-0.006515	-0.691765	0.722093	-0.951006	-0.218925	-0.218311
317	353219													9.340915	-0.027244	3.056052	0.309086	-0.688217	-0.656371	-0.006607	-0.691703	0.722152	-0.951011	-0.218870	-0.218343
318	353385													9.329501	-0.039795	3.045292	0.309075	-0.688283	-0.656307	-0.006719	-0.691659	0.722193	-0.951014	-0.218803	-0.218399
319	353552													9.318348	-0.045896	3.078228	0.309070	-0.688289	-0.656303	-0.006855	-0.691685	0.722167	-0.951015	-0.218701	-0.218497
320	353719													9.336169	-0.052427	3.083292	0.308998	-0.688308	-0.656318	-0.007016	-0.691719	0.722132	-0.951037	-0.218533	-0.218569
321	353885													9.336691	-0.052987	3.066960	0.308923	-0.688278	-0.656384	-0.007140	-0.691800	0.722054	-0.951060	-0.218372	-0.218627
322	354052													9.320538	-0.011669	3.049782	0.308915	-0.688173	-0.656498	-0.007239	-0.691940	0.721919	-0.951062	-0.218259	-0.218732
323	354219													9.321040	-0.025180	3.070969	0.308921	-0.688118	-0.656553	-0.007314	-0.692016	0.721845	-0.951059	-0.218192	-0.218811
324	354385													9.338762	-0.057017	3.047629	0.308886	-0.688094	-0.656595	-0.007405	-0.692072	0.721790	-0.951070	-0.218088	-0.218867
325	354552													9.279222	-0.038317	3.079611	0.308898	-0.688031	-0.656654	-0.007495	-0.692159	0.721706	-0.951066	-0.218012	-0.218963
326	354719													9.318029	-0.003748	3.048816	0.308894	-0.688031	-0.656657	-0.007528	-0.692168	0.721698	-0.951067	-0.217985	-0.218985
327	354886													9.400598	-0.040426	3.092515	0.308896	-0.688162	-0.656518	-0.007521	-0.692021	0.721838	-0.951066	-0.218035	-0.218939
328	355052													9.357547	-0.028145	3.123620	0.308866	-0.688175	-0.656519	-0.007399	-0.691987	0.721872	-0.951077	-0.218105	-0.218823
329	355219													9.292459	-0.025949	3.108633	0.308917	-0.688185	-0.656485	-0.007308	-0.691943	0.721916	-0.951061	-0.218215	-0.218782
330	355386													9.296888	-0.070801	3.096222	0.308894	-0.688207	-0.656472	-0.007318	-0.691926	0.721932	-0.951068	-0.218196	-0.218768
331	355552													9.310093	-0.062133	3.075967	0.308829	-0.688124	-0.656590	-0.007295	-0.692028	0.721833	-0.951090	-0.218133	-0.218738
332	355719													9.298018	-0.031219	3.067681	0.308806	-0.688058	-0.656670	-0.007184	-0.692082	0.721783	-0.951098	-0.218174	-0.218663
333	355886													9.322094	-0.051873	3.060716	0.308755	-0.687980	-0.656775	-0.007073	-0.692154	0.721715	-0.951115	-0.218187	-0.218572
334	356052													9.303201	-0.051400	3.051576	0.308705	-0.687898	-0.656885	-0.006959	-0.692231	0.721642	-0.951132	-0.218203	-0.218482
335	356219													9.302661	-0.032662	3.069514	0.308697	-0.687819	-0.656972	-0.006845	-0.692294	0.721583	-0.951136	-0.218253	-0.218417
336	356386													9.334384	-0.041395	3.067506	0.308664	-0.687751	-0.657058	-0.006738	-0.692353	0.721528	-0.951147	-0.218282	-0.218338
337	356552													9.338404	-0.025577	3.070535	0.308659	-0.687693	-0.657121	-0.006656	-0.692398	0.721485	-0.951149	-0.218319	-0.218292
338	356719													9.353685	-0.023396	3.062607	0.308651	-0.687656	-0.657163	-0.006580	-0.692423	0.721462	-0.951153	-0.218356	-0.218241
339	356886													9.339088	-0.021823	3.089880	0.308600	-0.687637	-0.657208	-0.006546	-0.692450	0.721436	-0.951169	-0.218333	-0.218192
340	357052													9.323817	-0.027973	3.058735	0.308531	-0.687585	-0.657294	-0.006518	-0.692517	0.721372	-0.951192	-0.218281	-0.218144
341	357219													9.325601	-0.034228	3.012280	0.308439	-0.687603	-0.657318	-0.006526	-0.692522	0.721367	-0.951222	-0.218208	-0.218088
342	357386													9.351507	-0.020205	3.051337	0.308343	-0.687605	-0.657361	-0.006502	-0.692539	0.721351	-0.951253	-0.218150	-0.218010
343	357552													9.339640	0.011162	3.022030	0.308239	-0.687608	-0.657408	-0.006352	-0.692528	0.721363	-0.951288	-0.218176	-0.217831
344	357719													9.317531	-0.004673	3.032900	0.308234	-0.687487	-0.657536	-0.006304	-0.692651	0.721245	-0.951290	-0.218167	-0.217833
345	357886													9.344118	-0.031170	3.054260	0.308228	-0.687479	-0.657548	-0.006332	-0.692668	0.721229	-0.951292	-0.218139	-0.217853
346	358052													9.347688	-0.049577	3.056692	0.308258	-0.687496	-0.657515	-0.006353	-0.692646	0.721250	-0.951282	-0.218154	-0.217881
347	358219													9.328855	-0.023996	3.050755	0.308276	-0.687588	-0.657410	-0.006330	-0.692535	0.721357	-0.951276	-0.218216	-0.217845
348	358386													9.337112	-0.042235	3.047011	0.308242	-0.687657	-0.657354	-0.006273	-0.692455	0.721434	-0.951287	-0.218252	-0.217757
349	358552													9.339726	-0.012191	3.052794	0.308239	-0.687607	-0.657407	-0.006199	-0.692493	0.721398	-0.951289	-0.218288	-0.217716
350	358719													9.327010	-0.009634	3.038743	0.308269	-0.687521	-0.657484	-0.006091	-0.692556	0.721338	-0.951280	-0.218361	-0.217681
351	358886													9.319202	-0.028856	3.030174	0.308327	-0.687439	-0.657542	-0.006026	-0.692615	0.721282	-0.951261	-0.218428	-0.217695
352	359052													9.352365	-0.011344	3.044071	0.308435	-0.687374	-0.657560	-0.005912	-0.692634	0.721265	-0.951227	-0.218576	-0.217696
353	359219													9.335106	-0.012960	3.064126	0.308531	-0.687343	-0.657547	-0.005816	-0.692621	0.721278	-0.951196	-0.218712	-0.217693
354	359386													9.347681	-0.001670	3.057204	0.308602	-0.687304	-0.657555	-0.005763	-0.692634	0.721266	-0.951174	-0.218795	-0.217709
355	359552													9.318444	-0.020241	3.087347	0.308721	-0.687244	-0.657561	-0.005682	-0.692651	0.721250	-0.951136	-0.218928	-0.217741
356	359719													9.324264	-0.021203	3.075585	0.308854	-0.687226	-0.657517	-0.005618	-0.692622	0.721278	-0.951093	-0.219076	-0.217780
357	359886													9.342884	-0.006122	3.062510	0.309007	-0.687230	-0.657441	-0.005594	-0.692574	0.721325	-0.951043	-0.219217	-0.217855
358	360052													9.332345	-0.033502	3.060093	0.309147	-0.687221	-0.657385	-0.005598	-0.692550	0.721348	-0.950998	-0.219323	-0.217947
359	360219													9.316081	-0.023839	3.093323	0.309313	-0.687251	-0.657275	-0.005626	-0.692481	0.721415	-0.950944	-0.219445	-0.218060
360	360386													9.312337	-0.039646	3.073167	0.309443	-0.687291	-0.657173	-0.005662	-0.692413	0.721479	-0.950901	-0.219536	-0.218154
361	360552													9.349511	-0.043161	3.070993	0.309594	-0.687295	-0.657097	-0.005713	-0.692382	0.721509	-0.950852	-0.219621	-0.218284
362	360719													9.365252	-0.061321	3.099470	0.309731	-0.687291	-0.657037	-0.005774	-0.692365	0.721524	-0.950807	-0.219684	-0.218415
363	360886													9.292424	-0.036957	3.040888	0.309821	-0.687253	-0.657034	-0.005818	-0.692394	0.721496	-0.950777	-0.219712	-0.218517
364	361052													9.324868	-0.028330	3.037982	0.309943	-0.687147	-0.657087	-0.005870	-0.692492	0.721402	-0.950737	-0.219736	-0.218667
365	361219													9.365645	-0.017316	3.085005	0.310036	-0.687188	-0.657001	-0.005906	-0.692431	0.721460	-0.950707	-0.219798	-0.218737
366	361386													9.346774	-0.020313	3.065707	0.310170	-0.687292	-0.656829	-0.005837	-0.692267	0.721618	-0.950663	-0.219990	-0.218732
367	361552													9.323079	-0.019708	3.096731	0.310298	-0.687336	-0.656723	-0.005756	-0.692168	0.721714	-0.950622	-0.220166	-0.218734
368	361719													9.298524	-0.025498	3.094181	0.310368	-0.687331	-0.656694	-0.005774	-0.692159	0.721722	-0.950599	-0.220208	-0.218793
369	361886													9.335485	-0.029218	3.103772	0.310389	-0.687355	-0.656660	-0.005744	-0.692121	0.721758	-0.950592	-0.220254	-0.218775
370	362052													9.301765	-0.027844	3.098065	0.310440	-0.687328	-0.656664	-0.005646	-0.692115	0.721766	-0.950576	-0.220357	-0.218740
371	362219													9.302012	-0.044506	3.084050	0.310418	-0.687295	-0.656708	-0.005537	-0.692131	0.721751	-0.950584	-0.220408	-0.218656
372	362386													9.292749	-0.044535	3.062988	0.310446	-0.687169	-0.656827	-0.005405	-0.692232	0.721655	-0.950576	-0.220485	-0.218614
373	362552													9.290103	-0.019244	3.077244	0.310526	-0.687049	-0.656914	-0.005302	-0.692319	0.721572	-0.950550	-0.220584	-0.218626
374	362719													9.302763	-0.038398	3.084840	0.310609	-0.687017	-0.656910	-0.005197	-0.692310	0.721582	-0.950524	-0.220716	-0.218608
375	362886													9.328662	-0.027955	3.073264	0.310714	-0.687024	-0.656852	-0.005103	-0.692253	0.721637	-0.950490	-0.220871	-0.218599
376	363052													9.335446	-0.024951	3.075123	0.310778	-0.687003	-0.656844	-0.005014	-0.692239	0.721651	-0.950469	-0.220980	-0.218577
377	363219													9.354117	-0.011004	3.068014	0.310810	-0.686966	-0.656868	-0.004955	-0.692258	0.721633	-0.950459	-0.221036	-0.218564
378	363386													9.350692	-0.003397	3.080799	0.310890	-0.686901	-0.656897	-0.004929	-0.692303	0.721590	-0.950433	-0.221097	-0.218616
379	363552													9.305194	-0.008282	3.073095	0.310878	-0.686856	-0.656950	-0.004896	-0.692347	0.721548	-0.950437	-0.221097	-0.218598
380	363719													9.357704	-0.029522	3.039969	0.310950	-0.686855	-0.656918	-0.004932	-0.692339	0.721556	-0.950414	-0.221128	-0.218670
381	363886													9.329687	0.015932	3.045408	0.310874	-0.686894	-0.656912	-0.004900	-0.692308	0.721586	-0.950439	-0.221103	-0.218586
382	364052													9.328726	0.020334	3.033249	0.310892	-0.686864	-0.656935	-0.004761	-0.692304	0.721590	-0.950433	-0.221209	-0.218502
383	364219													9.327695	-0.004274	3.054697	0.310993	-0.686845	-0.656907	-0.004761	-0.692298	0.721596	-0.950400	-0.221284	-0.218571
384	364386													9.350509	-0.022870	3.061996	0.311025	-0.686851	-0.656886	-0.004789	-0.692291	0.721603	-0.950390	-0.221290	-0.218609
385	364552													9.313412	-0.016755	3.078410	0.311120	-0.686927	-0.656762	-0.004779	-0.692180	0.721709	-0.950359	-0.221399	-0.218634
386	364719													9.333879	-0.023303	3.094803	0.311215	-0.687039	-0.656599	-0.004730	-0.692022	0.721861	-0.950328	-0.221548	-0.218617
387	364886													9.318899	-0.015263	3.082684	0.311265	-0.687029	-0.656586	-0.004660	-0.692004	0.721879	-0.950312	-0.221636	-0.218598
388	365052													9.319239	-0.007252	3.087908	0.311310	-0.686965	-0.656631	-0.004575	-0.692042	0.721843	-0.950297	-0.221713	-0.218583
389	365219													9.321102	-0.017341	3.067989	0.311383	-0.686931	-0.656633	-0.004486	-0.692040	0.721845	-0.950274	-0.221824	-0.218571
390	365386													9.319196	-0.001724	3.076547	0.311498	-0.686906	-0.656604	-0.004394	-0.692017	0.721868	-0.950237	-0.221976	-0.218580
391	365552													9.302802	0.006870	3.104542	0.311616	-0.686906	-0.656548	-0.004276	-0.691959	0.721924	-0.950199	-0.222155	-0.218563
392	365719													9.319846	0.000830	3.064534	0.311740	-0.686919	-0.656476	-0.004185	-0.691892	0.721989	-0.950158	-0.222325	-0.218565
393	365886													9.328458	-0.003154	3.079998	0.311865	-0.686919	-0.656416	-0.004123	-0.691845	0.722035	-0.950117	-0.222471	-0.218595
394	366052													9.315505	-0.018257	3.070846	0.311990	-0.686882	-0.656396	-0.004084	-0.691844	0.722035	-0.950077	-0.222587	-0.218654
395	366219													9.324384	-0.011612	3.067381	0.312076	-0.686888	-0.656349	-0.004066	-0.691811	0.722067	-0.950048	-0.222671	-0.218691
396	366386													9.315444	-0.032114	3.080495	0.312159	-0.686904	-0.656292	-0.004064	-0.691771	0.722105	-0.950021	-0.222744	-0.218734
397	366552													9.317289	-0.031918	3.083882	0.312224	-0.686945	-0.656219	-0.004078	-0.691714	0.722160	-0.950000	-0.222799	-0.218771
398	366719													9.321560	-0.014645	3.084790	0.312319	-0.686925	-0.656194	-0.004111	-0.691718	0.722156	-0.949968	-0.222845	-0.218861
399	366886													9.296773	-0.031102	3.080945	0.312401	-0.686903	-0.656178	-0.004147	-0.691730	0.722145	-0.949941	-0.222878	-0.218945
400	367052													9.309221	-0.002038	3.088717	0.312459	-0.686911	-0.656142	-0.004192	-0.691716	0.722157	-0.949922	-0.222894	-0.219013
401	367219													9.352923	-0.037443	3.119830	0.312516	-0.686954	-0.656070	-0.004287	-0.691677	0.722195	-0.949903	-0.222885	-0.219105
402	367386													9.286032	-0.038619	3.085914	0.312509	-0.686968	-0.656059	-0.004354	-0.691679	0.722192	-0.949905	-0.222835	-0.219147
403	367552													9.308619	-0.013844	3.054158	0.312498	-0.686915	-0.656120	-0.004374	-0.691745	0.722129	-0.949908	-0.222794	-0.219173
404	367719													9.350420	-0.011379	3.088545	0.312492	-0.687017	-0.656015	-0.004433	-0.691648	0.722222	-0.949910	-0.222781	-0.219180
405	367886													9.333240	0.016855	3.084897	0.312442	-0.687112	-0.655939	-0.004384	-0.691544	0.722321	-0.949927	-0.222808	-0.219080
406	368052													9.356778	-0.000300	3.100564	0.312469	-0.687151	-0.655886	-0.004259	-0.691465	0.722397	-0.949918	-0.222933	-0.218988
407	368219													9.310623	-0.028270	3.108279	0.312470	-0.687164	-0.655872	-0.004277	-0.691455	0.722407	-0.949918	-0.222926	-0.218998
408	368386													9.304848	-0.005796	3.116820	0.312406	-0.687160	-0.655907	-0.004273	-0.691475	0.722388	-0.949939	-0.222875	-0.218957
409	368552													9.302692	-0.018994	3.123109	0.312368	-0.687148	-0.655937	-0.004194	-0.691479	0.722384	-0.949952	-0.222899	-0.218878
410	368719													9.306844	-0.028345	3.096517	0.312280	-0.687161	-0.655965	-0.004122	-0.691471	0.722393	-0.949981	-0.222885	-0.218766
411	368886													9.316483	-0.033280	3.043806	0.312229	-0.687092	-0.656062	-0.004045	-0.691542	0.722325	-0.949998	-0.222877	-0.218699
412	369052													9.303423	-0.021880	3.106116	0.312242	-0.687020	-0.656131	-0.003988	-0.691604	0.722266	-0.949994	-0.222905	-0.218688
413	369219													9.315583	-0.009033	3.060872	0.312272	-0.687025	-0.656112	-0.003981	-0.691589	0.722280	-0.949984	-0.222936	-0.218699
414	369386													9.335421	-0.014273	3.088241	0.312324	-0.687053	-0.656058	-0.003976	-0.691544	0.722323	-0.949967	-0.222990	-0.218718
415	369552													9.342547	-0.020681	3.081196	0.312372	-0.687071	-0.656016	-0.003977	-0.691512	0.722354	-0.949952	-0.223034	-0.218741
416	369719													9.337457	-0.035022	3.083720	0.312377	-0.687119	-0.655964	-0.004009	-0.691466	0.722398	-0.949950	-0.223030	-0.218753
417	369886													9.351046	-0.018990	3.097335	0.312359	-0.687133	-0.655957	-0.004035	-0.691461	0.722403	-0.949956	-0.223002	-0.218756
418	370052													9.340077	-0.011547	3.085290	0.312348	-0.687124	-0.655972	-0.004041	-0.691475	0.722389	-0.949959	-0.222986	-0.218758
419	370219													9.320146	-0.025668	3.026439	0.312340	-0.687100	-0.656001	-0.004125	-0.691524	0.722342	-0.949961	-0.222911	-0.218825
420	370386													9.327427	-0.026257	3.053720	0.312342	-0.687120	-0.655979	-0.004170	-0.691511	0.722354	-0.949961	-0.222886	-0.218853
421	370552													9.315206	0.022151	3.023061	0.312290	-0.687110	-0.656014	-0.004034	-0.691504	0.722361	-0.949978	-0.222940	-0.218721
422	370719													9.299681	0.011787	3.074462	0.312368	-0.687035	-0.656056	-0.003957	-0.691549	0.722319	-0.949953	-0.223033	-0.218736
423	370886													9.326731	-0.026104	3.073133	0.312390	-0.687045	-0.656034	-0.003999	-0.691541	0.722326	-0.949945	-0.223024	-0.218778
424	371052													9.366434	-0.016701	3.098687	0.312404	-0.687096	-0.655974	-0.003993	-0.691480	0.722385	-0.949941	-0.223057	-0.218765
425	371219													9.323176	-0.025709	3.146172	0.312446	-0.687165	-0.655882	-0.003950	-0.691383	0.722478	-0.949927	-0.223145	-0.218735
426	371386													9.314837	-0.040737	3.110135	0.312429	-0.687204	-0.655849	-0.003863	-0.691324	0.722535	-0.949933	-0.223208	-0.218645
427	371553													9.299244	-0.019705	3.102142	0.312450	-0.687139	-0.655908	-0.003741	-0.691362	0.722499	-0.949927	-0.223291	-0.218586
428	371719													9.312954	0.008943	3.072575	0.312439	-0.687035	-0.656022	-0.003650	-0.691458	0.722408	-0.949931	-0.223314	-0.218546
429	371886													9.342205	-0.010897	3.072963	0.312506	-0.686977	-0.656050	-0.003555	-0.691481	0.722385	-0.949909	-0.223417	-0.218534
430	372053													9.316842	0.012953	3.065832	0.312558	-0.686953	-0.656051	-0.003467	-0.691474	0.722393	-0.949892	-0.223515	-0.218507
431	372219													9.307445	0.009920	3.060765	0.312620	-0.686969	-0.656005	-0.003393	-0.691423	0.722442	-0.949872	-0.223624	-0.218483
432	372386													9.331902	0.003122	3.076972	0.312671	-0.686952	-0.655998	-0.003321	-0.691412	0.722453	-0.949856	-0.223712	-0.218465
433	372553													9.336722	-0.003623	3.089493	0.312748	-0.686923	-0.655992	-0.003280	-0.691414	0.722452	-0.949831	-0.223794	-0.218491
434	372719													9.318148	-0.018750	3.101959	0.312792	-0.686916	-0.655979	-0.003301	-0.691416	0.722450	-0.949816	-0.223811	-0.218537
435	372886													9.338833	-0.025624	3.074097	0.312802	-0.686954	-0.655933	-0.003348	-0.691381	0.722482	-0.949812	-0.223798	-0.218565
436	373053													9.327064	-0.030330	3.081067	0.312797	-0.686957	-0.655933	-0.003371	-0.691385	0.722479	-0.949814	-0.223778	-0.218579
437	373219													9.342421	-0.019329	3.078918	0.312761	-0.686984	-0.655922	-0.003409	-0.691373	0.722490	-0.949826	-0.223730	-0.218576
438	373386													9.330160	-0.029207	3.064227	0.312780	-0.686950	-0.655948	-0.003461	-0.691418	0.722446	-0.949819	-0.223696	-0.218640
439	373553													9.325827	-0.021264	3.073541	0.312820	-0.686930	-0.655950	-0.003501	-0.691440	0.722426	-0.949806	-0.223692	-0.218701
440	373719													9.316653	-0.004660	3.089174	0.312854	-0.686935	-0.655929	-0.003544	-0.691436	0.722429	-0.949795	-0.223691	-0.218753
441	373886													9.327525	-0.003572	3.084393	0.312882	-0.686875	-0.655978	-0.003549	-0.691495	0.722372	-0.949785	-0.223689	-0.218794
442	374053													9.330336	-0.017455	3.106358	0.312917	-0.686856	-0.655982	-0.003552	-0.691508	0.722360	-0.949774	-0.223709	-0.218824
443	374219													9.305917	-0.007839	3.112988	0.312939	-0.686844	-0.655984	-0.003553	-0.691516	0.722353	-0.949767	-0.223721	-0.218842
444	374386													9.301136	0.014187	3.102825	0.312970	-0.686812	-0.656002	-0.003529	-0.691537	0.722332	-0.949756	-0.223754	-0.218854
445	374553													9.315140	0.007242	3.089110	0.312978	-0.686745	-0.656069	-0.003481	-0.691598	0.722274	-0.949754	-0.223772	-0.218846
446	374719													9.336938	0.013293	3.089325	0.313020	-0.686743	-0.656051	-0.003460	-0.691584	0.722288	-0.949740	-0.223820	-0.218856
447	374886													9.356800	-0.022169	3.105518	0.313068	-0.686810	-0.655957	-0.003473	-0.691501	0.722368	-0.949724	-0.223872	-0.218872
448	375053													9.292691	-0.029601	3.068393	0.313078	-0.686870	-0.655890	-0.003459	-0.691428	0.722437	-0.949721	-0.223910	-0.218847
449	375219													9.362893	-0.031070	3.070596	0.313152	-0.686904	-0.655819	-0.003452	-0.691371	0.722492	-0.949697	-0.223986	-0.218876
450	375386													9.349290	-0.041212	3.103708	0.313127	-0.687028	-0.655701	-0.003529	-0.691258	0.722599	-0.949705	-0.223951	-0.218876
451	375553													9.328769	0.005007	3.087511	0.313130	-0.687038	-0.655690	-0.003411	-0.691219	0.722637	-0.949704	-0.224043	-0.218785
452	375719													9.364452	-0.021089	3.112416	0.313209	-0.687057	-0.655631	-0.003359	-0.691165	0.722689	-0.949678	-0.224150	-0.218787
453	375886													9.297679	-0.019229	3.109835	0.313205	-0.686977	-0.655717	-0.003410	-0.691266	0.722592	-0.949679	-0.224084	-0.218850
454	376053													9.328089	0.004466	3.129488	0.313195	-0.686922	-0.655779	-0.003424	-0.691333	0.722529	-0.949683	-0.224047	-0.218874
455	376219													9.307527	0.011480	3.111157	0.313203	-0.686910	-0.655789	-0.003401	-0.691339	0.722523	-0.949680	-0.224066	-0.218866
456	376386													9.302161	-0.000401	3.109952	0.313159	-0.686911	-0.655808	-0.003393	-0.691347	0.722515	-0.949695	-0.224037	-0.218832
457	376553													9.296271	-0.006343	3.086688	0.313146	-0.686896	-0.655830	-0.003435	-0.691377	0.722486	-0.949699	-0.223991	-0.218861
458	376719													9.315458	-0.027154	3.102703	0.313163	-0.686949	-0.655767	-0.003492	-0.691328	0.722533	-0.949693	-0.223981	-0.218897
459	376886													9.300303	-0.027058	3.101194	0.313219	-0.687047	-0.655637	-0.003506	-0.691208	0.722648	-0.949674	-0.224048	-0.218908
460	377053													9.328680	-0.025348	3.109759	0.313271	-0.687069	-0.655590	-0.003493	-0.691168	0.722686	-0.949657	-0.224106	-0.218923
461	377219													9.339555	-0.016129	3.093301	0.313321	-0.687068	-0.655566	-0.003517	-0.691161	0.722692	-0.949641	-0.224130	-0.218972
462	377386													9.344687	-0.018603	3.094063	0.313375	-0.687035	-0.655575	-0.003538	-0.691188	0.722666	-0.949623	-0.224146	-0.219032
463	377553													9.346107	-0.009863	3.094850	0.313415	-0.686994	-0.655599	-0.003542	-0.691224	0.722632	-0.949610	-0.224161	-0.219073
464	377719													9.313402	-0.020514	3.090809	0.313422	-0.686936	-0.655657	-0.003520	-0.691281	0.722577	-0.949607	-0.224164	-0.219080
465	377886													9.327383	-0.012934	3.030222	0.313377	-0.686945	-0.655669	-0.003552	-0.691291	0.722568	-0.949622	-0.224107	-0.219075
466	378053													9.321560	-0.008835	3.055249	0.313294	-0.686966	-0.655687	-0.003559	-0.691291	0.722568	-0.949650	-0.224043	-0.219022
467	378219													9.322407	0.009988	3.026140	0.313270	-0.686909	-0.655757	-0.003403	-0.691323	0.722538	-0.949658	-0.224118	-0.218909
468	378386													9.317039	-0.001928	3.069634	0.313309	-0.686876	-0.655773	-0.003363	-0.691339	0.722522	-0.949645	-0.224168	-0.218913
469	378553													9.328111	-0.011394	3.082591	0.313289	-0.686884	-0.655774	-0.003363	-0.691336	0.722526	-0.949652	-0.224154	-0.218898
470	378719													9.351081	-0.017337	3.092211	0.313254	-0.686899	-0.655776	-0.003344	-0.691324	0.722537	-0.949664	-0.224144	-0.218857
471	378886													9.335318	-0.003709	3.136151	0.313251	-0.686998	-0.655674	-0.003291	-0.691204	0.722652	-0.949665	-0.224213	-0.218781
472	379053													9.320197	-0.038262	3.111447	0.313226	-0.687031	-0.655650	-0.003229	-0.691158	0.722696	-0.949673	-0.224250	-0.218707
473	379219													9.299090	-0.020896	3.116783	0.313222	-0.686978	-0.655708	-0.003150	-0.691200	0.722657	-0.949675	-0.224286	-0.218663
474	379386													9.309050	-0.009267	3.070940	0.313210	-0.686906	-0.655789	-0.003055	-0.691259	0.722600	-0.949679	-0.224323	-0.218608
475	379553													9.335847	0.005983	3.089961	0.313223	-0.686859	-0.655832	-0.002984	-0.691291	0.722571	-0.949675	-0.224369	-0.218578
476	379719													9.319961	0.015631	3.091427	0.313287	-0.686840	-0.655821	-0.002938	-0.691284	0.722577	-0.949654	-0.224447	-0.218589
477	379886													9.320144	0.013075	3.089371	0.313378	-0.686868	-0.655749	-0.002919	-0.691226	0.722633	-0.949624	-0.224543	-0.218620
478	380053													9.342771	0.013143	3.102985	0.313457	-0.686891	-0.655688	-0.002928	-0.691182	0.722675	-0.949598	-0.224607	-0.218667
479	380219													9.328322	0.000050	3.093140	0.313508	-0.686904	-0.655649	-0.002962	-0.691162	0.722694	-0.949581	-0.224628	-0.218719
480	380386													9.337170	-0.018378	3.097210	0.313541	-0.686959	-0.655576	-0.003038	-0.691111	0.722742	-0.949570	-0.224617	-0.218779
481	380553													9.338300	-0.015660	3.069090	0.313563	-0.686969	-0.655554	-0.003108	-0.691110	0.722743	-0.949562	-0.224588	-0.218841
482	380719													9.342834	-0.028881	3.060390	0.313550	-0.687008	-0.655520	-0.003187	-0.691090	0.722762	-0.949566	-0.224533	-0.218881
483	380886													9.333489	-0.007502	3.048982	0.313528	-0.687033	-0.655505	-0.003279	-0.691090	0.722761	-0.949573	-0.224457	-0.218929
484	381053													9.318556	-0.014168	3.044891	0.313513	-0.687029	-0.655516	-0.003363	-0.691118	0.722734	-0.949578	-0.224382	-0.218985
485	381219													9.326302	-0.022194	3.047673	0.313512	-0.687054	-0.655490	-0.003422	-0.691104	0.722747	-0.949578	-0.224347	-0.219021
486	381386													9.324370	-0.024240	3.062646	0.313535	-0.687021	-0.655513	-0.003464	-0.691144	0.722708	-0.949570	-0.224324	-0.219077
487	381553													9.328179	0.007585	3.111890	0.313582	-0.686995	-0.655518	-0.003510	-0.691172	0.722681	-0.949554	-0.224319	-0.219151
488	381719													9.335163	-0.001606	3.114083	0.313587	-0.686990	-0.655521	-0.003554	-0.691186	0.722668	-0.949553	-0.224290	-0.219189
489	381886													9.315772	-0.015746	3.126514	0.313589	-0.687014	-0.655495	-0.003599	-0.691171	0.722683	-0.949552	-0.224267	-0.219216
490	382053													9.313770	-0.006552	3.112094	0.313615	-0.687023	-0.655473	-0.003648	-0.691165	0.722688	-0.949543	-0.224254	-0.219266
491	382219													9.315194	-0.001813	3.104434	0.313614	-0.687033	-0.655463	-0.003660	-0.691157	0.722695	-0.949544	-0.224248	-0.219271
492	382386													9.345939	-0.007549	3.091302	0.313645	-0.687020	-0.655462	-0.003698	-0.691173	0.722680	-0.949533	-0.224241	-0.219323
493	382553													9.357461	-0.045890	3.112048	0.313658	-0.687083	-0.655390	-0.003759	-0.691114	0.722736	-0.949529	-0.224228	-0.219356
494	382719													9.284617	-0.018196	3.070696	0.313650	-0.687090	-0.655386	-0.003815	-0.691121	0.722729	-0.949531	-0.224184	-0.219392
495	382886													9.321967	-0.038748	3.023111	0.313715	-0.687115	-0.655328	-0.003884	-0.691093	0.722756	-0.949509	-0.224194	-0.219475
496	383053													9.373141	-0.051210	3.078475	0.313729	-0.687263	-0.655167	-0.004023	-0.690959	0.722883	-0.949504	-0.224154	-0.219538
497	383219													9.333346	0.004746	3.086946	0.313734	-0.687389	-0.655032	-0.004007	-0.690815	0.723021	-0.949503	-0.224211	-0.219486
498	383386													9.373089	-0.032451	3.125426	0.313831	-0.687495	-0.654874	-0.003974	-0.690665	0.723164	-0.949471	-0.224349	-0.219484
499	383553													9.296098	-0.031065	3.129230	0.313796	-0.687525	-0.654860	-0.004067	-0.690663	0.723165	-0.949482	-0.224263	-0.219523
500	383719													9.308427	0.000246	3.104694	0.313739	-0.687513	-0.654899	-0.004104	-0.690699	0.723130	-0.949500	-0.224187	-0.219521
501	383886													9.283155	-0.013886	3.066097	0.313732	-0.687519	-0.654896	-0.004170	-0.690710	0.723120	-0.949502	-0.224135	-0.219565
502	384053													9.303633	-0.038251	3.093054	0.313663	-0.687603	-0.654842	-0.004206	-0.690645	0.723182	-0.949525	-0.224082	-0.219522
503	384219													9.301965	-0.018711	3.094156	0.313654	-0.687594	-0.654856	-0.004248	-0.690667	0.723160	-0.949528	-0.224040	-0.219551
504	384386													9.287417	-0.024172	3.120856	0.313660	-0.687623	-0.654822	-0.004305	-0.690646	0.723180	-0.949526	-0.224014	-0.219588
505	384553													9.315486	-0.047610	3.109748	0.313685	-0.687694	-0.654736	-0.004342	-0.690570	0.723252	-0.949517	-0.224030	-0.219607
506	384719													9.327529	-0.033420	3.122504	0.313717	-0.687759	-0.654652	-0.004363	-0.690495	0.723324	-0.949507	-0.224063	-0.219621
507	384886													9.321834	-0.031195	3.134564	0.313711	-0.687848	-0.654561	-0.004410	-0.690409	0.723406	-0.949508	-0.224054	-0.219622
508	385053													9.336748	-0.041280	3.133165	0.313651	-0.687904	-0.654531	-0.004442	-0.690370	0.723443	-0.949528	-0.224001	-0.219591
509	385219													9.327400	-0.037121	3.121008	0.313596	-0.687932	-0.654528	-0.004468	-0.690361	0.723452	-0.949546	-0.223947	-0.219568
510	385386													9.307410	-0.018922	3.084536	0.313481	-0.687917	-0.654598	-0.004498	-0.690413	0.723401	-0.949584	-0.223828	-0.219526
511	385553													9.308758	-0.041523	3.025603	0.313330	-0.687969	-0.654617	-0.004585	-0.690416	0.723398	-0.949633	-0.223661	-0.219482
512	385719													9.308349	-0.033125	3.061054	0.313195	-0.688051	-0.654595	-0.004632	-0.690372	0.723440	-0.949678	-0.223546	-0.219408
513	385886													9.326996	0.000916	3.032278	0.313032	-0.688032	-0.654693	-0.004524	-0.690409	0.723405	-0.949732	-0.223487	-0.219232
514	386053													9.321023	-0.017316	3.056609	0.313014	-0.688060	-0.654673	-0.004505	-0.690379	0.723433	-0.949738	-0.223495	-0.219198
515	386219													9.349306	-0.035599	3.086573	0.312893	-0.688102	-0.654686	-0.004593	-0.690385	0.723428	-0.949777	-0.223349	-0.219177
516	386386													9.342430	-0.039983	3.107415	0.312792	-0.688132	-0.654702	-0.004638	-0.690388	0.723425	-0.949810	-0.223245	-0.219139
517	386553													9.334116	-0.032075	3.115946	0.312686	-0.688212	-0.654669	-0.004647	-0.690329	0.723480	-0.949845	-0.223180	-0.219055
518	386719													9.323857	-0.042680	3.095641	0.312507	-0.688295	-0.654668	-0.004658	-0.690287	0.723521	-0.949904	-0.223056	-0.218925
519	386886													9.316490	-0.029128	3.055068	0.312384	-0.688254	-0.654769	-0.004639	-0.690360	0.723452	-0.949944	-0.222957	-0.218850
520	387053													9.330967	-0.011068	3.065361	0.312276	-0.688195	-0.654883	-0.004644	-0.690454	0.723361	-0.949980	-0.222847	-0.218808
521	387219													9.323308	-0.000737	3.066959	0.312220	-0.688201	-0.654903	-0.004661	-0.690466	0.723350	-0.949998	-0.222792	-0.218785
522	387386													9.302184	0.004570	3.071208	0.312177	-0.688244	-0.654878	-0.004647	-0.690426	0.723388	-0.950012	-0.222782	-0.218734
523	387553													9.315662	-0.009044	3.069030	0.312137	-0.688267	-0.654873	-0.004671	-0.690416	0.723397	-0.950026	-0.222740	-0.218720
524	387719													9.339597	-0.014988	3.079111	0.312120	-0.688266	-0.654883	-0.004691	-0.690427	0.723387	-0.950031	-0.222712	-0.218724
525	387886													9.343742	-0.031578	3.079941	0.312148	-0.688296	-0.654838	-0.004727	-0.690395	0.723417	-0.950022	-0.222718	-0.218759
526	388053													9.328144	-0.019469	3.081954	0.312165	-0.688319	-0.654805	-0.004791	-0.690380	0.723431	-0.950016	-0.222692	-0.218810
527	388220													9.338513	-0.032626	3.065498	0.312166	-0.688353	-0.654769	-0.004892	-0.690366	0.723444	-0.950015	-0.222632	-0.218876
528	388386													9.336670	-0.044480	3.037849	0.312144	-0.688381	-0.654751	-0.005001	-0.690367	0.723442	-0.950022	-0.222544	-0.218936
529	388553													9.326834	-0.039149	3.051981	0.312146	-0.688388	-0.654742	-0.005096	-0.690380	0.723429	-0.950020	-0.222479	-0.219008
530	388720													9.331952	-0.050293	3.080295	0.312174	-0.688398	-0.654718	-0.005242	-0.690396	0.723412	-0.950011	-0.222399	-0.219132
531	388886													9.318971	-0.075671	3.076577	0.312168	-0.688410	-0.654708	-0.005446	-0.690432	0.723377	-0.950011	-0.222249	-0.219280
532	389053													9.337842	-0.065030	3.077666	0.312168	-0.688382	-0.654737	-0.005617	-0.690503	0.723308	-0.950010	-0.222116	-0.219420
533	389220													9.318036	-0.031540	3.061821	0.312216	-0.688338	-0.654761	-0.005832	-0.690590	0.723223	-0.949993	-0.221983	-0.219627
534	389386													9.329152	-0.020831	3.084077	0.312299	-0.688340	-0.654720	-0.005976	-0.690600	0.723212	-0.949965	-0.221946	-0.219787
535	389553													9.347564	-0.046278	3.074210	0.312323	-0.688457	-0.654585	-0.006170	-0.690509	0.723297	-0.949956	-0.221864	-0.219910
536	389720													9.307362	-0.055121	3.083987	0.312379	-0.688556	-0.654453	-0.006378	-0.690434	0.723367	-0.949936	-0.221791	-0.220069
537	389886													9.311175	-0.040867	3.049561	0.312368	-0.688586	-0.654428	-0.006479	-0.690428	0.723373	-0.949939	-0.221718	-0.220129
538	390053													9.363226	-0.053146	3.055404	0.312379	-0.688732	-0.654269	-0.006597	-0.690291	0.723501	-0.949935	-0.221690	-0.220176
539	390220													9.394210	-0.057173	3.113167	0.312413	-0.688859	-0.654118	-0.006571	-0.690135	0.723651	-0.949924	-0.221780	-0.220133
540	390386													9.331357	-0.057345	3.100347	0.312455	-0.688913	-0.654041	-0.006550	-0.690059	0.723723	-0.949910	-0.221847	-0.220125
541	390553													9.301533	-0.075969	3.078188	0.312478	-0.688937	-0.654006	-0.006595	-0.690038	0.723743	-0.949902	-0.221841	-0.220165
542	390720													9.298802	-0.080967	3.095912	0.312404	-0.688975	-0.654000	-0.006657	-0.690029	0.723751	-0.949926	-0.221749	-0.220155
543	390886													9.291959	-0.071369	3.100744	0.312400	-0.688908	-0.654073	-0.006655	-0.690104	0.723680	-0.949927	-0.221725	-0.220173
544	391053													9.299681	-0.079529	3.077941	0.312350	-0.688861	-0.654146	-0.006589	-0.690153	0.723633	-0.949944	-0.221717	-0.220109
545	391220													9.300790	-0.067709	3.054645	0.312307	-0.688807	-0.654225	-0.006532	-0.690212	0.723578	-0.949959	-0.221705	-0.220057
546	391386													9.295260	-0.054915	3.077276	0.312265	-0.688763	-0.654291	-0.006483	-0.690259	0.723533	-0.949973	-0.221692	-0.220009
547	391553													9.321806	-0.044384	3.099409	0.312216	-0.688785	-0.654291	-0.006436	-0.690237	0.723555	-0.949989	-0.221694	-0.219935
548	391720													9.341186	-0.053683	3.083884	0.312145	-0.688778	-0.654332	-0.006390	-0.690252	0.723541	-0.950013	-0.221668	-0.219860
549	391886													9.343877	-0.045065	3.079701	0.312066	-0.688765	-0.654383	-0.006326	-0.690272	0.723522	-0.950039	-0.221647	-0.219768
550	392053													9.333617	-0.062776	3.067282	0.311994	-0.688736	-0.654448	-0.006307	-0.690318	0.723479	-0.950063	-0.221594	-0.219719
551	392220													9.331841	-0.039186	3.107058	0.311953	-0.688685	-0.654522	-0.006259	-0.690374	0.723425	-0.950077	-0.221578	-0.219675
552	392386													9.290929	-0.045491	3.057336	0.311797	-0.688627	-0.654657	-0.006207	-0.690466	0.723338	-0.950129	-0.221471	-0.219559
553	392553													9.323534	-0.074164	3.039565	0.311738	-0.688564	-0.654751	-0.006191	-0.690547	0.723261	-0.950148	-0.221415	-0.219533
554	392720													9.339525	-0.017354	3.034599	0.311559	-0.688536	-0.654866	-0.006062	-0.690594	0.723217	-0.950208	-0.221355	-0.219334
555	392886													9.327527	-0.016288	3.024417	0.311446	-0.688494	-0.654964	-0.005892	-0.690630	0.723184	-0.950245	-0.221374	-0.219151
556	393053													9.331090	-0.043061	3.065304	0.311388	-0.688416	-0.655073	-0.005859	-0.690723	0.723096	-0.950265	-0.221325	-0.219116
557	393220													9.363162	-0.061110	3.059041	0.311233	-0.688401	-0.655163	-0.005837	-0.690774	0.723047	-0.950316	-0.221212	-0.219010
558	393386													9.341797	-0.039944	3.075111	0.311111	-0.688430	-0.655190	-0.005825	-0.690770	0.723051	-0.950356	-0.221133	-0.218916
559	393553													9.338630	-0.060310	3.067944	0.310929	-0.688529	-0.655173	-0.005769	-0.690696	0.723122	-0.950416	-0.221060	-0.218729
560	393720													9.338514	-0.046830	3.039746	0.310768	-0.688469	-0.655312	-0.005653	-0.690776	0.723047	-0.950469	-0.220996	-0.218563
561	393886													9.318092	-0.028459	3.043497	0.310667	-0.688336	-0.655500	-0.005520	-0.690918	0.722912	-0.950503	-0.220967	-0.218444
562	394053													9.350863	-0.030472	3.035074	0.310587	-0.688201	-0.655679	-0.005388	-0.691057	0.722781	-0.950530	-0.220954	-0.218341
563	394220													9.332443	-0.025753	3.057719	0.310583	-0.688087	-0.655800	-0.005234	-0.691147	0.722695	-0.950532	-0.221024	-0.218260
564	394386													9.327099	-0.007363	3.060658	0.310598	-0.688025	-0.655859	-0.005087	-0.691178	0.722667	-0.950528	-0.221122	-0.218179
565	394553													9.338210	-0.012166	3.050140	0.310602	-0.687995	-0.655887	-0.004982	-0.691184	0.722661	-0.950527	-0.221193	-0.218111
566	394720													9.337163	-0.014698	3.060443	0.310653	-0.687913	-0.655949	-0.004886	-0.691240	0.722609	-0.950511	-0.221276	-0.218097
567	394886													9.342338	-0.025298	3.027953	0.310714	-0.687812	-0.656027	-0.004813	-0.691319	0.722534	-0.950491	-0.221344	-0.218113
568	395053													9.349021	-0.019762	3.029748	0.310785	-0.687778	-0.656029	-0.004765	-0.691326	0.722527	-0.950468	-0.221425	-0.218131
569	395220													9.334785	-0.049341	3.030410	0.310854	-0.687783	-0.655991	-0.004755	-0.691301	0.722552	-0.950446	-0.221489	-0.218164
570	395386													9.326326	-0.041749	3.049951	0.310927	-0.687793	-0.655945	-0.004739	-0.691267	0.722584	-0.950422	-0.221563	-0.218193
571	395553													9.325955	-0.045196	3.067067	0.311019	-0.687794	-0.655901	-0.004741	-0.691243	0.722607	-0.950392	-0.221635	-0.218251
572	395720													9.324278	-0.049298	3.043259	0.311099	-0.687766	-0.655892	-0.004762	-0.691258	0.722592	-0.950366	-0.221674	-0.218325
573	395886													9.344286	-0.035544	3.037377	0.311194	-0.687736	-0.655879	-0.004765	-0.691268	0.722582	-0.950334	-0.221738	-0.218396
574	396053													9.355437	-0.063628	3.067746	0.311265	-0.687734	-0.655848	-0.004787	-0.691257	0.722593	-0.950311	-0.221778	-0.218456
575	396220													9.316113	-0.050163	3.059077	0.311336	-0.687680	-0.655870	-0.004813	-0.691304	0.722548	-0.950288	-0.221799	-0.218538
576	396386													9.312992	-0.044748	3.049860	0.311362	-0.687597	-0.655945	-0.004768	-0.691379	0.722477	-0.950279	-0.221824	-0.218548
577	396553													9.350105	-0.016465	3.053580	0.311440	-0.687624	-0.655880	-0.004774	-0.691330	0.722523	-0.950254	-0.221892	-0.218590
578	396720													9.388592	-0.026282	3.082562	0.311503	-0.687728	-0.655741	-0.004688	-0.691180	0.722668	-0.950234	-0.222039	-0.218528
579	396886													9.340456	-0.014841	3.089339	0.311612	-0.687761	-0.655654	-0.004524	-0.691076	0.722768	-0.950199	-0.222257	-0.218459
580	397053													9.317271	-0.040998	3.109852	0.311743	-0.687743	-0.655612	-0.004459	-0.691048	0.722795	-0.950156	-0.222403	-0.218496
581	397220													9.315701	-0.036685	3.103518	0.311819	-0.687701	-0.655619	-0.004372	-0.691054	0.722790	-0.950131	-0.222514	-0.218490
582	397386													9.309776	-0.041727	3.078689	0.311911	-0.687628	-0.655652	-0.004249	-0.691081	0.722764	-0.950102	-0.222653	-0.218478
583	397553													9.308356	-0.030466	3.079991	0.311969	-0.687581	-0.655673	-0.004097	-0.691082	0.722764	-0.950083	-0.222794	-0.218413
584	397720													9.317354	-0.062562	3.066018	0.312023	-0.687501	-0.655731	-0.003989	-0.691131	0.722718	-0.950066	-0.222889	-0.218391
585	397886													9.300775	-0.041942	3.045334	0.312113	-0.687415	-0.655779	-0.003911	-0.691185	0.722668	-0.950037	-0.222989	-0.218417
586	398053													9.322668	-0.028996	3.072581	0.312206	-0.687373	-0.655779	-0.003833	-0.691189	0.722664	-0.950007	-0.223106	-0.218428
587	398220													9.327428	-0.034593	3.078868	0.312299	-0.687370	-0.655737	-0.003784	-0.691156	0.722696	-0.949976	-0.223216	-0.218448
588	398386													9.343460	-0.039260	3.064452	0.312390	-0.687381	-0.655682	-0.003766	-0.691116	0.722734	-0.949946	-0.223306	-0.218486
589	398553													9.352908	-0.021092	3.072270	0.312438	-0.687393	-0.655647	-0.003768	-0.691091	0.722758	-0.949931	-0.223346	-0.218513
590	398720													9.349358	-0.014659	3.068042	0.312460	-0.687366	-0.655665	-0.003769	-0.691116	0.722734	-0.949923	-0.223354	-0.218537
591	398886													9.325515	-0.017180	3.059678	0.312454	-0.687330	-0.655706	-0.003755	-0.691154	0.722698	-0.949926	-0.223347	-0.218535
592	399053													9.319616	-0.016015	3.001447	0.312425	-0.687292	-0.655759	-0.003834	-0.691221	0.722633	-0.949935	-0.223254	-0.218590
593	399220													9.326560	-0.042482	3.065825	0.312475	-0.687275	-0.655753	-0.003895	-0.691241	0.722613	-0.949918	-0.223244	-0.218672
594	399386													9.323859	0.016075	3.038050	0.312437	-0.687261	-0.655786	-0.003741	-0.691231	0.722625	-0.949931	-0.223321	-0.218537
595	399553													9.319879	-0.019083	3.057464	0.312540	-0.687180	-0.655822	-0.003655	-0.691273	0.722584	-0.949898	-0.223440	-0.218562
596	399720													9.331618	-0.016573	3.090933	0.312531	-0.687145	-0.655863	-0.003692	-0.691322	0.722537	-0.949901	-0.223393	-0.218596
597	399886													9.343760	-0.011033	3.079712	0.312537	-0.687159	-0.655845	-0.003672	-0.691300	0.722558	-0.949898	-0.223418	-0.218580
598	400053													9.329645	-0.032665	3.108203	0.312594	-0.687247	-0.655726	-0.003639	-0.691182	0.722672	-0.949880	-0.223516	-0.218560
599	400220													9.320724	-0.041444	3.098140	0.312592	-0.687315	-0.655656	-0.003596	-0.691097	0.722753	-0.949881	-0.223569	-0.218503
600	400386													9.319803	-0.032844	3.060497	0.312646	-0.687240	-0.655708	-0.003525	-0.691149	0.722704	-0.949863	-0.223639	-0.218508
601	400553													9.332800	-0.021278	3.067992	0.312691	-0.687178	-0.655752	-0.003444	-0.691186	0.722669	-0.949849	-0.223714	-0.218494
602	400720													9.334846	-0.028034	3.026348	0.312779	-0.687125	-0.655766	-0.003353	-0.691201	0.722655	-0.949820	-0.223832	-0.218497
603	400886													9.317955	-0.012681	3.047830	0.312912	-0.687070	-0.655760	-0.003277	-0.691209	0.722648	-0.949777	-0.223976	-0.218539
604	401053													9.334827	-0.004012	3.078077	0.313004	-0.687068	-0.655718	-0.003192	-0.691167	0.722688	-0.949747	-0.224111	-0.218531
605	401220													9.353681	-0.004896	3.068282	0.313104	-0.687047	-0.655692	-0.003164	-0.691157	0.722697	-0.949714	-0.224205	-0.218578
606	401386													9.326298	-0.024733	3.085588	0.313218	-0.686998	-0.655689	-0.003161	-0.691181	0.722675	-0.949676	-0.224282	-0.218662
607	401553													9.327432	-0.025455	3.079390	0.313309	-0.686986	-0.655658	-0.003173	-0.691174	0.722682	-0.949646	-0.224342	-0.218731
608	401720													9.355004	-0.028896	3.096323	0.313390	-0.687000	-0.655605	-0.003162	-0.691134	0.722720	-0.949619	-0.224420	-0.218767
609	401886													9.332568	-0.037718	3.083731	0.313443	-0.687049	-0.655529	-0.003190	-0.691073	0.722778	-0.949602	-0.224458	-0.218803
610	402053													9.321732	-0.031871	3.060905	0.313492	-0.687080	-0.655473	-0.003213	-0.691032	0.722817	-0.949585	-0.224491	-0.218840
611	402220													9.305591	-0.040583	3.097064	0.313539	-0.687088	-0.655441	-0.003238	-0.691016	0.722832	-0.949570	-0.224514	-0.218885
612	402386													9.322790	-0.037611	3.092049	0.313626	-0.687083	-0.655405	-0.003247	-0.691001	0.722846	-0.949541	-0.224575	-0.218947
613	402553													9.318602	-0.032819	3.047833	0.313764	-0.687048	-0.655376	-0.003228	-0.691000	0.722848	-0.949496	-0.224688	-0.219028
614	402720													9.324188	-0.018897	3.089549	0.313859	-0.687025	-0.655354	-0.003215	-0.690997	0.722850	-0.949464	-0.224766	-0.219085
615	402886													9.326288	-0.029929	3.088406	0.313961	-0.686959	-0.655374	-0.003167	-0.691031	0.722818	-0.949430	-0.224862	-0.219133
616	403053													9.325926	-0.003008	3.114537	0.314020	-0.686894	-0.655414	-0.003101	-0.691072	0.722779	-0.949411	-0.224935	-0.219141
617	403220													9.323044	-0.014870	3.116328	0.314082	-0.686853	-0.655427	-0.003022	-0.691082	0.722770	-0.949391	-0.225028	-0.219132
618	403386													9.304097	-0.021225	3.082061	0.314143	-0.686783	-0.655472	-0.002935	-0.691124	0.722731	-0.949371	-0.225117	-0.219127
619	403553													9.292739	0.020967	3.071301	0.314201	-0.686738	-0.655491	-0.002850	-0.691138	0.722717	-0.949352	-0.225210	-0.219114
620	403720													9.346637	-0.013472	3.119051	0.314254	-0.686797	-0.655404	-0.002796	-0.691045	0.722806	-0.949335	-0.225312	-0.219084
621	403886													9.307423	-0.048855	3.077723	0.314251	-0.686807	-0.655395	-0.002761	-0.691028	0.722823	-0.949336	-0.225338	-0.219052
622	404053													9.298547	-0.024361	3.029831	0.314227	-0.686781	-0.655434	-0.002738	-0.691057	0.722795	-0.949344	-0.225327	-0.219029
623	404220													9.383935	-0.065598	3.096137	0.314287	-0.686844	-0.655339	-0.002745	-0.690973	0.722875	-0.949324	-0.225391	-0.219049
624	404386													9.305485	-0.022008	3.081217	0.314195	-0.686937	-0.655285	-0.002695	-0.690882	0.722962	-0.949355	-0.225385	-0.218923
625	404553													9.354285	-0.011659	3.099452	0.314249	-0.686939	-0.655258	-0.002517	-0.690825	0.723018	-0.949337	-0.225558	-0.218820
626	404720													9.328157	-0.022380	3.093173	0.314258	-0.686871	-0.655324	-0.002499	-0.690892	0.722953	-0.949334	-0.225556	-0.218834
627	404887													9.320175	0.000361	3.082343	0.314240	-0.686803	-0.655404	-0.002474	-0.690966	0.722883	-0.949340	-0.225537	-0.218828
628	405053													9.328840	0.037092	3.110878	0.314212	-0.686772	-0.655451	-0.002411	-0.690993	0.722857	-0.949350	-0.225550	-0.218774
629	405220													9.316506	0.004782	3.093946	0.314192	-0.686793	-0.655438	-0.002363	-0.690963	0.722886	-0.949357	-0.225576	-0.218718
630	405387													9.299812	-0.016887	3.078549	0.314125	-0.686780	-0.655484	-0.002329	-0.690988	0.722863	-0.949379	-0.225543	-0.218656
631	405553													9.293622	0.002979	3.079451	0.314169	-0.686794	-0.655448	-0.002354	-0.690966	0.722883	-0.949364	-0.225565	-0.218697
632	405720													9.308818	-0.017928	3.094789	0.314189	-0.686885	-0.655343	-0.002393	-0.690870	0.722975	-0.949357	-0.225583	-0.218708
633	405887													9.321237	-0.031850	3.062961	0.314239	-0.686964	-0.655236	-0.002436	-0.690780	0.723061	-0.949341	-0.225618	-0.218743
634	406053													9.328039	-0.029203	3.088656	0.314276	-0.687049	-0.655129	-0.002456	-0.690681	0.723155	-0.949328	-0.225661	-0.218752
635	406220													9.346349	-0.017173	3.091989	0.314262	-0.687084	-0.655099	-0.002505	-0.690658	0.723177	-0.949333	-0.225626	-0.218769
636	406387													9.344880	-0.008018	3.109777	0.314295	-0.687064	-0.655105	-0.002556	-0.690684	0.723152	-0.949322	-0.225609	-0.218834
637	406553													9.321059	-0.028088	3.108032	0.314363	-0.687046	-0.655091	-0.002596	-0.690695	0.723141	-0.949299	-0.225628	-0.218913
638	406720													9.284924	-0.012495	3.050493	0.314303	-0.687043	-0.655123	-0.002596	-0.690715	0.723123	-0.949319	-0.225579	-0.218877
639	406887													9.353873	-0.032891	3.031401	0.314324	-0.687072	-0.655082	-0.002690	-0.690698	0.723138	-0.949312	-0.225537	-0.218951
640	407053													9.304450	0.022900	3.055327	0.314198	-0.687130	-0.655081	-0.002666	-0.690662	0.723173	-0.949354	-0.225474	-0.218837
641	407220													9.323119	0.017509	3.064059	0.314247	-0.687050	-0.655142	-0.002529	-0.690705	0.723133	-0.949338	-0.225586	-0.218789
642	407387													9.330783	-0.018879	3.060436	0.314258	-0.687035	-0.655153	-0.002537	-0.690721	0.723117	-0.949334	-0.225583	-0.218808
643	407553													9.334620	-0.025277	3.091474	0.314282	-0.687035	-0.655141	-0.002552	-0.690718	0.723120	-0.949326	-0.225591	-0.218834
644	407720													9.325787	-0.013976	3.129439	0.314328	-0.687028	-0.655126	-0.002538	-0.690710	0.723128	-0.949311	-0.225637	-0.218853
645	407887													9.329774	-0.036048	3.115499	0.314292	-0.687148	-0.655018	-0.002520	-0.690583	0.723248	-0.949323	-0.225661	-0.218777
646	408053													9.323648	-0.031864	3.095247	0.314290	-0.687145	-0.655022	-0.002468	-0.690574	0.723257	-0.949324	-0.225696	-0.218736
647	408220													9.294595	-0.023953	3.069233	0.314339	-0.687063	-0.655084	-0.002406	-0.690637	0.723197	-0.949308	-0.225753	-0.218748
648	408387													9.339918	-0.013922	3.075455	0.314387	-0.686979	-0.655149	-0.002349	-0.690704	0.723134	-0.949292	-0.225805	-0.218762
649	408553													9.322453	0.005829	3.102617	0.314435	-0.686912	-0.655197	-0.002279	-0.690749	0.723091	-0.949276	-0.225871	-0.218761
650	408720													9.297728	0.003880	3.067377	0.314502	-0.686882	-0.655196	-0.002219	-0.690750	0.723091	-0.949254	-0.225960	-0.218766
651	408887													9.331186	0.009817	3.106208	0.314584	-0.686893	-0.655145	-0.002173	-0.690706	0.723133	-0.949227	-0.226063	-0.218777
652	409053													9.334033	-0.021114	3.082970	0.314645	-0.686899	-0.655109	-0.002125	-0.690671	0.723166	-0.949207	-0.226149	-0.218776
653	409220													9.337402	-0.019090	3.120420	0.314738	-0.686889	-0.655075	-0.002142	-0.690662	0.723174	-0.949176	-0.226207	-0.218849
654	409387													9.317926	-0.026446	3.104395	0.314783	-0.686890	-0.655053	-0.002158	-0.690653	0.723183	-0.949161	-0.226232	-0.218888
655	409553													9.338868	-0.027022	3.086020	0.314839	-0.686867	-0.655050	-0.002162	-0.690664	0.723172	-0.949143	-0.226267	-0.218933
656	409720													9.326759	-0.035161	3.086378	0.314873	-0.686847	-0.655055	-0.002195	-0.690686	0.723152	-0.949131	-0.226264	-0.218986
657	409887													9.322912	-0.026318	3.068304	0.314887	-0.686804	-0.655093	-0.002201	-0.690731	0.723109	-0.949127	-0.226256	-0.219013
658	410053													9.319242	-0.021765	3.077305	0.314939	-0.686775	-0.655098	-0.002236	-0.690758	0.723083	-0.949109	-0.226262	-0.219083
659	410220													9.304594	-0.018371	3.101891	0.315007	-0.686731	-0.655112	-0.002242	-0.690789	0.723053	-0.949087	-0.226298	-0.219143
660	410387													9.292411	-0.002904	3.088889	0.315071	-0.686695	-0.655119	-0.002242	-0.690813	0.723030	-0.949065	-0.226337	-0.219195
661	410553													9.328211	-0.003709	3.084808	0.315121	-0.686674	-0.655116	-0.002245	-0.690822	0.723021	-0.949049	-0.226368	-0.219234
662	410720													9.328905	0.004184	3.108397	0.315168	-0.686651	-0.655118	-0.002237	-0.690834	0.723010	-0.949033	-0.226404	-0.219265
663	410887													9.322207	0.005811	3.112252	0.315199	-0.686606	-0.655150	-0.002211	-0.690870	0.722976	-0.949023	-0.226432	-0.219279
664	411053													9.321377	0.008569	3.099288	0.315276	-0.686578	-0.655142	-0.002176	-0.690871	0.722974	-0.948997	-0.226511	-0.219309
665	411220													9.304208	-0.000998	3.109015	0.315327	-0.686584	-0.655112	-0.002143	-0.690844	0.723001	-0.948981	-0.226578	-0.219313
666	411387													9.312154	-0.001391	3.085444	0.315375	-0.686581	-0.655092	-0.002099	-0.690824	0.723020	-0.948965	-0.226647	-0.219310
667	411553													9.357712	-0.014487	3.120852	0.315462	-0.686650	-0.654977	-0.002118	-0.690729	0.723111	-0.948936	-0.226727	-0.219353
668	411720													9.298819	-0.044341	3.103672	0.315490	-0.686742	-0.654868	-0.002173	-0.690634	0.723201	-0.948927	-0.226739	-0.219380
669	411887													9.298360	-0.037597	3.075635	0.315448	-0.686766	-0.654862	-0.002227	-0.690631	0.723204	-0.948940	-0.226675	-0.219388
670	412053													9.368526	-0.051938	3.102063	0.315510	-0.686791	-0.654807	-0.002361	-0.690619	0.723215	-0.948919	-0.226635	-0.219518
671	412220													9.310359	-0.028204	3.089875	0.315388	-0.686916	-0.654734	-0.002435	-0.690530	0.723299	-0.948960	-0.226525	-0.219458
672	412387													9.365200	-0.001305	3.080724	0.315434	-0.686906	-0.654722	-0.002373	-0.690515	0.723315	-0.948945	-0.226604	-0.219442
673	412553													9.325844	-0.011905	3.103915	0.315464	-0.686903	-0.654711	-0.002431	-0.690523	0.723306	-0.948934	-0.226586	-0.219505
674	412720													9.314996	0.000268	3.097774	0.315423	-0.686905	-0.654729	-0.002545	-0.690560	0.723271	-0.948948	-0.226470	-0.219567
675	412887													9.326830	0.027471	3.093601	0.315326	-0.686899	-0.654781	-0.002562	-0.690596	0.723237	-0.948980	-0.226378	-0.219522
676	413053													9.307165	0.005997	3.094446	0.315240	-0.686973	-0.654745	-0.002601	-0.690546	0.723284	-0.949008	-0.226305	-0.219475
677	413220													9.313855	-0.021122	3.116067	0.315140	-0.687039	-0.654724	-0.002690	-0.690520	0.723308	-0.949041	-0.226182	-0.219458
678	413387													9.301101	-0.036654	3.102372	0.315077	-0.687112	-0.654678	-0.002797	-0.690482	0.723344	-0.949062	-0.226078	-0.219477
679	413553													9.277984	-0.029475	3.075481	0.315058	-0.687236	-0.654557	-0.002892	-0.690373	0.723448	-0.949068	-0.226035	-0.219494
680	413720													9.309014	-0.032737	3.108389	0.315016	-0.687361	-0.654446	-0.002935	-0.690256	0.723559	-0.949082	-0.226012	-0.219459
681	413887													9.337027	-0.043573	3.106937	0.314950	-0.687461	-0.654373	-0.002992	-0.690177	0.723635	-0.949104	-0.225950	-0.219428
682	414053													9.332088	-0.035883	3.086097	0.314870	-0.687508	-0.654361	-0.003072	-0.690164	0.723646	-0.949130	-0.225845	-0.219424
683	414220													9.332552	-0.034305	3.103511	0.314810	-0.687552	-0.654345	-0.003142	-0.690149	0.723661	-0.949149	-0.225760	-0.219426
684	414387													9.328587	-0.025626	3.109451	0.314780	-0.687533	-0.654379	-0.003193	-0.690189	0.723622	-0.949159	-0.225692	-0.219453
685	414553													9.292753	-0.014479	3.075482	0.314654	-0.687528	-0.654444	-0.003248	-0.690241	0.723573	-0.949201	-0.225550	-0.219420
686	414720													9.330756	-0.050247	3.054580	0.314565	-0.687567	-0.654447	-0.003371	-0.690250	0.723563	-0.949230	-0.225401	-0.219446
687	414887													9.286122	0.004575	3.072161	0.314431	-0.687594	-0.654482	-0.003417	-0.690267	0.723547	-0.949274	-0.225270	-0.219391
688	415053													9.322962	-0.011576	3.050616	0.314444	-0.687547	-0.654526	-0.003359	-0.690302	0.723513	-0.949270	-0.225306	-0.219371
689	415220													9.332356	-0.028220	3.084168	0.314429	-0.687557	-0.654523	-0.003428	-0.690311	0.723504	-0.949275	-0.225247	-0.219411
690	415387													9.335602	-0.025498	3.105476	0.314339	-0.687636	-0.654482	-0.003541	-0.690273	0.723540	-0.949304	-0.225120	-0.219415
691	415553													9.326603	-0.015220	3.100997	0.314302	-0.687762	-0.654368	-0.003625	-0.690164	0.723644	-0.949316	-0.225070	-0.219413
692	415720													9.334866	-0.030508	3.111020	0.314232	-0.688052	-0.654097	-0.003711	-0.689883	0.723912	-0.949339	-0.225049	-0.219337
693	415887													9.317661	-0.036960	3.071118	0.314184	-0.688248	-0.653914	-0.003766	-0.689691	0.724094	-0.949355	-0.225036	-0.219282
694	416053													9.304501	-0.003583	3.065028	0.314180	-0.688298	-0.653863	-0.003788	-0.689642	0.724141	-0.949356	-0.225034	-0.219279
695	416220													9.329935	-0.014866	3.049865	0.314210	-0.688353	-0.653791	-0.003820	-0.689581	0.724199	-0.949346	-0.225053	-0.219303
696	416387													9.327168	-0.002911	3.065156	0.314261	-0.688423	-0.653692	-0.003867	-0.689500	0.724275	-0.949329	-0.225084	-0.219345
697	416553													9.315723	-0.018189	3.040688	0.314368	-0.688540	-0.653517	-0.003933	-0.689358	0.724410	-0.949293	-0.225161	-0.219421
698	416720													9.324714	-0.005139	3.067549	0.314468	-0.688610	-0.653395	-0.004021	-0.689275	0.724489	-0.949259	-0.225201	-0.219524
699	416887													9.342677	-0.029557	3.080366	0.314582	-0.688709	-0.653237	-0.004148	-0.689166	0.724592	-0.949221	-0.225234	-0.219656
700	417053													9.336548	-0.045253	3.086206	0.314677	-0.688774	-0.653122	-0.004285	-0.689101	0.724652	-0.949189	-0.225233	-0.219796
701	417220													9.328181	-0.033627	3.071590	0.314749	-0.688815	-0.653044	-0.004406	-0.689066	0.724686	-0.949165	-0.225217	-0.219918
702	417387													9.334725	-0.039014	3.070778	0.314787	-0.688897	-0.652940	-0.004553	-0.689000	0.724747	-0.949151	-0.225168	-0.220024
703	417553													9.331185	-0.050149	3.103883	0.314832	-0.688969	-0.652842	-0.004698	-0.688942	0.724801	-0.949136	-0.225124	-0.220137
704	417720													9.314361	-0.034936	3.079762	0.314854	-0.689018	-0.652779	-0.004814	-0.688909	0.724832	-0.949128	-0.225074	-0.220223
705	417887													9.324804	-0.045579	3.070210	0.314896	-0.689017	-0.652760	-0.004936	-0.688928	0.724813	-0.949113	-0.225019	-0.220341
706	418053													9.336322	-0.063623	3.095436	0.314904	-0.689031	-0.652742	-0.005054	-0.688939	0.724802	-0.949110	-0.224944	-0.220432
707	418220													9.326252	-0.054856	3.072842	0.314959	-0.688985	-0.652764	-0.005167	-0.689002	0.724741	-0.949091	-0.224891	-0.220567
708	418387													9.318152	-0.034805	3.091251	0.315014	-0.688954	-0.652769	-0.005273	-0.689046	0.724698	-0.949072	-0.224848	-0.220692
709	418553													9.325385	-0.043053	3.103315	0.315102	-0.688939	-0.652743	-0.005365	-0.689062	0.724682	-0.949043	-0.224847	-0.220822
710	418720													9.318578	-0.043485	3.080974	0.315187	-0.688921	-0.652722	-0.005457	-0.689082	0.724662	-0.949014	-0.224842	-0.220949
711	418887													9.319764	-0.033752	3.112112	0.315300	-0.688924	-0.652663	-0.005543	-0.689069	0.724675	-0.948976	-0.224872	-0.221082
712	419053													9.290388	-0.042460	3.078070	0.315375	-0.688930	-0.652621	-0.005636	-0.689065	0.724678	-0.948951	-0.224867	-0.221196
713	419220													9.336064	-0.041355	3.106966	0.315433	-0.688949	-0.652573	-0.005694	-0.689042	0.724699	-0.948931	-0.224878	-0.221270
714	419387													9.349092	-0.059662	3.113406	0.315515	-0.689040	-0.652437	-0.005717	-0.688925	0.724810	-0.948903	-0.224959	-0.221306
715	419553													9.312748	-0.078373	3.102807	0.315568	-0.689056	-0.652394	-0.005735	-0.688897	0.724836	-0.948886	-0.224993	-0.221346
716	419720													9.275910	-0.060300	3.045258	0.315510	-0.689011	-0.652470	-0.005732	-0.688962	0.724775	-0.948905	-0.224934	-0.221324
717	419887													9.377910	-0.064897	3.104920	0.315541	-0.688983	-0.652485	-0.005726	-0.688984	0.724754	-0.948895	-0.224954	-0.221348
718	420053													9.364252	-0.037060	3.114137	0.315461	-0.689009	-0.652496	-0.005646	-0.688957	0.724780	-0.948922	-0.224956	-0.221229
719	420220													9.349572	-0.061829	3.134034	0.315479	-0.689010	-0.652486	-0.005501	-0.688916	0.724820	-0.948917	-0.225076	-0.221129
720	420387													9.290544	-0.059762	3.123323	0.315451	-0.688982	-0.652529	-0.005468	-0.688947	0.724791	-0.948926	-0.225069	-0.221096
721	420553													9.288627	-0.058575	3.128069	0.315376	-0.688933	-0.652618	-0.005419	-0.689010	0.724731	-0.948951	-0.225027	-0.221031
722	420720													9.297469	-0.030018	3.088578	0.315318	-0.688873	-0.652709	-0.005340	-0.689073	0.724672	-0.948971	-0.225017	-0.220955
723	420887													9.302658	-0.051948	3.093944	0.315226	-0.688839	-0.652789	-0.005278	-0.689120	0.724628	-0.949002	-0.224976	-0.220864
724	421053													9.296900	-0.044371	3.079605	0.315143	-0.688754	-0.652919	-0.005197	-0.689218	0.724536	-0.949030	-0.224938	-0.220782
725	421220													9.291119	-0.039889	3.092604	0.315120	-0.688703	-0.652984	-0.005105	-0.689258	0.724498	-0.949038	-0.224970	-0.220715
726	421387													9.312419	-0.040841	3.132658	0.315068	-0.688691	-0.653022	-0.005027	-0.689267	0.724490	-0.949056	-0.224981	-0.220628
727	421554													9.342798	-0.052731	3.108211	0.314991	-0.688692	-0.653057	-0.004947	-0.689266	0.724491	-0.949082	-0.224977	-0.220519
728	421720													9.363257	-0.042240	3.082854	0.314890	-0.688679	-0.653120	-0.004850	-0.689285	0.724474	-0.949116	-0.224962	-0.220389
729	421887													9.349498	-0.042155	3.088124	0.314798	-0.688618	-0.653228	-0.004781	-0.689360	0.724403	-0.949147	-0.224917	-0.220301
730	422054													9.360267	-0.040328	3.068799	0.314748	-0.688512	-0.653365	-0.004731	-0.689479	0.724290	-0.949164	-0.224878	-0.220269
731	422220													9.318198	-0.040062	3.070999	0.314699	-0.688379	-0.653528	-0.004672	-0.689625	0.724152	-0.949180	-0.224836	-0.220241
732	422387													9.328975	-0.034537	2.998802	0.314688	-0.688293	-0.653624	-0.004680	-0.689725	0.724056	-0.949184	-0.224793	-0.220270
733	422554													9.328824	-0.018552	3.089226	0.314584	-0.688284	-0.653683	-0.004655	-0.689756	0.724027	-0.949218	-0.224725	-0.220190
734	422720													9.344630	-0.002457	3.044133	0.314492	-0.688233	-0.653782	-0.004500	-0.689801	0.723985	-0.949249	-0.224746	-0.220034
735	422887													9.328321	-0.018159	3.050747	0.314587	-0.688134	-0.653840	-0.004474	-0.689879	0.723911	-0.949218	-0.224807	-0.220106
736	423054													9.344252	-0.029840	3.074269	0.314610	-0.688109	-0.653855	-0.004496	-0.689905	0.723885	-0.949210	-0.224802	-0.220144
737	423220													9.359936	-0.040783	3.089979	0.314652	-0.688100	-0.653844	-0.004477	-0.689901	0.723890	-0.949196	-0.224847	-0.220160
738	423387													9.336880	-0.045142	3.113239	0.314681	-0.688107	-0.653823	-0.004418	-0.689871	0.723918	-0.949187	-0.224915	-0.220130
739	423554													9.337609	-0.031750	3.080760	0.314696	-0.688041	-0.653885	-0.004330	-0.689919	0.723873	-0.949183	-0.224969	-0.220094
740	423720													9.318737	-0.045709	3.059693	0.314768	-0.687893	-0.654007	-0.004247	-0.690045	0.723754	-0.949159	-0.225037	-0.220126
741	423887													9.312034	-0.031513	3.055200	0.314886	-0.687736	-0.654114	-0.004146	-0.690163	0.723642	-0.949121	-0.225152	-0.220174
742	424054													9.318838	-0.030813	3.089975	0.315007	-0.687641	-0.654156	-0.004068	-0.690218	0.723590	-0.949081	-0.225275	-0.220221
743	424220													9.309991	-0.015403	3.082308	0.315168	-0.687549	-0.654176	-0.003942	-0.690248	0.723562	-0.949028	-0.225465	-0.220255
744	424387													9.315172	-0.000222	3.090054	0.315320	-0.687455	-0.654201	-0.003851	-0.690290	0.723522	-0.948978	-0.225622	-0.220309
745	424554													9.324320	-0.024528	3.103204	0.315515	-0.687318	-0.654251	-0.003777	-0.690372	0.723444	-0.948913	-0.225786	-0.220418
746	424720													9.304569	-0.045865	3.106415	0.315707	-0.687218	-0.654263	-0.003738	-0.690423	0.723396	-0.948849	-0.225936	-0.220540
747	424887													9.334699	-0.053618	3.097954	0.315905	-0.687124	-0.654266	-0.003700	-0.690466	0.723356	-0.948783	-0.226091	-0.220664
748	425054													9.334638	-0.040172	3.102564	0.316066	-0.687049	-0.654268	-0.003635	-0.690492	0.723331	-0.948730	-0.226242	-0.220739
749	425220													9.332524	-0.038176	3.096534	0.316180	-0.686992	-0.654272	-0.003580	-0.690511	0.723313	-0.948692	-0.226355	-0.220785
750	425387													9.331203	-0.058065	3.096303	0.316344	-0.686859	-0.654333	-0.003530	-0.690603	0.723226	-0.948638	-0.226478	-0.220893
751	425554													9.315369	-0.068451	3.105736	0.316547	-0.686697	-0.654405	-0.003496	-0.690721	0.723113	-0.948571	-0.226611	-0.221046
752	425720													9.306985	-0.034410	3.114363	0.316800	-0.686533	-0.654453	-0.003446	-0.690822	0.723017	-0.948486	-0.226796	-0.221219
753	425887													9.294837	-0.029357	3.120504	0.317006	-0.686374	-0.654521	-0.003434	-0.690941	0.722903	-0.948417	-0.226917	-0.221389
754	426054													9.316960	-0.024169	3.118255	0.317126	-0.686220	-0.654625	-0.003420	-0.691076	0.722774	-0.948377	-0.226972	-0.221505
755	426220													9.331594	-0.014180	3.126812	0.317280	-0.686093	-0.654683	-0.003431	-0.691179	0.722676	-0.948326	-0.227044	-0.221651
756	426387													9.326171	-0.037353	3.138554	0.317462	-0.685962	-0.654732	-0.003435	-0.691276	0.722583	-0.948265	-0.227143	-0.221810
757	426554													9.302295	-0.023030	3.081313	0.317615	-0.685837	-0.654788	-0.003382	-0.691360	0.722503	-0.948214	-0.227263	-0.221906
758	426720													9.367033	-0.000293	3.065984	0.317883	-0.685690	-0.654812	-0.003341	-0.691441	0.722425	-0.948124	-0.227459	-0.222089
759	426887													9.371956	-0.017284	3.112724	0.318154	-0.685626	-0.654748	-0.003290	-0.691429	0.722437	-0.948033	-0.227692	-0.222236
760	427054													9.343957	-0.001159	3.118076	0.318432	-0.685503	-0.654742	-0.003120	-0.691450	0.722417	-0.947941	-0.227998	-0.222319
761	427220													9.330594	-0.023274	3.141268	0.318715	-0.685315	-0.654801	-0.003017	-0.691557	0.722316	-0.947846	-0.228238	-0.222477
762	427387													9.320456	-0.016262	3.131748	0.319006	-0.685129	-0.654854	-0.002957	-0.691670	0.722207	-0.947748	-0.228452	-0.222673
763	427554													9.305157	-0.037443	3.134145	0.319305	-0.684906	-0.654942	-0.002850	-0.691811	0.722073	-0.947648	-0.228695	-0.222850
764	427720													9.287139	-0.032595	3.117283	0.319645	-0.684673	-0.655019	-0.002692	-0.691939	0.721951	-0.947534	-0.229004	-0.223018
765	427887													9.285346	-0.030442	3.116720	0.319958	-0.684427	-0.655124	-0.002560	-0.692095	0.721802	-0.947428	-0.229269	-0.223193
766	428054													9.286189	0.001914	3.106638	0.320303	-0.684180	-0.655213	-0.002441	-0.692246	0.721657	-0.947312	-0.229550	-0.223398
767	428220													9.283303	-0.027754	3.120066	0.320703	-0.684038	-0.655165	-0.002363	-0.692277	0.721628	-0.947177	-0.229880	-0.223631
768	428387													9.305293	-0.018208	3.158526	0.321118	-0.683952	-0.655051	-0.002287	-0.692241	0.721662	-0.947036	-0.230241	-0.223855
769	428554													9.309416	-0.031534	3.162119	0.321519	-0.683893	-0.654917	-0.002224	-0.692184	0.721718	-0.946901	-0.230590	-0.224071
770	428720													9.344618	-0.017753	3.146928	0.321939	-0.683788	-0.654820	-0.002156	-0.692171	0.721731	-0.946758	-0.230941	-0.224310
771	428887													9.331921	-0.017695	3.142194	0.322493	-0.683612	-0.654731	-0.002121	-0.692207	0.721696	-0.946569	-0.231354	-0.224682
772	429054													9.326719	-0.034386	3.156327	0.323042	-0.683476	-0.654603	-0.002070	-0.692197	0.721706	-0.946382	-0.231786	-0.225024
773	429220													9.301298	-0.015393	3.145227	0.323509	-0.683331	-0.654523	-0.002038	-0.692222	0.721682	-0.946223	-0.232137	-0.225332
774	429387													9.311852	-0.059702	3.146648	0.324061	-0.683241	-0.654344	-0.002010	-0.692165	0.721737	-0.946034	-0.232572	-0.225677
775	429554													9.312751	0.011510	3.149230	0.324414	-0.683187	-0.654226	-0.001883	-0.692098	0.721801	-0.945913	-0.232930	-0.225813
776	429720													9.296471	0.011946	3.129776	0.324965	-0.683076	-0.654068	-0.001724	-0.692031	0.721866	-0.945725	-0.233453	-0.226064
777	429887													9.303012	-0.022674	3.177047	0.325570	-0.682935	-0.653915	-0.001651	-0.692004	0.721892	-0.945516	-0.233947	-0.226423
778	430054													9.320662	-0.004462	3.204867	0.326144	-0.682883	-0.653683	-0.001642	-0.691902	0.721990	-0.945319	-0.234399	-0.226780
779	430220													9.309080	-0.006350	3.205308	0.326760	-0.682845	-0.653414	-0.001619	-0.691769	0.722117	-0.945106	-0.234901	-0.227148
780	430387													9.301832	-0.019742	3.228395	0.327418	-0.682759	-0.653175	-0.001573	-0.691671	0.722211	-0.944878	-0.235438	-0.227539
781	430554													9.268047	-0.015330	3.215556	0.328002	-0.682587	-0.653061	-0.001454	-0.691670	0.722212	-0.944676	-0.235937	-0.227862
782	430720													9.289929	-0.010349	3.218438	0.328658	-0.682395	-0.652933	-0.001330	-0.691671	0.722211	-0.944448	-0.236493	-0.228231
783	430887													9.278204	-0.012620	3.242854	0.329384	-0.682139	-0.652834	-0.001205	-0.691721	0.722164	-0.944195	-0.237082	-0.228664
784	431054													9.271555	-0.008745	3.215123	0.330083	-0.681918	-0.652713	-0.001083	-0.691741	0.722145	-0.943951	-0.237660	-0.229071
785	431220													9.281161	0.019974	3.231938	0.330877	-0.681706	-0.652531	-0.000947	-0.691719	0.722167	-0.943673	-0.238331	-0.229519
786	431387													9.266438	0.024440	3.251230	0.331669	-0.681549	-0.652293	-0.000826	-0.691641	0.722241	-0.943396	-0.239006	-0.229959
787	431554													9.281871	-0.002169	3.241938	0.332501	-0.681427	-0.651998	-0.000695	-0.691509	0.722367	-0.943103	-0.239734	-0.230401
788	431720													9.263058	-0.002366	3.295545	0.333399	-0.681240	-0.651734	-0.000631	-0.691446	0.722428	-0.942786	-0.240445	-0.230958
789	431887													9.266495	-0.001400	3.279558	0.334264	-0.681084	-0.651454	-0.000594	-0.691365	0.722506	-0.942479	-0.241121	-0.231503
790	432054													9.268634	-0.016620	3.267491	0.335136	-0.680916	-0.651181	-0.000545	-0.691291	0.722577	-0.942170	-0.241807	-0.232047
791	432220													9.263215	-0.019121	3.289500	0.336081	-0.680794	-0.650822	-0.000559	-0.691161	0.722701	-0.941833	-0.242522	-0.232667
792	432387													9.268266	-0.015016	3.282515	0.337104	-0.680601	-0.650494	-0.000574	-0.691085	0.722773	-0.941467	-0.243277	-0.233359
793	432554													9.238792	0.003737	3.297905	0.338132	-0.680414	-0.650156	-0.000599	-0.691003	0.722851	-0.941099	-0.244030	-0.234057
794	432720													9.260903	-0.002195	3.259233	0.339112	-0.680304	-0.649760	-0.000583	-0.690838	0.723009	-0.940746	-0.244802	-0.234669
795	432887													9.244736	-0.009751	3.314666	0.340117	-0.680184	-0.649361	-0.000611	-0.690688	0.723153	-0.940383	-0.245560	-0.235331
796	433054													9.267050	-0.002039	3.291747	0.341098	-0.680087	-0.648948	-0.000588	-0.690504	0.723328	-0.940028	-0.246344	-0.235930
797	433220													9.272846	-0.010893	3.330773	0.342175	-0.679934	-0.648541	-0.000550	-0.690350	0.723476	-0.939636	-0.247199	-0.236595
798	433387													9.244882	-0.010035	3.359426	0.343285	-0.679756	-0.648142	-0.000483	-0.690205	0.723614	-0.939231	-0.248093	-0.237265
799	433554													9.223571	0.010414	3.337944	0.344390	-0.679615	-0.647703	-0.000395	-0.690012	0.723798	-0.938827	-0.249013	-0.237901
800	433720													9.233181	-0.002985	3.381251	0.345510	-0.679481	-0.647246	-0.000272	-0.689795	0.724004	-0.938415	-0.249975	-0.238516
801	433887													9.203132	0.017279	3.348274	0.346623	-0.679313	-0.646827	-0.000142	-0.689616	0.724175	-0.938004	-0.250924	-0.239134
802	434054													9.218577	0.027295	3.396742	0.347797	-0.679143	-0.646376	-0.000033	-0.689425	0.724357	-0.937570	-0.251908	-0.239802
803	434220													9.255795	-0.015767	3.422958	0.349037	-0.679018	-0.645839	0.000035	-0.689173	0.724597	-0.937109	-0.252934	-0.240523
804	434387													9.198480	-0.008618	3.413192	0.350300	-0.678853	-0.645328	0.000098	-0.688957	0.724802	-0.936638	-0.253962	-0.241275
805	434554													9.188087	0.001643	3.403979	0.351508	-0.678622	-0.644914	0.000212	-0.688817	0.724935	-0.936185	-0.254957	-0.241981
806	434720													9.258536	-0.002660	3.477352	0.352678	-0.678482	-0.644423	0.000274	-0.688599	0.725142	-0.935745	-0.255918	-0.242668
807	434887													9.194411	0.029533	3.473181	0.353804	-0.678343	-0.643952	0.000425	-0.688366	0.725363	-0.935319	-0.256910	-0.243259
808	435054													9.212812	-0.024870	3.473189	0.355106	-0.678131	-0.643458	0.000604	-0.688152	0.725567	-0.934826	-0.258042	-0.243957
809	435220													9.166057	0.004787	3.532504	0.356326	-0.677849	-0.643081	0.000742	-0.688052	0.725661	-0.934362	-0.259049	-0.244667
810	435387													9.172163	0.019787	3.518560	0.357500	-0.677620	-0.642670	0.000880	-0.687903	0.725802	-0.933913	-0.260040	-0.245329
811	435554													9.161652	0.016721	3.512459	0.358746	-0.677389	-0.642219	0.001072	-0.687718	0.725977	-0.933435	-0.261130	-0.245990
812	435720													9.164007	0.015931	3.521093	0.360051	-0.677141	-0.641750	0.001248	-0.687534	0.726151	-0.932932	-0.262252	-0.246702
813	435887													9.159281	-0.006645	3.543743	0.361360	-0.676804	-0.641370	0.001393	-0.687458	0.726223	-0.932425	-0.263322	-0.247477
814	436054													9.153673	0.028662	3.552493	0.362795	-0.676435	-0.640949	0.001501	-0.687385	0.726292	-0.931868	-0.264457	-0.248364
815	436220													9.179875	0.017086	3.544758	0.364336	-0.676226	-0.640295	0.001566	-0.687106	0.726555	-0.931266	-0.265713	-0.249278
816	436387													9.190185	-0.000743	3.568581	0.365856	-0.676086	-0.639575	0.001638	-0.686751	0.726891	-0.930670	-0.266986	-0.250144
817	436554													9.164109	0.010449	3.583297	0.367417	-0.675831	-0.638950	0.001780	-0.686489	0.727138	-0.930054	-0.268300	-0.251025
818	436720													9.168941	0.019760	3.562154	0.368959	-0.675551	-0.638357	0.001874	-0.686273	0.727342	-0.929444	-0.269555	-0.251940
819	436887													9.181696	0.006404	3.574922	0.370495	-0.675197	-0.637843	0.002017	-0.686127	0.727479	-0.928832	-0.270814	-0.252845
820	437054													9.191971	0.020413	3.584738	0.372135	-0.674735	-0.637376	0.002192	-0.686054	0.727547	-0.928176	-0.272143	-0.253826
821	437220													9.138813	0.018461	3.561209	0.373734	-0.674354	-0.636843	0.002292	-0.685923	0.727670	-0.927533	-0.273415	-0.254808
822	437387													9.150201	0.005358	3.600142	0.375414	-0.673941	-0.636292	0.002391	-0.685798	0.727788	-0.926854	-0.274743	-0.255847
823	437554													9.118298	0.055231	3.600015	0.376867	-0.673652	-0.635739	0.002559	-0.685586	0.727988	-0.926264	-0.275981	-0.256651
824	437720													9.123830	0.031996	3.674816	0.378430	-0.673294	-0.635190	0.002813	-0.685384	0.728176	-0.925626	-0.277351	-0.257476
825	437887													9.113527	0.051197	3.694904	0.380056	-0.672978	-0.634553	0.002916	-0.685155	0.728391	-0.924959	-0.278680	-0.258435
826	438054													9.094996	0.037016	3.733200	0.381761	-0.672680	-0.633845	0.002984	-0.684885	0.728645	-0.924256	-0.280060	-0.259455
827	438221													9.097365	0.023880	3.758879	0.383589	-0.672321	-0.633122	0.003078	-0.684631	0.728883	-0.923499	-0.281541	-0.260547
828	438387													9.057083	0.013562	3.800133	0.385459	-0.671957	-0.632373	0.003164	-0.684365	0.729133	-0.922719	-0.283052	-0.261668
829	438554													9.020283	0.019906	3.810099	0.387265	-0.671537	-0.631715	0.003282	-0.684173	0.729312	-0.921963	-0.284510	-0.262753
830	438721													8.981896	0.015602	3.831198	0.389261	-0.670968	-0.631093	0.003471	-0.684057	0.729420	-0.921121	-0.286125	-0.263947
831	438887													9.033615	0.046466	3.919843	0.391224	-0.670256	-0.630636	0.003780	-0.684077	0.729400	-0.920288	-0.287742	-0.265093
832	439054													8.990550	0.058804	3.898065	0.393050	-0.669574	-0.630225	0.004015	-0.684130	0.729349	-0.919508	-0.289201	-0.266209
833	439221													8.971062	0.052062	3.890245	0.394948	-0.668837	-0.629820	0.004335	-0.684189	0.729292	-0.918693	-0.290762	-0.267320
834	439387													9.004879	0.063920	3.950047	0.396777	-0.668066	-0.629488	0.004614	-0.684320	0.729167	-0.917903	-0.292222	-0.268440
835	439554													8.997045	0.049738	3.969978	0.398386	-0.667342	-0.629240	0.004832	-0.684495	0.729002	-0.917205	-0.293465	-0.269468
836	439721													9.008386	0.063197	3.935459	0.399993	-0.666702	-0.628899	0.005003	-0.684584	0.728916	-0.916504	-0.294708	-0.270493
837	439887													8.984743	0.027264	3.949878	0.401661	-0.666118	-0.628455	0.005098	-0.684607	0.728894	-0.915774	-0.295973	-0.271584
838	440054													9.012273	0.008551	3.951532	0.403238	-0.665444	-0.628159	0.005334	-0.684720	0.728787	-0.915080	-0.297225	-0.272556
839	440221													9.017297	0.046635	3.948133	0.404864	-0.664571	-0.628037	0.005620	-0.685025	0.728498	-0.914360	-0.298472	-0.273607
840	440387													9.016031	0.034298	3.922364	0.406565	-0.663711	-0.627847	0.005855	-0.685300	0.728238	-0.913603	-0.299752	-0.274733
841	440554													8.991444	0.032258	3.942073	0.408306	-0.662772	-0.627710	0.006140	-0.685632	0.727923	-0.912824	-0.301070	-0.275879
842	440721													9.010884	0.047370	3.970809	0.409835	-0.661975	-0.627554	0.006342	-0.685903	0.727666	-0.912138	-0.302202	-0.276909
843	440887													9.021614	0.064306	3.979938	0.411255	-0.661224	-0.627417	0.006525	-0.686167	0.727415	-0.911497	-0.303247	-0.277875
844	441054													9.008775	0.064132	4.034630	0.412590	-0.660536	-0.627265	0.006666	-0.686401	0.727193	-0.910892	-0.304214	-0.278799
845	441221													8.970877	0.071027	4.014133	0.414059	-0.659758	-0.627116	0.006807	-0.686686	0.726922	-0.910224	-0.305258	-0.279838
846	441387													8.969798	0.076394	4.060854	0.415553	-0.658986	-0.626940	0.006973	-0.686943	0.726678	-0.909542	-0.306344	-0.280866
847	441554													8.916322	0.066037	4.084625	0.417011	-0.658100	-0.626902	0.007175	-0.687330	0.726309	-0.908873	-0.307377	-0.281902
848	441721													8.884188	0.100108	4.093661	0.418551	-0.657043	-0.626984	0.007457	-0.687855	0.725810	-0.908163	-0.308464	-0.283003
849	441887													8.924005	0.118139	4.144219	0.420091	-0.656148	-0.626891	0.007604	-0.688234	0.725449	-0.907450	-0.309522	-0.284132
850	442054													8.885263	0.078835	4.209167	0.421708	-0.655330	-0.626662	0.007617	-0.688537	0.725161	-0.906700	-0.310580	-0.285370
851	442221													8.840180	0.063991	4.063848	0.423333	-0.654545	-0.626387	0.007707	-0.688769	0.724940	-0.905942	-0.311719	-0.286533
852	442387													8.947062	0.056469	4.111180	0.425165	-0.653542	-0.626193	0.007933	-0.689120	0.724604	-0.905081	-0.313044	-0.287806
853	442554													8.931096	0.093681	4.153032	0.426908	-0.652480	-0.626114	0.008252	-0.689539	0.724202	-0.904257	-0.314334	-0.288985
854	442721													8.900277	0.096806	4.242023	0.428747	-0.651332	-0.626053	0.008675	-0.689978	0.723779	-0.903383	-0.315749	-0.290176
855	442887													8.881782	0.062844	4.251389	0.430548	-0.650179	-0.626016	0.009035	-0.690455	0.723319	-0.902523	-0.317080	-0.291399
856	443054													8.841831	0.085377	4.223254	0.432449	-0.648951	-0.625980	0.009390	-0.690975	0.722818	-0.901610	-0.318460	-0.292717
857	443221													8.844553	0.097704	4.201930	0.434303	-0.647741	-0.625949	0.009768	-0.691479	0.722330	-0.900714	-0.319824	-0.293984
858	443387													8.837012	0.125049	4.295475	0.436029	-0.646548	-0.625983	0.010092	-0.692032	0.721796	-0.899876	-0.321041	-0.295221
859	443554													8.812236	0.109602	4.275846	0.437706	-0.645458	-0.625937	0.010383	-0.692493	0.721350	-0.899058	-0.322238	-0.296407
860	443721													8.820115	0.099563	4.224895	0.439541	-0.644357	-0.625786	0.010619	-0.692917	0.720939	-0.898160	-0.323527	-0.297723
861	443887													8.789690	0.067713	4.292215	0.441379	-0.643180	-0.625702	0.010915	-0.693401	0.720470	-0.897254	-0.324830	-0.299032
862	444054													8.781797	0.083710	4.376682	0.443111	-0.641886	-0.625808	0.011298	-0.694028	0.719859	-0.896396	-0.326048	-0.300280
