// Start Time: Unknown
// Update Rate: 60.0Hz
//Filter Profile: human (46.1)
// Option Flags: AHS Disabled ICC Disabled
// Firmware Version: 4.0.2
0	sampleTimeFine	Year	Month	Day	Second	UTC_Nano	UTC_Year	UTC_Month	UTC_Day	UTC_Hour	UTC_Minute	UTC_Second	UTC_Valid	Acc_X	Acc_Y	Acc_Z	Mat[1][1]	Mat[2][1]	Mat[3][1]	Mat[1][2]	Mat[2][2]	Mat[3][2]	Mat[1][3]	Mat[2][3]	Mat[3][3]
0	299718													0.000000	0.000000	0.000000	-0.295351	-0.953226	0.064245	-0.038749	0.079141	0.996110	-0.954603	0.291713	-0.060311
1	299884													9.313643	-0.316055	-2.878544	-0.295356	-0.953235	0.064090	-0.038130	0.078791	0.996162	-0.954626	0.291779	-0.059618
2	300051													9.296449	-0.307958	-2.877667	-0.295355	-0.953192	0.064729	-0.037047	0.079127	0.996176	-0.954669	0.291827	-0.058684
3	300218													9.258937	-0.280099	-2.879283	-0.295368	-0.953214	0.064343	-0.035938	0.078386	0.996275	-0.954707	0.291956	-0.057409
4	300718													9.283852	-0.289555	-2.857819	-0.295570	-0.953142	0.064489	-0.034859	0.078220	0.996326	-0.954685	0.292236	-0.056345
5	300884													9.302530	-0.319441	-2.874620	-0.295577	-0.953109	0.064934	-0.034075	0.078446	0.996336	-0.954711	0.292282	-0.055664
6	301051													9.297767	-0.322120	-2.876200	-0.295506	-0.953130	0.064958	-0.033609	0.078325	0.996361	-0.954749	0.292248	-0.055180
7	301218													9.277822	-0.316187	-2.878768	-0.295462	-0.953167	0.064617	-0.033323	0.077878	0.996406	-0.954773	0.292247	-0.054772
8	301384													9.267394	-0.314038	-2.878836	-0.295453	-0.953158	0.064779	-0.033120	0.077985	0.996404	-0.954783	0.292246	-0.054610
9	301551													9.280230	-0.337251	-2.870042	-0.295503	-0.953114	0.065202	-0.033005	0.078394	0.996376	-0.954771	0.292280	-0.054623
10	301718													9.302311	-0.346956	-2.875357	-0.295568	-0.953080	0.065405	-0.033058	0.078627	0.996356	-0.954750	0.292329	-0.054747
11	301884													9.221601	-0.334551	-2.897200	-0.295621	-0.953085	0.065098	-0.033247	0.078366	0.996370	-0.954727	0.292384	-0.054854
12	302051													9.280647	-0.373986	-2.906291	-0.295871	-0.953024	0.064847	-0.033553	0.078213	0.996372	-0.954639	0.292621	-0.055118
13	302218													9.309930	-0.326540	-2.920580	-0.296069	-0.952971	0.064717	-0.033840	0.078177	0.996365	-0.954567	0.292803	-0.055394
14	302384													9.326391	-0.314678	-2.891954	-0.296216	-0.952949	0.064369	-0.033968	0.077862	0.996385	-0.954517	0.292959	-0.055434
15	302551													9.304676	-0.312060	-2.903741	-0.296264	-0.952945	0.064222	-0.034024	0.077728	0.996394	-0.954500	0.293010	-0.055451
16	302718													9.290629	-0.286401	-2.888939	-0.296266	-0.952953	0.064082	-0.034060	0.077592	0.996403	-0.954498	0.293018	-0.055445
17	302884													9.291462	-0.257912	-2.874824	-0.296230	-0.952950	0.064296	-0.034122	0.077834	0.996382	-0.954507	0.292964	-0.055573
18	303051													9.291274	-0.257600	-2.888067	-0.296116	-0.952971	0.064516	-0.034142	0.078062	0.996364	-0.954542	0.292836	-0.055652
19	303218													9.244608	-0.305814	-2.862322	-0.295946	-0.953008	0.064748	-0.034163	0.078302	0.996344	-0.954593	0.292652	-0.055731
20	303384													9.263781	-0.356533	-2.903702	-0.295817	-0.953031	0.064992	-0.034251	0.078576	0.996320	-0.954630	0.292502	-0.055886
21	303551													9.275660	-0.373754	-2.868087	-0.295649	-0.953078	0.065076	-0.034390	0.078696	0.996305	-0.954678	0.292318	-0.056043
22	303718													9.290825	-0.384830	-2.896342	-0.295495	-0.953122	0.065126	-0.034544	0.078785	0.996293	-0.954719	0.292150	-0.056205
23	303884													9.309511	-0.366332	-2.870668	-0.295311	-0.953185	0.065044	-0.034729	0.078745	0.996290	-0.954770	0.291956	-0.056357
24	304051													9.310406	-0.325945	-2.852255	-0.295124	-0.953270	0.064632	-0.034887	0.078351	0.996315	-0.954822	0.291782	-0.056380
25	304218													9.309927	-0.300543	-2.829246	-0.294944	-0.953363	0.064089	-0.034995	0.077806	0.996354	-0.954873	0.291626	-0.056312
26	304384													9.289696	-0.275243	-2.824717	-0.294715	-0.953446	0.063896	-0.035151	0.077637	0.996362	-0.954938	0.291397	-0.056395
27	304551													9.218522	-0.299497	-2.835546	-0.294622	-0.953478	0.063848	-0.035338	0.077639	0.996355	-0.954960	0.291292	-0.056568
28	304718													9.260244	-0.306472	-2.828256	-0.294605	-0.953475	0.063977	-0.035577	0.077845	0.996330	-0.954957	0.291248	-0.056855
29	304885													9.227670	-0.276491	-2.833447	-0.294701	-0.953444	0.064008	-0.035679	0.077914	0.996321	-0.954923	0.291333	-0.056979
30	305051													9.257014	-0.336053	-2.857165	-0.294876	-0.953375	0.064223	-0.035645	0.078139	0.996305	-0.954870	0.291497	-0.057025
31	305218													9.284780	-0.351412	-2.854766	-0.295063	-0.953302	0.064447	-0.035619	0.078377	0.996287	-0.954814	0.291672	-0.057082
32	305385													9.336072	-0.333045	-2.862342	-0.295188	-0.953260	0.064490	-0.035659	0.078443	0.996281	-0.954774	0.291790	-0.057148
33	305551													9.339348	-0.268165	-2.852069	-0.295202	-0.953247	0.064623	-0.035755	0.078612	0.996264	-0.954766	0.291789	-0.057289
34	305718													9.328311	-0.286165	-2.854325	-0.295092	-0.953271	0.064765	-0.035807	0.078770	0.996250	-0.954798	0.291666	-0.057379
35	305885													9.279806	-0.319348	-2.860096	-0.294925	-0.953309	0.064974	-0.035831	0.078984	0.996232	-0.954848	0.291486	-0.057452
36	306051													9.267130	-0.331572	-2.880363	-0.294790	-0.953349	0.064989	-0.035862	0.079002	0.996229	-0.954889	0.291348	-0.057478
37	306218													9.247003	-0.317764	-2.855630	-0.294715	-0.953364	0.065112	-0.035918	0.079142	0.996216	-0.954910	0.291261	-0.057567
38	306385													9.286255	-0.301871	-2.855355	-0.294735	-0.953358	0.065108	-0.036016	0.079169	0.996210	-0.954900	0.291274	-0.057670
39	306551													9.285040	-0.299997	-2.837556	-0.294753	-0.953355	0.065082	-0.036089	0.079165	0.996208	-0.954892	0.291287	-0.057740
40	306718													9.293983	-0.294182	-2.863705	-0.294753	-0.953335	0.065363	-0.036215	0.079498	0.996177	-0.954887	0.291259	-0.057957
41	306885													9.266919	-0.275575	-2.874273	-0.294795	-0.953325	0.065330	-0.036374	0.079514	0.996170	-0.954868	0.291289	-0.058116
42	307051													9.303074	-0.297910	-2.855912	-0.294847	-0.953313	0.065273	-0.036632	0.079536	0.996159	-0.954842	0.291323	-0.058373
43	307218													9.302356	-0.299583	-2.888535	-0.294857	-0.953321	0.065111	-0.036993	0.079478	0.996150	-0.954825	0.291313	-0.058701
44	307385													9.285259	-0.322597	-2.874172	-0.294842	-0.953331	0.065020	-0.037350	0.079490	0.996136	-0.954816	0.291274	-0.059044
45	307551													9.268123	-0.334194	-2.847259	-0.294841	-0.953342	0.064868	-0.037710	0.079441	0.996126	-0.954802	0.291253	-0.059373
46	307718													9.280675	-0.342102	-2.870580	-0.294860	-0.953362	0.064491	-0.037999	0.079137	0.996139	-0.954785	0.291271	-0.059562
47	307885													9.267929	-0.346809	-2.871059	-0.294910	-0.953366	0.064195	-0.038248	0.078907	0.996148	-0.954759	0.291318	-0.059735
48	308051													9.295055	-0.354342	-2.870398	-0.294935	-0.953384	0.063822	-0.038467	0.078586	0.996165	-0.954743	0.291349	-0.059851
49	308218													9.274708	-0.323821	-2.869333	-0.294924	-0.953403	0.063580	-0.038660	0.078391	0.996173	-0.954738	0.291338	-0.059978
50	308385													9.296948	-0.325857	-2.879269	-0.294903	-0.953420	0.063422	-0.038808	0.078270	0.996177	-0.954739	0.291314	-0.060083
51	308551													9.314826	-0.324872	-2.873447	-0.294848	-0.953441	0.063360	-0.039019	0.078266	0.996169	-0.954747	0.291246	-0.060279
52	308718													9.289248	-0.310036	-2.848435	-0.294746	-0.953470	0.063408	-0.039163	0.078354	0.996156	-0.954773	0.291130	-0.060435
53	308885													9.292392	-0.316553	-2.848342	-0.294600	-0.953502	0.063603	-0.039289	0.078585	0.996133	-0.954813	0.290962	-0.060613
54	309051													9.296887	-0.331831	-2.871388	-0.294428	-0.953539	0.063838	-0.039397	0.078853	0.996107	-0.954861	0.290767	-0.060783
55	309218													9.281507	-0.364544	-2.823784	-0.294287	-0.953567	0.064067	-0.039504	0.079115	0.996082	-0.954900	0.290604	-0.060952
56	309385													9.261934	-0.392834	-2.835736	-0.294214	-0.953582	0.064177	-0.039659	0.079273	0.996064	-0.954916	0.290510	-0.061141
57	309551													9.211236	-0.373101	-2.858099	-0.294171	-0.953585	0.064334	-0.039856	0.079494	0.996038	-0.954921	0.290441	-0.061391
58	309718													9.247621	-0.391210	-2.861374	-0.294348	-0.953544	0.064131	-0.040055	0.079353	0.996042	-0.954859	0.290614	-0.061551
59	309885													9.318646	-0.356595	-2.873414	-0.294484	-0.953514	0.063961	-0.040191	0.079227	0.996046	-0.954811	0.290749	-0.061654
60	310051													9.380853	-0.352585	-2.854278	-0.294531	-0.953506	0.063861	-0.040184	0.079124	0.996055	-0.954797	0.290803	-0.061620
61	310218													9.353827	-0.360578	-2.856810	-0.294359	-0.953556	0.063902	-0.040185	0.079154	0.996052	-0.954850	0.290629	-0.061618
62	310385													9.294850	-0.310928	-2.855262	-0.294113	-0.953636	0.063850	-0.040242	0.079101	0.996054	-0.954923	0.290383	-0.061640
63	310551													9.287280	-0.298786	-2.853352	-0.293840	-0.953724	0.063794	-0.040379	0.079066	0.996051	-0.955001	0.290103	-0.061744
64	310718													9.258062	-0.294208	-2.825707	-0.293625	-0.953787	0.063835	-0.040518	0.079137	0.996040	-0.955062	0.289876	-0.061882
65	310885													9.264234	-0.318437	-2.816620	-0.293411	-0.953857	0.063779	-0.040636	0.079100	0.996038	-0.955122	0.289657	-0.061970
66	311051													9.251635	-0.367887	-2.841361	-0.293180	-0.953907	0.064087	-0.040744	0.079439	0.996007	-0.955189	0.289398	-0.062156
67	311218													9.301828	-0.374320	-2.849800	-0.292964	-0.953977	0.064036	-0.040865	0.079407	0.996004	-0.955250	0.289176	-0.062248
68	311385													9.309884	-0.373242	-2.837769	-0.292751	-0.954048	0.063945	-0.040974	0.079330	0.996006	-0.955310	0.288962	-0.062315
69	311551													9.307323	-0.327938	-2.847634	-0.292585	-0.954108	0.063811	-0.041027	0.079195	0.996015	-0.955359	0.288801	-0.062316
70	311718													9.297760	-0.314195	-2.851146	-0.292425	-0.954160	0.063765	-0.041065	0.079147	0.996017	-0.955406	0.288642	-0.062328
71	311885													9.332953	-0.313691	-2.824960	-0.292325	-0.954184	0.063865	-0.041090	0.079253	0.996007	-0.955436	0.288534	-0.062374
72	312051													9.258733	-0.330061	-2.842979	-0.292149	-0.954214	0.064215	-0.041138	0.079620	0.995976	-0.955488	0.288332	-0.062515
73	312218													9.254964	-0.372673	-2.846997	-0.292142	-0.954208	0.064346	-0.041272	0.079797	0.995956	-0.955484	0.288305	-0.062694
74	312385													9.257552	-0.330774	-2.832045	-0.292190	-0.954193	0.064345	-0.041413	0.079842	0.995947	-0.955463	0.288341	-0.062845
75	312551													9.252857	-0.313104	-2.845223	-0.292319	-0.954159	0.064267	-0.041414	0.079770	0.995953	-0.955424	0.288474	-0.062834
76	312718													9.264737	-0.360121	-2.846772	-0.292520	-0.954093	0.064340	-0.041401	0.079856	0.995946	-0.955363	0.288670	-0.062860
77	312885													9.309093	-0.344860	-2.841354	-0.292733	-0.954035	0.064222	-0.041473	0.079769	0.995950	-0.955294	0.288884	-0.062918
78	313051													9.340053	-0.326965	-2.844831	-0.292868	-0.953988	0.064313	-0.041625	0.079920	0.995932	-0.955247	0.288999	-0.063116
79	313218													9.331619	-0.302823	-2.868243	-0.292917	-0.953972	0.064315	-0.041786	0.079974	0.995921	-0.955224	0.289034	-0.063289
80	313385													9.303166	-0.311609	-2.852898	-0.292900	-0.953984	0.064218	-0.041941	0.079918	0.995919	-0.955223	0.289011	-0.063419
81	313551													9.271839	-0.339826	-2.842105	-0.292841	-0.953997	0.064299	-0.042029	0.080025	0.995906	-0.955237	0.288940	-0.063530
82	313718													9.270999	-0.332501	-2.842520	-0.292797	-0.954013	0.064259	-0.042092	0.079999	0.995906	-0.955248	0.288894	-0.063580
83	313885													9.283992	-0.330084	-2.843264	-0.292779	-0.954022	0.064201	-0.042168	0.079960	0.995906	-0.955250	0.288873	-0.063640
84	314051													9.303750	-0.302243	-2.845313	-0.292751	-0.954030	0.064208	-0.042198	0.079975	0.995903	-0.955257	0.288842	-0.063671
85	314218													9.281331	-0.306478	-2.844054	-0.292678	-0.954039	0.064417	-0.042206	0.080190	0.995886	-0.955279	0.288755	-0.063736
86	314385													9.246559	-0.331457	-2.842645	-0.292658	-0.954035	0.064564	-0.042225	0.080349	0.995872	-0.955284	0.288724	-0.063798
87	314551													9.299119	-0.339586	-2.828683	-0.292675	-0.954008	0.064883	-0.042281	0.080699	0.995841	-0.955277	0.288714	-0.063955
88	314718													9.329308	-0.350479	-2.835332	-0.292647	-0.954012	0.064951	-0.042409	0.080807	0.995827	-0.955280	0.288672	-0.064106
89	314885													9.316216	-0.344739	-2.854750	-0.292601	-0.954023	0.064997	-0.042537	0.080890	0.995815	-0.955288	0.288611	-0.064250
90	315051													9.311345	-0.364223	-2.844286	-0.292490	-0.954049	0.065108	-0.042706	0.081049	0.995795	-0.955314	0.288480	-0.064450
91	315218													9.279712	-0.362811	-2.842920	-0.292386	-0.954090	0.064976	-0.042865	0.080953	0.995796	-0.955339	0.288372	-0.064567
92	315385													9.256201	-0.357051	-2.821841	-0.292342	-0.954120	0.064736	-0.043062	0.080758	0.995803	-0.955344	0.288327	-0.064696
93	315551													9.275022	-0.340377	-2.832941	-0.292336	-0.954141	0.064453	-0.043269	0.080525	0.995813	-0.955336	0.288323	-0.064825
94	315718													9.286529	-0.328309	-2.831668	-0.292410	-0.954130	0.064289	-0.043454	0.080415	0.995814	-0.955305	0.288392	-0.064975
95	315885													9.247338	-0.353718	-2.852718	-0.292480	-0.954131	0.063957	-0.043631	0.080126	0.995829	-0.955276	0.288469	-0.065065
96	316051													9.285179	-0.336032	-2.825408	-0.292663	-0.954088	0.063748	-0.043836	0.079983	0.995832	-0.955210	0.288648	-0.065232
97	316218													9.251381	-0.331180	-2.878711	-0.292864	-0.954037	0.063589	-0.044040	0.079894	0.995830	-0.955139	0.288842	-0.065414
98	316385													9.334558	-0.362335	-2.857189	-0.293137	-0.953954	0.063580	-0.044263	0.079971	0.995814	-0.955045	0.289095	-0.065668
99	316551													9.329145	-0.297440	-2.860492	-0.293345	-0.953890	0.063577	-0.044350	0.080009	0.995807	-0.954977	0.289295	-0.065775
100	316718													9.360612	-0.339343	-2.876061	-0.293429	-0.953846	0.063847	-0.044246	0.080266	0.995791	-0.954956	0.289369	-0.065756
101	316885													9.341311	-0.372394	-2.844862	-0.293330	-0.953856	0.064157	-0.044145	0.080552	0.995772	-0.954992	0.289257	-0.065736
102	317051													9.314064	-0.363677	-2.853456	-0.293125	-0.953912	0.064263	-0.044087	0.080630	0.995769	-0.955057	0.289052	-0.065690
103	317218													9.265128	-0.336663	-2.842103	-0.292907	-0.953972	0.064365	-0.044032	0.080705	0.995765	-0.955127	0.288832	-0.065644
104	317385													9.241523	-0.341321	-2.829927	-0.292683	-0.954037	0.064419	-0.043989	0.080731	0.995765	-0.955197	0.288610	-0.065596
105	317551													9.236510	-0.346470	-2.808027	-0.292537	-0.954079	0.064465	-0.043985	0.080769	0.995762	-0.955242	0.288462	-0.065593
106	317718													9.272320	-0.359813	-2.827170	-0.292426	-0.954122	0.064325	-0.043996	0.080617	0.995774	-0.955276	0.288360	-0.065553
107	317885													9.291627	-0.370953	-2.833372	-0.292360	-0.954165	0.063987	-0.044079	0.080285	0.995797	-0.955292	0.288310	-0.065531
108	318051													9.320814	-0.335955	-2.836922	-0.292289	-0.954203	0.063747	-0.044184	0.080061	0.995810	-0.955309	0.288247	-0.065562
109	318218													9.323383	-0.301195	-2.854786	-0.292277	-0.954214	0.063633	-0.044297	0.079976	0.995812	-0.955307	0.288234	-0.065644
110	318385													9.347402	-0.299243	-2.840507	-0.292262	-0.954221	0.063595	-0.044371	0.079956	0.995810	-0.955308	0.288216	-0.065708
111	318551													9.293836	-0.312410	-2.848456	-0.292189	-0.954235	0.063724	-0.044430	0.080104	0.995796	-0.955328	0.288130	-0.065803
112	318718													9.227259	-0.370788	-2.855044	-0.292265	-0.954223	0.063556	-0.044548	0.079970	0.995801	-0.955299	0.288207	-0.065881
113	318885													9.283847	-0.341758	-2.841495	-0.292369	-0.954198	0.063462	-0.044678	0.079918	0.995800	-0.955261	0.288306	-0.065997
114	319051													9.247761	-0.285149	-2.826888	-0.292520	-0.954147	0.063531	-0.044648	0.079992	0.995795	-0.955216	0.288454	-0.066000
115	319218													9.273245	-0.324205	-2.859965	-0.292711	-0.954068	0.063833	-0.044504	0.080277	0.995779	-0.955165	0.288634	-0.065958
116	319385													9.312530	-0.334987	-2.857096	-0.292911	-0.953997	0.063973	-0.044370	0.080398	0.995775	-0.955110	0.288835	-0.065878
117	319551													9.334692	-0.345558	-2.866258	-0.293013	-0.953969	0.063933	-0.044331	0.080351	0.995780	-0.955080	0.288942	-0.065834
118	319718													9.326390	-0.308694	-2.872750	-0.292987	-0.953966	0.064090	-0.044462	0.080553	0.995758	-0.955082	0.288895	-0.066016
119	319885													9.303446	-0.299822	-2.851911	-0.292915	-0.953988	0.064098	-0.044520	0.080574	0.995754	-0.955102	0.288817	-0.066072
120	320051													9.290952	-0.332082	-2.832676	-0.292784	-0.954024	0.064159	-0.044549	0.080636	0.995748	-0.955140	0.288681	-0.066109
121	320218													9.287847	-0.357242	-2.864560	-0.292637	-0.954061	0.064277	-0.044493	0.080732	0.995742	-0.955188	0.288531	-0.066074
122	320385													9.290153	-0.358726	-2.839748	-0.292489	-0.954106	0.064274	-0.044428	0.080699	0.995748	-0.955236	0.288390	-0.065993
123	320551													9.287460	-0.326522	-2.859389	-0.292298	-0.954155	0.064416	-0.044351	0.080810	0.995742	-0.955298	0.288196	-0.065939
124	320718													9.272129	-0.275883	-2.830042	-0.292095	-0.954202	0.064644	-0.044248	0.081002	0.995731	-0.955365	0.287988	-0.065882
125	320885													9.270330	-0.279123	-2.842470	-0.291951	-0.954225	0.064962	-0.044094	0.081278	0.995716	-0.955416	0.287835	-0.065805
126	321051													9.303310	-0.309202	-2.832009	-0.291856	-0.954238	0.065193	-0.043989	0.081480	0.995704	-0.955450	0.287735	-0.065757
127	321218													9.312234	-0.330073	-2.827844	-0.291785	-0.954256	0.065254	-0.044039	0.081553	0.995696	-0.955470	0.287655	-0.065820
128	321385													9.301912	-0.320975	-2.853105	-0.291699	-0.954281	0.065262	-0.044111	0.081578	0.995690	-0.955492	0.287563	-0.065890
129	321552													9.287931	-0.327323	-2.807184	-0.291662	-0.954277	0.065492	-0.044171	0.081832	0.995667	-0.955501	0.287505	-0.066019
130	321718													9.290008	-0.361308	-2.827460	-0.291635	-0.954281	0.065553	-0.044224	0.081910	0.995658	-0.955507	0.287470	-0.066090
131	321885													9.277430	-0.336797	-2.822100	-0.291660	-0.954282	0.065426	-0.044246	0.081786	0.995667	-0.955498	0.287501	-0.066077
132	322052													9.288980	-0.310844	-2.821042	-0.291643	-0.954301	0.065227	-0.044275	0.081587	0.995682	-0.955502	0.287496	-0.066046
133	322218													9.301451	-0.308741	-2.837627	-0.291650	-0.954305	0.065137	-0.044335	0.081510	0.995686	-0.955497	0.287504	-0.066081
134	322385													9.298886	-0.315371	-2.803925	-0.291681	-0.954296	0.065128	-0.044407	0.081525	0.995681	-0.955484	0.287529	-0.066157
135	322552													9.304913	-0.329923	-2.846143	-0.291734	-0.954280	0.065122	-0.044498	0.081551	0.995675	-0.955464	0.287575	-0.066254
136	322718													9.286843	-0.332386	-2.821470	-0.291733	-0.954284	0.065065	-0.044670	0.081542	0.995668	-0.955456	0.287563	-0.066416
137	322885													9.207049	-0.365320	-2.834885	-0.291863	-0.954242	0.065098	-0.044786	0.081621	0.995657	-0.955411	0.287680	-0.066559
138	323052													9.303747	-0.365338	-2.853915	-0.292072	-0.954193	0.064888	-0.044962	0.081471	0.995661	-0.955339	0.287887	-0.066698
139	323218													9.328623	-0.308963	-2.839762	-0.292235	-0.954140	0.064927	-0.044934	0.081515	0.995659	-0.955290	0.288049	-0.066695
140	323385													9.344032	-0.321326	-2.838758	-0.292266	-0.954116	0.065133	-0.044752	0.081677	0.995654	-0.955289	0.288081	-0.066570
141	323552													9.357028	-0.350654	-2.845456	-0.292187	-0.954123	0.065386	-0.044568	0.081880	0.995645	-0.955322	0.288000	-0.066448
142	323718													9.335257	-0.314273	-2.834964	-0.292031	-0.954157	0.065594	-0.044409	0.082037	0.995639	-0.955377	0.287844	-0.066331
143	323885													9.298728	-0.290565	-2.827913	-0.291769	-0.954213	0.065942	-0.044272	0.082340	0.995620	-0.955464	0.287571	-0.066269
144	324052													9.263034	-0.298520	-2.807356	-0.291524	-0.954269	0.066211	-0.044141	0.082564	0.995608	-0.955545	0.287321	-0.066192
145	324218													9.247734	-0.329125	-2.805344	-0.291323	-0.954315	0.066437	-0.044086	0.082769	0.995593	-0.955608	0.287110	-0.066184
146	324385													9.258901	-0.341642	-2.827163	-0.291200	-0.954345	0.066553	-0.044062	0.082873	0.995586	-0.955647	0.286982	-0.066182
147	324552													9.295278	-0.351530	-2.812558	-0.291124	-0.954358	0.066689	-0.044154	0.083037	0.995568	-0.955666	0.286889	-0.066313
148	324718													9.328206	-0.328289	-2.827909	-0.291057	-0.954387	0.066566	-0.044264	0.082938	0.995571	-0.955681	0.286821	-0.066385
149	324885													9.320738	-0.306122	-2.827040	-0.290964	-0.954419	0.066518	-0.044373	0.082914	0.995568	-0.955705	0.286723	-0.066476
150	325052													9.297963	-0.302758	-2.810571	-0.290889	-0.954464	0.066196	-0.044471	0.082602	0.995590	-0.955723	0.286662	-0.066474
151	325218													9.342345	-0.311339	-2.836107	-0.290840	-0.954487	0.066080	-0.044595	0.082514	0.995592	-0.955732	0.286611	-0.066564
152	325385													9.259375	-0.320403	-2.814134	-0.290725	-0.954522	0.066083	-0.044702	0.082541	0.995585	-0.955762	0.286488	-0.066665
153	325552													9.255835	-0.364395	-2.834286	-0.290801	-0.954509	0.065938	-0.044833	0.082435	0.995588	-0.955733	0.286562	-0.066766
154	325718													9.241830	-0.313700	-2.830722	-0.290846	-0.954493	0.065971	-0.044940	0.082504	0.995577	-0.955714	0.286595	-0.066891
155	325885													9.236443	-0.287910	-2.833229	-0.291009	-0.954444	0.065961	-0.044801	0.082463	0.995587	-0.955671	0.286769	-0.066757
156	326052													9.272937	-0.329021	-2.859084	-0.291243	-0.954357	0.066179	-0.044600	0.082648	0.995580	-0.955609	0.287005	-0.066635
157	326218													9.334627	-0.340398	-2.845556	-0.291436	-0.954302	0.066130	-0.044456	0.082568	0.995593	-0.955557	0.287212	-0.066488
158	326385													9.371472	-0.311162	-2.842863	-0.291488	-0.954284	0.066156	-0.044443	0.082595	0.995592	-0.955542	0.287263	-0.066487
159	326552													9.338937	-0.297118	-2.826223	-0.291395	-0.954309	0.066209	-0.044448	0.082645	0.995587	-0.955570	0.287167	-0.066499
160	326718													9.295485	-0.312116	-2.828559	-0.291253	-0.954335	0.066461	-0.044404	0.082884	0.995569	-0.955615	0.287011	-0.066516
161	326885													9.260159	-0.348706	-2.834462	-0.291098	-0.954366	0.066694	-0.044341	0.083097	0.995554	-0.955665	0.286847	-0.066507
162	327052													9.263761	-0.348376	-2.829839	-0.291002	-0.954390	0.066766	-0.044257	0.083140	0.995555	-0.955698	0.286753	-0.066433
163	327218													9.288763	-0.335176	-2.824199	-0.290966	-0.954393	0.066880	-0.044137	0.083221	0.995553	-0.955715	0.286720	-0.066339
164	327385													9.295782	-0.299114	-2.819450	-0.290892	-0.954412	0.066931	-0.043980	0.083221	0.995560	-0.955745	0.286657	-0.066183
165	327552													9.283992	-0.286393	-2.813889	-0.290860	-0.954416	0.067003	-0.043833	0.083250	0.995564	-0.955761	0.286633	-0.066049
166	327718													9.286341	-0.282950	-2.791723	-0.290849	-0.954405	0.067210	-0.043685	0.083421	0.995556	-0.955771	0.286620	-0.065956
167	327885													9.296671	-0.299278	-2.833139	-0.290907	-0.954377	0.067363	-0.043675	0.083581	0.995543	-0.955754	0.286669	-0.065997
168	328052													9.334538	-0.315618	-2.808286	-0.290916	-0.954364	0.067505	-0.043761	0.083756	0.995525	-0.955747	0.286660	-0.066130
169	328218													9.308391	-0.319849	-2.798815	-0.290919	-0.954357	0.067592	-0.043907	0.083891	0.995507	-0.955740	0.286644	-0.066309
170	328385													9.288221	-0.349816	-2.796011	-0.290909	-0.954361	0.067586	-0.044079	0.083935	0.995496	-0.955735	0.286620	-0.066485
171	328552													9.279193	-0.362800	-2.811733	-0.290929	-0.954356	0.067563	-0.044210	0.083952	0.995489	-0.955723	0.286630	-0.066616
172	328718													9.268922	-0.363619	-2.830953	-0.291010	-0.954345	0.067371	-0.044312	0.083788	0.995498	-0.955693	0.286715	-0.066673
173	328885													9.291342	-0.353831	-2.818260	-0.291135	-0.954325	0.067117	-0.044402	0.083560	0.995513	-0.955651	0.286849	-0.066701
174	329052													9.285325	-0.328150	-2.840463	-0.291264	-0.954302	0.066889	-0.044475	0.083352	0.995527	-0.955608	0.286986	-0.066720
175	329218													9.279254	-0.304411	-2.831921	-0.291389	-0.954271	0.066773	-0.044504	0.083250	0.995534	-0.955569	0.287116	-0.066727
176	329385													9.314476	-0.296292	-2.822375	-0.291472	-0.954252	0.066690	-0.044498	0.083168	0.995542	-0.955544	0.287205	-0.066704
177	329552													9.311800	-0.302479	-2.838775	-0.291513	-0.954231	0.066814	-0.044492	0.083298	0.995531	-0.955531	0.287238	-0.066738
178	329718													9.316560	-0.308838	-2.862303	-0.291475	-0.954232	0.066957	-0.044507	0.083449	0.995518	-0.955543	0.287188	-0.066793
179	330218													9.290687	-0.325024	-2.857898	-0.291398	-0.954244	0.067125	-0.044473	0.083608	0.995506	-0.955568	0.287103	-0.066801
180	330385													9.286144	-0.306892	-2.850670	-0.291355	-0.954243	0.067324	-0.044414	0.083795	0.995493	-0.955584	0.287051	-0.066796
181	330552													9.310574	-0.329573	-2.831931	-0.291294	-0.954251	0.067476	-0.044327	0.083923	0.995486	-0.955606	0.286988	-0.066746
182	330718													9.318885	-0.321351	-2.839312	-0.291157	-0.954285	0.067580	-0.044231	0.083993	0.995484	-0.955652	0.286853	-0.066664
183	330885													9.287199	-0.310125	-2.820186	-0.291025	-0.954313	0.067765	-0.044089	0.084133	0.995479	-0.955699	0.286721	-0.066559
184	331052													9.281906	-0.294823	-2.836344	-0.290909	-0.954332	0.067987	-0.043987	0.084326	0.995467	-0.955739	0.286599	-0.066510
185	331218													9.283870	-0.293828	-2.803103	-0.290844	-0.954347	0.068059	-0.043896	0.084369	0.995467	-0.955763	0.286539	-0.066430
186	331385													9.296211	-0.324430	-2.816993	-0.290822	-0.954356	0.068032	-0.043907	0.084343	0.995469	-0.955769	0.286517	-0.066431
187	331552													9.242247	-0.335795	-2.813903	-0.290788	-0.954362	0.068087	-0.044010	0.084429	0.995457	-0.955775	0.286470	-0.066553
188	331718													9.274497	-0.381545	-2.847336	-0.290901	-0.954338	0.067932	-0.044181	0.084326	0.995458	-0.955733	0.286579	-0.066694
189	331885													9.307841	-0.308803	-2.838056	-0.290977	-0.954324	0.067816	-0.044318	0.084252	0.995458	-0.955703	0.286650	-0.066809
190	332052													9.324617	-0.338320	-2.825015	-0.290992	-0.954321	0.067782	-0.044237	0.084193	0.995467	-0.955702	0.286675	-0.066716
191	332218													9.335367	-0.332741	-2.833104	-0.290933	-0.954341	0.067759	-0.044141	0.084137	0.995476	-0.955725	0.286626	-0.066604
192	332385													9.338386	-0.323393	-2.825779	-0.290795	-0.954391	0.067644	-0.044015	0.083968	0.995496	-0.955772	0.286508	-0.066425
193	332552													9.316407	-0.275609	-2.791757	-0.290559	-0.954472	0.067521	-0.043959	0.083807	0.995512	-0.955847	0.286287	-0.066309
194	332718													9.297374	-0.267453	-2.791242	-0.290320	-0.954529	0.067741	-0.043857	0.083988	0.995501	-0.955924	0.286043	-0.066246
195	332885													9.278497	-0.303542	-2.787637	-0.290055	-0.954592	0.067990	-0.043714	0.084186	0.995491	-0.956011	0.285775	-0.066148
196	333052													9.281651	-0.353770	-2.806867	-0.289788	-0.954652	0.068289	-0.043652	0.084460	0.995470	-0.956095	0.285494	-0.066148
197	333218													9.283401	-0.374966	-2.785642	-0.289603	-0.954703	0.068359	-0.043661	0.084522	0.995465	-0.956151	0.285305	-0.066161
198	333385													9.292873	-0.345729	-2.808403	-0.289459	-0.954744	0.068390	-0.043703	0.084556	0.995460	-0.956192	0.285156	-0.066201
199	333552													9.283044	-0.339260	-2.798583	-0.289360	-0.954788	0.068200	-0.043705	0.084352	0.995477	-0.956222	0.285071	-0.066137
200	333718													9.297971	-0.339940	-2.802370	-0.289321	-0.954808	0.068081	-0.043648	0.084208	0.995492	-0.956237	0.285045	-0.066039
201	333885													9.296104	-0.314942	-2.797756	-0.289372	-0.954806	0.067898	-0.043572	0.083998	0.995513	-0.956225	0.285115	-0.065910
202	334052													9.324478	-0.312346	-2.780430	-0.289440	-0.954792	0.067807	-0.043467	0.083877	0.995528	-0.956209	0.285198	-0.065779
203	334218													9.244617	-0.321283	-2.802570	-0.289537	-0.954760	0.067834	-0.043367	0.083882	0.995532	-0.956184	0.285302	-0.065692
204	334385													9.262867	-0.328960	-2.796579	-0.289812	-0.954684	0.067728	-0.043377	0.083794	0.995538	-0.956100	0.285581	-0.065696
205	334552													9.239366	-0.282057	-2.795221	-0.290118	-0.954601	0.067594	-0.043356	0.083670	0.995550	-0.956008	0.285897	-0.065662
206	334718													9.270549	-0.269155	-2.828282	-0.290523	-0.954471	0.067683	-0.043130	0.083724	0.995555	-0.955896	0.286312	-0.065490
207	334885													9.330939	-0.336376	-2.861763	-0.290895	-0.954346	0.067850	-0.042877	0.083849	0.995556	-0.955794	0.286693	-0.065311
208	335052													9.344063	-0.344830	-2.855332	-0.291187	-0.954249	0.067959	-0.042769	0.083952	0.995552	-0.955710	0.286985	-0.065258
209	335218													9.342667	-0.295050	-2.848816	-0.291365	-0.954191	0.068016	-0.042757	0.084019	0.995546	-0.955656	0.287159	-0.065279
210	335385													9.346129	-0.286335	-2.849535	-0.291460	-0.954163	0.067995	-0.042772	0.084009	0.995547	-0.955626	0.287254	-0.065297
211	335552													9.303403	-0.297498	-2.828662	-0.291445	-0.954163	0.068067	-0.042696	0.084061	0.995546	-0.955634	0.287240	-0.065238
212	335718													9.289771	-0.337741	-2.848860	-0.291384	-0.954178	0.068121	-0.042612	0.084088	0.995547	-0.955657	0.287184	-0.065161
213	335885													9.266853	-0.316738	-2.818992	-0.291320	-0.954200	0.068085	-0.042514	0.084016	0.995557	-0.955680	0.287131	-0.065042
214	336052													9.266095	-0.281508	-2.830930	-0.291306	-0.954201	0.068132	-0.042397	0.084029	0.995561	-0.955690	0.287124	-0.064934
215	336218													9.287693	-0.289776	-2.839226	-0.291317	-0.954191	0.068219	-0.042238	0.084072	0.995564	-0.955694	0.287143	-0.064795
216	336385													9.288347	-0.246926	-2.812719	-0.291346	-0.954181	0.068244	-0.042031	0.084038	0.995576	-0.955694	0.287188	-0.064589
217	336552													9.287575	-0.255785	-2.830951	-0.291387	-0.954159	0.068374	-0.041836	0.084119	0.995577	-0.955690	0.287237	-0.064430
218	336718													9.283972	-0.282316	-2.841797	-0.291465	-0.954120	0.068584	-0.041747	0.084316	0.995564	-0.955670	0.287309	-0.064407
219	336885													9.309834	-0.287729	-2.833697	-0.291576	-0.954078	0.068700	-0.041721	0.084437	0.995555	-0.955638	0.287413	-0.064425
220	337052													9.283251	-0.315796	-2.854025	-0.291675	-0.954038	0.068833	-0.041766	0.084597	0.995540	-0.955605	0.287499	-0.064521
221	337218													9.281448	-0.340464	-2.855713	-0.291807	-0.953995	0.068857	-0.041819	0.084647	0.995533	-0.955563	0.287624	-0.064595
222	337385													9.288176	-0.354170	-2.850601	-0.291945	-0.953965	0.068689	-0.041902	0.084506	0.995541	-0.955517	0.287765	-0.064645
223	337552													9.281875	-0.349392	-2.856508	-0.292070	-0.953943	0.068464	-0.042002	0.084310	0.995554	-0.955474	0.287895	-0.064691
224	337718													9.288628	-0.321993	-2.860435	-0.292181	-0.953926	0.068226	-0.042070	0.084090	0.995570	-0.955437	0.288016	-0.064702
225	337885													9.297483	-0.311269	-2.854868	-0.292225	-0.953930	0.067983	-0.042104	0.083850	0.995588	-0.955422	0.288073	-0.064668
226	338052													9.306475	-0.294983	-2.865332	-0.292232	-0.953942	0.067792	-0.042109	0.083652	0.995605	-0.955420	0.288093	-0.064615
227	338219													9.308320	-0.284616	-2.855355	-0.292196	-0.953959	0.067699	-0.042107	0.083553	0.995613	-0.955431	0.288064	-0.064582
228	338385													9.285751	-0.301242	-2.842706	-0.292119	-0.953985	0.067665	-0.042123	0.083516	0.995616	-0.955454	0.287988	-0.064581
229	338552													9.279250	-0.303387	-2.845066	-0.292060	-0.954001	0.067706	-0.042122	0.083554	0.995613	-0.955472	0.287926	-0.064587
230	338719													9.280111	-0.316755	-2.853077	-0.292042	-0.953995	0.067852	-0.042061	0.083688	0.995604	-0.955480	0.287905	-0.064566
231	338885													9.296612	-0.320493	-2.844444	-0.292042	-0.953985	0.068006	-0.041991	0.083826	0.995595	-0.955483	0.287900	-0.064540
232	339052													9.289896	-0.330281	-2.839290	-0.292009	-0.953987	0.068113	-0.041836	0.083890	0.995596	-0.955500	0.287873	-0.064407
233	339219													9.274404	-0.327305	-2.855376	-0.291972	-0.953989	0.068238	-0.041667	0.083967	0.995597	-0.955519	0.287843	-0.064266
234	339385													9.282490	-0.295195	-2.840961	-0.291981	-0.953982	0.068304	-0.041485	0.083981	0.995603	-0.955524	0.287864	-0.064097
235	339552													9.286148	-0.298545	-2.831802	-0.292010	-0.953961	0.068475	-0.041285	0.084101	0.995602	-0.955524	0.287898	-0.063943
236	339719													9.316505	-0.316340	-2.839627	-0.292096	-0.953924	0.068617	-0.041202	0.084230	0.995594	-0.955501	0.287982	-0.063907
237	339885													9.267686	-0.318254	-2.829578	-0.292085	-0.953930	0.068591	-0.041253	0.084218	0.995593	-0.955502	0.287968	-0.063951
238	340052													9.261725	-0.358687	-2.862921	-0.292226	-0.953888	0.068567	-0.041389	0.084244	0.995585	-0.955453	0.288098	-0.064098
239	340219													9.302075	-0.331958	-2.876618	-0.292345	-0.953859	0.068466	-0.041573	0.084202	0.995581	-0.955409	0.288206	-0.064271
240	340385													9.303231	-0.317263	-2.843568	-0.292458	-0.953830	0.068384	-0.041545	0.084116	0.995590	-0.955375	0.288327	-0.064227
241	340552													9.327281	-0.321515	-2.849590	-0.292519	-0.953818	0.068287	-0.041416	0.083980	0.995606	-0.955362	0.288406	-0.064069
242	340719													9.302076	-0.299937	-2.855770	-0.292546	-0.953818	0.068185	-0.041256	0.083828	0.995626	-0.955361	0.288453	-0.063874
243	340885													9.321019	-0.283636	-2.836400	-0.292539	-0.953822	0.068156	-0.041111	0.083753	0.995638	-0.955369	0.288461	-0.063714
244	341052													9.301379	-0.239205	-2.837939	-0.292476	-0.953838	0.068198	-0.041006	0.083761	0.995642	-0.955393	0.288405	-0.063611
245	341219													9.302628	-0.241006	-2.827388	-0.292326	-0.953869	0.068403	-0.040853	0.083918	0.995635	-0.955446	0.288255	-0.063499
246	341385													9.244738	-0.297129	-2.839688	-0.292197	-0.953896	0.068584	-0.040764	0.084071	0.995626	-0.955489	0.288123	-0.063450
247	341552													9.282278	-0.328263	-2.834858	-0.292114	-0.953910	0.068740	-0.040801	0.084240	0.995610	-0.955513	0.288027	-0.063528
248	341719													9.292336	-0.340389	-2.807818	-0.292047	-0.953922	0.068863	-0.040886	0.084389	0.995594	-0.955530	0.287945	-0.063647
249	341885													9.287396	-0.335919	-2.830630	-0.292028	-0.953930	0.068819	-0.040950	0.084361	0.995593	-0.955533	0.287923	-0.063700
250	342052													9.297206	-0.341910	-2.839337	-0.292019	-0.953945	0.068661	-0.040970	0.084202	0.995606	-0.955535	0.287923	-0.063672
251	342219													9.294448	-0.315468	-2.822518	-0.292040	-0.953951	0.068491	-0.040976	0.084027	0.995621	-0.955528	0.287954	-0.063628
252	342385													9.305592	-0.286876	-2.832931	-0.292118	-0.953941	0.068291	-0.040954	0.083817	0.995639	-0.955505	0.288047	-0.063552
253	342552													9.241599	-0.295409	-2.857830	-0.292179	-0.953925	0.068257	-0.040895	0.083769	0.995646	-0.955489	0.288115	-0.063486
254	342719													9.260959	-0.302447	-2.846231	-0.292425	-0.953850	0.068245	-0.040909	0.083777	0.995644	-0.955413	0.288359	-0.063520
255	342885													9.250387	-0.271410	-2.859077	-0.292642	-0.953792	0.068129	-0.040951	0.083684	0.995651	-0.955345	0.288579	-0.063548
256	343052													9.244750	-0.263477	-2.867399	-0.292940	-0.953698	0.068165	-0.040790	0.083694	0.995656	-0.955260	0.288887	-0.063419
257	343219													9.312564	-0.303986	-2.899774	-0.293194	-0.953607	0.068338	-0.040573	0.083825	0.995654	-0.955192	0.289147	-0.063268
258	343385													9.332311	-0.324820	-2.887111	-0.293360	-0.953545	0.068490	-0.040421	0.083950	0.995650	-0.955147	0.289316	-0.063171
259	343552													9.339544	-0.317764	-2.901652	-0.293440	-0.953512	0.068607	-0.040411	0.084075	0.995640	-0.955123	0.289388	-0.063203
260	343719													9.316335	-0.286633	-2.879531	-0.293395	-0.953522	0.068665	-0.040448	0.084143	0.995632	-0.955135	0.289336	-0.063255
261	343885													9.297817	-0.313440	-2.905506	-0.293268	-0.953558	0.068708	-0.040457	0.084182	0.995629	-0.955174	0.289206	-0.063266
262	344052													9.280206	-0.327971	-2.892768	-0.293077	-0.953618	0.068693	-0.040443	0.084149	0.995632	-0.955233	0.289018	-0.063230
263	344219													9.257435	-0.341208	-2.875874	-0.292880	-0.953683	0.068624	-0.040413	0.084054	0.995641	-0.955295	0.288830	-0.063159
264	344385													9.247749	-0.313944	-2.876920	-0.292722	-0.953734	0.068600	-0.040339	0.083995	0.995649	-0.955346	0.288681	-0.063060
265	344552													9.269798	-0.275879	-2.846886	-0.292606	-0.953768	0.068620	-0.040202	0.083967	0.995657	-0.955388	0.288576	-0.062913
266	344719													9.286802	-0.239066	-2.826437	-0.292478	-0.953801	0.068704	-0.040050	0.084000	0.995661	-0.955433	0.288457	-0.062768
267	344885													9.299587	-0.241508	-2.852049	-0.292356	-0.953825	0.068887	-0.039903	0.084138	0.995655	-0.955477	0.288337	-0.062659
268	345052													9.304849	-0.264777	-2.849252	-0.292247	-0.953841	0.069133	-0.039843	0.084370	0.995638	-0.955512	0.288218	-0.062661
269	345219													9.305633	-0.298337	-2.840565	-0.292113	-0.953864	0.069377	-0.039877	0.084626	0.995615	-0.955552	0.288066	-0.062758
270	345385													9.306818	-0.332278	-2.848945	-0.291922	-0.953912	0.069526	-0.040015	0.084809	0.995593	-0.955605	0.287854	-0.062929
271	345552													9.290133	-0.371473	-2.827575	-0.291722	-0.953969	0.069575	-0.040113	0.084877	0.995584	-0.955662	0.287643	-0.063027
272	345719													9.267955	-0.380879	-2.828920	-0.291597	-0.954020	0.069405	-0.040223	0.084724	0.995592	-0.955695	0.287521	-0.063079
273	345885													9.266555	-0.374953	-2.843066	-0.291530	-0.954065	0.069070	-0.040309	0.084395	0.995617	-0.955712	0.287468	-0.063061
274	346052													9.297669	-0.330074	-2.820799	-0.291499	-0.954106	0.068633	-0.040347	0.083948	0.995653	-0.955720	0.287462	-0.062966
275	346219													9.289507	-0.275148	-2.825641	-0.291501	-0.954130	0.068283	-0.040372	0.083590	0.995682	-0.955718	0.287485	-0.062887
276	346385													9.314260	-0.275006	-2.816148	-0.291479	-0.954155	0.068033	-0.040389	0.083334	0.995703	-0.955724	0.287479	-0.062827
277	346552													9.327507	-0.264073	-2.822824	-0.291385	-0.954190	0.067948	-0.040442	0.083255	0.995707	-0.955751	0.287386	-0.062848
278	346719													9.289897	-0.268937	-2.812760	-0.291251	-0.954225	0.068030	-0.040490	0.083345	0.995698	-0.955790	0.287243	-0.062910
279	346885													9.304761	-0.308954	-2.827682	-0.291099	-0.954257	0.068222	-0.040511	0.083541	0.995681	-0.955835	0.287078	-0.062977
280	347052													9.313498	-0.328098	-2.832138	-0.290894	-0.954300	0.068494	-0.040482	0.083802	0.995660	-0.955898	0.286859	-0.063010
281	347219													9.288656	-0.349886	-2.820933	-0.290693	-0.954346	0.068718	-0.040375	0.083990	0.995648	-0.955964	0.286654	-0.062947
282	347385													9.300084	-0.321268	-2.803244	-0.290519	-0.954382	0.068947	-0.040251	0.084181	0.995637	-0.956022	0.286477	-0.062871
283	347552													9.291142	-0.314505	-2.806980	-0.290404	-0.954404	0.069123	-0.040147	0.084325	0.995629	-0.956062	0.286359	-0.062805
284	347719													9.276137	-0.324487	-2.816149	-0.290336	-0.954414	0.069270	-0.040140	0.084472	0.995617	-0.956082	0.286283	-0.062836
285	347885													9.239093	-0.318725	-2.805167	-0.290319	-0.954424	0.069207	-0.040223	0.084429	0.995617	-0.956084	0.286263	-0.062901
286	348052													9.207944	-0.355958	-2.842803	-0.290544	-0.954359	0.069156	-0.040339	0.084426	0.995613	-0.956011	0.286480	-0.063028
287	348219													9.312603	-0.364466	-2.850860	-0.290822	-0.954284	0.069024	-0.040522	0.084362	0.995611	-0.955919	0.286748	-0.063203
288	348385													9.355604	-0.335038	-2.852580	-0.291043	-0.954224	0.068920	-0.040528	0.084271	0.995618	-0.955851	0.286975	-0.063200
289	348552													9.393495	-0.340695	-2.848670	-0.291063	-0.954228	0.068791	-0.040425	0.084107	0.995636	-0.955849	0.287012	-0.063055
290	348719													9.312151	-0.321698	-2.829542	-0.290919	-0.954279	0.068690	-0.040285	0.083950	0.995655	-0.955899	0.286888	-0.062866
291	348885													9.307118	-0.282617	-2.815498	-0.290756	-0.954336	0.068592	-0.040159	0.083798	0.995673	-0.955954	0.286743	-0.062690
292	349052													9.278480	-0.252198	-2.822805	-0.290549	-0.954400	0.068573	-0.040121	0.083753	0.995679	-0.956018	0.286543	-0.062626
293	349219													9.288374	-0.268862	-2.801404	-0.290337	-0.954452	0.068744	-0.040139	0.083923	0.995664	-0.956082	0.286318	-0.062676
294	349385													9.275117	-0.303979	-2.823822	-0.290110	-0.954503	0.068991	-0.040180	0.084177	0.995640	-0.956150	0.286073	-0.062773
295	349552													9.295444	-0.344854	-2.839478	-0.289864	-0.954564	0.069187	-0.040280	0.084394	0.995618	-0.956220	0.285807	-0.062913
296	349719													9.294673	-0.366028	-2.819830	-0.289658	-0.954621	0.069267	-0.040356	0.084487	0.995607	-0.956279	0.285590	-0.062997
297	349885													9.320093	-0.364911	-2.841371	-0.289480	-0.954677	0.069236	-0.040434	0.084465	0.995606	-0.956330	0.285409	-0.063053
298	350052													9.322908	-0.354279	-2.810315	-0.289302	-0.954738	0.069135	-0.040472	0.084358	0.995613	-0.956382	0.285235	-0.063045
299	350219													9.316553	-0.317202	-2.787153	-0.289178	-0.954784	0.069015	-0.040459	0.084221	0.995625	-0.956420	0.285121	-0.062984
300	350385													9.346586	-0.292230	-2.820590	-0.289062	-0.954829	0.068882	-0.040408	0.084059	0.995641	-0.956457	0.285019	-0.062881
301	350552													9.206320	-0.316716	-2.796380	-0.288969	-0.954862	0.068810	-0.040419	0.083982	0.995647	-0.956485	0.284930	-0.062863
302	350719													9.258811	-0.332012	-2.808665	-0.289116	-0.954829	0.068650	-0.040610	0.083881	0.995648	-0.956432	0.285070	-0.063027
303	350885													9.247825	-0.265016	-2.826144	-0.289329	-0.954774	0.068524	-0.040771	0.083813	0.995647	-0.956361	0.285275	-0.063177
304	351052													9.269968	-0.283594	-2.834044	-0.289622	-0.954681	0.068583	-0.040760	0.083891	0.995641	-0.956273	0.285564	-0.063210
305	351219													9.332743	-0.336940	-2.833386	-0.289938	-0.954580	0.068656	-0.040702	0.083972	0.995637	-0.956180	0.285878	-0.063200
306	351385													9.372110	-0.357680	-2.831472	-0.290172	-0.954508	0.068665	-0.040735	0.084007	0.995632	-0.956107	0.286108	-0.063258
307	351552													9.340563	-0.308639	-2.841222	-0.290236	-0.954495	0.068570	-0.040839	0.083943	0.995633	-0.956083	0.286168	-0.063344
308	351719													9.315975	-0.314559	-2.862163	-0.290186	-0.954510	0.068579	-0.040916	0.083972	0.995628	-0.956095	0.286111	-0.063423
309	351885													9.288017	-0.308491	-2.829974	-0.290106	-0.954539	0.068510	-0.040935	0.083900	0.995633	-0.956119	0.286034	-0.063414
310	352052													9.277365	-0.335091	-2.827804	-0.290026	-0.954566	0.068478	-0.040924	0.083858	0.995637	-0.956143	0.285958	-0.063386
311	352219													9.290740	-0.330856	-2.830493	-0.289956	-0.954589	0.068452	-0.040855	0.083806	0.995644	-0.956168	0.285896	-0.063300
312	352385													9.305964	-0.319026	-2.809930	-0.289846	-0.954624	0.068427	-0.040808	0.083758	0.995650	-0.956203	0.285793	-0.063234
313	352552													9.290196	-0.272024	-2.814793	-0.289726	-0.954663	0.068389	-0.040737	0.083688	0.995659	-0.956242	0.285682	-0.063137
314	352719													9.287175	-0.276147	-2.817368	-0.289640	-0.954685	0.068444	-0.040667	0.083720	0.995659	-0.956271	0.285599	-0.063073
315	352885													9.290068	-0.292553	-2.801595	-0.289588	-0.954694	0.068538	-0.040675	0.083816	0.995651	-0.956287	0.285541	-0.063105
316	353052													9.309682	-0.309789	-2.821233	-0.289565	-0.954691	0.068686	-0.040741	0.083989	0.995634	-0.956291	0.285503	-0.063215
317	353219													9.307343	-0.336989	-2.809606	-0.289555	-0.954691	0.068726	-0.040907	0.084080	0.995619	-0.956287	0.285475	-0.063399
318	353385													9.317495	-0.355609	-2.827150	-0.289481	-0.954708	0.068796	-0.041080	0.084199	0.995602	-0.956302	0.285382	-0.063593
319	353552													9.272780	-0.356063	-2.818662	-0.289477	-0.954712	0.068765	-0.041209	0.084205	0.995596	-0.956298	0.285368	-0.063718
320	353719													9.288770	-0.387924	-2.823011	-0.289504	-0.954713	0.068637	-0.041366	0.084120	0.995597	-0.956282	0.285390	-0.063846
321	353885													9.316399	-0.368380	-2.834538	-0.289527	-0.954724	0.068384	-0.041565	0.083917	0.995605	-0.956267	0.285412	-0.063979
322	354052													9.283275	-0.342615	-2.793899	-0.289572	-0.954732	0.068083	-0.041761	0.083665	0.995618	-0.956245	0.285460	-0.064097
323	354219													9.256582	-0.324953	-2.807837	-0.289652	-0.954727	0.067806	-0.041937	0.083434	0.995630	-0.956213	0.285543	-0.064205
324	354385													9.299082	-0.322830	-2.807698	-0.289836	-0.954693	0.067507	-0.042095	0.083182	0.995645	-0.956150	0.285732	-0.064297
325	354552													9.294870	-0.348987	-2.804813	-0.289946	-0.954676	0.067271	-0.042237	0.082986	0.995655	-0.956110	0.285845	-0.064384
326	354719													9.301529	-0.353524	-2.813865	-0.290138	-0.954630	0.067092	-0.042391	0.082859	0.995659	-0.956045	0.286035	-0.064508
327	354886													9.292983	-0.328017	-2.835250	-0.290193	-0.954626	0.066912	-0.042498	0.082707	0.995667	-0.956024	0.286092	-0.064570
328	355052													9.296062	-0.369264	-2.843044	-0.290336	-0.954588	0.066837	-0.042620	0.082676	0.995665	-0.955975	0.286229	-0.064688
329	355219													9.340682	-0.343609	-2.833268	-0.290430	-0.954561	0.066815	-0.042604	0.082655	0.995667	-0.955947	0.286325	-0.064673
330	355386													9.366551	-0.351405	-2.801862	-0.290374	-0.954573	0.066876	-0.042398	0.082653	0.995676	-0.955973	0.286283	-0.064473
331	355552													9.345235	-0.392936	-2.820026	-0.290169	-0.954622	0.067065	-0.042150	0.082761	0.995678	-0.956047	0.286089	-0.064252
332	355719													9.281646	-0.364743	-2.799795	-0.289924	-0.954691	0.067155	-0.041928	0.082771	0.995686	-0.956131	0.285858	-0.064025
333	355886													9.250690	-0.349453	-2.783612	-0.289733	-0.954736	0.067333	-0.041715	0.082881	0.995686	-0.956198	0.285674	-0.063840
334	356052													9.232995	-0.352242	-2.778434	-0.289666	-0.954745	0.067500	-0.041526	0.082993	0.995685	-0.956227	0.285613	-0.063687
335	356219													9.253994	-0.358204	-2.797370	-0.289699	-0.954726	0.067627	-0.041342	0.083073	0.995686	-0.956225	0.285653	-0.063537
336	356386													9.263632	-0.368489	-2.814024	-0.289814	-0.954690	0.067634	-0.041202	0.083046	0.995694	-0.956196	0.285780	-0.063403
337	356552													9.303396	-0.361354	-2.803711	-0.290004	-0.954636	0.067593	-0.041104	0.082988	0.995703	-0.956142	0.285979	-0.063306
338	356719													9.311396	-0.355374	-2.825904	-0.290194	-0.954592	0.067392	-0.041057	0.082777	0.995722	-0.956087	0.286186	-0.063214
339	356886													9.302626	-0.319514	-2.812197	-0.290420	-0.954529	0.067311	-0.041017	0.082696	0.995730	-0.956020	0.286419	-0.063168
340	357052													9.318263	-0.310271	-2.833718	-0.290656	-0.954465	0.067202	-0.040982	0.082588	0.995741	-0.955950	0.286664	-0.063120
341	357219													9.323285	-0.319338	-2.830520	-0.290871	-0.954400	0.067196	-0.040943	0.082585	0.995743	-0.955886	0.286882	-0.063098
342	357386													9.256587	-0.350636	-2.821842	-0.291025	-0.954355	0.067158	-0.040894	0.082541	0.995748	-0.955841	0.287042	-0.063049
343	357552													9.291288	-0.385047	-2.860744	-0.291315	-0.954275	0.067049	-0.040937	0.082460	0.995753	-0.955751	0.287333	-0.063087
344	357719													9.233302	-0.295191	-2.855312	-0.291574	-0.954203	0.066942	-0.040907	0.082357	0.995763	-0.955673	0.287600	-0.063047
345	357886													9.268924	-0.309314	-2.849277	-0.291867	-0.954110	0.066996	-0.040717	0.082377	0.995769	-0.955592	0.287904	-0.062892
346	358052													9.274045	-0.347607	-2.880826	-0.292149	-0.954021	0.067036	-0.040569	0.082393	0.995774	-0.955512	0.288194	-0.062775
347	358219													9.358724	-0.356569	-2.887611	-0.292361	-0.953959	0.066985	-0.040540	0.082346	0.995779	-0.955448	0.288411	-0.062748
348	358386													9.345169	-0.322060	-2.884704	-0.292404	-0.953950	0.066931	-0.040637	0.082322	0.995777	-0.955431	0.288449	-0.062837
349	358552													9.307505	-0.323311	-2.871439	-0.292349	-0.953968	0.066908	-0.040707	0.082315	0.995775	-0.955445	0.288390	-0.062898
350	358719													9.289134	-0.348627	-2.874870	-0.292241	-0.954000	0.066922	-0.040691	0.082318	0.995775	-0.955479	0.288283	-0.062876
351	358886													9.253734	-0.356469	-2.877356	-0.292132	-0.954034	0.066913	-0.040616	0.082278	0.995781	-0.955515	0.288182	-0.062785
352	359052													9.263042	-0.347221	-2.848424	-0.292124	-0.954038	0.066899	-0.040516	0.082233	0.995789	-0.955522	0.288184	-0.062676
353	359219													9.297868	-0.334611	-2.861305	-0.292115	-0.954044	0.066845	-0.040375	0.082134	0.995803	-0.955531	0.288190	-0.062512
354	359386													9.300882	-0.298413	-2.858123	-0.292079	-0.954055	0.066847	-0.040184	0.082076	0.995816	-0.955550	0.288170	-0.062310
355	359552													9.294559	-0.298402	-2.847859	-0.292020	-0.954068	0.066921	-0.039975	0.082085	0.995823	-0.955577	0.288125	-0.062109
356	359719													9.292567	-0.305601	-2.841272	-0.291986	-0.954073	0.067004	-0.039828	0.082125	0.995826	-0.955593	0.288099	-0.061978
357	359886													9.314422	-0.296527	-2.833197	-0.291919	-0.954082	0.067157	-0.039762	0.082261	0.995817	-0.955616	0.288028	-0.061950
358	360052													9.296785	-0.328950	-2.835479	-0.291806	-0.954100	0.067398	-0.039735	0.082496	0.995799	-0.955652	0.287902	-0.061984
359	360219													9.292041	-0.344213	-2.843000	-0.291643	-0.954143	0.067499	-0.039734	0.082591	0.995791	-0.955702	0.287734	-0.061999
360	360386													9.281108	-0.362066	-2.813970	-0.291470	-0.954188	0.067610	-0.039760	0.082702	0.995781	-0.955753	0.287552	-0.062043
361	360552													9.295460	-0.355419	-2.842684	-0.291293	-0.954240	0.067638	-0.039819	0.082737	0.995776	-0.955805	0.287369	-0.062098
362	360719													9.298252	-0.350607	-2.818172	-0.291164	-0.954286	0.067543	-0.039887	0.082650	0.995780	-0.955841	0.287241	-0.062128
363	360886													9.284813	-0.364270	-2.837546	-0.291041	-0.954335	0.067373	-0.040010	0.082501	0.995788	-0.955874	0.287119	-0.062194
364	361052													9.293776	-0.384209	-2.808981	-0.290997	-0.954361	0.067194	-0.040181	0.082362	0.995792	-0.955880	0.287073	-0.062314
365	361219													9.218978	-0.342420	-2.814432	-0.290934	-0.954395	0.066985	-0.040273	0.082168	0.995804	-0.955895	0.287015	-0.062341
366	361386													9.265505	-0.383377	-2.831697	-0.291137	-0.954347	0.066783	-0.040395	0.082008	0.995813	-0.955828	0.287221	-0.062427
367	361552													9.304043	-0.332022	-2.807479	-0.291350	-0.954298	0.066569	-0.040450	0.081815	0.995826	-0.955761	0.287441	-0.062438
368	361719													9.346363	-0.311033	-2.826387	-0.291493	-0.954257	0.066523	-0.040348	0.081747	0.995836	-0.955722	0.287595	-0.062331
369	361886													9.363136	-0.348244	-2.828118	-0.291552	-0.954229	0.066670	-0.040161	0.081848	0.995835	-0.955712	0.287660	-0.062186
370	362052													9.322872	-0.338928	-2.825086	-0.291515	-0.954232	0.066791	-0.039995	0.081922	0.995836	-0.955730	0.287630	-0.062046
371	362219													9.297441	-0.312461	-2.820884	-0.291458	-0.954235	0.066994	-0.039816	0.082076	0.995830	-0.955755	0.287576	-0.061916
372	362386													9.288904	-0.319509	-2.839439	-0.291393	-0.954235	0.067273	-0.039641	0.082310	0.995818	-0.955782	0.287508	-0.061811
373	362552													9.264612	-0.346154	-2.826184	-0.291336	-0.954236	0.067504	-0.039395	0.082473	0.995814	-0.955809	0.287457	-0.061619
374	362719													9.254852	-0.365828	-2.820765	-0.291306	-0.954235	0.067643	-0.039253	0.082573	0.995812	-0.955824	0.287431	-0.061511
375	362886													9.293129	-0.367209	-2.821610	-0.291289	-0.954241	0.067630	-0.039162	0.082531	0.995819	-0.955833	0.287423	-0.061410
376	363052													9.305488	-0.316763	-2.846450	-0.291228	-0.954268	0.067521	-0.039124	0.082402	0.995831	-0.955853	0.287372	-0.061332
377	363219													9.322075	-0.314334	-2.842355	-0.291173	-0.954296	0.067362	-0.039094	0.082223	0.995847	-0.955871	0.287330	-0.061249
378	363386													9.321059	-0.300047	-2.850173	-0.291142	-0.954309	0.067305	-0.039089	0.082160	0.995852	-0.955881	0.287304	-0.061223
379	363552													9.316621	-0.297233	-2.859811	-0.291136	-0.954316	0.067242	-0.039082	0.082092	0.995858	-0.955883	0.287303	-0.061196
380	363719													9.329813	-0.290799	-2.817139	-0.291112	-0.954321	0.067275	-0.039069	0.082121	0.995856	-0.955891	0.287277	-0.061191
381	363886													9.237458	-0.338762	-2.855340	-0.291154	-0.954305	0.067316	-0.039129	0.082185	0.995849	-0.955876	0.287311	-0.061270
382	364052													9.270639	-0.323989	-2.850383	-0.291239	-0.954282	0.067272	-0.039247	0.082180	0.995844	-0.955845	0.287389	-0.061387
383	364219													9.240158	-0.282149	-2.858741	-0.291384	-0.954238	0.067263	-0.039202	0.082167	0.995847	-0.955803	0.287537	-0.061350
384	364386													9.255619	-0.327818	-2.846201	-0.291600	-0.954162	0.067409	-0.039020	0.082278	0.995845	-0.955744	0.287758	-0.061224
385	364552													9.306129	-0.355457	-2.886829	-0.291826	-0.954093	0.067406	-0.038874	0.082246	0.995854	-0.955681	0.287995	-0.061091
386	364719													9.356083	-0.321011	-2.892865	-0.291963	-0.954051	0.067405	-0.038789	0.082230	0.995858	-0.955643	0.288139	-0.061015
387	364886													9.329130	-0.293818	-2.857354	-0.291971	-0.954050	0.067395	-0.038805	0.082224	0.995858	-0.955640	0.288146	-0.061029
388	365052													9.335093	-0.301921	-2.876129	-0.291892	-0.954064	0.067537	-0.038787	0.082362	0.995847	-0.955665	0.288060	-0.061046
389	365219													9.288868	-0.331828	-2.831007	-0.291743	-0.954101	0.067650	-0.038719	0.082449	0.995843	-0.955713	0.287911	-0.060996
390	365386													9.284221	-0.328697	-2.838432	-0.291600	-0.954137	0.067756	-0.038602	0.082515	0.995842	-0.955761	0.287772	-0.060894
391	365552													9.287700	-0.334468	-2.856471	-0.291438	-0.954183	0.067813	-0.038461	0.082521	0.995847	-0.955816	0.287619	-0.060749
392	365719													9.290154	-0.329612	-2.846164	-0.291294	-0.954220	0.067916	-0.038332	0.082580	0.995847	-0.955865	0.287481	-0.060632
393	365886													9.286906	-0.285718	-2.815541	-0.291166	-0.954252	0.068010	-0.038149	0.082615	0.995851	-0.955912	0.287364	-0.060459
394	366052													9.293450	-0.286237	-2.825594	-0.291074	-0.954265	0.068219	-0.037971	0.082774	0.995845	-0.955947	0.287274	-0.060328
395	366219													9.299394	-0.305764	-2.829079	-0.291025	-0.954264	0.068440	-0.037858	0.082967	0.995833	-0.955966	0.287221	-0.060272
396	366386													9.307546	-0.313998	-2.828573	-0.290963	-0.954272	0.068603	-0.037815	0.083120	0.995822	-0.955987	0.287153	-0.060271
397	366552													9.299686	-0.331586	-2.819422	-0.290934	-0.954271	0.068734	-0.037858	0.083268	0.995808	-0.955994	0.287112	-0.060353
398	366719													9.268906	-0.343291	-2.807386	-0.290911	-0.954276	0.068758	-0.037923	0.083311	0.995802	-0.955998	0.287082	-0.060425
399	366886													9.264937	-0.341668	-2.803940	-0.290994	-0.954254	0.068720	-0.037980	0.083294	0.995801	-0.955971	0.287162	-0.060481
400	367052													9.291299	-0.353588	-2.814467	-0.291085	-0.954232	0.068637	-0.038037	0.083230	0.995804	-0.955941	0.287253	-0.060523
401	367219													9.302871	-0.324553	-2.824772	-0.291186	-0.954212	0.068479	-0.038108	0.083094	0.995813	-0.955907	0.287357	-0.060559
402	367386													9.306405	-0.334734	-2.809176	-0.291284	-0.954198	0.068267	-0.038235	0.082917	0.995823	-0.955872	0.287457	-0.060637
403	367552													9.306688	-0.336873	-2.799248	-0.291406	-0.954178	0.068024	-0.038404	0.082722	0.995832	-0.955828	0.287579	-0.060750
404	367719													9.251687	-0.309381	-2.798959	-0.291443	-0.954180	0.067840	-0.038537	0.082573	0.995840	-0.955812	0.287616	-0.060836
405	367886													9.236880	-0.364761	-2.829780	-0.291703	-0.954109	0.067718	-0.038686	0.082508	0.995839	-0.955726	0.287870	-0.060979
406	368052													9.320603	-0.337501	-2.861719	-0.291967	-0.954041	0.067541	-0.038818	0.082380	0.995845	-0.955640	0.288132	-0.061086
407	368219													9.340338	-0.313673	-2.858577	-0.292174	-0.953976	0.067557	-0.038750	0.082390	0.995847	-0.955580	0.288343	-0.061039
408	368386													9.355372	-0.310858	-2.850659	-0.292254	-0.953943	0.067686	-0.038566	0.082474	0.995847	-0.955563	0.288429	-0.060894
409	368552													9.323988	-0.334865	-2.861896	-0.292243	-0.953937	0.067806	-0.038373	0.082541	0.995849	-0.955574	0.288428	-0.060727
410	368719													9.313903	-0.323246	-2.859739	-0.292143	-0.953958	0.067951	-0.038201	0.082633	0.995848	-0.955611	0.288335	-0.060583
411	368886													9.269156	-0.269530	-2.836655	-0.291998	-0.953993	0.068086	-0.038080	0.082728	0.995844	-0.955661	0.288191	-0.060485
412	369052													9.261588	-0.315661	-2.842816	-0.291870	-0.954013	0.068350	-0.037935	0.082952	0.995831	-0.955705	0.288060	-0.060402
413	369219													9.251707	-0.351819	-2.870495	-0.291757	-0.954036	0.068504	-0.037860	0.083082	0.995823	-0.955743	0.287944	-0.060360
414	369386													9.283245	-0.362406	-2.832989	-0.291684	-0.954059	0.068498	-0.037853	0.083070	0.995825	-0.955765	0.287873	-0.060344
415	369552													9.299192	-0.340255	-2.836529	-0.291608	-0.954088	0.068413	-0.037912	0.082994	0.995829	-0.955786	0.287798	-0.060373
416	369719													9.312756	-0.317106	-2.828357	-0.291520	-0.954127	0.068244	-0.037984	0.082832	0.995839	-0.955810	0.287715	-0.060388
417	369886													9.328168	-0.320018	-2.856242	-0.291442	-0.954167	0.068025	-0.038030	0.082614	0.995856	-0.955832	0.287647	-0.060364
418	370052													9.310266	-0.319930	-2.842094	-0.291395	-0.954194	0.067838	-0.038100	0.082435	0.995868	-0.955844	0.287606	-0.060376
419	370219													9.306182	-0.291343	-2.832742	-0.291398	-0.954205	0.067682	-0.038135	0.082284	0.995879	-0.955842	0.287616	-0.060366
420	370386													9.227280	-0.302354	-2.836980	-0.291395	-0.954206	0.067670	-0.038193	0.082288	0.995876	-0.955840	0.287609	-0.060423
421	370552													9.249714	-0.359636	-2.848759	-0.291582	-0.954153	0.067620	-0.038292	0.082279	0.995873	-0.955779	0.287790	-0.060528
422	370719													9.243938	-0.324510	-2.828655	-0.291739	-0.954113	0.067499	-0.038368	0.082185	0.995878	-0.955728	0.287947	-0.060584
423	370886													9.248620	-0.310398	-2.829207	-0.292039	-0.954020	0.067519	-0.038219	0.082181	0.995884	-0.955643	0.288256	-0.060462
424	371052													9.302104	-0.380112	-2.867008	-0.292285	-0.953946	0.067510	-0.038053	0.082138	0.995894	-0.955574	0.288516	-0.060308
425	371219													9.356642	-0.347007	-2.872395	-0.292453	-0.953901	0.067413	-0.037929	0.082010	0.995910	-0.955527	0.288700	-0.060164
426	371386													9.371715	-0.312103	-2.843639	-0.292470	-0.953903	0.067305	-0.037927	0.081898	0.995919	-0.955522	0.288723	-0.060131
427	371553													9.330576	-0.290828	-2.869606	-0.292363	-0.953935	0.067322	-0.037950	0.081915	0.995917	-0.955554	0.288615	-0.060151
428	371719													9.303408	-0.305378	-2.853330	-0.292177	-0.953988	0.067378	-0.037912	0.081951	0.995915	-0.955613	0.288429	-0.060112
429	371886													9.254488	-0.327830	-2.838037	-0.291991	-0.954038	0.067483	-0.037866	0.082034	0.995910	-0.955671	0.288241	-0.060078
430	372053													9.256794	-0.332405	-2.838943	-0.291895	-0.954061	0.067560	-0.037767	0.082078	0.995910	-0.955704	0.288150	-0.059990
431	372219													9.282793	-0.341939	-2.836748	-0.291803	-0.954085	0.067625	-0.037655	0.082106	0.995912	-0.955737	0.288064	-0.059885
432	372386													9.288301	-0.295245	-2.824488	-0.291711	-0.954109	0.067686	-0.037505	0.082119	0.995917	-0.955771	0.287981	-0.059739
433	372553													9.256265	-0.279642	-2.853570	-0.291647	-0.954122	0.067769	-0.037315	0.082144	0.995922	-0.955798	0.287929	-0.059560
434	372719													9.282811	-0.283357	-2.844390	-0.291686	-0.954101	0.067900	-0.037148	0.082233	0.995921	-0.955792	0.287974	-0.059429
435	372886													9.325143	-0.298311	-2.835797	-0.291725	-0.954075	0.068098	-0.037093	0.082425	0.995907	-0.955783	0.288005	-0.059435
436	373053													9.341009	-0.317462	-2.841023	-0.291729	-0.954065	0.068217	-0.037149	0.082566	0.995893	-0.955780	0.287996	-0.059529
437	373219													9.277611	-0.346886	-2.839028	-0.291686	-0.954073	0.068290	-0.037277	0.082679	0.995879	-0.955787	0.287938	-0.059682
438	373386													9.254818	-0.360128	-2.843676	-0.291685	-0.954076	0.068260	-0.037456	0.082702	0.995870	-0.955781	0.287923	-0.059859
439	373553													9.261574	-0.371179	-2.850555	-0.291748	-0.954069	0.068089	-0.037591	0.082568	0.995876	-0.955756	0.287986	-0.059953
440	373719													9.278073	-0.362764	-2.847611	-0.291864	-0.954054	0.067802	-0.037728	0.082317	0.995892	-0.955715	0.288107	-0.060020
441	373886													9.283588	-0.337808	-2.834651	-0.291970	-0.954048	0.067431	-0.037826	0.081966	0.995917	-0.955679	0.288227	-0.060019
442	374053													9.290334	-0.314005	-2.849050	-0.292070	-0.954036	0.067154	-0.037859	0.081693	0.995938	-0.955647	0.288341	-0.059979
443	374219													9.293980	-0.295430	-2.863605	-0.292147	-0.954023	0.067004	-0.037884	0.081550	0.995949	-0.955623	0.288426	-0.059967
444	374386													9.324599	-0.294762	-2.869638	-0.292184	-0.954018	0.066922	-0.037879	0.081465	0.995956	-0.955612	0.288467	-0.059940
445	374553													9.307798	-0.293692	-2.863988	-0.292127	-0.954029	0.067004	-0.037854	0.081539	0.995951	-0.955630	0.288408	-0.059933
446	374719													9.291872	-0.296004	-2.869115	-0.292022	-0.954051	0.067157	-0.037789	0.081673	0.995943	-0.955665	0.288300	-0.059903
447	374886													9.279037	-0.292009	-2.861712	-0.291932	-0.954060	0.067415	-0.037689	0.081906	0.995927	-0.955696	0.288203	-0.059868
448	375053													9.286127	-0.329343	-2.843983	-0.291891	-0.954048	0.067760	-0.037578	0.082230	0.995905	-0.955713	0.288149	-0.059854
449	375219													9.307916	-0.353954	-2.867964	-0.291842	-0.954052	0.067919	-0.037559	0.082387	0.995892	-0.955729	0.288092	-0.059878
450	375386													9.228113	-0.346978	-2.837638	-0.291736	-0.954077	0.068020	-0.037531	0.082476	0.995886	-0.955762	0.287983	-0.059869
451	375553													9.268613	-0.382813	-2.853811	-0.291831	-0.954051	0.067976	-0.037622	0.082465	0.995884	-0.955730	0.288073	-0.059959
452	375719													9.291560	-0.347649	-2.854083	-0.291860	-0.954062	0.067710	-0.037695	0.082211	0.995902	-0.955718	0.288111	-0.059957
453	375886													9.324456	-0.317338	-2.848059	-0.291889	-0.954064	0.067553	-0.037622	0.082027	0.995920	-0.955712	0.288156	-0.059837
454	376053													9.337131	-0.315296	-2.858842	-0.291852	-0.954084	0.067423	-0.037517	0.081857	0.995938	-0.955727	0.288137	-0.059685
455	376219													9.320723	-0.313379	-2.839230	-0.291753	-0.954122	0.067316	-0.037398	0.081703	0.995955	-0.955762	0.288056	-0.059519
456	376386													9.297849	-0.268434	-2.837746	-0.291589	-0.954173	0.067310	-0.037367	0.081677	0.995958	-0.955814	0.287895	-0.059471
457	376553													9.278820	-0.227307	-2.824889	-0.291443	-0.954209	0.067433	-0.037311	0.081779	0.995952	-0.955860	0.287747	-0.059437
458	376719													9.269641	-0.299247	-2.818950	-0.291282	-0.954241	0.067666	-0.037263	0.081997	0.995936	-0.955911	0.287576	-0.059442
459	376886													9.265282	-0.335446	-2.838086	-0.291114	-0.954285	0.067777	-0.037337	0.082124	0.995922	-0.955960	0.287396	-0.059538
460	377053													9.296892	-0.352345	-2.833257	-0.290953	-0.954332	0.067799	-0.037503	0.082187	0.995911	-0.956002	0.287221	-0.059703
461	377219													9.335216	-0.357087	-2.835241	-0.290754	-0.954394	0.067786	-0.037642	0.082202	0.995905	-0.956057	0.287012	-0.059826
462	377386													9.311030	-0.353749	-2.832965	-0.290513	-0.954475	0.067679	-0.037705	0.082094	0.995911	-0.956128	0.286773	-0.059838
463	377553													9.309852	-0.376485	-2.832292	-0.290297	-0.954554	0.067480	-0.037737	0.081881	0.995927	-0.956192	0.286569	-0.059792
464	377719													9.280419	-0.331373	-2.827527	-0.290128	-0.954623	0.067243	-0.037743	0.081625	0.995948	-0.956243	0.286414	-0.059712
465	377886													9.298586	-0.305076	-2.792363	-0.290034	-0.954666	0.067030	-0.037736	0.081395	0.995967	-0.956272	0.286335	-0.059633
466	378053													9.248412	-0.307736	-2.814046	-0.289939	-0.954696	0.067008	-0.037667	0.081345	0.995974	-0.956303	0.286248	-0.059545
467	378219													9.245382	-0.335527	-2.813216	-0.290058	-0.954664	0.066958	-0.037713	0.081314	0.995975	-0.956266	0.286365	-0.059589
468	378386													9.194469	-0.274293	-2.817889	-0.290275	-0.954603	0.066885	-0.037738	0.081260	0.995978	-0.956199	0.286583	-0.059612
469	378553													9.273542	-0.288273	-2.826899	-0.290709	-0.954464	0.066989	-0.037548	0.081339	0.995979	-0.956074	0.287025	-0.059484
470	378719													9.329366	-0.348803	-2.833139	-0.291097	-0.954330	0.067201	-0.037382	0.081536	0.995969	-0.955963	0.287412	-0.059410
471	378886													9.354147	-0.358655	-2.863959	-0.291389	-0.954239	0.067239	-0.037290	0.081566	0.995970	-0.955878	0.287707	-0.059351
472	379053													9.334605	-0.329583	-2.865622	-0.291551	-0.954187	0.067276	-0.037273	0.081611	0.995967	-0.955829	0.287867	-0.059359
473	379219													9.327624	-0.305154	-2.856578	-0.291601	-0.954167	0.067341	-0.037242	0.081672	0.995963	-0.955815	0.287916	-0.059350
474	379386													9.299495	-0.331586	-2.855644	-0.291563	-0.954175	0.067385	-0.037195	0.081701	0.995963	-0.955828	0.287879	-0.059311
475	379553													9.280107	-0.344121	-2.871305	-0.291480	-0.954202	0.067364	-0.037167	0.081666	0.995967	-0.955855	0.287800	-0.059269
476	379719													9.282035	-0.329029	-2.823913	-0.291349	-0.954245	0.067318	-0.037091	0.081587	0.995976	-0.955898	0.287679	-0.059164
477	379886													9.301197	-0.317803	-2.850044	-0.291185	-0.954298	0.067280	-0.036998	0.081509	0.995986	-0.955951	0.287527	-0.059041
478	380053													9.283738	-0.270536	-2.849114	-0.291006	-0.954355	0.067242	-0.036936	0.081439	0.995994	-0.956008	0.287356	-0.058949
479	380219													9.307995	-0.251536	-2.845220	-0.290845	-0.954398	0.067332	-0.036872	0.081503	0.995991	-0.956059	0.287196	-0.058896
480	380386													9.324361	-0.255891	-2.834678	-0.290665	-0.954438	0.067540	-0.036849	0.081702	0.995975	-0.956115	0.287007	-0.058918
481	380553													9.309245	-0.300958	-2.820207	-0.290503	-0.954475	0.067717	-0.036939	0.081903	0.995956	-0.956161	0.286827	-0.059051
482	380719													9.281760	-0.331858	-2.811499	-0.290372	-0.954502	0.067899	-0.037077	0.082125	0.995932	-0.956195	0.286673	-0.059236
483	380886													9.267025	-0.353034	-2.784021	-0.290306	-0.954520	0.067929	-0.037258	0.082206	0.995919	-0.956208	0.286590	-0.059428
484	381053													9.262001	-0.377130	-2.809686	-0.290360	-0.954513	0.067792	-0.037410	0.082113	0.995921	-0.956186	0.286639	-0.059550
485	381219													9.253484	-0.373423	-2.819435	-0.290469	-0.954500	0.067505	-0.037528	0.081856	0.995937	-0.956148	0.286756	-0.059597
486	381386													9.266461	-0.349068	-2.831684	-0.290616	-0.954474	0.067242	-0.037620	0.081618	0.995953	-0.956100	0.286910	-0.059626
487	381553													9.285783	-0.319962	-2.831011	-0.290803	-0.954440	0.066919	-0.037660	0.081305	0.995978	-0.956041	0.287114	-0.059588
488	381719													9.317086	-0.285374	-2.835957	-0.290951	-0.954404	0.066788	-0.037695	0.081189	0.995986	-0.955995	0.287266	-0.059598
489	381886													9.349376	-0.285975	-2.850734	-0.291012	-0.954386	0.066784	-0.037692	0.081189	0.995986	-0.955977	0.287326	-0.059600
490	382053													9.322709	-0.315622	-2.860182	-0.290926	-0.954406	0.066873	-0.037745	0.081291	0.995975	-0.956001	0.287231	-0.059673
491	382219													9.304762	-0.324081	-2.845516	-0.290764	-0.954441	0.067079	-0.037771	0.081503	0.995957	-0.956049	0.287055	-0.059749
492	382386													9.312347	-0.330497	-2.826176	-0.290546	-0.954496	0.067229	-0.037788	0.081651	0.995944	-0.956115	0.286827	-0.059792
493	382553													9.302085	-0.332428	-2.848954	-0.290287	-0.954564	0.067382	-0.037760	0.081786	0.995934	-0.956194	0.286562	-0.059785
494	382719													9.307530	-0.371753	-2.819782	-0.290039	-0.954630	0.067526	-0.037710	0.081905	0.995926	-0.956272	0.286311	-0.059755
495	382886													9.285084	-0.363303	-2.822914	-0.289786	-0.954708	0.067508	-0.037727	0.081875	0.995928	-0.956348	0.286059	-0.059745
496	383053													9.216551	-0.358185	-2.806598	-0.289523	-0.954789	0.067490	-0.037813	0.081864	0.995926	-0.956424	0.285791	-0.059805
497	383219													9.240895	-0.371753	-2.819496	-0.289516	-0.954798	0.067394	-0.038015	0.081823	0.995922	-0.956418	0.285773	-0.059986
498	383386													9.357934	-0.351687	-2.827085	-0.289526	-0.954807	0.067222	-0.038199	0.081700	0.995925	-0.956408	0.285779	-0.060127
499	383553													9.348571	-0.342078	-2.817290	-0.289445	-0.954832	0.067211	-0.038237	0.081695	0.995924	-0.956431	0.285695	-0.060156
500	383719													9.359488	-0.340190	-2.831151	-0.289263	-0.954886	0.067224	-0.038171	0.081676	0.995928	-0.956488	0.285519	-0.060075
501	383886													9.300851	-0.335176	-2.808495	-0.289010	-0.954961	0.067250	-0.038066	0.081656	0.995933	-0.956569	0.285275	-0.059951
502	384053													9.254334	-0.307436	-2.788340	-0.288804	-0.955024	0.067241	-0.037966	0.081604	0.995941	-0.956635	0.285079	-0.059826
503	384219													9.283704	-0.307163	-2.806327	-0.288666	-0.955056	0.067373	-0.037920	0.081718	0.995934	-0.956679	0.284937	-0.059805
504	384386													9.268738	-0.321015	-2.809198	-0.288502	-0.955094	0.067549	-0.037906	0.081886	0.995921	-0.956729	0.284764	-0.059828
505	384553													9.270351	-0.349424	-2.784975	-0.288391	-0.955117	0.067688	-0.037991	0.082050	0.995904	-0.956759	0.284638	-0.059948
506	384719													9.308949	-0.365336	-2.786618	-0.288265	-0.955158	0.067654	-0.038143	0.082052	0.995898	-0.956791	0.284502	-0.060086
507	384886													9.314548	-0.362512	-2.814983	-0.288157	-0.955195	0.067586	-0.038284	0.082015	0.995895	-0.956818	0.284386	-0.060202
508	385053													9.362771	-0.368935	-2.789884	-0.288000	-0.955248	0.067502	-0.038358	0.081939	0.995899	-0.956862	0.284230	-0.060240
509	385219													9.349185	-0.364187	-2.774858	-0.287817	-0.955312	0.067387	-0.038360	0.081807	0.995910	-0.956917	0.284054	-0.060191
510	385386													9.317054	-0.326436	-2.782132	-0.287674	-0.955365	0.067242	-0.038338	0.081640	0.995924	-0.956961	0.283923	-0.060112
511	385553													9.310494	-0.298499	-2.764930	-0.287574	-0.955400	0.067174	-0.038332	0.081561	0.995931	-0.956991	0.283828	-0.060078
512	385719													9.201821	-0.303452	-2.753064	-0.287494	-0.955423	0.067181	-0.038367	0.081574	0.995929	-0.957014	0.283746	-0.060109
513	385886													9.223956	-0.363164	-2.773221	-0.287731	-0.955353	0.067172	-0.038505	0.081621	0.995919	-0.956937	0.283970	-0.060270
514	386053													9.217601	-0.307442	-2.798902	-0.288063	-0.955255	0.067141	-0.038582	0.081633	0.995915	-0.956834	0.284296	-0.060371
515	386219													9.269501	-0.332008	-2.814271	-0.288599	-0.955084	0.067273	-0.038441	0.081764	0.995910	-0.956678	0.284833	-0.060312
516	386386													9.357628	-0.394061	-2.850122	-0.289050	-0.954942	0.067348	-0.038268	0.081821	0.995912	-0.956549	0.285291	-0.060194
517	386553													9.367009	-0.382488	-2.831378	-0.289379	-0.954848	0.067274	-0.038218	0.081750	0.995920	-0.956451	0.285627	-0.060149
518	386719													9.371961	-0.321930	-2.843359	-0.289556	-0.954809	0.067061	-0.038255	0.081551	0.995935	-0.956396	0.285813	-0.060139
519	386886													9.324499	-0.311634	-2.839355	-0.289607	-0.954801	0.066960	-0.038293	0.081461	0.995941	-0.956379	0.285867	-0.060154
520	387053													9.294218	-0.312900	-2.828029	-0.289628	-0.954796	0.066942	-0.038322	0.081451	0.995940	-0.956372	0.285887	-0.060180
521	387219													9.275294	-0.334361	-2.854597	-0.289660	-0.954787	0.066917	-0.038354	0.081437	0.995940	-0.956361	0.285918	-0.060209
522	387386													9.279432	-0.339686	-2.821256	-0.289702	-0.954778	0.066875	-0.038348	0.081394	0.995944	-0.956348	0.285963	-0.060194
523	387553													9.295428	-0.333367	-2.833715	-0.289671	-0.954790	0.066828	-0.038336	0.081339	0.995949	-0.956358	0.285936	-0.060164
524	387719													9.297591	-0.286719	-2.833669	-0.289613	-0.954807	0.066849	-0.038291	0.081344	0.995950	-0.956378	0.285880	-0.060118
525	387886													9.261747	-0.291572	-2.827685	-0.289589	-0.954812	0.066874	-0.038234	0.081352	0.995952	-0.956387	0.285860	-0.060065
526	388053													9.303692	-0.322163	-2.861077	-0.289612	-0.954800	0.066944	-0.038225	0.081423	0.995946	-0.956381	0.285879	-0.060078
527	388220													9.342430	-0.315023	-2.843069	-0.289583	-0.954807	0.066972	-0.038265	0.081463	0.995942	-0.956388	0.285845	-0.060126
528	388386													9.300581	-0.362436	-2.824258	-0.289530	-0.954819	0.067027	-0.038383	0.081552	0.995930	-0.956399	0.285779	-0.060260
529	388553													9.286330	-0.362384	-2.812853	-0.289474	-0.954840	0.066979	-0.038544	0.081546	0.995924	-0.956409	0.285713	-0.060409
530	388720													9.268998	-0.369621	-2.809539	-0.289473	-0.954849	0.066848	-0.038737	0.081467	0.995923	-0.956402	0.285703	-0.060570
531	388886													9.285813	-0.378692	-2.818134	-0.289511	-0.954854	0.066617	-0.038890	0.081275	0.995933	-0.956384	0.285743	-0.060665
532	389053													9.294143	-0.363220	-2.830173	-0.289535	-0.954869	0.066295	-0.039121	0.081009	0.995945	-0.956368	0.285767	-0.060811
533	389220													9.318800	-0.355371	-2.835923	-0.289568	-0.954885	0.065912	-0.039392	0.080693	0.995960	-0.956346	0.285802	-0.060981
534	389386													9.300364	-0.329372	-2.814021	-0.289537	-0.954918	0.065569	-0.039674	0.080418	0.995971	-0.956344	0.285769	-0.061169
535	389553													9.308066	-0.313078	-2.837186	-0.289545	-0.954932	0.065335	-0.039921	0.080248	0.995975	-0.956332	0.285771	-0.061357
536	389720													9.347924	-0.335460	-2.824399	-0.289474	-0.954959	0.065254	-0.040124	0.080219	0.995969	-0.956345	0.285689	-0.061538
537	389886													9.317730	-0.404313	-2.835493	-0.289359	-0.954997	0.065211	-0.040341	0.080231	0.995960	-0.956370	0.285559	-0.061741
538	390053													9.299983	-0.362521	-2.826616	-0.289112	-0.955076	0.065146	-0.040567	0.080214	0.995952	-0.956435	0.285299	-0.061935
539	390220													9.246278	-0.397879	-2.845606	-0.289051	-0.955094	0.065152	-0.040725	0.080264	0.995941	-0.956447	0.285225	-0.062097
540	390386													9.312352	-0.399645	-2.831326	-0.289070	-0.955090	0.065126	-0.040826	0.080268	0.995937	-0.956437	0.285236	-0.062196
541	390553													9.371623	-0.356333	-2.795468	-0.289018	-0.955100	0.065217	-0.040722	0.080328	0.995936	-0.956457	0.285188	-0.062110
542	390720													9.361081	-0.408948	-2.780614	-0.288805	-0.955155	0.065352	-0.040545	0.080402	0.995938	-0.956529	0.284982	-0.061947
543	390886													9.287656	-0.414781	-2.807276	-0.288526	-0.955235	0.065420	-0.040399	0.080411	0.995943	-0.956619	0.284712	-0.061791
544	391053													9.261253	-0.387512	-2.800989	-0.288290	-0.955305	0.065432	-0.040291	0.080375	0.995950	-0.956695	0.284486	-0.061661
545	391220													9.247027	-0.355103	-2.767419	-0.288160	-0.955343	0.065446	-0.040267	0.080374	0.995951	-0.956735	0.284358	-0.061629
546	391386													9.292103	-0.350890	-2.768917	-0.288103	-0.955356	0.065506	-0.040164	0.080402	0.995953	-0.956757	0.284306	-0.061535
547	391553													9.290261	-0.405005	-2.775137	-0.288053	-0.955372	0.065502	-0.040112	0.080378	0.995957	-0.956774	0.284261	-0.061475
548	391720													9.310720	-0.380315	-2.787014	-0.288042	-0.955381	0.065410	-0.040129	0.080287	0.995964	-0.956777	0.284254	-0.061465
549	391886													9.317822	-0.365571	-2.802455	-0.288076	-0.955376	0.065338	-0.040121	0.080211	0.995970	-0.956767	0.284294	-0.061437
550	392053													9.325179	-0.358289	-2.785200	-0.288107	-0.955372	0.065255	-0.040103	0.080123	0.995978	-0.956758	0.284331	-0.061397
551	392220													9.311818	-0.360332	-2.798321	-0.288202	-0.955345	0.065232	-0.040043	0.080086	0.995983	-0.956732	0.284432	-0.061336
552	392386													9.333189	-0.359802	-2.782375	-0.288357	-0.955299	0.065220	-0.039996	0.080070	0.995986	-0.956687	0.284591	-0.061297
553	392553													9.318335	-0.351055	-2.762512	-0.288449	-0.955275	0.065165	-0.039963	0.080009	0.995993	-0.956661	0.284689	-0.061255
554	392720													9.217235	-0.391080	-2.780895	-0.288622	-0.955222	0.065175	-0.039937	0.080024	0.995993	-0.956610	0.284862	-0.061245
555	392886													9.274749	-0.398624	-2.826575	-0.288968	-0.955129	0.065005	-0.039964	0.079878	0.996003	-0.956504	0.285215	-0.061253
556	393053													9.240202	-0.298316	-2.791517	-0.289362	-0.955015	0.064926	-0.039841	0.079784	0.996016	-0.956390	0.285622	-0.061135
557	393220													9.283712	-0.367434	-2.827075	-0.289892	-0.954850	0.065000	-0.039606	0.079827	0.996022	-0.956240	0.286164	-0.060959
558	393386													9.367344	-0.377244	-2.863167	-0.290359	-0.954708	0.064990	-0.039464	0.079806	0.996029	-0.956104	0.286641	-0.060849
559	393553													9.370146	-0.361533	-2.875844	-0.290660	-0.954619	0.064953	-0.039432	0.079777	0.996033	-0.956014	0.286945	-0.060830
560	393720													9.319428	-0.346087	-2.868719	-0.290854	-0.954563	0.064916	-0.039460	0.079760	0.996033	-0.955953	0.287138	-0.060866
561	393886													9.268882	-0.347693	-2.884147	-0.291046	-0.954507	0.064879	-0.039415	0.079720	0.996038	-0.955897	0.287336	-0.060824
562	394053													9.260177	-0.374075	-2.872095	-0.291256	-0.954445	0.064845	-0.039293	0.079662	0.996047	-0.955838	0.287557	-0.060705
563	394220													9.265129	-0.389564	-2.846700	-0.291465	-0.954385	0.064782	-0.039142	0.079565	0.996061	-0.955780	0.287781	-0.060547
564	394386													9.278999	-0.375681	-2.878786	-0.291646	-0.954338	0.064666	-0.039012	0.079416	0.996078	-0.955730	0.287980	-0.060392
565	394553													9.311028	-0.310418	-2.856281	-0.291741	-0.954318	0.064535	-0.038842	0.079235	0.996099	-0.955708	0.288096	-0.060184
566	394720													9.315469	-0.293181	-2.847766	-0.291795	-0.954297	0.064592	-0.038632	0.079235	0.996107	-0.955700	0.288164	-0.059987
567	394886													9.298937	-0.299282	-2.896478	-0.291798	-0.954284	0.064770	-0.038405	0.079352	0.996107	-0.955709	0.288175	-0.059804
568	395053													9.328233	-0.312457	-2.865096	-0.291760	-0.954285	0.064927	-0.038289	0.079478	0.996101	-0.955725	0.288136	-0.059728
569	395220													9.308950	-0.322634	-2.871012	-0.291651	-0.954305	0.065128	-0.038264	0.079674	0.996086	-0.955759	0.288017	-0.059753
570	395386													9.290646	-0.341313	-2.851418	-0.291522	-0.954335	0.065272	-0.038258	0.079813	0.996075	-0.955799	0.287881	-0.059778
571	395553													9.268003	-0.375592	-2.856830	-0.291396	-0.954367	0.065363	-0.038286	0.079909	0.996067	-0.955836	0.287747	-0.059824
572	395720													9.267419	-0.387346	-2.827782	-0.291320	-0.954392	0.065336	-0.038328	0.079889	0.996067	-0.955857	0.287670	-0.059854
573	395886													9.298825	-0.388626	-2.807155	-0.291256	-0.954420	0.065205	-0.038376	0.079762	0.996075	-0.955875	0.287611	-0.059858
574	396053													9.271117	-0.360041	-2.814565	-0.291207	-0.954450	0.064993	-0.038446	0.079559	0.996088	-0.955887	0.287570	-0.059863
575	396220													9.276811	-0.331432	-2.796244	-0.291240	-0.954452	0.064819	-0.038478	0.079388	0.996101	-0.955876	0.287610	-0.059846
576	396386													9.290160	-0.369140	-2.828576	-0.291297	-0.954446	0.064640	-0.038505	0.079214	0.996114	-0.955857	0.287676	-0.059826
577	396553													9.274676	-0.322134	-2.825809	-0.291289	-0.954463	0.064434	-0.038526	0.079005	0.996129	-0.955859	0.287679	-0.059785
578	396720													9.228828	-0.347114	-2.841697	-0.291441	-0.954414	0.064461	-0.038532	0.079044	0.996126	-0.955812	0.287829	-0.059812
579	396886													9.312852	-0.348549	-2.845479	-0.291641	-0.954352	0.064475	-0.038579	0.079086	0.996121	-0.955750	0.288022	-0.059883
580	397053													9.345052	-0.311913	-2.844347	-0.291738	-0.954315	0.064587	-0.038452	0.079171	0.996119	-0.955725	0.288122	-0.059793
581	397220													9.356282	-0.342760	-2.830829	-0.291683	-0.954312	0.064881	-0.038175	0.079391	0.996112	-0.955753	0.288073	-0.059588
582	397386													9.340023	-0.370216	-2.840276	-0.291521	-0.954342	0.065165	-0.037903	0.079595	0.996106	-0.955813	0.287916	-0.059376
583	397553													9.308931	-0.354446	-2.842441	-0.291273	-0.954404	0.065366	-0.037649	0.079712	0.996107	-0.955899	0.287678	-0.059151
584	397720													9.269322	-0.337324	-2.808413	-0.290981	-0.954482	0.065536	-0.037466	0.079816	0.996105	-0.955995	0.287392	-0.058986
585	397886													9.243366	-0.333205	-2.805343	-0.290716	-0.954548	0.065741	-0.037277	0.079955	0.996101	-0.956083	0.287132	-0.058827
586	398053													9.251762	-0.352060	-2.813864	-0.290547	-0.954592	0.065852	-0.037180	0.080031	0.996099	-0.956138	0.286965	-0.058745
587	398220													9.301665	-0.351094	-2.801186	-0.290408	-0.954634	0.065854	-0.037195	0.080030	0.996098	-0.956180	0.286825	-0.058749
588	398386													9.303158	-0.362622	-2.821707	-0.290280	-0.954675	0.065830	-0.037280	0.080022	0.996096	-0.956215	0.286692	-0.058819
589	398553													9.311152	-0.357097	-2.819077	-0.290177	-0.954716	0.065685	-0.037404	0.079901	0.996101	-0.956242	0.286589	-0.058895
590	398720													9.315401	-0.333963	-2.814790	-0.290130	-0.954745	0.065479	-0.037530	0.079721	0.996110	-0.956251	0.286544	-0.058961
591	398886													9.305173	-0.334028	-2.821878	-0.290142	-0.954752	0.065316	-0.037582	0.079567	0.996121	-0.956245	0.286562	-0.058967
592	399053													9.301085	-0.335116	-2.802338	-0.290191	-0.954750	0.065134	-0.037633	0.079396	0.996133	-0.956229	0.286617	-0.058970
593	399220													9.209888	-0.337083	-2.812862	-0.290258	-0.954737	0.065024	-0.037642	0.079288	0.996141	-0.956208	0.286690	-0.058952
594	399386													9.240459	-0.361162	-2.830928	-0.290594	-0.954641	0.064926	-0.037720	0.079230	0.996142	-0.956103	0.287024	-0.059033
595	399553													9.265624	-0.297248	-2.823955	-0.290881	-0.954562	0.064810	-0.037765	0.079142	0.996148	-0.956014	0.287313	-0.059070
596	399720													9.270080	-0.288709	-2.851143	-0.291216	-0.954453	0.064900	-0.037582	0.079202	0.996150	-0.955919	0.287656	-0.058935
597	399886													9.331231	-0.366721	-2.892152	-0.291465	-0.954365	0.065087	-0.037366	0.079348	0.996146	-0.955851	0.287910	-0.058788
598	400053													9.341107	-0.364662	-2.885330	-0.291616	-0.954314	0.065161	-0.037266	0.079404	0.996146	-0.955809	0.288063	-0.058719
599	400220													9.357274	-0.335058	-2.866577	-0.291617	-0.954309	0.065219	-0.037285	0.079471	0.996140	-0.955808	0.288060	-0.058756
600	400386													9.326629	-0.314753	-2.854618	-0.291474	-0.954345	0.065339	-0.037281	0.079586	0.996131	-0.955852	0.287911	-0.058776
601	400553													9.282529	-0.346292	-2.835885	-0.291279	-0.954397	0.065440	-0.037248	0.079669	0.996125	-0.955913	0.287713	-0.058755
602	400720													9.230931	-0.347271	-2.838661	-0.291093	-0.954452	0.065465	-0.037174	0.079661	0.996129	-0.955972	0.287532	-0.058670
603	400886													9.263982	-0.351942	-2.846278	-0.290996	-0.954482	0.065464	-0.037093	0.079629	0.996134	-0.956005	0.287443	-0.058576
604	401053													9.275556	-0.338316	-2.840821	-0.290958	-0.954498	0.065395	-0.037009	0.079530	0.996145	-0.956020	0.287416	-0.058465
605	401220													9.303628	-0.298531	-2.837803	-0.290893	-0.954521	0.065358	-0.036929	0.079462	0.996154	-0.956043	0.287361	-0.058364
606	401386													9.293200	-0.284834	-2.849930	-0.290845	-0.954527	0.065480	-0.036787	0.079544	0.996152	-0.956063	0.287317	-0.058249
607	401553													9.300422	-0.318113	-2.842538	-0.290835	-0.954516	0.065689	-0.036667	0.079726	0.996142	-0.956070	0.287304	-0.058187
608	401720													9.320184	-0.333014	-2.857445	-0.290807	-0.954512	0.065863	-0.036614	0.079890	0.996131	-0.956081	0.287270	-0.058181
609	401886													9.314044	-0.333729	-2.839730	-0.290770	-0.954514	0.065995	-0.036662	0.080039	0.996117	-0.956090	0.287221	-0.058267
610	402053													9.295472	-0.342160	-2.835246	-0.290674	-0.954538	0.066067	-0.036750	0.080135	0.996106	-0.956116	0.287115	-0.058372
611	402220													9.269917	-0.375501	-2.844226	-0.290628	-0.954555	0.066032	-0.036836	0.080122	0.996104	-0.956127	0.287063	-0.058448
612	402386													9.289103	-0.388905	-2.839294	-0.290593	-0.954576	0.065885	-0.036899	0.079985	0.996113	-0.956135	0.287032	-0.058466
613	402553													9.278506	-0.375249	-2.821838	-0.290547	-0.954606	0.065654	-0.036975	0.079764	0.996128	-0.956146	0.286995	-0.058472
614	402720													9.290425	-0.344364	-2.822207	-0.290528	-0.954628	0.065420	-0.037042	0.079538	0.996143	-0.956149	0.286984	-0.058469
615	402886													9.279840	-0.312015	-2.821121	-0.290500	-0.954654	0.065157	-0.037079	0.079273	0.996163	-0.956156	0.286969	-0.058426
616	403053													9.294320	-0.325017	-2.826731	-0.290541	-0.954652	0.065002	-0.037026	0.079098	0.996179	-0.956146	0.287024	-0.058328
617	403220													9.319511	-0.325235	-2.834477	-0.290530	-0.954657	0.064984	-0.036959	0.079058	0.996185	-0.956152	0.287020	-0.058252
618	403386													9.305037	-0.305927	-2.810810	-0.290511	-0.954659	0.065040	-0.036857	0.079086	0.996186	-0.956161	0.287006	-0.058161
619	403553													9.303596	-0.310000	-2.821059	-0.290499	-0.954651	0.065203	-0.036722	0.079214	0.996181	-0.956170	0.286995	-0.058068
620	403720													9.280895	-0.303630	-2.825167	-0.290476	-0.954642	0.065443	-0.036525	0.079404	0.996173	-0.956185	0.286974	-0.057934
621	403886													9.285026	-0.310204	-2.816974	-0.290522	-0.954603	0.065802	-0.036331	0.079723	0.996155	-0.956178	0.287014	-0.057843
622	404053													9.315933	-0.371639	-2.835105	-0.290543	-0.954578	0.066072	-0.036216	0.079972	0.996139	-0.956176	0.287028	-0.057806
623	404220													9.273774	-0.348623	-2.836318	-0.290516	-0.954576	0.066221	-0.036174	0.080113	0.996129	-0.956186	0.286996	-0.057805
624	404386													9.243040	-0.377494	-2.825050	-0.290633	-0.954538	0.066256	-0.036193	0.080162	0.996125	-0.956150	0.287108	-0.057845
625	404553													9.310921	-0.372682	-2.836126	-0.290773	-0.954508	0.066066	-0.036291	0.080003	0.996134	-0.956103	0.287252	-0.057903
626	404720													9.335249	-0.321151	-2.851850	-0.290846	-0.954502	0.065830	-0.036233	0.079743	0.996157	-0.956083	0.287343	-0.057778
627	404887													9.315137	-0.331936	-2.847559	-0.290875	-0.954505	0.065662	-0.036084	0.079526	0.996179	-0.956080	0.287394	-0.057575
628	405053													9.320140	-0.324856	-2.832074	-0.290873	-0.954513	0.065562	-0.035913	0.079369	0.996198	-0.956087	0.287413	-0.057365
629	405220													9.325568	-0.277614	-2.821856	-0.290848	-0.954528	0.065447	-0.035815	0.079218	0.996214	-0.956099	0.287403	-0.057227
630	405387													9.297635	-0.228774	-2.851267	-0.290762	-0.954549	0.065523	-0.035703	0.079258	0.996215	-0.956129	0.287322	-0.057125
631	405553													9.281707	-0.263528	-2.841775	-0.290668	-0.954560	0.065786	-0.035589	0.079493	0.996200	-0.956162	0.287222	-0.057078
632	405720													9.257257	-0.335997	-2.828240	-0.290592	-0.954566	0.066038	-0.035553	0.079741	0.996181	-0.956186	0.287134	-0.057110
633	405887													9.298942	-0.343020	-2.829776	-0.290540	-0.954567	0.066237	-0.035617	0.079964	0.996161	-0.956200	0.287066	-0.057232
634	406053													9.317304	-0.374344	-2.849588	-0.290436	-0.954593	0.066326	-0.035720	0.080081	0.996148	-0.956227	0.286948	-0.057357
635	406220													9.326499	-0.374567	-2.859875	-0.290310	-0.954634	0.066287	-0.035801	0.080057	0.996147	-0.956263	0.286819	-0.057418
636	406387													9.307960	-0.366789	-2.830671	-0.290196	-0.954680	0.066129	-0.035859	0.079902	0.996158	-0.956295	0.286710	-0.057421
637	406553													9.296637	-0.359855	-2.826632	-0.290082	-0.954731	0.065883	-0.035906	0.079652	0.996176	-0.956328	0.286607	-0.057386
638	406720													9.304214	-0.315396	-2.816102	-0.290065	-0.954752	0.065657	-0.035928	0.079422	0.996193	-0.956332	0.286602	-0.057340
639	406887													9.331112	-0.298327	-2.805156	-0.290024	-0.954776	0.065490	-0.035927	0.079245	0.996208	-0.956345	0.286571	-0.057285
640	407053													9.225757	-0.316301	-2.825869	-0.290027	-0.954775	0.065485	-0.035958	0.079250	0.996206	-0.956343	0.286572	-0.057316
641	407220													9.260306	-0.345213	-2.832206	-0.290194	-0.954729	0.065428	-0.036062	0.079231	0.996204	-0.956288	0.286733	-0.057422
642	407387													9.209987	-0.276109	-2.828097	-0.290487	-0.954639	0.065436	-0.036060	0.079258	0.996202	-0.956199	0.287024	-0.057447
643	407553													9.303769	-0.330846	-2.853609	-0.290856	-0.954510	0.065677	-0.035872	0.079476	0.996191	-0.956094	0.287393	-0.057356
644	407720													9.345484	-0.367024	-2.863852	-0.291113	-0.954427	0.065747	-0.035698	0.079512	0.996195	-0.956022	0.287659	-0.057218
645	407887													9.371547	-0.342218	-2.848753	-0.291237	-0.954387	0.065775	-0.035620	0.079526	0.996196	-0.955988	0.287786	-0.057156
646	408053													9.335592	-0.314713	-2.864850	-0.291243	-0.954381	0.065833	-0.035602	0.079582	0.996192	-0.955986	0.287791	-0.057156
647	408220													9.302672	-0.304457	-2.842581	-0.291186	-0.954394	0.065901	-0.035564	0.079638	0.996189	-0.956005	0.287732	-0.057132
648	408387													9.289879	-0.331307	-2.836279	-0.291145	-0.954402	0.065967	-0.035524	0.079692	0.996186	-0.956019	0.287691	-0.057106
649	408553													9.271718	-0.336796	-2.829002	-0.291085	-0.954415	0.066048	-0.035486	0.079761	0.996182	-0.956039	0.287630	-0.057085
650	408720													9.286853	-0.340508	-2.848220	-0.291043	-0.954424	0.066103	-0.035428	0.079798	0.996181	-0.956054	0.287590	-0.057038
651	408887													9.281739	-0.325331	-2.843964	-0.290990	-0.954439	0.066111	-0.035341	0.079777	0.996186	-0.956073	0.287544	-0.056945
652	409053													9.301958	-0.279981	-2.825694	-0.290898	-0.954464	0.066151	-0.035206	0.079773	0.996191	-0.956106	0.287461	-0.056809
653	409220													9.285304	-0.278672	-2.835278	-0.290843	-0.954471	0.066293	-0.035050	0.079871	0.996189	-0.956129	0.287411	-0.056685
654	409387													9.311628	-0.301589	-2.827457	-0.290850	-0.954456	0.066482	-0.034928	0.080032	0.996180	-0.956131	0.287417	-0.056614
655	409553													9.342151	-0.324458	-2.823592	-0.290820	-0.954452	0.066672	-0.034906	0.080222	0.996166	-0.956141	0.287377	-0.056647
656	409720													9.310606	-0.331994	-2.809635	-0.290726	-0.954473	0.066784	-0.034972	0.080352	0.996153	-0.956167	0.287272	-0.056740
657	409887													9.280381	-0.355758	-2.835125	-0.290663	-0.954489	0.066823	-0.035084	0.080423	0.996143	-0.956182	0.287197	-0.056863
658	410053													9.273113	-0.393173	-2.843658	-0.290638	-0.954504	0.066722	-0.035204	0.080352	0.996145	-0.956185	0.287169	-0.056955
659	410220													9.271900	-0.373476	-2.834089	-0.290660	-0.954513	0.066504	-0.035279	0.080148	0.996158	-0.956176	0.287197	-0.056970
660	410387													9.287378	-0.351011	-2.815937	-0.290669	-0.954532	0.066188	-0.035355	0.079842	0.996180	-0.956170	0.287219	-0.056955
661	410553													9.298212	-0.329687	-2.838613	-0.290700	-0.954544	0.065874	-0.035363	0.079519	0.996206	-0.956161	0.287267	-0.056872
662	410720													9.297023	-0.288899	-2.840948	-0.290698	-0.954562	0.065621	-0.035387	0.079261	0.996226	-0.956160	0.287279	-0.056820
663	410887													9.291587	-0.266599	-2.819553	-0.290687	-0.954570	0.065554	-0.035330	0.079174	0.996235	-0.956166	0.287276	-0.056740
664	411053													9.303789	-0.283060	-2.828286	-0.290690	-0.954561	0.065674	-0.035268	0.079280	0.996228	-0.956167	0.287277	-0.056711
665	411220													9.313222	-0.290803	-2.828870	-0.290631	-0.954565	0.065880	-0.035197	0.079470	0.996216	-0.956188	0.287212	-0.056694
666	411387													9.301423	-0.289292	-2.825673	-0.290555	-0.954567	0.066171	-0.035102	0.079742	0.996197	-0.956214	0.287128	-0.056677
667	411553													9.276836	-0.303462	-2.823799	-0.290445	-0.954580	0.066471	-0.034987	0.080013	0.996180	-0.956252	0.287010	-0.056637
668	411720													9.293731	-0.325013	-2.856125	-0.290399	-0.954572	0.066795	-0.034844	0.080306	0.996161	-0.956271	0.286957	-0.056582
669	411887													9.328640	-0.361894	-2.827045	-0.290335	-0.954579	0.066962	-0.034778	0.080456	0.996151	-0.956293	0.286888	-0.056558
670	412053													9.292820	-0.340413	-2.832169	-0.290147	-0.954637	0.066952	-0.034837	0.080452	0.996150	-0.956348	0.286697	-0.056599
671	412220													9.224143	-0.389428	-2.819472	-0.290064	-0.954667	0.066891	-0.034960	0.080420	0.996148	-0.956368	0.286608	-0.056702
672	412387													9.293003	-0.374243	-2.829588	-0.290091	-0.954676	0.066638	-0.035227	0.080238	0.996153	-0.956351	0.286627	-0.056907
673	412553													9.284914	-0.324617	-2.838452	-0.290098	-0.954697	0.066306	-0.035408	0.079946	0.996170	-0.956342	0.286639	-0.056996
674	412720													9.346840	-0.288074	-2.836472	-0.290123	-0.954705	0.066078	-0.035427	0.079715	0.996188	-0.956333	0.286676	-0.056950
675	412887													9.351389	-0.297108	-2.821109	-0.290007	-0.954748	0.065973	-0.035352	0.079575	0.996202	-0.956371	0.286573	-0.056829
676	413053													9.305796	-0.273483	-2.819546	-0.289867	-0.954793	0.065938	-0.035297	0.079514	0.996209	-0.956416	0.286441	-0.056749
677	413220													9.293170	-0.233200	-2.813819	-0.289737	-0.954825	0.066045	-0.035278	0.079612	0.996201	-0.956456	0.286306	-0.056750
678	413387													9.292397	-0.233506	-2.815396	-0.289587	-0.954842	0.066447	-0.035241	0.080011	0.996171	-0.956503	0.286137	-0.056820
679	413553													9.267541	-0.342256	-2.798902	-0.289456	-0.954856	0.066816	-0.035307	0.080408	0.996137	-0.956540	0.285979	-0.056988
680	413720													9.300144	-0.385335	-2.813782	-0.289381	-0.954863	0.067046	-0.035472	0.080692	0.996108	-0.956556	0.285877	-0.057222
681	413887													9.339108	-0.408271	-2.801827	-0.289200	-0.954914	0.067105	-0.035639	0.080793	0.996094	-0.956605	0.285679	-0.057397
682	414053													9.313215	-0.390783	-2.799732	-0.288980	-0.954987	0.067018	-0.035725	0.080714	0.996097	-0.956668	0.285457	-0.057442
683	414220													9.301250	-0.387444	-2.816955	-0.288788	-0.955060	0.066796	-0.035741	0.080475	0.996116	-0.956726	0.285279	-0.057375
684	414387													9.288600	-0.341387	-2.799270	-0.288661	-0.955118	0.066517	-0.035770	0.080184	0.996138	-0.956763	0.285167	-0.057311
685	414553													9.318209	-0.305022	-2.790929	-0.288605	-0.955148	0.066322	-0.035784	0.079982	0.996154	-0.956779	0.285122	-0.057263
686	414720													9.330425	-0.278297	-2.782883	-0.288546	-0.955175	0.066195	-0.035837	0.079862	0.996162	-0.956795	0.285066	-0.057274
687	414887													9.220933	-0.333930	-2.780278	-0.288534	-0.955175	0.066249	-0.035915	0.079941	0.996152	-0.956796	0.285044	-0.057371
688	415053													9.245315	-0.355429	-2.821691	-0.288717	-0.955123	0.066207	-0.036108	0.079965	0.996143	-0.956733	0.285213	-0.057575
689	415220													9.237996	-0.301589	-2.814880	-0.289034	-0.955030	0.066168	-0.036203	0.079973	0.996139	-0.956634	0.285522	-0.057690
690	415387													9.342123	-0.341573	-2.842913	-0.289355	-0.954926	0.066261	-0.036147	0.080074	0.996133	-0.956539	0.285841	-0.057687
691	415553													9.365958	-0.393701	-2.857569	-0.289523	-0.954878	0.066223	-0.036153	0.080046	0.996135	-0.956488	0.286010	-0.057696
692	415720													9.374016	-0.343279	-2.850770	-0.289541	-0.954881	0.066090	-0.036249	0.079937	0.996141	-0.956479	0.286027	-0.057758
693	415887													9.325671	-0.317340	-2.823816	-0.289410	-0.954925	0.066028	-0.036397	0.079909	0.996137	-0.956513	0.285889	-0.057883
694	416053													9.300578	-0.322288	-2.831231	-0.289187	-0.954992	0.066043	-0.036484	0.079936	0.996132	-0.956577	0.285659	-0.057959
695	416220													9.274528	-0.330488	-2.824221	-0.288970	-0.955052	0.066122	-0.036554	0.080025	0.996122	-0.956640	0.285432	-0.058036
696	416387													9.302384	-0.345540	-2.797256	-0.288917	-0.955063	0.066193	-0.036561	0.080098	0.996116	-0.956656	0.285375	-0.058060
697	416553													9.283160	-0.310136	-2.798089	-0.288888	-0.955068	0.066248	-0.036589	0.080162	0.996110	-0.956664	0.285340	-0.058103
698	416720													9.292216	-0.297526	-2.810903	-0.288873	-0.955068	0.066312	-0.036622	0.080238	0.996103	-0.956667	0.285318	-0.058155
699	416887													9.300261	-0.309690	-2.823064	-0.288900	-0.955051	0.066444	-0.036691	0.080398	0.996087	-0.956656	0.285331	-0.058269
700	417053													9.338900	-0.329635	-2.815498	-0.288883	-0.955046	0.066581	-0.036814	0.080577	0.996068	-0.956656	0.285296	-0.058437
701	417220													9.354159	-0.346826	-2.806057	-0.288773	-0.955075	0.066642	-0.037021	0.080695	0.996051	-0.956682	0.285166	-0.058661
702	417387													9.332060	-0.382110	-2.828718	-0.288591	-0.955135	0.066580	-0.037244	0.080685	0.996044	-0.956728	0.284969	-0.058858
703	417553													9.282288	-0.382640	-2.806736	-0.288427	-0.955195	0.066428	-0.037478	0.080586	0.996043	-0.956768	0.284796	-0.059041
704	417720													9.292904	-0.366994	-2.801155	-0.288314	-0.955245	0.066199	-0.037682	0.080401	0.996050	-0.956794	0.284681	-0.059176
705	417887													9.298468	-0.357339	-2.803991	-0.288194	-0.955297	0.065962	-0.037860	0.080199	0.996060	-0.956823	0.284561	-0.059281
706	418053													9.301299	-0.362817	-2.804638	-0.288070	-0.955351	0.065720	-0.038037	0.079990	0.996070	-0.956854	0.284438	-0.059381
707	418220													9.293550	-0.343474	-2.828827	-0.287971	-0.955398	0.065483	-0.038221	0.079792	0.996079	-0.956876	0.284338	-0.059493
708	418387													9.277500	-0.324426	-2.807905	-0.287876	-0.955437	0.065330	-0.038385	0.079675	0.996082	-0.956898	0.284240	-0.059611
709	418553													9.292472	-0.356722	-2.786994	-0.287837	-0.955453	0.065257	-0.038522	0.079637	0.996079	-0.956904	0.284195	-0.059729
710	418720													9.317744	-0.381547	-2.808390	-0.287791	-0.955468	0.065249	-0.038654	0.079664	0.996072	-0.956913	0.284138	-0.059859
711	418887													9.327562	-0.359004	-2.799743	-0.287710	-0.955492	0.065246	-0.038782	0.079694	0.996065	-0.956932	0.284048	-0.059984
712	419053													9.331094	-0.367206	-2.786311	-0.287584	-0.955527	0.065298	-0.038868	0.079766	0.996056	-0.956967	0.283911	-0.060079
713	419220													9.290913	-0.362151	-2.788343	-0.287514	-0.955543	0.065378	-0.038919	0.079859	0.996046	-0.956985	0.283832	-0.060149
714	419387													9.331260	-0.373640	-2.790308	-0.287482	-0.955543	0.065511	-0.038900	0.079990	0.996036	-0.956996	0.283794	-0.060167
715	419553													9.319786	-0.407459	-2.787017	-0.287402	-0.955560	0.065620	-0.038874	0.080092	0.996029	-0.957021	0.283710	-0.060165
716	419720													9.306310	-0.386638	-2.761315	-0.287289	-0.955592	0.065649	-0.038870	0.080112	0.996028	-0.957055	0.283596	-0.060159
717	419887													9.212749	-0.409486	-2.790414	-0.287326	-0.955582	0.065627	-0.038861	0.080090	0.996030	-0.957044	0.283635	-0.060147
718	420053													9.326138	-0.408014	-2.810776	-0.287504	-0.955538	0.065487	-0.038876	0.079960	0.996040	-0.956990	0.283820	-0.060136
719	420220													9.356420	-0.354753	-2.771174	-0.287629	-0.955510	0.065348	-0.038784	0.079795	0.996057	-0.956956	0.283960	-0.060009
720	420387													9.338389	-0.371629	-2.779017	-0.287625	-0.955512	0.065340	-0.038614	0.079736	0.996068	-0.956964	0.283971	-0.059830
721	420553													9.311448	-0.363360	-2.759591	-0.287626	-0.955512	0.065334	-0.038430	0.079676	0.996080	-0.956971	0.283988	-0.059637
722	420720													9.284532	-0.323425	-2.783962	-0.287621	-0.955509	0.065392	-0.038250	0.079682	0.996086	-0.956980	0.283994	-0.059467
723	420887													9.269129	-0.312414	-2.773288	-0.287663	-0.955487	0.065529	-0.038119	0.079789	0.996083	-0.956973	0.284039	-0.059374
724	421053													9.279214	-0.333643	-2.770427	-0.287740	-0.955450	0.065728	-0.037968	0.079957	0.996075	-0.956956	0.284115	-0.059284
725	421220													9.287403	-0.371822	-2.805245	-0.287828	-0.955413	0.065893	-0.037864	0.080104	0.996067	-0.956933	0.284201	-0.059232
726	421387													9.328172	-0.385673	-2.812347	-0.287881	-0.955391	0.065966	-0.037822	0.080171	0.996063	-0.956919	0.284253	-0.059214
727	421554													9.321342	-0.368832	-2.809268	-0.287896	-0.955389	0.065938	-0.037796	0.080135	0.996067	-0.956916	0.284271	-0.059180
728	421720													9.332496	-0.367734	-2.815916	-0.287870	-0.955403	0.065853	-0.037768	0.080037	0.996076	-0.956924	0.284253	-0.059123
729	421887													9.311575	-0.362806	-2.809201	-0.287850	-0.955414	0.065780	-0.037678	0.079933	0.996088	-0.956934	0.284246	-0.059007
730	422054													9.290965	-0.358694	-2.825651	-0.287883	-0.955411	0.065675	-0.037593	0.079800	0.996102	-0.956928	0.284292	-0.058890
731	422220													9.315208	-0.323479	-2.794874	-0.287992	-0.955386	0.065562	-0.037527	0.079669	0.996115	-0.956897	0.284413	-0.058797
732	422387													9.229197	-0.341889	-2.817980	-0.288066	-0.955364	0.065560	-0.037482	0.079659	0.996117	-0.956877	0.284490	-0.058756
733	422554													9.277034	-0.361272	-2.842297	-0.288263	-0.955311	0.065470	-0.037543	0.079595	0.996120	-0.956815	0.284686	-0.058809
734	422720													9.286599	-0.290924	-2.829112	-0.288382	-0.955280	0.065397	-0.037546	0.079528	0.996125	-0.956779	0.284809	-0.058801
735	422887													9.284346	-0.328081	-2.862968	-0.288532	-0.955227	0.065506	-0.037391	0.079605	0.996125	-0.956740	0.284964	-0.058686
736	423054													9.369402	-0.375019	-2.866634	-0.288648	-0.955184	0.065615	-0.037265	0.079688	0.996123	-0.956710	0.285084	-0.058597
737	423220													9.382789	-0.378606	-2.856328	-0.288607	-0.955197	0.065605	-0.037254	0.079672	0.996125	-0.956723	0.285044	-0.058579
738	423387													9.350799	-0.340131	-2.850419	-0.288396	-0.955266	0.065539	-0.037300	0.079603	0.996128	-0.956785	0.284835	-0.058589
739	423554													9.312437	-0.340682	-2.826622	-0.288129	-0.955345	0.065551	-0.037285	0.079595	0.996130	-0.956865	0.284570	-0.058554
740	423720													9.273282	-0.342467	-2.830724	-0.287842	-0.955430	0.065572	-0.037224	0.079579	0.996133	-0.956954	0.284288	-0.058471
741	423887													9.275845	-0.373626	-2.820514	-0.287557	-0.955514	0.065605	-0.037119	0.079565	0.996138	-0.957044	0.284011	-0.058347
742	424054													9.281604	-0.351965	-2.806913	-0.287275	-0.955599	0.065605	-0.037059	0.079529	0.996143	-0.957131	0.283736	-0.058261
743	424220													9.323037	-0.319420	-2.808624	-0.286931	-0.955704	0.065580	-0.036970	0.079455	0.996153	-0.957238	0.283403	-0.058131
744	424387													9.300995	-0.282074	-2.808659	-0.286520	-0.955820	0.065687	-0.036800	0.079490	0.996156	-0.957367	0.283001	-0.057950
745	424554													9.276835	-0.304742	-2.787637	-0.286191	-0.955904	0.065889	-0.036606	0.079623	0.996153	-0.957473	0.282678	-0.057779
746	424720													9.339314	-0.337552	-2.787120	-0.285909	-0.955976	0.066080	-0.036480	0.079767	0.996146	-0.957562	0.282397	-0.057680
747	424887													9.357896	-0.342814	-2.769341	-0.285566	-0.956064	0.066291	-0.036471	0.079963	0.996130	-0.957665	0.282043	-0.057704
748	425054													9.363206	-0.337396	-2.782693	-0.285160	-0.956173	0.066458	-0.036510	0.080123	0.996116	-0.957784	0.281626	-0.057758
749	425220													9.312107	-0.374746	-2.772446	-0.284695	-0.956305	0.066557	-0.036552	0.080209	0.996108	-0.957921	0.281154	-0.057790
750	425387													9.254495	-0.382476	-2.762130	-0.284270	-0.956431	0.066555	-0.036555	0.080181	0.996110	-0.958047	0.280732	-0.057755
751	425554													9.291168	-0.387627	-2.785148	-0.283980	-0.956523	0.066482	-0.036552	0.080086	0.996118	-0.958133	0.280448	-0.057706
752	425720													9.355399	-0.355971	-2.770497	-0.283671	-0.956625	0.066322	-0.036581	0.079909	0.996131	-0.958224	0.280147	-0.057662
753	425887													9.374201	-0.323328	-2.742348	-0.283247	-0.956760	0.066192	-0.036589	0.079749	0.996143	-0.958349	0.279733	-0.057595
754	426054													9.347095	-0.302072	-2.747916	-0.282736	-0.956917	0.066110	-0.036624	0.079641	0.996151	-0.958498	0.279226	-0.057563
755	426220													9.336576	-0.305967	-2.778389	-0.282170	-0.957082	0.066145	-0.036653	0.079651	0.996149	-0.958664	0.278658	-0.057556
756	426387													9.329350	-0.352152	-2.754119	-0.281539	-0.957258	0.066275	-0.036700	0.079761	0.996138	-0.958848	0.278019	-0.057587
757	426554													9.341511	-0.354730	-2.751530	-0.280867	-0.957451	0.066348	-0.036805	0.079825	0.996129	-0.959041	0.277337	-0.057660
758	426720													9.245041	-0.342135	-2.760232	-0.280213	-0.957629	0.066534	-0.036865	0.079995	0.996113	-0.959230	0.276671	-0.057718
759	426887													9.360704	-0.381916	-2.772665	-0.279683	-0.957771	0.066719	-0.036889	0.080161	0.996099	-0.959383	0.276131	-0.057751
760	427054													9.411777	-0.374863	-2.776219	-0.278971	-0.957970	0.066853	-0.036811	0.080233	0.996096	-0.959594	0.275421	-0.057647
761	427220													9.427435	-0.349098	-2.752710	-0.278038	-0.958228	0.067032	-0.036568	0.080292	0.996100	-0.959874	0.274502	-0.057365
762	427387													9.341693	-0.354327	-2.728980	-0.276939	-0.958533	0.067224	-0.036356	0.080363	0.996102	-0.960199	0.273416	-0.057104
763	427554													9.339400	-0.309043	-2.725252	-0.275859	-0.958832	0.067405	-0.036111	0.080415	0.996107	-0.960519	0.272351	-0.056807
764	427720													9.335753	-0.285415	-2.698649	-0.274670	-0.959156	0.067643	-0.035889	0.080527	0.996106	-0.960868	0.271173	-0.056542
765	427887													9.366263	-0.279348	-2.662723	-0.273433	-0.959484	0.068002	-0.035648	0.080755	0.996096	-0.961230	0.269941	-0.056285
766	428054													9.361796	-0.330520	-2.666847	-0.272048	-0.959852	0.068373	-0.035433	0.080997	0.996084	-0.961631	0.268560	-0.056045
767	428220													9.359318	-0.338873	-2.669111	-0.270606	-0.960236	0.068699	-0.035336	0.081221	0.996070	-0.962041	0.267115	-0.055910
768	428387													9.407355	-0.331011	-2.673662	-0.269062	-0.960649	0.068986	-0.035255	0.081403	0.996058	-0.962477	0.265569	-0.055770
769	428554													9.416958	-0.347956	-2.675373	-0.267397	-0.961095	0.069248	-0.035174	0.081552	0.996048	-0.962944	0.263905	-0.055613
770	428720													9.411680	-0.337826	-2.669671	-0.265592	-0.961578	0.069494	-0.035056	0.081668	0.996043	-0.963448	0.262105	-0.055399
771	428887													9.370034	-0.332532	-2.611176	-0.263797	-0.962057	0.069695	-0.034997	0.081753	0.996038	-0.963943	0.260312	-0.055236
772	429054													9.423145	-0.341222	-2.595354	-0.262039	-0.962524	0.069874	-0.034998	0.081834	0.996031	-0.964422	0.258554	-0.055130
773	429220													9.466899	-0.337032	-2.557527	-0.260104	-0.963038	0.070020	-0.035019	0.081877	0.996027	-0.964945	0.256619	-0.055021
774	429387													9.358779	-0.374113	-2.556319	-0.258040	-0.963583	0.070159	-0.035120	0.081926	0.996019	-0.965496	0.254549	-0.054982
775	429554													9.369073	-0.360774	-2.546005	-0.256011	-0.964127	0.070132	-0.035316	0.081829	0.996020	-0.966029	0.252515	-0.054998
776	429720													9.323918	-0.252882	-2.502340	-0.254010	-0.964658	0.070105	-0.035375	0.081700	0.996029	-0.966554	0.250522	-0.054877
777	429887													9.406342	-0.287310	-2.510575	-0.252112	-0.965140	0.070318	-0.035270	0.081781	0.996026	-0.967055	0.248630	-0.054659
778	430054													9.506488	-0.340942	-2.479960	-0.250058	-0.965657	0.070551	-0.035176	0.081878	0.996021	-0.967592	0.246582	-0.054442
779	430220													9.550400	-0.374032	-2.482538	-0.247738	-0.966236	0.070811	-0.035147	0.082004	0.996012	-0.968189	0.244261	-0.054275
780	430387													9.526575	-0.330970	-2.443138	-0.245131	-0.966881	0.071083	-0.035194	0.082147	0.995999	-0.968851	0.241648	-0.054165
781	430554													9.482083	-0.334224	-2.433555	-0.242326	-0.967567	0.071363	-0.035180	0.082270	0.995989	-0.969557	0.238843	-0.053976
782	430720													9.432841	-0.303608	-2.393224	-0.239428	-0.968260	0.071746	-0.035103	0.082480	0.995974	-0.970279	0.235946	-0.053737
783	430887													9.385200	-0.320828	-2.350949	-0.236527	-0.968940	0.072183	-0.034975	0.082733	0.995958	-0.970995	0.233046	-0.053457
784	431054													9.449116	-0.319956	-2.338024	-0.233683	-0.969599	0.072592	-0.034876	0.082969	0.995942	-0.971687	0.230203	-0.053204
785	431220													9.494065	-0.300102	-2.307088	-0.230750	-0.970267	0.073049	-0.034744	0.083244	0.995923	-0.972393	0.227271	-0.052920
786	431387													9.543619	-0.325734	-2.253256	-0.227646	-0.970962	0.073559	-0.034535	0.083546	0.995905	-0.973131	0.224173	-0.052551
787	431554													9.554534	-0.302708	-2.236573	-0.224319	-0.971696	0.074075	-0.034326	0.083843	0.995888	-0.973911	0.220854	-0.052162
788	431720													9.540510	-0.301246	-2.220337	-0.220845	-0.972452	0.074593	-0.034198	0.084155	0.995866	-0.974709	0.217381	-0.051841
789	431887													9.554711	-0.299667	-2.176772	-0.217277	-0.973216	0.075103	-0.034151	0.084473	0.995840	-0.975512	0.213808	-0.051590
790	432054													9.524938	-0.295709	-2.138907	-0.213571	-0.973994	0.075655	-0.034150	0.084838	0.995809	-0.976331	0.210092	-0.051381
791	432220													9.532085	-0.304774	-2.130323	-0.209824	-0.974763	0.076235	-0.034196	0.085239	0.995774	-0.977141	0.206330	-0.051218
792	432387													9.507489	-0.300296	-2.070661	-0.206027	-0.975527	0.076810	-0.034276	0.085640	0.995736	-0.977946	0.202516	-0.051082
793	432554													9.522262	-0.350269	-2.059198	-0.202245	-0.976271	0.077402	-0.034378	0.086064	0.995696	-0.978731	0.198714	-0.050969
794	432720													9.542367	-0.367597	-1.993237	-0.198465	-0.977004	0.077938	-0.034482	0.086431	0.995661	-0.979501	0.194917	-0.050843
795	432887													9.577957	-0.395353	-1.953370	-0.194636	-0.977737	0.078402	-0.034538	0.086712	0.995635	-0.980267	0.191079	-0.050647
796	433054													9.593429	-0.372910	-1.910485	-0.190731	-0.978480	0.078730	-0.034589	0.086852	0.995621	-0.981033	0.187173	-0.050410
797	433220													9.570980	-0.318776	-1.889649	-0.186742	-0.979224	0.079043	-0.034640	0.086972	0.995608	-0.981798	0.183184	-0.050162
798	433387													9.551353	-0.328961	-1.854295	-0.182784	-0.979943	0.079378	-0.034611	0.087102	0.995598	-0.982544	0.179232	-0.049838
799	433554													9.562330	-0.331391	-1.812617	-0.178889	-0.980633	0.079734	-0.034561	0.087255	0.995586	-0.983262	0.175343	-0.049501
800	433720													9.615020	-0.309312	-1.760246	-0.174977	-0.981308	0.080115	-0.034459	0.087424	0.995575	-0.983969	0.171442	-0.049112
801	433887													9.615937	-0.300377	-1.728559	-0.170940	-0.981981	0.080575	-0.034306	0.087661	0.995559	-0.984684	0.167417	-0.048673
802	434054													9.609358	-0.287558	-1.688356	-0.166849	-0.982640	0.081118	-0.034080	0.087969	0.995540	-0.985393	0.163340	-0.048166
803	434220													9.623970	-0.292119	-1.630858	-0.162761	-0.983275	0.081720	-0.033841	0.088339	0.995515	-0.986085	0.159266	-0.047653
804	434387													9.686501	-0.288650	-1.609679	-0.158614	-0.983904	0.082307	-0.033651	0.088701	0.995490	-0.986767	0.155129	-0.047179
805	434554													9.700729	-0.293553	-1.560158	-0.154258	-0.984542	0.082961	-0.033480	0.089126	0.995458	-0.987463	0.150780	-0.046711
806	434720													9.670347	-0.339622	-1.541715	-0.149750	-0.985179	0.083648	-0.033345	0.089586	0.995421	-0.988161	0.146275	-0.046266
807	434887													9.736283	-0.315291	-1.494196	-0.145081	-0.985825	0.084265	-0.033288	0.089981	0.995387	-0.988860	0.141607	-0.045870
808	435054													9.712958	-0.312831	-1.446648	-0.140198	-0.986469	0.084987	-0.033141	0.090462	0.995348	-0.989569	0.136729	-0.045375
809	435220													9.761044	-0.306772	-1.424108	-0.135086	-0.987117	0.085742	-0.032968	0.090965	0.995308	-0.990285	0.131626	-0.044831
810	435387													9.754340	-0.311400	-1.369276	-0.129648	-0.987775	0.086560	-0.032739	0.091514	0.995265	-0.991019	0.126200	-0.044204
811	435554													9.691100	-0.329457	-1.318018	-0.123973	-0.988437	0.087306	-0.032476	0.091980	0.995231	-0.991754	0.120547	-0.043504
812	435720													9.692515	-0.258866	-1.263994	-0.118126	-0.989090	0.088022	-0.032209	0.092412	0.995200	-0.992476	0.114724	-0.042773
813	435887													9.748443	-0.244925	-1.234086	-0.112074	-0.989719	0.088855	-0.031896	0.092955	0.995159	-0.993188	0.108697	-0.041986
814	436054													9.759104	-0.298673	-1.144253	-0.105779	-0.990330	0.089764	-0.031567	0.093569	0.995112	-0.993888	0.102429	-0.041159
815	436220													9.767164	-0.296074	-1.084649	-0.099289	-0.990924	0.090619	-0.031377	0.094142	0.995064	-0.994564	0.095955	-0.040439
816	436387													9.828690	-0.273380	-1.030768	-0.092556	-0.991496	0.091479	-0.031317	0.094727	0.995011	-0.995215	0.089229	-0.039819
817	436554													9.777697	-0.267254	-0.966549	-0.085561	-0.992039	0.092401	-0.031310	0.095372	0.994949	-0.995841	0.082236	-0.039221
818	436720													9.675113	-0.262304	-0.910232	-0.078621	-0.992529	0.093296	-0.031404	0.096005	0.994885	-0.996410	0.075289	-0.038718
819	436887													9.707471	-0.308400	-0.828112	-0.071877	-0.992954	0.094210	-0.031486	0.096666	0.994819	-0.996916	0.068538	-0.038213
820	437054													9.716459	-0.308034	-0.734123	-0.065214	-0.993338	0.095007	-0.031546	0.097214	0.994763	-0.997373	0.061875	-0.037676
821	437220													9.711358	-0.288053	-0.652897	-0.058625	-0.993675	0.095774	-0.031527	0.097734	0.994713	-0.997782	0.055296	-0.037058
822	437387													9.727137	-0.355507	-0.558665	-0.052188	-0.993967	0.096464	-0.031454	0.098184	0.994671	-0.998142	0.048876	-0.036388
823	437554													9.755898	-0.318211	-0.522006	-0.045692	-0.994239	0.096954	-0.031406	0.098437	0.994648	-0.998462	0.042402	-0.035723
824	437720													9.710246	-0.258413	-0.439404	-0.039258	-0.994462	0.097486	-0.031264	0.098736	0.994622	-0.998740	0.035999	-0.034967
825	437887													9.703754	-0.268141	-0.368729	-0.033064	-0.994629	0.098082	-0.031074	0.099112	0.994591	-0.998970	0.029837	-0.034184
826	438054													9.727887	-0.253397	-0.308936	-0.027111	-0.994744	0.098743	-0.030921	0.099566	0.994550	-0.999154	0.023910	-0.033457
827	438221													9.751497	-0.262493	-0.245064	-0.021321	-0.994818	0.099407	-0.030830	0.100037	0.994506	-0.999297	0.018140	-0.032803
828	438387													9.845184	-0.229740	-0.153116	-0.015579	-0.994857	0.100087	-0.030768	0.100529	0.994458	-0.999405	0.012413	-0.032176
829	438554													9.846430	-0.259570	-0.092119	-0.009622	-0.994857	0.100832	-0.030715	0.101083	0.994404	-0.999482	0.006471	-0.031530
830	438721													9.835537	-0.288943	-0.058683	-0.003510	-0.994823	0.101564	-0.030640	0.101624	0.994351	-0.999524	0.000378	-0.030838
831	438887													9.764091	-0.285865	0.017157	0.002713	-0.994757	0.102233	-0.030636	0.102102	0.994302	-0.999527	-0.005830	-0.030199
832	439054													9.734670	-0.303647	0.069738	0.008842	-0.994660	0.102827	-0.030635	0.102513	0.994260	-0.999492	-0.011941	-0.029565
833	439221													9.808582	-0.240867	0.128465	0.014959	-0.994533	0.103344	-0.030686	0.102851	0.994223	-0.999417	-0.018044	-0.028980
834	439387													9.874172	-0.244979	0.173324	0.021218	-0.994360	0.103915	-0.030668	0.103242	0.994183	-0.999304	-0.024281	-0.028305
835	439554													9.908179	-0.239767	0.219495	0.027797	-0.994134	0.104524	-0.030565	0.103670	0.994142	-0.999146	-0.030829	-0.027504
836	439721													9.924024	-0.275687	0.258605	0.034797	-0.993853	0.105098	-0.030497	0.104056	0.994104	-0.998929	-0.037797	-0.026689
837	439887													9.928115	-0.264740	0.316823	0.042125	-0.993523	0.105533	-0.030545	0.104297	0.994077	-0.998645	-0.045099	-0.025953
838	440054													9.893688	-0.215614	0.386905	0.049836	-0.993112	0.106043	-0.030745	0.104599	0.994039	-0.998284	-0.052799	-0.025320
839	440221													9.757812	-0.252274	0.471338	0.057674	-0.992622	0.106656	-0.031093	0.104996	0.993986	-0.997851	-0.060643	-0.024808
840	440387													9.709542	-0.274236	0.531698	0.065324	-0.992088	0.107213	-0.031643	0.105329	0.993934	-0.997362	-0.068320	-0.024512
841	440554													9.752989	-0.274852	0.648512	0.072722	-0.991518	0.107721	-0.032325	0.105607	0.993882	-0.996828	-0.075759	-0.024371
842	440721													9.844015	-0.308477	0.735513	0.080039	-0.990903	0.108188	-0.033007	0.105842	0.993835	-0.996245	-0.083117	-0.024236
843	440887													9.803267	-0.371529	0.811279	0.087388	-0.990240	0.108572	-0.033683	0.105990	0.993797	-0.995605	-0.090503	-0.024092
844	441054													9.718911	-0.372857	0.861365	0.094607	-0.989558	0.108743	-0.034342	0.105923	0.993781	-0.994922	-0.097753	-0.023962
845	441221													9.738603	-0.333895	1.020410	0.108185	-0.988180	0.108614	-0.035363	0.105361	0.993805	-0.993502	-0.111355	-0.023546
846	441387													9.716590	-0.293058	1.089712	0.114780	-0.987450	0.108483	-0.035691	0.105035	0.993828	-0.992750	-0.117943	-0.023187
847	441554													9.740711	-0.275330	1.171769	0.121239	-0.986687	0.108393	-0.035911	0.104767	0.993848	-0.991974	-0.124385	-0.022731
848	441721													9.734001	-0.292983	1.188323	0.127715	-0.985866	0.108430	-0.036128	0.104628	0.993855	-0.991153	-0.130848	-0.022255
849	441887													9.676534	-0.299466	1.252160	0.134153	-0.984999	0.108539	-0.036469	0.104548	0.993851	-0.990289	-0.137286	-0.021897
850	442054													9.730947	-0.331091	1.328908	0.140521	-0.984100	0.108633	-0.036892	0.104441	0.993847	-0.989390	-0.143664	-0.021629
851	442221													9.762752	-0.337375	1.375480	0.147037	-0.983137	0.108732	-0.037426	0.104318	0.993840	-0.988423	-0.150201	-0.021457
852	442387													9.777332	-0.387034	1.475687	0.153577	-0.982132	0.108767	-0.038068	0.104110	0.993837	-0.987403	-0.156771	-0.021399
853	442554													9.750287	-0.330117	1.517566	0.160199	-0.981081	0.108707	-0.038670	0.103807	0.993845	-0.986327	-0.163417	-0.021309
854	442721													9.640659	-0.344330	1.616072	0.166698	-0.979992	0.108758	-0.039214	0.103625	0.993843	-0.985228	-0.169937	-0.021155
855	442887													9.646878	-0.358578	1.695015	0.172874	-0.978923	0.108744	-0.039775	0.103378	0.993847	-0.984141	-0.176135	-0.021065
856	443054													9.679082	-0.363791	1.773001	0.178895	-0.977842	0.108728	-0.040254	0.103143	0.993852	-0.983044	-0.182172	-0.020911
857	443221													9.671720	-0.345329	1.805308	0.184861	-0.976732	0.108724	-0.040587	0.102949	0.993858	-0.981926	-0.188138	-0.020612
858	443387													9.623502	-0.349812	1.884511	0.190735	-0.975596	0.108775	-0.040879	0.102820	0.993860	-0.980790	-0.194011	-0.020270
859	443554													9.590640	-0.394200	1.934134	0.196464	-0.974464	0.108732	-0.041206	0.102590	0.993870	-0.979645	-0.199740	-0.019998
860	443721													9.604531	-0.354201	1.990586	0.201912	-0.973352	0.108707	-0.041626	0.102364	0.993876	-0.978519	-0.205201	-0.019848
861	443887													9.655615	-0.379491	2.022020	0.207241	-0.972236	0.108668	-0.042038	0.102127	0.993883	-0.977386	-0.210541	-0.019706
862	444054													9.665678	-0.386817	2.039361	0.212586	-0.971081	0.108665	-0.042494	0.101914	0.993885	-0.976218	-0.215904	-0.019600
863	444221													9.660010	-0.419709	2.076511	0.217956	-0.969895	0.108620	-0.042924	0.101661	0.993893	-0.975014	-0.221288	-0.019474
864	444387													9.700598	-0.440547	2.132503	0.223430	-0.968655	0.108564	-0.043325	0.101400	0.993902	-0.973757	-0.226771	-0.019311
865	444554													9.644049	-0.435549	2.195035	0.229038	-0.967373	0.108313	-0.043675	0.100947	0.993933	-0.972437	-0.232379	-0.019130
866	444721													9.614657	-0.400132	2.250768	0.234740	-0.966037	0.108026	-0.043965	0.100466	0.993969	-0.971063	-0.238073	-0.018888
