// Start Time: Unknown
// Update Rate: 60.0Hz
//Filter Profile: human (46.1)
// Option Flags: AHS Disabled ICC Disabled
// Firmware Version: 4.0.2
0	sampleTimeFine	Year	Month	Day	Second	UTC_Nano	UTC_Year	UTC_Month	UTC_Day	UTC_Hour	UTC_Minute	UTC_Second	UTC_Valid	Acc_X	Acc_Y	Acc_Z	Mat[1][1]	Mat[2][1]	Mat[3][1]	Mat[1][2]	Mat[2][2]	Mat[3][2]	Mat[1][3]	Mat[2][3]	Mat[3][3]
0	2657197													-0.271695	0.090682	-0.382826	0.490347	-0.829156	-0.268440	-0.079685	-0.349374	0.933589	-0.867877	-0.436392	-0.237386
1	2657364													8.508083	-0.816942	4.801795	0.490369	-0.829576	-0.267098	-0.080190	-0.348124	0.934012	-0.867818	-0.436592	-0.237233
2	2657531													8.517045	-0.824301	4.795951	0.490326	-0.829807	-0.266460	-0.081010	-0.347805	0.934061	-0.867766	-0.436408	-0.237760
3	2657697													8.487520	-0.829104	4.796456	0.490169	-0.830198	-0.265529	-0.081897	-0.347154	0.934225	-0.867772	-0.436182	-0.238155
4	2658198													8.508491	-0.837476	4.827054	0.490354	-0.830468	-0.264340	-0.083480	-0.346670	0.934265	-0.867516	-0.436054	-0.239319
5	2658364													8.540397	-0.838621	4.756320	0.490366	-0.830720	-0.263524	-0.083854	-0.345944	0.934501	-0.867473	-0.436150	-0.239298
6	2658531													8.476393	-0.819270	4.843883	0.490460	-0.830557	-0.263863	-0.084086	-0.346470	0.934285	-0.867398	-0.436042	-0.239768
7	2658698													8.513997	-0.781217	4.790340	0.490246	-0.830612	-0.264088	-0.084247	-0.346738	0.934171	-0.867503	-0.435725	-0.239963
8	2658864													8.584319	-0.779450	4.784099	0.490287	-0.830670	-0.263829	-0.084206	-0.346439	0.934286	-0.867484	-0.435852	-0.239802
9	2659031													8.505054	-0.814315	4.843050	0.490375	-0.830585	-0.263934	-0.084161	-0.346562	0.934244	-0.867439	-0.435917	-0.239848
10	2659198													8.514835	-0.805988	4.807406	0.490247	-0.830738	-0.263688	-0.084185	-0.346258	0.934354	-0.867508	-0.435866	-0.239688
11	2659364													8.522339	-0.805887	4.815145	0.490133	-0.830766	-0.263815	-0.084173	-0.346359	0.934318	-0.867574	-0.435734	-0.239690
12	2659531													8.498324	-0.770966	4.785273	0.490094	-0.830789	-0.263814	-0.084193	-0.346356	0.934317	-0.867594	-0.435692	-0.239694
13	2659698													8.518714	-0.797448	4.775095	0.490006	-0.830835	-0.263832	-0.084148	-0.346326	0.934333	-0.867648	-0.435627	-0.239615
14	2659864													8.541800	-0.816320	4.763772	0.489970	-0.830845	-0.263869	-0.084067	-0.346315	0.934344	-0.867676	-0.435618	-0.239531
15	2660031													8.550451	-0.833385	4.784734	0.489912	-0.830797	-0.264126	-0.083993	-0.346550	0.934264	-0.867716	-0.435523	-0.239560
16	2660198													8.527065	-0.812850	4.826603	0.489812	-0.830816	-0.264253	-0.083942	-0.346636	0.934236	-0.867778	-0.435418	-0.239527
17	2660364													8.506052	-0.818265	4.811526	0.489780	-0.830799	-0.264366	-0.083880	-0.346721	0.934210	-0.867802	-0.435382	-0.239505
18	2660531													8.501732	-0.804818	4.791610	0.489760	-0.830790	-0.264430	-0.083868	-0.346782	0.934189	-0.867814	-0.435351	-0.239516
19	2660698													8.526376	-0.805677	4.799284	0.489695	-0.830835	-0.264408	-0.083883	-0.346744	0.934201	-0.867849	-0.435294	-0.239492
20	2660864													8.534318	-0.818340	4.788102	0.489688	-0.830813	-0.264490	-0.083885	-0.346836	0.934167	-0.867853	-0.435264	-0.239534
21	2661031													8.521802	-0.810429	4.805936	0.489656	-0.830792	-0.264617	-0.083906	-0.346978	0.934112	-0.867869	-0.435191	-0.239608
22	2661198													8.501457	-0.795291	4.780030	0.489658	-0.830816	-0.264537	-0.083972	-0.346923	0.934127	-0.867861	-0.435189	-0.239639
23	2661364													8.514331	-0.813573	4.808347	0.489684	-0.830851	-0.264378	-0.084034	-0.346784	0.934173	-0.867841	-0.435233	-0.239634
24	2661531													8.509332	-0.816784	4.818807	0.489708	-0.830845	-0.264351	-0.084067	-0.346777	0.934173	-0.867824	-0.435249	-0.239666
25	2661698													8.547211	-0.803978	4.721877	0.489670	-0.830848	-0.264413	-0.084058	-0.346829	0.934154	-0.867846	-0.435201	-0.239671
26	2661864													8.568849	-0.837725	4.768208	0.489895	-0.830660	-0.264589	-0.083986	-0.347062	0.934074	-0.867727	-0.435376	-0.239788
27	2662031													8.465980	-0.773120	4.883886	0.490126	-0.830476	-0.264739	-0.083893	-0.347255	0.934011	-0.867605	-0.435573	-0.239870
28	2662198													8.612281	-0.772545	4.808127	0.490133	-0.830383	-0.265017	-0.083763	-0.347505	0.933929	-0.867614	-0.435551	-0.239879
29	2662364													8.528622	-0.811314	4.872213	0.490531	-0.830073	-0.265253	-0.083643	-0.347834	0.933818	-0.867400	-0.435880	-0.240053
30	2662531													8.407142	-0.801780	4.896959	0.490650	-0.830025	-0.265183	-0.083645	-0.347793	0.933833	-0.867333	-0.436003	-0.240072
31	2662698													8.467005	-0.791146	4.824981	0.490423	-0.830151	-0.265206	-0.083603	-0.347728	0.933861	-0.867465	-0.435814	-0.239937
32	2662864													8.495202	-0.778984	4.820963	0.490432	-0.830158	-0.265167	-0.083591	-0.347680	0.933879	-0.867461	-0.435838	-0.239907
33	2663031													8.470379	-0.795781	4.845983	0.490517	-0.830184	-0.264932	-0.083606	-0.347449	0.933964	-0.867412	-0.435975	-0.239838
34	2663198													8.485442	-0.822527	4.865152	0.490431	-0.830194	-0.265056	-0.083576	-0.347548	0.933930	-0.867463	-0.435876	-0.239833
35	2663364													8.500115	-0.818072	4.812756	0.490396	-0.830247	-0.264956	-0.083624	-0.347448	0.933963	-0.867479	-0.435855	-0.239816
36	2663531													8.494526	-0.814263	4.811469	0.490400	-0.830265	-0.264894	-0.083668	-0.347402	0.933976	-0.867472	-0.435858	-0.239832
37	2663698													8.500016	-0.814338	4.827483	0.490434	-0.830272	-0.264807	-0.083707	-0.347334	0.933998	-0.867449	-0.435898	-0.239844
38	2663864													8.503492	-0.814693	4.846622	0.490503	-0.830273	-0.264675	-0.083708	-0.347208	0.934045	-0.867410	-0.435997	-0.239807
39	2664031													8.489673	-0.803760	4.844133	0.490465	-0.830270	-0.264755	-0.083709	-0.347286	0.934015	-0.867431	-0.435940	-0.239833
40	2664198													8.554811	-0.817325	4.777265	0.490368	-0.830370	-0.264624	-0.083793	-0.347151	0.934058	-0.867478	-0.435858	-0.239811
41	2664364													8.492790	-0.829442	4.817791	0.490481	-0.830271	-0.264725	-0.083772	-0.347289	0.934009	-0.867416	-0.435937	-0.239892
42	2664531													8.477958	-0.771728	4.836930	0.490283	-0.830476	-0.264445	-0.083788	-0.346921	0.934144	-0.867526	-0.435838	-0.239674
43	2664698													8.598892	-0.768187	4.785997	0.490202	-0.830444	-0.264699	-0.083711	-0.347142	0.934069	-0.867580	-0.435724	-0.239687
44	2664864													8.518714	-0.803898	4.844599	0.490412	-0.830320	-0.264698	-0.083698	-0.347200	0.934048	-0.867462	-0.435914	-0.239767
45	2665031													8.494947	-0.790923	4.812776	0.490316	-0.830394	-0.264642	-0.083723	-0.347120	0.934076	-0.867514	-0.435836	-0.239721
46	2665198													8.517764	-0.790220	4.807796	0.490216	-0.830499	-0.264497	-0.083711	-0.346920	0.934151	-0.867572	-0.435795	-0.239588
47	2665364													8.507562	-0.759576	4.806494	0.490229	-0.830640	-0.264033	-0.083789	-0.346441	0.934322	-0.867557	-0.435909	-0.239433
48	2665531													8.518847	-0.788747	4.798812	0.490169	-0.830739	-0.263832	-0.083847	-0.346226	0.934397	-0.867585	-0.435891	-0.239364
49	2665698													8.510025	-0.802304	4.798920	0.490132	-0.830781	-0.263768	-0.083831	-0.346134	0.934432	-0.867607	-0.435883	-0.239297
50	2665864													8.510497	-0.791529	4.798007	0.490148	-0.830806	-0.263660	-0.083811	-0.346008	0.934481	-0.867600	-0.435936	-0.239226
51	2666031													8.537591	-0.791307	4.804259	0.490188	-0.830832	-0.263505	-0.083741	-0.345810	0.934560	-0.867585	-0.436044	-0.239087
52	2666198													8.529826	-0.793263	4.839466	0.490207	-0.830847	-0.263422	-0.083644	-0.345674	0.934619	-0.867583	-0.436123	-0.238947
53	2666364													8.502193	-0.783501	4.821099	0.490176	-0.830973	-0.263080	-0.083581	-0.345248	0.934782	-0.867607	-0.436219	-0.238686
54	2666531													8.517306	-0.809882	4.825194	0.490156	-0.831018	-0.262975	-0.083538	-0.345102	0.934840	-0.867622	-0.436249	-0.238575
55	2666698													8.508202	-0.805698	4.830733	0.490192	-0.831015	-0.262918	-0.083547	-0.345054	0.934857	-0.867601	-0.436294	-0.238572
56	2666864													8.497033	-0.783057	4.808336	0.490189	-0.831032	-0.262868	-0.083594	-0.345021	0.934865	-0.867598	-0.436286	-0.238595
57	2667031													8.516151	-0.787470	4.821560	0.490161	-0.831100	-0.262708	-0.083629	-0.344849	0.934925	-0.867611	-0.436294	-0.238535
58	2667198													8.491299	-0.797372	4.830483	0.490195	-0.831143	-0.262506	-0.083694	-0.344666	0.934987	-0.867585	-0.436356	-0.238515
59	2667364													8.475886	-0.806817	4.801720	0.490179	-0.831263	-0.262158	-0.083832	-0.344338	0.935096	-0.867581	-0.436387	-0.238474
60	2667531													8.500531	-0.815307	4.815817	0.490162	-0.831297	-0.262080	-0.083937	-0.344298	0.935101	-0.867581	-0.436352	-0.238538
61	2667698													8.532634	-0.823214	4.854208	0.490190	-0.831300	-0.262021	-0.084012	-0.344278	0.935101	-0.867557	-0.436364	-0.238601
62	2667864													8.497759	-0.816094	4.798187	0.490199	-0.831324	-0.261926	-0.084048	-0.344192	0.935130	-0.867549	-0.436385	-0.238594
63	2668031													8.561550	-0.819282	4.758267	0.490231	-0.831322	-0.261875	-0.084039	-0.344140	0.935150	-0.867532	-0.436431	-0.238572
64	2668198													8.433924	-0.769731	4.924159	0.490584	-0.831109	-0.261887	-0.084002	-0.344244	0.935115	-0.867336	-0.436753	-0.238696
65	2668364													8.551967	-0.786645	4.825140	0.490469	-0.831162	-0.261935	-0.083976	-0.344249	0.935115	-0.867403	-0.436648	-0.238641
66	2668531													8.578377	-0.790891	4.843808	0.490794	-0.830934	-0.262050	-0.083924	-0.344453	0.935045	-0.867225	-0.436922	-0.238791
67	2668698													8.411048	-0.773420	4.932517	0.491084	-0.830774	-0.262012	-0.084028	-0.344553	0.934999	-0.867050	-0.437147	-0.239012
68	2668864													8.411693	-0.776722	4.864216	0.490867	-0.830946	-0.261875	-0.084120	-0.344378	0.935055	-0.867164	-0.436959	-0.238943
69	2669031													8.484628	-0.752688	4.852527	0.490796	-0.831048	-0.261682	-0.084147	-0.344152	0.935136	-0.867201	-0.436941	-0.238839
70	2669198													8.472894	-0.781934	4.822283	0.490853	-0.831127	-0.261325	-0.084243	-0.343816	0.935250	-0.867160	-0.437056	-0.238780
71	2669364													8.468884	-0.806327	4.815685	0.490773	-0.831251	-0.261082	-0.084295	-0.343544	0.935346	-0.867200	-0.437035	-0.238673
72	2669531													8.509213	-0.814485	4.835064	0.490787	-0.831297	-0.260910	-0.084288	-0.343352	0.935417	-0.867193	-0.437099	-0.238581
73	2669698													8.478622	-0.810565	4.829650	0.490855	-0.831321	-0.260706	-0.084345	-0.343171	0.935478	-0.867149	-0.437195	-0.238565
74	2669864													8.490767	-0.815393	4.842985	0.490875	-0.831299	-0.260738	-0.084348	-0.343216	0.935461	-0.867137	-0.437202	-0.238595
75	2670031													8.498217	-0.817292	4.853035	0.490941	-0.831337	-0.260491	-0.084359	-0.342964	0.935553	-0.867099	-0.437326	-0.238506
76	2670198													8.493328	-0.817818	4.865219	0.490983	-0.831328	-0.260441	-0.084306	-0.342894	0.935583	-0.867080	-0.437398	-0.238441
77	2670364													8.523493	-0.795563	4.830279	0.490943	-0.831370	-0.260382	-0.084310	-0.342817	0.935611	-0.867103	-0.437379	-0.238397
78	2670531													8.545135	-0.827015	4.800823	0.491037	-0.831249	-0.260592	-0.084239	-0.343046	0.935534	-0.867056	-0.437430	-0.238471
79	2670698													8.452785	-0.762440	4.888583	0.491098	-0.831181	-0.260694	-0.084171	-0.343146	0.935503	-0.867028	-0.437480	-0.238480
80	2670864													8.548004	-0.761242	4.784305	0.490885	-0.831235	-0.260923	-0.084024	-0.343263	0.935473	-0.867163	-0.437286	-0.238346
81	2671031													8.551263	-0.780203	4.826483	0.491091	-0.831076	-0.261041	-0.083957	-0.343427	0.935419	-0.867053	-0.437460	-0.238429
82	2671198													8.483615	-0.775292	4.835932	0.491156	-0.830994	-0.261177	-0.083945	-0.343594	0.935359	-0.867017	-0.437483	-0.238516
83	2671364													8.521230	-0.794379	4.846201	0.491087	-0.831012	-0.261252	-0.083947	-0.343657	0.935336	-0.867056	-0.437400	-0.238526
84	2671531													8.503309	-0.765380	4.828996	0.491144	-0.830991	-0.261211	-0.083956	-0.343633	0.935344	-0.867023	-0.437459	-0.238540
85	2671698													8.485965	-0.764446	4.817448	0.491152	-0.831048	-0.261017	-0.084019	-0.343449	0.935405	-0.867013	-0.437495	-0.238510
86	2671864													8.517077	-0.791279	4.807667	0.491150	-0.831082	-0.260910	-0.084028	-0.343334	0.935447	-0.867012	-0.437521	-0.238463
87	2672031													8.509131	-0.820042	4.824243	0.491183	-0.831070	-0.260887	-0.084023	-0.343314	0.935455	-0.866995	-0.437558	-0.238460
88	2672198													8.506127	-0.811610	4.827336	0.491230	-0.831038	-0.260899	-0.084021	-0.343342	0.935445	-0.866968	-0.437598	-0.238485
89	2672364													8.512346	-0.788196	4.817659	0.491305	-0.830991	-0.260909	-0.084017	-0.343375	0.935433	-0.866926	-0.437662	-0.238519
90	2672531													8.493689	-0.782682	4.844452	0.491380	-0.830959	-0.260868	-0.084018	-0.343352	0.935441	-0.866883	-0.437740	-0.238532
91	2672698													8.500180	-0.788325	4.839839	0.491417	-0.830940	-0.260858	-0.083993	-0.343340	0.935448	-0.866865	-0.437785	-0.238516
92	2672864													8.509853	-0.804153	4.835386	0.491509	-0.830867	-0.260918	-0.084002	-0.343440	0.935410	-0.866811	-0.437845	-0.238599
93	2673031													8.501168	-0.801136	4.860396	0.491605	-0.830781	-0.261013	-0.084053	-0.343602	0.935346	-0.866752	-0.437882	-0.238746
94	2673198													8.484405	-0.790396	4.846801	0.491655	-0.830740	-0.261049	-0.084147	-0.343706	0.935300	-0.866715	-0.437878	-0.238889
95	2673364													8.491926	-0.787838	4.812077	0.491679	-0.830734	-0.261023	-0.084253	-0.343738	0.935279	-0.866691	-0.437865	-0.239000
96	2673531													8.491404	-0.797530	4.832289	0.491794	-0.830665	-0.261024	-0.084326	-0.343812	0.935245	-0.866619	-0.437937	-0.239131
97	2673698													8.476981	-0.799744	4.837446	0.491877	-0.830610	-0.261043	-0.084412	-0.343902	0.935204	-0.866563	-0.437970	-0.239272
98	2673864													8.493600	-0.795695	4.829518	0.491922	-0.830587	-0.261031	-0.084491	-0.343943	0.935181	-0.866530	-0.437982	-0.239370
99	2674031													8.500743	-0.803878	4.864142	0.492037	-0.830496	-0.261104	-0.084531	-0.344081	0.935127	-0.866461	-0.438046	-0.239503
100	2674198													8.496733	-0.805855	4.857512	0.492128	-0.830424	-0.261163	-0.084560	-0.344190	0.935084	-0.866406	-0.438097	-0.239606
101	2674364													8.556337	-0.771180	4.761004	0.492096	-0.830427	-0.261214	-0.084564	-0.344240	0.935066	-0.866424	-0.438053	-0.239623
102	2674531													8.494508	-0.817180	4.875462	0.492476	-0.830142	-0.261405	-0.084491	-0.344537	0.934963	-0.866215	-0.438360	-0.239816
103	2674698													8.445083	-0.756324	4.909966	0.492553	-0.830033	-0.261603	-0.084411	-0.344743	0.934894	-0.866179	-0.438403	-0.239868
104	2674865													8.600060	-0.766522	4.799031	0.492681	-0.829918	-0.261730	-0.084331	-0.344885	0.934849	-0.866114	-0.438510	-0.239905
105	2675031													8.469527	-0.776375	4.912676	0.493166	-0.829586	-0.261868	-0.084249	-0.345151	0.934758	-0.865846	-0.438929	-0.240108
106	2675198													8.395304	-0.783522	4.922542	0.493189	-0.829577	-0.261852	-0.084319	-0.345175	0.934743	-0.865826	-0.438926	-0.240185
107	2675365													8.455338	-0.758159	4.857312	0.493075	-0.829655	-0.261820	-0.084331	-0.345109	0.934766	-0.865890	-0.438830	-0.240130
108	2675531													8.492276	-0.773240	4.887870	0.493140	-0.829666	-0.261661	-0.084400	-0.344986	0.934806	-0.865846	-0.438906	-0.240150
109	2675698													8.474717	-0.799508	4.865541	0.493140	-0.829720	-0.261491	-0.084524	-0.344858	0.934842	-0.865834	-0.438906	-0.240195
110	2675865													8.483497	-0.852489	4.828031	0.493127	-0.829732	-0.261477	-0.084568	-0.344860	0.934837	-0.865837	-0.438881	-0.240229
111	2676031													8.472872	-0.836382	4.833359	0.493192	-0.829689	-0.261489	-0.084646	-0.344934	0.934802	-0.865792	-0.438903	-0.240349
112	2676198													8.481627	-0.835706	4.850088	0.493192	-0.829696	-0.261470	-0.084792	-0.344986	0.934770	-0.865778	-0.438851	-0.240496
113	2676365													8.483686	-0.828024	4.837264	0.493225	-0.829681	-0.261454	-0.084900	-0.345033	0.934743	-0.865749	-0.438841	-0.240619
114	2676531													8.476252	-0.823525	4.874481	0.493265	-0.829646	-0.261490	-0.084976	-0.345124	0.934702	-0.865719	-0.438835	-0.240738
115	2676698													8.479470	-0.793218	4.858891	0.493205	-0.829642	-0.261616	-0.085047	-0.345284	0.934637	-0.865746	-0.438718	-0.240854
116	2676865													8.548425	-0.805827	4.798619	0.493138	-0.829615	-0.261827	-0.085130	-0.345542	0.934534	-0.865776	-0.438565	-0.241025
117	2677031													8.460211	-0.793038	4.894275	0.493318	-0.829426	-0.262086	-0.085106	-0.345879	0.934412	-0.865676	-0.438657	-0.241217
118	2677198													8.485449	-0.739812	4.844780	0.493127	-0.829485	-0.262262	-0.085075	-0.346001	0.934369	-0.865788	-0.438450	-0.241191
119	2677365													8.534568	-0.737597	4.820211	0.493184	-0.829389	-0.262456	-0.084981	-0.346190	0.934307	-0.865764	-0.438482	-0.241218
120	2677531													8.481337	-0.761615	4.906618	0.493354	-0.829277	-0.262490	-0.084973	-0.346278	0.934276	-0.865668	-0.438624	-0.241304
121	2677698													8.500487	-0.746144	4.867459	0.493231	-0.829388	-0.262371	-0.085039	-0.346137	0.934322	-0.865732	-0.438525	-0.241256
122	2677865													8.499668	-0.773491	4.883054	0.493152	-0.829454	-0.262311	-0.085049	-0.346051	0.934353	-0.865776	-0.438469	-0.241200
123	2678031													8.456904	-0.768463	4.905255	0.493088	-0.829572	-0.262059	-0.085124	-0.345784	0.934445	-0.865805	-0.438456	-0.241118
124	2678198													8.471089	-0.806874	4.876093	0.492933	-0.829728	-0.261855	-0.085173	-0.345531	0.934534	-0.865888	-0.438360	-0.240994
125	2678365													8.486365	-0.827531	4.872922	0.492783	-0.829856	-0.261733	-0.085229	-0.345375	0.934587	-0.865968	-0.438241	-0.240923
126	2678531													8.494669	-0.838227	4.849873	0.492683	-0.829936	-0.261667	-0.085319	-0.345315	0.934601	-0.866016	-0.438137	-0.240940
127	2678698													8.496449	-0.840420	4.850612	0.492524	-0.830004	-0.261753	-0.085325	-0.345364	0.934582	-0.866106	-0.437970	-0.240920
128	2678865													8.487113	-0.833957	4.857675	0.492384	-0.830052	-0.261863	-0.085305	-0.345435	0.934558	-0.866188	-0.437823	-0.240894
129	2679031													8.491138	-0.819885	4.844339	0.492276	-0.830065	-0.262024	-0.085288	-0.345574	0.934508	-0.866251	-0.437688	-0.240912
130	2679198													8.497684	-0.819736	4.886709	0.492162	-0.830045	-0.262303	-0.085268	-0.345842	0.934410	-0.866317	-0.437515	-0.240986
131	2679365													8.480911	-0.804091	4.859007	0.492056	-0.830024	-0.262565	-0.085244	-0.346092	0.934320	-0.866380	-0.437355	-0.241052
132	2679531													8.473846	-0.779970	4.896336	0.491897	-0.830040	-0.262812	-0.085269	-0.346333	0.934228	-0.866468	-0.437135	-0.241137
133	2679698													8.472405	-0.772096	4.872544	0.491712	-0.830087	-0.263012	-0.085278	-0.346505	0.934164	-0.866572	-0.436910	-0.241169
134	2679865													8.490664	-0.769534	4.873958	0.491557	-0.830132	-0.263159	-0.085297	-0.346631	0.934115	-0.866658	-0.436724	-0.241196
135	2680031													8.461831	-0.773480	4.844180	0.491376	-0.830176	-0.263358	-0.085305	-0.346802	0.934051	-0.866760	-0.436504	-0.241228
136	2680198													8.491651	-0.788391	4.857863	0.491185	-0.830217	-0.263587	-0.085279	-0.346986	0.933985	-0.866871	-0.436281	-0.241234
137	2680365													8.500925	-0.815839	4.845490	0.490993	-0.830232	-0.263894	-0.085156	-0.347210	0.933913	-0.866991	-0.436073	-0.241177
138	2680531													8.493447	-0.803488	4.802711	0.490767	-0.830269	-0.264197	-0.085041	-0.347423	0.933845	-0.867131	-0.435833	-0.241111
139	2680698													8.546629	-0.786645	4.733510	0.490534	-0.830303	-0.264525	-0.084924	-0.347660	0.933767	-0.867274	-0.435580	-0.241052
140	2680865													8.478039	-0.785902	4.889902	0.490676	-0.830132	-0.264797	-0.084735	-0.347916	0.933689	-0.867212	-0.435701	-0.241055
141	2681031													8.547794	-0.774868	4.879960	0.490420	-0.830186	-0.265103	-0.084516	-0.348069	0.933651	-0.867379	-0.435475	-0.240864
142	2681198													8.580091	-0.793016	4.876526	0.490532	-0.830015	-0.265431	-0.084323	-0.348377	0.933554	-0.867334	-0.435557	-0.240880
143	2681365													8.401448	-0.784801	4.923069	0.490654	-0.829881	-0.265624	-0.084289	-0.348615	0.933468	-0.867268	-0.435621	-0.240999
144	2681531													8.394992	-0.763878	4.885204	0.490249	-0.830091	-0.265717	-0.084349	-0.348623	0.933460	-0.867492	-0.435214	-0.240929
145	2681698													8.488423	-0.745437	4.838770	0.489859	-0.830307	-0.265761	-0.084392	-0.348572	0.933475	-0.867708	-0.434843	-0.240822
146	2681865													8.482555	-0.751839	4.839611	0.489666	-0.830465	-0.265623	-0.084527	-0.348424	0.933518	-0.867803	-0.434660	-0.240808
147	2682031													8.475780	-0.779114	4.854419	0.489385	-0.830691	-0.265432	-0.084661	-0.348189	0.933593	-0.867949	-0.434415	-0.240726
148	2682198													8.489820	-0.803868	4.820444	0.489121	-0.830910	-0.265235	-0.084792	-0.347950	0.933671	-0.868084	-0.434188	-0.240644
149	2682365													8.494616	-0.808542	4.834737	0.488910	-0.831096	-0.265042	-0.084948	-0.347747	0.933732	-0.868188	-0.433996	-0.240617
150	2682531													8.499433	-0.805118	4.811365	0.488676	-0.831275	-0.264912	-0.085094	-0.347600	0.933774	-0.868306	-0.433770	-0.240600
151	2682698													8.507430	-0.818416	4.843728	0.488464	-0.831432	-0.264809	-0.085210	-0.347477	0.933809	-0.868414	-0.433568	-0.240576
152	2682865													8.511342	-0.824254	4.830750	0.488249	-0.831568	-0.264779	-0.085321	-0.347431	0.933816	-0.868523	-0.433344	-0.240583
153	2683031													8.524482	-0.813430	4.769362	0.487958	-0.831759	-0.264713	-0.085508	-0.347360	0.933825	-0.868668	-0.433033	-0.240620
154	2683198													8.534304	-0.853690	4.732454	0.487800	-0.831842	-0.264744	-0.085612	-0.347397	0.933802	-0.868747	-0.432843	-0.240676
155	2683365													8.477174	-0.782411	4.828187	0.487562	-0.831975	-0.264765	-0.085716	-0.347398	0.933792	-0.868871	-0.432587	-0.240691
156	2683531													8.610100	-0.799785	4.738317	0.487163	-0.832147	-0.264961	-0.085740	-0.347506	0.933749	-0.869092	-0.432170	-0.240640
157	2683698													8.583454	-0.823469	4.765175	0.487141	-0.832137	-0.265032	-0.085806	-0.347613	0.933704	-0.869098	-0.432104	-0.240739
158	2683865													8.531522	-0.831641	4.792480	0.486940	-0.832224	-0.265127	-0.085913	-0.347710	0.933658	-0.869200	-0.431857	-0.240813
159	2684031													8.564259	-0.816059	4.764945	0.486615	-0.832391	-0.265201	-0.086010	-0.347740	0.933638	-0.869373	-0.431512	-0.240809
160	2684198													8.545549	-0.765758	4.771487	0.486435	-0.832464	-0.265301	-0.086067	-0.347824	0.933601	-0.869468	-0.431302	-0.240842
161	2684365													8.522538	-0.761254	4.755576	0.486227	-0.832580	-0.265318	-0.086114	-0.347802	0.933605	-0.869579	-0.431096	-0.240808
162	2684531													8.546870	-0.804362	4.754489	0.486055	-0.832647	-0.265425	-0.086063	-0.347844	0.933594	-0.869680	-0.430934	-0.240731
163	2684698													8.548257	-0.799433	4.763625	0.485994	-0.832628	-0.265596	-0.085990	-0.347980	0.933550	-0.869722	-0.430861	-0.240714
164	2684865													8.520225	-0.776954	4.772141	0.485906	-0.832626	-0.265764	-0.085901	-0.348096	0.933515	-0.869780	-0.430771	-0.240665
165	2685031													8.515401	-0.776958	4.792901	0.485868	-0.832590	-0.265943	-0.085768	-0.348221	0.933481	-0.869814	-0.430738	-0.240599
166	2685198													8.503473	-0.774002	4.795872	0.485911	-0.832517	-0.266094	-0.085602	-0.348320	0.933459	-0.869806	-0.430800	-0.240518
167	2685365													8.506488	-0.786501	4.839452	0.485983	-0.832437	-0.266213	-0.085428	-0.348390	0.933449	-0.869783	-0.430898	-0.240425
168	2685531													8.497119	-0.804872	4.843852	0.486054	-0.832383	-0.266252	-0.085314	-0.348399	0.933456	-0.869755	-0.430995	-0.240355
169	2685698													8.519963	-0.805573	4.818821	0.486049	-0.832384	-0.266258	-0.085278	-0.348387	0.933464	-0.869761	-0.431003	-0.240317
170	2685865													8.531550	-0.807812	4.829879	0.486028	-0.832406	-0.266228	-0.085303	-0.348359	0.933472	-0.869770	-0.430983	-0.240319
171	2686031													8.514518	-0.806070	4.795325	0.486001	-0.832431	-0.266196	-0.085340	-0.348333	0.933478	-0.869781	-0.430955	-0.240330
172	2686198													8.491475	-0.810494	4.777952	0.485965	-0.832464	-0.266161	-0.085439	-0.348331	0.933470	-0.869792	-0.430893	-0.240401
173	2686365													8.505437	-0.817571	4.796806	0.485909	-0.832522	-0.266083	-0.085574	-0.348294	0.933471	-0.869810	-0.430812	-0.240482
174	2686531													8.508963	-0.834011	4.787887	0.485808	-0.832581	-0.266080	-0.085660	-0.348302	0.933460	-0.869858	-0.430690	-0.240526
175	2686698													8.531068	-0.810519	4.754552	0.485705	-0.832612	-0.266173	-0.085666	-0.348377	0.933432	-0.869915	-0.430570	-0.240535
176	2686865													8.591416	-0.831071	4.727005	0.485686	-0.832585	-0.266292	-0.085675	-0.348509	0.933382	-0.869925	-0.430516	-0.240597
177	2687031													8.485432	-0.811781	4.858825	0.485872	-0.832437	-0.266416	-0.085656	-0.348696	0.933314	-0.869823	-0.430651	-0.240725
178	2687198													8.570768	-0.793490	4.826273	0.485689	-0.832475	-0.266630	-0.085613	-0.348858	0.933257	-0.869929	-0.430446	-0.240707
179	2687365													8.547985	-0.807015	4.846417	0.485891	-0.832277	-0.266881	-0.085547	-0.349169	0.933147	-0.869823	-0.430576	-0.240857
180	2687531													8.421410	-0.810006	4.836567	0.485905	-0.832215	-0.267048	-0.085599	-0.349386	0.933061	-0.869810	-0.430520	-0.241006
181	2687698													8.462862	-0.802085	4.806154	0.485531	-0.832354	-0.267296	-0.085624	-0.349561	0.932993	-0.870016	-0.430110	-0.240992
182	2687865													8.501402	-0.772466	4.799466	0.485352	-0.832386	-0.267520	-0.085618	-0.349753	0.932921	-0.870117	-0.429891	-0.241021
183	2688031													8.503149	-0.777773	4.754288	0.485215	-0.832456	-0.267550	-0.085665	-0.349768	0.932912	-0.870188	-0.429743	-0.241025
184	2688198													8.537159	-0.800709	4.797293	0.485044	-0.832540	-0.267601	-0.085657	-0.349768	0.932912	-0.870285	-0.429581	-0.240966
185	2688365													8.531769	-0.804833	4.807324	0.484948	-0.832601	-0.267584	-0.085642	-0.349712	0.932935	-0.870340	-0.429508	-0.240897
186	2688531													8.499959	-0.792584	4.773944	0.484864	-0.832663	-0.267543	-0.085614	-0.349626	0.932969	-0.870389	-0.429458	-0.240809
187	2688698													8.544732	-0.809103	4.773786	0.484807	-0.832715	-0.267483	-0.085558	-0.349513	0.933017	-0.870426	-0.429448	-0.240692
188	2688865													8.552335	-0.819477	4.801094	0.484852	-0.832698	-0.267455	-0.085515	-0.349475	0.933035	-0.870405	-0.429512	-0.240652
189	2689031													8.535713	-0.789330	4.809194	0.484841	-0.832698	-0.267477	-0.085483	-0.349480	0.933036	-0.870415	-0.429509	-0.240624
190	2689198													8.565199	-0.818576	4.686909	0.484778	-0.832708	-0.267559	-0.085444	-0.349533	0.933020	-0.870454	-0.429446	-0.240596
191	2689365													8.527075	-0.837937	4.747874	0.485024	-0.832520	-0.267697	-0.085338	-0.349712	0.932963	-0.870327	-0.429664	-0.240664
192	2689531													8.542247	-0.798692	4.786696	0.484920	-0.832560	-0.267762	-0.085292	-0.349730	0.932960	-0.870389	-0.429573	-0.240601
193	2689698													8.639203	-0.804719	4.718772	0.484972	-0.832443	-0.268032	-0.085134	-0.349970	0.932884	-0.870376	-0.429604	-0.240595
194	2689865													8.533404	-0.815249	4.791196	0.485252	-0.832246	-0.268136	-0.085111	-0.350162	0.932814	-0.870222	-0.429829	-0.240750
195	2690031													8.507216	-0.801621	4.792336	0.485249	-0.832239	-0.268163	-0.085132	-0.350202	0.932797	-0.870222	-0.429809	-0.240785
196	2690198													8.535978	-0.798573	4.754079	0.485264	-0.832187	-0.268296	-0.085100	-0.350341	0.932748	-0.870216	-0.429797	-0.240827
197	2690365													8.523515	-0.765902	4.745881	0.485338	-0.832121	-0.268371	-0.085073	-0.350433	0.932716	-0.870178	-0.429851	-0.240869
198	2690531													8.529843	-0.773788	4.772492	0.485367	-0.832096	-0.268392	-0.085047	-0.350454	0.932711	-0.870164	-0.429881	-0.240866
199	2690698													8.534258	-0.795202	4.793488	0.485518	-0.831999	-0.268421	-0.084987	-0.350503	0.932697	-0.870086	-0.430029	-0.240885
200	2690865													8.538274	-0.786966	4.746969	0.485676	-0.831889	-0.268476	-0.084900	-0.350571	0.932680	-0.870006	-0.430187	-0.240891
201	2691031													8.579171	-0.782195	4.768540	0.485822	-0.831793	-0.268509	-0.084809	-0.350608	0.932674	-0.869934	-0.430342	-0.240877
202	2691198													8.553362	-0.778583	4.784304	0.486018	-0.831660	-0.268566	-0.084700	-0.350679	0.932657	-0.869835	-0.430541	-0.240878
203	2691365													8.543488	-0.778716	4.798188	0.486236	-0.831507	-0.268647	-0.084573	-0.350775	0.932633	-0.869725	-0.430759	-0.240883
204	2691532													8.521935	-0.780463	4.810044	0.486464	-0.831355	-0.268704	-0.084472	-0.350860	0.932610	-0.869608	-0.430983	-0.240907
205	2691698													8.535093	-0.780136	4.806848	0.486666	-0.831227	-0.268732	-0.084413	-0.350924	0.932591	-0.869500	-0.431176	-0.240949
206	2691865													8.511328	-0.797232	4.800595	0.486879	-0.831098	-0.268746	-0.084393	-0.350996	0.932566	-0.869383	-0.431367	-0.241031
207	2692032													8.511360	-0.803114	4.817659	0.487097	-0.830956	-0.268791	-0.084359	-0.351098	0.932531	-0.869264	-0.431558	-0.241117
208	2692198													8.497538	-0.793055	4.799440	0.487301	-0.830807	-0.268883	-0.084323	-0.351247	0.932478	-0.869153	-0.431725	-0.241219
209	2692365													8.493059	-0.797945	4.814939	0.487531	-0.830655	-0.268936	-0.084289	-0.351361	0.932438	-0.869028	-0.431924	-0.241314
210	2692532													8.502704	-0.797151	4.817297	0.487740	-0.830519	-0.268974	-0.084284	-0.351467	0.932399	-0.868911	-0.432098	-0.241423
211	2692698													8.507465	-0.780662	4.760708	0.487880	-0.830406	-0.269071	-0.084247	-0.351600	0.932352	-0.868836	-0.432208	-0.241498
212	2692865													8.609106	-0.809987	4.732136	0.488098	-0.830246	-0.269168	-0.084189	-0.351749	0.932301	-0.868719	-0.432393	-0.241586
213	2693032													8.502351	-0.763312	4.899495	0.488567	-0.829970	-0.269168	-0.084141	-0.351872	0.932259	-0.868460	-0.432823	-0.241747
214	2693198													8.591513	-0.765122	4.816236	0.488681	-0.829866	-0.269284	-0.084045	-0.351989	0.932223	-0.868405	-0.432928	-0.241757
215	2693365													8.535106	-0.792380	4.843454	0.489163	-0.829550	-0.269382	-0.083963	-0.352210	0.932147	-0.868142	-0.433353	-0.241940
216	2693532													8.425179	-0.776523	4.903121	0.489433	-0.829437	-0.269239	-0.084011	-0.352158	0.932163	-0.867985	-0.433613	-0.242039
217	2693698													8.460241	-0.789422	4.834556	0.489346	-0.829466	-0.269307	-0.084025	-0.352214	0.932140	-0.868033	-0.433510	-0.242051
218	2693865													8.489122	-0.747427	4.840804	0.489391	-0.829447	-0.269283	-0.084006	-0.352191	0.932150	-0.868009	-0.433564	-0.242038
219	2694032													8.481659	-0.790767	4.832489	0.489516	-0.829413	-0.269163	-0.084044	-0.352114	0.932176	-0.867935	-0.433694	-0.242072
220	2694198													8.487620	-0.805319	4.824790	0.489518	-0.829428	-0.269113	-0.084024	-0.352049	0.932203	-0.867936	-0.433718	-0.242026
221	2694365													8.506571	-0.822034	4.826522	0.489585	-0.829436	-0.268966	-0.083994	-0.351890	0.932265	-0.867900	-0.433832	-0.241948
222	2694532													8.493543	-0.803903	4.841416	0.489706	-0.829354	-0.268997	-0.084019	-0.351975	0.932231	-0.867830	-0.433919	-0.242046
223	2694698													8.487091	-0.796300	4.827801	0.489801	-0.829322	-0.268925	-0.084019	-0.351924	0.932250	-0.867776	-0.434022	-0.242052
224	2694865													8.519198	-0.797973	4.843508	0.489896	-0.829241	-0.269000	-0.083963	-0.352010	0.932223	-0.867728	-0.434106	-0.242074
225	2695032													8.513172	-0.779932	4.870261	0.489992	-0.829144	-0.269125	-0.083933	-0.352166	0.932167	-0.867677	-0.434165	-0.242151
226	2695198													8.536530	-0.782921	4.751532	0.489952	-0.829214	-0.268983	-0.083965	-0.352009	0.932223	-0.867697	-0.434159	-0.242092
227	2695365													8.528803	-0.814963	4.792921	0.490153	-0.829087	-0.269008	-0.083875	-0.352055	0.932214	-0.867591	-0.434364	-0.242100
228	2695532													8.504518	-0.734063	4.843905	0.490177	-0.829110	-0.268892	-0.083872	-0.351931	0.932261	-0.867578	-0.434420	-0.242048
229	2695698													8.597807	-0.741673	4.776078	0.490205	-0.829032	-0.269083	-0.083743	-0.352090	0.932212	-0.867575	-0.434441	-0.242022
230	2695865													8.529050	-0.783574	4.826391	0.490547	-0.828846	-0.269030	-0.083718	-0.352126	0.932201	-0.867384	-0.434766	-0.242123
231	2696032													8.498370	-0.782674	4.847513	0.490590	-0.828815	-0.269049	-0.083751	-0.352177	0.932179	-0.867357	-0.434784	-0.242188
232	2696198													8.536492	-0.800298	4.805800	0.490562	-0.828845	-0.269006	-0.083770	-0.352129	0.932195	-0.867370	-0.434765	-0.242174
233	2696365													8.522751	-0.759341	4.808611	0.490750	-0.828812	-0.268767	-0.083858	-0.351963	0.932250	-0.867256	-0.434963	-0.242228
234	2696532													8.492049	-0.792164	4.824256	0.490892	-0.828823	-0.268471	-0.083935	-0.351713	0.932337	-0.867168	-0.435143	-0.242220
235	2696698													8.507969	-0.817578	4.815599	0.491016	-0.828803	-0.268309	-0.083991	-0.351598	0.932376	-0.867092	-0.435276	-0.242253
236	2696865													8.524949	-0.822581	4.831187	0.491127	-0.828859	-0.267929	-0.084047	-0.351235	0.932508	-0.867024	-0.435461	-0.242164
237	2697032													8.530939	-0.805076	4.787786	0.491225	-0.828839	-0.267813	-0.084088	-0.351155	0.932534	-0.866965	-0.435564	-0.242192
238	2697198													8.519230	-0.778286	4.814097	0.491364	-0.828756	-0.267816	-0.084072	-0.351194	0.932521	-0.866887	-0.435691	-0.242239
239	2697365													8.525234	-0.773437	4.817152	0.491560	-0.828614	-0.267894	-0.084009	-0.351312	0.932482	-0.866782	-0.435865	-0.242302
240	2697532													8.507324	-0.802216	4.862617	0.491784	-0.828502	-0.267831	-0.083952	-0.351282	0.932498	-0.866661	-0.436103	-0.242309
241	2697698													8.509096	-0.781433	4.861419	0.491954	-0.828404	-0.267820	-0.083918	-0.351307	0.932492	-0.866568	-0.436268	-0.242344
242	2697865													8.530713	-0.785254	4.849376	0.492109	-0.828324	-0.267784	-0.083875	-0.351293	0.932501	-0.866484	-0.436432	-0.242350
243	2698032													8.510444	-0.793396	4.847513	0.492262	-0.828280	-0.267640	-0.083869	-0.351176	0.932546	-0.866397	-0.436610	-0.242337
244	2698198													8.469610	-0.800237	4.813536	0.492406	-0.828213	-0.267579	-0.083879	-0.351158	0.932551	-0.866314	-0.436750	-0.242382
245	2698365													8.472021	-0.792995	4.830866	0.492534	-0.828174	-0.267467	-0.083949	-0.351107	0.932564	-0.866235	-0.436867	-0.242456
246	2698532													8.473343	-0.828614	4.880011	0.492644	-0.828141	-0.267366	-0.083973	-0.351041	0.932587	-0.866170	-0.436982	-0.242479
247	2698698													8.478079	-0.838821	4.858839	0.492769	-0.828102	-0.267255	-0.083949	-0.350943	0.932626	-0.866101	-0.437134	-0.242452
248	2698865													8.507003	-0.803216	4.785484	0.492774	-0.828057	-0.267386	-0.083958	-0.351096	0.932568	-0.866098	-0.437096	-0.242533
249	2699032													8.471889	-0.809537	4.887433	0.493164	-0.827771	-0.267552	-0.083891	-0.351373	0.932469	-0.865882	-0.437415	-0.242728
250	2699198													8.471586	-0.763688	4.929815	0.493269	-0.827730	-0.267486	-0.083791	-0.351281	0.932513	-0.865832	-0.437567	-0.242633
251	2699365													8.601028	-0.781350	4.864229	0.493476	-0.827772	-0.266974	-0.083555	-0.350649	0.932772	-0.865737	-0.437993	-0.242201
252	2699532													8.462820	-0.785538	4.931392	0.493961	-0.827410	-0.267201	-0.083368	-0.350964	0.932670	-0.865478	-0.438426	-0.242342
253	2699698													8.410978	-0.779610	4.920000	0.493974	-0.827352	-0.267356	-0.083284	-0.351100	0.932627	-0.865479	-0.438427	-0.242339
254	2699865													8.451455	-0.760298	4.842626	0.493817	-0.827532	-0.267088	-0.083148	-0.350680	0.932797	-0.865582	-0.438423	-0.241979
255	2700032													8.472879	-0.752835	4.868602	0.493883	-0.827408	-0.267349	-0.083097	-0.350968	0.932693	-0.865549	-0.438425	-0.242092
256	2700198													8.465673	-0.797151	4.865409	0.493906	-0.827509	-0.266994	-0.083111	-0.350584	0.932836	-0.865534	-0.438543	-0.241931
257	2700365													8.477557	-0.816899	4.863817	0.493834	-0.827636	-0.266735	-0.083080	-0.350252	0.932964	-0.865578	-0.438569	-0.241726
258	2700532													8.456919	-0.824201	4.869983	0.493803	-0.827859	-0.266097	-0.083132	-0.349550	0.933222	-0.865591	-0.438706	-0.241431
259	2700698													8.464870	-0.823829	4.853757	0.493772	-0.828030	-0.265621	-0.083223	-0.349050	0.933401	-0.865600	-0.438782	-0.241262
260	2700865													8.492885	-0.815854	4.869414	0.493787	-0.828086	-0.265422	-0.083233	-0.348836	0.933480	-0.865590	-0.438848	-0.241175
261	2701032													8.485310	-0.811949	4.909070	0.493800	-0.827798	-0.266294	-0.083248	-0.349830	0.933107	-0.865582	-0.438600	-0.241659
262	2701198													8.478152	-0.808100	4.861840	0.493765	-0.827824	-0.266276	-0.083262	-0.349807	0.933115	-0.865600	-0.438569	-0.241649
263	2701365													8.540033	-0.812498	4.789396	0.493660	-0.827866	-0.266342	-0.083275	-0.349854	0.933096	-0.865658	-0.438453	-0.241650
264	2701532													8.465562	-0.798206	4.860291	0.493820	-0.827653	-0.266706	-0.083187	-0.350269	0.932948	-0.865576	-0.438522	-0.241820
265	2701698													8.512087	-0.767695	4.848964	0.493593	-0.827791	-0.266700	-0.083173	-0.350184	0.932981	-0.865707	-0.438330	-0.241698
266	2701865													8.558977	-0.749376	4.815438	0.493613	-0.827838	-0.266515	-0.083074	-0.349933	0.933084	-0.865705	-0.438442	-0.241504
267	2702032													8.500112	-0.768086	4.843394	0.493774	-0.827895	-0.266041	-0.083024	-0.349423	0.933279	-0.865618	-0.438741	-0.241271
268	2702198													8.508393	-0.760986	4.846837	0.493683	-0.828136	-0.265459	-0.083055	-0.348754	0.933527	-0.865667	-0.438819	-0.240955
269	2702365													8.485494	-0.766011	4.845872	0.493635	-0.828196	-0.265361	-0.083051	-0.348627	0.933575	-0.865694	-0.438807	-0.240877
270	2702532													8.469561	-0.735032	4.843512	0.493660	-0.828197	-0.265312	-0.083100	-0.348604	0.933579	-0.865676	-0.438823	-0.240915
271	2702698													8.484878	-0.768541	4.833852	0.493607	-0.828327	-0.265003	-0.083100	-0.348239	0.933715	-0.865706	-0.438866	-0.240728
272	2702865													8.498009	-0.784205	4.836853	0.493565	-0.828517	-0.264487	-0.083103	-0.347646	0.933936	-0.865730	-0.438978	-0.240438
273	2703032													8.518126	-0.775214	4.815624	0.493574	-0.828664	-0.264008	-0.083091	-0.347103	0.934139	-0.865725	-0.439130	-0.240175
274	2703198													8.530510	-0.777485	4.843561	0.493622	-0.828990	-0.262895	-0.083025	-0.345830	0.934617	-0.865705	-0.439520	-0.239536
275	2703365													8.503369	-0.792867	4.824869	0.493652	-0.829044	-0.262666	-0.082997	-0.345567	0.934716	-0.865690	-0.439624	-0.239398
276	2703532													8.496357	-0.798127	4.837972	0.493675	-0.828919	-0.263016	-0.082979	-0.345959	0.934573	-0.865678	-0.439551	-0.239574
277	2703698													8.493653	-0.798395	4.849945	0.493746	-0.829058	-0.262447	-0.082989	-0.345345	0.934799	-0.865637	-0.439773	-0.239316
278	2703865													8.492297	-0.791444	4.869918	0.493802	-0.829328	-0.261487	-0.083065	-0.344318	0.935171	-0.865598	-0.440069	-0.238913
279	2704032													8.499712	-0.775253	4.851419	0.493803	-0.829436	-0.261142	-0.083154	-0.343975	0.935290	-0.865589	-0.440134	-0.238827
280	2704198													8.500604	-0.780796	4.853579	0.493863	-0.829527	-0.260736	-0.083263	-0.343592	0.935421	-0.865544	-0.440260	-0.238756
281	2704365													8.473913	-0.790405	4.848266	0.493967	-0.829605	-0.260292	-0.083413	-0.343200	0.935551	-0.865470	-0.440420	-0.238730
282	2704532													8.460032	-0.783927	4.861571	0.493995	-0.829713	-0.259896	-0.083567	-0.342839	0.935670	-0.865439	-0.440498	-0.238697
283	2704698													8.499008	-0.800760	4.861606	0.493988	-0.829983	-0.259043	-0.083699	-0.341943	0.935986	-0.865431	-0.440684	-0.238384
284	2704865													8.504491	-0.816275	4.876890	0.494051	-0.829918	-0.259132	-0.083798	-0.342114	0.935915	-0.865385	-0.440674	-0.238567
285	2705032													8.486179	-0.791062	4.825115	0.494038	-0.830027	-0.258808	-0.083840	-0.341765	0.936038	-0.865388	-0.440740	-0.238434
286	2705198													8.542368	-0.798090	4.764298	0.494034	-0.830073	-0.258670	-0.083861	-0.341619	0.936090	-0.865389	-0.440767	-0.238382
287	2705365													8.436061	-0.788013	4.930811	0.494425	-0.829954	-0.258302	-0.083852	-0.341321	0.936199	-0.865166	-0.441221	-0.238351
288	2705532													8.518884	-0.773736	4.855324	0.494336	-0.829983	-0.258382	-0.083811	-0.341362	0.936188	-0.865221	-0.441136	-0.238309
289	2705698													8.559770	-0.792576	4.871639	0.494620	-0.830044	-0.257639	-0.083716	-0.340564	0.936487	-0.865068	-0.441637	-0.237938
290	2705865													8.415243	-0.786311	4.922556	0.494938	-0.829869	-0.257592	-0.083762	-0.340633	0.936458	-0.864882	-0.441912	-0.238104
291	2706032													8.404391	-0.793176	4.890901	0.494778	-0.830022	-0.257404	-0.083805	-0.340394	0.936541	-0.864969	-0.441808	-0.237979
292	2706198													8.473205	-0.773330	4.867215	0.494685	-0.830065	-0.257446	-0.083769	-0.340394	0.936544	-0.865026	-0.441728	-0.237921
293	2706365													8.471102	-0.793514	4.895463	0.494706	-0.830158	-0.257107	-0.083803	-0.340035	0.936671	-0.865010	-0.441831	-0.237787
294	2706532													8.470415	-0.806974	4.850785	0.494651	-0.830271	-0.256848	-0.083817	-0.339732	0.936780	-0.865041	-0.441851	-0.237640
295	2706698													8.485182	-0.819827	4.852208	0.494627	-0.830456	-0.256293	-0.083842	-0.339112	0.937002	-0.865052	-0.441978	-0.237362
296	2706865													8.462747	-0.827067	4.848501	0.494663	-0.830562	-0.255882	-0.083893	-0.338685	0.937152	-0.865026	-0.442108	-0.237213
297	2707032													8.474452	-0.825053	4.856606	0.494672	-0.830591	-0.255771	-0.083927	-0.338580	0.937187	-0.865018	-0.442134	-0.237195
298	2707198													8.496824	-0.837909	4.883049	0.494740	-0.830637	-0.255488	-0.083959	-0.338299	0.937286	-0.864976	-0.442263	-0.237109
299	2707365													8.460246	-0.824146	4.915613	0.494781	-0.830506	-0.255836	-0.084005	-0.338727	0.937127	-0.864948	-0.442181	-0.237363
300	2707532													8.482049	-0.796158	4.833262	0.494669	-0.830521	-0.256004	-0.084125	-0.338944	0.937038	-0.865000	-0.441987	-0.237533
301	2707698													8.534166	-0.817836	4.775845	0.494657	-0.830555	-0.255916	-0.084245	-0.338902	0.937042	-0.864995	-0.441955	-0.237610
302	2707865													8.430645	-0.778871	4.907415	0.494753	-0.830580	-0.255648	-0.084361	-0.338689	0.937109	-0.864929	-0.442071	-0.237636
303	2708032													8.529335	-0.767211	4.828022	0.494466	-0.830627	-0.256051	-0.084421	-0.339084	0.936961	-0.865088	-0.441679	-0.237788
304	2708199													8.531610	-0.804073	4.836588	0.494608	-0.830531	-0.256087	-0.084456	-0.339188	0.936920	-0.865003	-0.441780	-0.237909
305	2708365													8.482300	-0.801923	4.871120	0.494665	-0.830595	-0.255772	-0.084534	-0.338889	0.937021	-0.864963	-0.441890	-0.237850
306	2708532													8.522376	-0.807693	4.831190	0.494518	-0.830765	-0.255500	-0.084633	-0.338588	0.937121	-0.865037	-0.441800	-0.237748
307	2708699													8.480429	-0.813029	4.854240	0.494542	-0.830787	-0.255382	-0.084697	-0.338495	0.937148	-0.865017	-0.441830	-0.237766
308	2708865													8.476072	-0.798120	4.844692	0.494518	-0.830556	-0.256181	-0.084765	-0.339423	0.936807	-0.865024	-0.441553	-0.238253
309	2709032													8.477071	-0.823411	4.857072	0.494477	-0.830629	-0.256023	-0.084805	-0.339253	0.936865	-0.865044	-0.441546	-0.238194
310	2709199													8.482367	-0.822338	4.845696	0.494397	-0.830810	-0.255591	-0.084810	-0.338743	0.937049	-0.865089	-0.441597	-0.237935
311	2709365													8.472143	-0.807017	4.833215	0.494332	-0.830942	-0.255287	-0.084815	-0.338382	0.937179	-0.865126	-0.441625	-0.237749
312	2709532													8.489727	-0.807558	4.847732	0.494262	-0.830876	-0.255637	-0.084796	-0.338745	0.937049	-0.865167	-0.441471	-0.237884
313	2709699													8.505723	-0.820779	4.869096	0.494230	-0.830906	-0.255602	-0.084753	-0.338675	0.937079	-0.865190	-0.441469	-0.237805
314	2709865													8.495008	-0.821330	4.871835	0.494209	-0.830822	-0.255915	-0.084662	-0.338974	0.936979	-0.865211	-0.441397	-0.237863
315	2710032													8.497927	-0.814043	4.870439	0.494201	-0.830772	-0.256093	-0.084602	-0.339143	0.936923	-0.865221	-0.441362	-0.237890
316	2710199													8.501894	-0.828838	4.861963	0.494191	-0.830747	-0.256191	-0.084578	-0.339237	0.936891	-0.865229	-0.441335	-0.237911
317	2710365													8.488111	-0.819218	4.849691	0.494195	-0.830636	-0.256545	-0.084586	-0.339642	0.936744	-0.865226	-0.441234	-0.238109
318	2710532													8.462638	-0.818090	4.895766	0.494177	-0.830623	-0.256623	-0.084644	-0.339754	0.936698	-0.865231	-0.441173	-0.238206
319	2710699													8.456542	-0.809562	4.869395	0.494162	-0.830736	-0.256285	-0.084733	-0.339413	0.936813	-0.865231	-0.441222	-0.238115
320	2710865													8.487625	-0.806069	4.859051	0.494148	-0.830655	-0.256575	-0.084773	-0.339756	0.936685	-0.865235	-0.441110	-0.238307
321	2711032													8.487951	-0.836641	4.874136	0.494136	-0.830575	-0.256857	-0.084819	-0.340094	0.936558	-0.865237	-0.441001	-0.238501
322	2711199													8.465456	-0.808006	4.847631	0.494076	-0.830549	-0.257057	-0.084902	-0.340343	0.936461	-0.865264	-0.440858	-0.238670
323	2711365													8.498213	-0.826034	4.865519	0.494069	-0.830643	-0.256766	-0.084976	-0.340051	0.936560	-0.865260	-0.440906	-0.238594
324	2711532													8.485365	-0.825409	4.868479	0.494051	-0.830715	-0.256567	-0.085011	-0.339839	0.936634	-0.865267	-0.440934	-0.238518
325	2711699													8.526945	-0.792415	4.746146	0.493920	-0.830782	-0.256603	-0.085068	-0.339868	0.936618	-0.865336	-0.440785	-0.238540
326	2711865													8.524740	-0.837877	4.818801	0.494089	-0.830779	-0.256285	-0.085076	-0.339566	0.936727	-0.865239	-0.441023	-0.238455
327	2712032													8.460987	-0.802154	4.913766	0.494194	-0.830790	-0.256047	-0.085109	-0.339347	0.936803	-0.865175	-0.441171	-0.238412
328	2712199													8.613667	-0.803890	4.809009	0.494136	-0.830941	-0.255667	-0.085041	-0.338866	0.936983	-0.865215	-0.441256	-0.238110
329	2712365													8.512455	-0.820558	4.907252	0.494446	-0.830747	-0.255699	-0.084989	-0.338972	0.936950	-0.865043	-0.441539	-0.238207
330	2712532													8.404781	-0.805863	4.886065	0.494389	-0.830739	-0.255835	-0.085031	-0.339129	0.936889	-0.865072	-0.441434	-0.238300
331	2712699													8.448188	-0.826365	4.852418	0.494060	-0.830939	-0.255824	-0.084990	-0.338993	0.936942	-0.865264	-0.441163	-0.238104
332	2712865													8.477517	-0.811763	4.858925	0.493926	-0.831144	-0.255415	-0.084971	-0.338481	0.937129	-0.865342	-0.441169	-0.237807
333	2713032													8.458931	-0.801624	4.857558	0.493742	-0.831350	-0.255101	-0.084936	-0.338052	0.937287	-0.865451	-0.441110	-0.237521
334	2713199													8.499955	-0.833203	4.844939	0.493472	-0.831471	-0.255228	-0.084831	-0.338058	0.937294	-0.865615	-0.440877	-0.237357
335	2713365													8.483987	-0.852704	4.827129	0.493323	-0.831666	-0.254882	-0.084759	-0.337585	0.937471	-0.865707	-0.440872	-0.237030
336	2713532													8.490359	-0.837691	4.824536	0.493171	-0.831762	-0.254860	-0.084716	-0.337492	0.937509	-0.865798	-0.440761	-0.236905
337	2713699													8.487869	-0.832297	4.861577	0.493009	-0.831992	-0.254423	-0.084677	-0.336929	0.937715	-0.865894	-0.440758	-0.236559
338	2713865													8.510592	-0.816488	4.872557	0.492904	-0.832151	-0.254107	-0.084627	-0.336515	0.937868	-0.865958	-0.440774	-0.236292
339	2714032													8.484646	-0.808573	4.882446	0.492757	-0.832260	-0.254035	-0.084533	-0.336341	0.937939	-0.866052	-0.440701	-0.236088
340	2714199													8.548532	-0.800998	4.802832	0.492571	-0.832438	-0.253813	-0.084490	-0.336012	0.938061	-0.866161	-0.440617	-0.235842
341	2714365													8.496977	-0.828768	4.833166	0.492606	-0.832351	-0.254030	-0.084381	-0.336212	0.937999	-0.866152	-0.440629	-0.235854
342	2714532													8.478757	-0.789619	4.840940	0.492344	-0.832586	-0.253767	-0.084273	-0.335780	0.938163	-0.866311	-0.440513	-0.235484
343	2714699													8.555737	-0.785011	4.804780	0.492174	-0.832618	-0.253992	-0.084105	-0.335897	0.938136	-0.866424	-0.440364	-0.235347
344	2714865													8.501650	-0.806695	4.846641	0.492265	-0.832602	-0.253868	-0.084034	-0.335748	0.938196	-0.866380	-0.440507	-0.235243
345	2715032													8.486308	-0.799486	4.834128	0.492063	-0.832784	-0.253662	-0.084078	-0.335478	0.938289	-0.866490	-0.440370	-0.235095
346	2715199													8.524752	-0.800130	4.822043	0.491817	-0.832860	-0.253890	-0.084043	-0.335641	0.938233	-0.866633	-0.440102	-0.235070
347	2715365													8.496797	-0.782943	4.836495	0.491685	-0.832976	-0.253767	-0.084027	-0.335454	0.938302	-0.866710	-0.440025	-0.234930
348	2715532													8.509526	-0.778590	4.811107	0.491511	-0.833134	-0.253584	-0.084024	-0.335193	0.938395	-0.866808	-0.439925	-0.234755
349	2715699													8.517923	-0.814613	4.792194	0.491332	-0.833190	-0.253748	-0.084001	-0.335312	0.938355	-0.866912	-0.439728	-0.234738
350	2715865													8.510901	-0.819685	4.814393	0.491197	-0.833258	-0.253784	-0.084007	-0.335314	0.938354	-0.866988	-0.439597	-0.234704
351	2716032													8.518456	-0.795869	4.806094	0.491027	-0.833363	-0.253770	-0.083986	-0.335236	0.938383	-0.867087	-0.439458	-0.234600
352	2716199													8.533762	-0.782227	4.825922	0.490897	-0.833475	-0.253653	-0.083941	-0.335042	0.938457	-0.867164	-0.439394	-0.234434
353	2716365													8.522621	-0.799788	4.848751	0.490804	-0.833545	-0.253603	-0.083895	-0.334934	0.938499	-0.867221	-0.439344	-0.234317
354	2716532													8.500829	-0.801175	4.817875	0.490722	-0.833554	-0.253732	-0.083846	-0.335030	0.938470	-0.867273	-0.439254	-0.234296
355	2716699													8.501948	-0.802133	4.848028	0.490611	-0.833610	-0.253764	-0.083894	-0.335056	0.938456	-0.867331	-0.439128	-0.234316
356	2716865													8.507715	-0.789457	4.822855	0.490525	-0.833672	-0.253724	-0.083952	-0.335014	0.938466	-0.867374	-0.439040	-0.234321
357	2717032													8.502318	-0.791290	4.845930	0.490415	-0.833751	-0.253678	-0.084009	-0.334958	0.938481	-0.867430	-0.438934	-0.234311
358	2717199													8.495556	-0.790957	4.838405	0.490345	-0.833831	-0.253552	-0.084100	-0.334840	0.938514	-0.867461	-0.438872	-0.234312
359	2717365													8.487181	-0.802447	4.837900	0.490270	-0.833918	-0.253410	-0.084184	-0.334700	0.938557	-0.867496	-0.438813	-0.234296
360	2717532													8.502682	-0.804754	4.817298	0.490152	-0.833982	-0.253425	-0.084278	-0.334729	0.938538	-0.867553	-0.438668	-0.234355
361	2717699													8.515365	-0.824228	4.846704	0.490048	-0.834142	-0.253100	-0.084324	-0.334355	0.938667	-0.867607	-0.438650	-0.234188
362	2717865													8.492304	-0.811144	4.804945	0.489911	-0.834311	-0.252809	-0.084392	-0.334019	0.938781	-0.867678	-0.438584	-0.234049
363	2718032													8.572834	-0.795832	4.757673	0.489697	-0.834478	-0.252671	-0.084478	-0.333843	0.938836	-0.867790	-0.438400	-0.233977
364	2718199													8.524355	-0.826002	4.844735	0.489854	-0.834394	-0.252644	-0.084518	-0.333881	0.938818	-0.867698	-0.438531	-0.234074
365	2718365													8.517328	-0.793532	4.847002	0.489694	-0.834623	-0.252197	-0.084544	-0.333343	0.939007	-0.867786	-0.438505	-0.233798
366	2718532													8.585558	-0.839403	4.830764	0.489693	-0.834644	-0.252133	-0.084521	-0.333259	0.939039	-0.867789	-0.438530	-0.233740
367	2718699													8.441744	-0.824940	4.903513	0.489890	-0.834505	-0.252207	-0.084605	-0.333444	0.938966	-0.867669	-0.438652	-0.233955
368	2718865													8.419484	-0.815428	4.861866	0.489661	-0.834669	-0.252111	-0.084780	-0.333356	0.938982	-0.867781	-0.438408	-0.233995
369	2719032													8.464814	-0.806474	4.807235	0.489352	-0.834808	-0.252250	-0.084924	-0.333491	0.938921	-0.867942	-0.438040	-0.234090
370	2719199													8.472404	-0.814927	4.832054	0.489180	-0.834956	-0.252095	-0.085093	-0.333349	0.938956	-0.868022	-0.437866	-0.234117
371	2719365													8.487017	-0.830465	4.844146	0.488966	-0.835235	-0.251585	-0.085292	-0.332812	0.939128	-0.868123	-0.437744	-0.233973
372	2719532													8.512427	-0.863317	4.831856	0.488745	-0.835478	-0.251205	-0.085470	-0.332407	0.939255	-0.868230	-0.437586	-0.233871
373	2719699													8.510386	-0.841510	4.778876	0.488541	-0.835707	-0.250840	-0.085666	-0.332034	0.939369	-0.868325	-0.437432	-0.233804
374	2719865													8.515165	-0.850450	4.772807	0.488351	-0.835887	-0.250611	-0.085827	-0.331800	0.939437	-0.868416	-0.437266	-0.233777
375	2720032													8.535741	-0.845425	4.801720	0.488249	-0.836021	-0.250364	-0.085960	-0.331558	0.939511	-0.868461	-0.437193	-0.233747
376	2720199													8.504481	-0.842553	4.825328	0.488164	-0.836049	-0.250436	-0.086101	-0.331684	0.939453	-0.868495	-0.437044	-0.233900
377	2720365													8.535537	-0.835065	4.733042	0.487995	-0.836215	-0.250209	-0.086217	-0.331437	0.939530	-0.868578	-0.436914	-0.233836
378	2720532													8.573296	-0.845984	4.701618	0.488048	-0.836224	-0.250077	-0.086235	-0.331313	0.939572	-0.868546	-0.436991	-0.233809
379	2720699													8.497700	-0.812965	4.833823	0.488265	-0.836156	-0.249880	-0.086224	-0.331152	0.939630	-0.868425	-0.437243	-0.233786
380	2720865													8.579825	-0.812335	4.735578	0.488196	-0.836189	-0.249905	-0.086119	-0.331107	0.939655	-0.868474	-0.437215	-0.233657
381	2721032													8.570744	-0.826274	4.769563	0.488470	-0.836070	-0.249766	-0.085987	-0.330966	0.939717	-0.868333	-0.437547	-0.233559
382	2721199													8.486641	-0.823033	4.811407	0.488720	-0.835946	-0.249694	-0.085940	-0.330937	0.939731	-0.868198	-0.437807	-0.233577
383	2721365													8.510544	-0.840627	4.778951	0.488739	-0.835896	-0.249823	-0.085891	-0.331064	0.939691	-0.868192	-0.437806	-0.233600
384	2721532													8.513461	-0.823211	4.793646	0.488829	-0.835786	-0.250015	-0.085752	-0.331236	0.939643	-0.868155	-0.437886	-0.233588
385	2721699													8.515579	-0.812103	4.804731	0.488921	-0.835667	-0.250234	-0.085622	-0.331445	0.939581	-0.868116	-0.437955	-0.233602
386	2721865													8.528164	-0.831886	4.796205	0.489002	-0.835632	-0.250193	-0.085463	-0.331343	0.939632	-0.868086	-0.438099	-0.233443
387	2722032													8.531600	-0.854567	4.798208	0.489156	-0.835592	-0.250024	-0.085249	-0.331092	0.939740	-0.868020	-0.438365	-0.233189
388	2722199													8.512884	-0.836599	4.824697	0.489184	-0.835464	-0.250396	-0.085007	-0.331396	0.939654	-0.868028	-0.438379	-0.233134
389	2722365													8.508583	-0.816872	4.823056	0.489082	-0.835401	-0.250805	-0.084680	-0.331660	0.939591	-0.868117	-0.438299	-0.232951
390	2722532													8.532079	-0.808209	4.815667	0.488900	-0.835378	-0.251238	-0.084352	-0.331926	0.939526	-0.868252	-0.438142	-0.232744
391	2722699													8.524361	-0.813666	4.795419	0.488781	-0.835282	-0.251789	-0.084086	-0.332376	0.939391	-0.868345	-0.437985	-0.232695
392	2722865													8.515050	-0.820231	4.833986	0.488740	-0.835184	-0.252191	-0.083868	-0.332707	0.939294	-0.868389	-0.437919	-0.232652
393	2723032													8.512284	-0.787127	4.837392	0.488599	-0.835200	-0.252414	-0.083709	-0.332834	0.939262	-0.868484	-0.437793	-0.232536
394	2723199													8.538891	-0.791401	4.820135	0.488504	-0.835155	-0.252746	-0.083576	-0.333112	0.939176	-0.868550	-0.437668	-0.232526
395	2723365													8.505061	-0.803871	4.847277	0.488463	-0.835133	-0.252897	-0.083469	-0.333216	0.939149	-0.868583	-0.437631	-0.232471
396	2723532													8.488357	-0.760191	4.841917	0.488291	-0.835288	-0.252716	-0.083459	-0.332955	0.939242	-0.868681	-0.437532	-0.232291
397	2723699													8.524870	-0.786137	4.816250	0.488143	-0.835450	-0.252465	-0.083533	-0.332666	0.939338	-0.868757	-0.437442	-0.232176
398	2723865													8.528710	-0.848866	4.829568	0.488147	-0.835504	-0.252280	-0.083587	-0.332486	0.939397	-0.868750	-0.437476	-0.232139
399	2724032													8.555164	-0.818286	4.738793	0.488178	-0.835587	-0.251945	-0.083583	-0.332117	0.939528	-0.868733	-0.437598	-0.231973
400	2724199													8.595992	-0.796765	4.749916	0.488336	-0.835549	-0.251767	-0.083699	-0.332022	0.939551	-0.868632	-0.437744	-0.232073
401	2724365													8.515841	-0.801545	4.844823	0.488720	-0.835320	-0.251782	-0.083701	-0.332156	0.939503	-0.868417	-0.438079	-0.232248
402	2724532													8.521394	-0.773280	4.872082	0.488712	-0.835234	-0.252080	-0.083646	-0.332461	0.939400	-0.868426	-0.438010	-0.232342
403	2724699													8.557942	-0.825178	4.810843	0.488854	-0.835168	-0.252023	-0.083622	-0.332428	0.939414	-0.868348	-0.438162	-0.232348
404	2724866													8.455194	-0.831316	4.847049	0.489199	-0.835028	-0.251819	-0.083778	-0.332381	0.939417	-0.868139	-0.438465	-0.232557
405	2725032													8.452956	-0.787811	4.850387	0.489167	-0.835172	-0.251402	-0.083999	-0.332014	0.939527	-0.868136	-0.438468	-0.232564
406	2725199													8.467489	-0.790793	4.832211	0.489189	-0.835222	-0.251195	-0.084113	-0.331845	0.939576	-0.868113	-0.438501	-0.232588
407	2725366													8.481370	-0.776420	4.798675	0.489382	-0.835176	-0.250972	-0.084278	-0.331736	0.939600	-0.867988	-0.438672	-0.232733
408	2725532													8.515666	-0.777854	4.798983	0.489559	-0.835231	-0.250443	-0.084497	-0.331305	0.939733	-0.867867	-0.438892	-0.232768
409	2725699													8.505292	-0.815361	4.800560	0.489709	-0.835286	-0.249966	-0.084710	-0.330921	0.939849	-0.867761	-0.439078	-0.232812
410	2725866													8.474322	-0.821502	4.826430	0.489898	-0.835325	-0.249462	-0.084932	-0.330523	0.939969	-0.867633	-0.439302	-0.232869
411	2726032													8.477131	-0.810918	4.798359	0.490094	-0.835334	-0.249049	-0.085141	-0.330223	0.940055	-0.867501	-0.439512	-0.232961
412	2726199													8.499655	-0.830690	4.814244	0.490358	-0.835316	-0.248588	-0.085317	-0.329874	0.940162	-0.867335	-0.439807	-0.233023
413	2726366													8.529343	-0.855757	4.867644	0.490659	-0.835182	-0.248446	-0.085388	-0.329841	0.940167	-0.867158	-0.440087	-0.233153
414	2726532													8.577987	-0.801211	4.769506	0.490884	-0.835021	-0.248541	-0.085477	-0.330061	0.940082	-0.867022	-0.440226	-0.233397
415	2726699													8.535419	-0.857154	4.797380	0.491305	-0.834788	-0.248490	-0.085527	-0.330158	0.940043	-0.866778	-0.440595	-0.233605
416	2726866													8.424965	-0.816244	4.918340	0.491442	-0.834741	-0.248380	-0.085612	-0.330118	0.940049	-0.866692	-0.440715	-0.233698
417	2727032													8.525910	-0.825274	4.799682	0.491386	-0.834750	-0.248459	-0.085540	-0.330154	0.940043	-0.866731	-0.440671	-0.233637
418	2727199													8.530172	-0.797105	4.828773	0.491739	-0.834545	-0.248449	-0.085482	-0.330219	0.940025	-0.866536	-0.441010	-0.233721
419	2727366													8.499170	-0.828011	4.886716	0.491973	-0.834412	-0.248436	-0.085460	-0.330264	0.940012	-0.866406	-0.441229	-0.233790
420	2727532													8.482342	-0.874215	4.848597	0.491863	-0.834510	-0.248323	-0.085418	-0.330083	0.940079	-0.866473	-0.441179	-0.233638
421	2727699													8.476890	-0.852866	4.798849	0.491785	-0.834484	-0.248563	-0.085331	-0.330285	0.940016	-0.866525	-0.441076	-0.233637
422	2727866													8.475493	-0.833875	4.848078	0.491824	-0.834473	-0.248524	-0.085332	-0.330254	0.940027	-0.866503	-0.441121	-0.233634
423	2728032													8.494533	-0.859960	4.823524	0.491846	-0.834489	-0.248426	-0.085284	-0.330126	0.940076	-0.866495	-0.441186	-0.233540
424	2728199													8.523458	-0.843370	4.779844	0.491841	-0.834491	-0.248428	-0.085193	-0.330080	0.940101	-0.866507	-0.441216	-0.233440
425	2728366													8.529583	-0.830792	4.811543	0.491909	-0.834458	-0.248405	-0.085121	-0.330038	0.940122	-0.866475	-0.441310	-0.233379
426	2728532													8.492949	-0.841793	4.837707	0.492017	-0.834453	-0.248209	-0.085078	-0.329828	0.940200	-0.866419	-0.441477	-0.233274
427	2728699													8.496224	-0.828743	4.835276	0.492078	-0.834435	-0.248148	-0.085038	-0.329758	0.940228	-0.866388	-0.441563	-0.233225
428	2728866													8.511735	-0.818963	4.841204	0.492149	-0.834395	-0.248141	-0.085022	-0.329763	0.940227	-0.866349	-0.441634	-0.233235
429	2729032													8.507575	-0.833853	4.848865	0.492235	-0.834336	-0.248168	-0.084972	-0.329794	0.940221	-0.866305	-0.441723	-0.233231
430	2729199													8.504893	-0.821809	4.850939	0.492304	-0.834261	-0.248284	-0.084957	-0.329938	0.940172	-0.866267	-0.441757	-0.233306
431	2729366													8.480702	-0.811861	4.827179	0.492350	-0.834237	-0.248274	-0.084981	-0.329953	0.940165	-0.866239	-0.441791	-0.233347
432	2729532													8.479095	-0.823021	4.838530	0.492424	-0.834155	-0.248401	-0.084999	-0.330128	0.940101	-0.866195	-0.441815	-0.233465
433	2729699													8.479466	-0.830603	4.845210	0.492513	-0.834163	-0.248200	-0.084921	-0.329888	0.940193	-0.866152	-0.441980	-0.233312
434	2729866													8.492992	-0.811785	4.809598	0.492502	-0.834157	-0.248241	-0.084837	-0.329889	0.940200	-0.866167	-0.441990	-0.233238
435	2730032													8.568982	-0.848960	4.767835	0.492549	-0.834137	-0.248214	-0.084770	-0.329838	0.940224	-0.866146	-0.442066	-0.233171
436	2730199													8.472349	-0.816251	4.897081	0.492881	-0.833924	-0.248272	-0.084636	-0.329936	0.940201	-0.865971	-0.442395	-0.233200
437	2730366													8.556538	-0.797431	4.828258	0.492803	-0.833979	-0.248243	-0.084480	-0.329799	0.940264	-0.866030	-0.442393	-0.232981
438	2730532													8.569466	-0.824410	4.859725	0.493154	-0.833760	-0.248279	-0.084295	-0.329852	0.940261	-0.865848	-0.442765	-0.232950
439	2730699													8.430139	-0.810037	4.929268	0.493491	-0.833579	-0.248218	-0.084271	-0.329874	0.940256	-0.865659	-0.443090	-0.233036
440	2730866													8.433623	-0.803949	4.905005	0.493406	-0.833601	-0.248316	-0.084219	-0.329931	0.940241	-0.865712	-0.443007	-0.232994
441	2731032													8.471942	-0.806828	4.837018	0.493312	-0.833696	-0.248181	-0.084133	-0.329707	0.940327	-0.865774	-0.442994	-0.232789
442	2731199													8.466714	-0.780836	4.874417	0.493409	-0.833625	-0.248227	-0.084107	-0.329775	0.940306	-0.865721	-0.443078	-0.232828
443	2731366													8.469856	-0.814946	4.870644	0.493505	-0.833612	-0.248079	-0.084118	-0.329642	0.940351	-0.865665	-0.443201	-0.232802
444	2731532													8.496568	-0.831744	4.853603	0.493611	-0.833602	-0.247903	-0.084121	-0.329478	0.940408	-0.865605	-0.443342	-0.232758
445	2731699													8.485603	-0.835255	4.860052	0.493787	-0.833495	-0.247913	-0.084142	-0.329553	0.940380	-0.865502	-0.443488	-0.232861
446	2731866													8.490161	-0.830243	4.833247	0.494028	-0.833363	-0.247877	-0.084204	-0.329618	0.940352	-0.865359	-0.443688	-0.233013
447	2732032													8.523681	-0.822908	4.863914	0.494427	-0.833145	-0.247815	-0.084204	-0.329668	0.940334	-0.865131	-0.444060	-0.233151
448	2732199													8.522450	-0.835933	4.896673	0.495067	-0.832731	-0.247927	-0.084230	-0.330003	0.940214	-0.864762	-0.444586	-0.233514
449	2732366													8.553711	-0.807659	4.856976	0.495944	-0.832200	-0.247956	-0.084376	-0.330379	0.940069	-0.864245	-0.445301	-0.234067
450	2732532													8.516581	-0.833503	4.931243	0.497374	-0.831581	-0.247166	-0.084670	-0.330076	0.940149	-0.863394	-0.446679	-0.234581
451	2732699													8.390818	-0.775527	4.989449	0.498836	-0.831041	-0.246034	-0.085043	-0.329439	0.940339	-0.862514	-0.448152	-0.235010
452	2732866													8.499419	-0.777625	4.835229	0.500002	-0.830585	-0.245210	-0.085273	-0.328986	0.940477	-0.861816	-0.449330	-0.235319
453	2733032													8.537395	-0.813438	4.779247	0.501745	-0.829653	-0.244802	-0.085426	-0.329144	0.940408	-0.860787	-0.450932	-0.236020
454	2733199													8.555466	-0.787237	4.896136	0.503689	-0.828546	-0.244559	-0.085706	-0.329623	0.940215	-0.859623	-0.452615	-0.237039
455	2733366													8.527724	-0.819056	4.960485	0.505515	-0.827625	-0.243910	-0.086125	-0.329679	0.940156	-0.858509	-0.454256	-0.237937
456	2733532													8.468096	-0.799609	4.951271	0.507279	-0.826771	-0.243142	-0.086528	-0.329577	0.940155	-0.857427	-0.455882	-0.238726
457	2733699													8.425606	-0.786288	4.961249	0.509151	-0.825783	-0.242586	-0.086926	-0.329752	0.940057	-0.856276	-0.457544	-0.239676
458	2733866													8.444680	-0.812793	5.049337	0.511248	-0.824568	-0.242308	-0.087297	-0.330305	0.939829	-0.854988	-0.459332	-0.240850
459	2734032													8.411418	-0.810558	5.086581	0.513523	-0.823316	-0.241753	-0.087630	-0.330583	0.939700	-0.853590	-0.461373	-0.241909
460	2734199													8.377920	-0.799819	5.072999	0.515867	-0.822054	-0.241057	-0.088071	-0.330790	0.939586	-0.852129	-0.463472	-0.243042
461	2734366													8.378183	-0.846735	5.064898	0.518535	-0.820616	-0.240230	-0.088508	-0.330956	0.939486	-0.850463	-0.465894	-0.244244
462	2734532													8.358593	-0.856966	5.122380	0.521383	-0.819061	-0.239372	-0.089022	-0.331196	0.939353	-0.848667	-0.468453	-0.245595
463	2734699													8.373735	-0.901590	5.156610	0.524162	-0.817524	-0.238556	-0.089655	-0.331537	0.939173	-0.846886	-0.470891	-0.247074
464	2734866													8.349811	-0.904274	5.138798	0.527049	-0.815989	-0.237448	-0.090450	-0.331679	0.939046	-0.845008	-0.473446	-0.248617
465	2735032													8.352441	-0.878874	5.127131	0.530076	-0.814456	-0.235966	-0.091298	-0.331480	0.939035	-0.843021	-0.476217	-0.250068
466	2735199													8.374113	-0.819543	5.118294	0.533625	-0.812643	-0.234213	-0.092293	-0.331241	0.939021	-0.840670	-0.479469	-0.251760
467	2735366													8.239503	-0.884960	5.075146	0.537516	-0.810728	-0.231940	-0.093503	-0.330660	0.939106	-0.838054	-0.483098	-0.253540
468	2735532													8.150629	-0.886920	4.808717	0.541770	-0.808599	-0.229460	-0.094536	-0.329883	0.939277	-0.835193	-0.487180	-0.255162
469	2735699													8.282293	-0.985479	4.817297	0.547312	-0.805422	-0.227474	-0.095307	-0.330008	0.939154	-0.831484	-0.492331	-0.257380
470	2735866													8.360600	-1.035644	5.633517	0.552392	-0.802189	-0.226620	-0.095308	-0.330858	0.938855	-0.828118	-0.497018	-0.259218
471	2736032													8.257599	-0.991738	5.485421	0.556791	-0.799072	-0.226865	-0.094844	-0.332487	0.938327	-0.825220	-0.500935	-0.260913
472	2736199													8.109991	-0.997272	5.430369	0.561171	-0.795841	-0.227430	-0.093911	-0.334218	0.937805	-0.822355	-0.504911	-0.262292
473	2736366													7.992902	-1.021727	5.523177	0.564975	-0.793007	-0.227909	-0.092976	-0.335644	0.937389	-0.819853	-0.508412	-0.263361
474	2736532													7.985039	-0.943958	5.535164	0.567813	-0.790850	-0.228353	-0.092319	-0.336843	0.937024	-0.817964	-0.510973	-0.264274
475	2736699													8.103241	-0.923277	5.566513	0.570534	-0.788866	-0.228433	-0.091918	-0.337732	0.936743	-0.816114	-0.513447	-0.265198
476	2736866													8.106942	-0.935281	5.664861	0.573635	-0.786579	-0.228552	-0.091611	-0.338883	0.936358	-0.813972	-0.516189	-0.266455
477	2737032													8.035267	-0.944363	5.810537	0.576974	-0.784084	-0.228721	-0.091551	-0.340354	0.935830	-0.811615	-0.519010	-0.268159
478	2737199													7.901191	-0.885528	5.833917	0.580132	-0.781746	-0.228738	-0.091779	-0.341774	0.935290	-0.809335	-0.521598	-0.270021
479	2737366													7.811407	-0.825076	5.872110	0.583144	-0.779585	-0.228450	-0.092254	-0.342946	0.934814	-0.807113	-0.524056	-0.271907
480	2737532													7.769423	-0.878252	5.849202	0.586422	-0.777377	-0.227584	-0.093130	-0.343810	0.934410	-0.804634	-0.526763	-0.274015
481	2737699													7.782284	-0.940894	5.886542	0.590086	-0.774923	-0.226477	-0.094036	-0.344584	0.934034	-0.801845	-0.529864	-0.276205
482	2737866													7.911232	-0.880398	5.929166	0.593929	-0.772324	-0.225311	-0.094970	-0.345405	0.933636	-0.798893	-0.533115	-0.278493
483	2738032													7.935858	-0.882875	5.841794	0.598194	-0.769423	-0.223947	-0.096168	-0.346369	0.933156	-0.795560	-0.536672	-0.281190
484	2738199													7.806179	-0.925185	6.077088	0.603188	-0.765830	-0.222863	-0.097045	-0.347809	0.932529	-0.791673	-0.540863	-0.284115
485	2738366													7.652734	-1.004957	5.941522	0.607879	-0.762452	-0.221698	-0.097906	-0.349048	0.931977	-0.787971	-0.544823	-0.286827
486	2738532													7.722026	-1.003484	5.844749	0.612896	-0.758827	-0.220321	-0.098641	-0.350125	0.931495	-0.783983	-0.549176	-0.289442
487	2738699													7.886494	-0.955066	5.632329	0.617772	-0.755395	-0.218487	-0.099557	-0.350744	0.931164	-0.780030	-0.553495	-0.291884
488	2738866													7.987278	-1.054175	6.042939	0.623808	-0.750792	-0.217198	-0.099757	-0.352107	0.930628	-0.775186	-0.558866	-0.294544
489	2739032													7.659693	-0.957428	6.474365	0.630088	-0.745882	-0.215986	-0.099725	-0.353567	0.930078	-0.770094	-0.564492	-0.297162
490	2739199													7.329812	-0.972715	6.508723	0.635699	-0.741529	-0.214526	-0.099659	-0.354417	0.929762	-0.765477	-0.569669	-0.299202
491	2739366													7.301847	-0.932942	6.498365	0.641044	-0.737406	-0.212825	-0.099543	-0.354834	0.929615	-0.761021	-0.574739	-0.300868
492	2739532													7.414731	-0.931666	6.340007	0.646350	-0.733454	-0.210418	-0.099881	-0.354716	0.929624	-0.756475	-0.579846	-0.302529
493	2739699													7.474883	-0.944267	6.138484	0.651611	-0.729544	-0.207769	-0.100589	-0.354586	0.929597	-0.751854	-0.584837	-0.304436
494	2739866													7.510070	-0.957022	6.381965	0.657381	-0.725097	-0.205145	-0.101133	-0.354666	0.929508	-0.746741	-0.590294	-0.306482
495	2740032													7.326690	-0.989403	6.551668	0.663157	-0.720553	-0.202546	-0.101561	-0.354734	0.929435	-0.741558	-0.595791	-0.308425
496	2740199													7.295148	-0.942984	6.583513	0.669018	-0.715835	-0.199988	-0.102015	-0.354967	0.929296	-0.736212	-0.601314	-0.310505
497	2740366													7.166534	-0.877082	6.728365	0.675637	-0.710378	-0.197175	-0.102532	-0.355395	0.929076	-0.730070	-0.607501	-0.312955
498	2740532													7.016888	-0.922467	6.650716	0.682193	-0.704925	-0.194149	-0.103223	-0.355722	0.928874	-0.723850	-0.613630	-0.315436
499	2740699													7.042912	-1.017236	6.633847	0.688722	-0.699499	-0.190692	-0.104097	-0.355692	0.928788	-0.717514	-0.619826	-0.317789
500	2740866													6.873257	-0.947509	6.756452	0.694888	-0.694253	-0.187465	-0.104887	-0.355749	0.928677	-0.711427	-0.625664	-0.320023
501	2741032													6.830591	-1.031056	6.790781	0.700647	-0.689261	-0.184429	-0.105616	-0.355822	0.928567	-0.705648	-0.631119	-0.322102
502	2741199													6.771246	-1.008550	6.875152	0.706155	-0.684321	-0.181795	-0.106245	-0.356253	0.928329	-0.700040	-0.636230	-0.324276
503	2741366													6.739281	-0.990032	6.893470	0.711755	-0.679221	-0.179065	-0.106971	-0.356760	0.928052	-0.694235	-0.641390	-0.326582
504	2741533													6.755418	-0.964651	6.970387	0.717091	-0.674330	-0.176238	-0.107817	-0.357140	0.927807	-0.688590	-0.646321	-0.328806
505	2741699													6.673778	-1.079819	7.056755	0.722317	-0.669446	-0.173496	-0.108666	-0.357627	0.927521	-0.682972	-0.651110	-0.331066
506	2741866													6.539155	-1.045187	7.193526	0.726817	-0.665197	-0.171026	-0.109602	-0.358147	0.927210	-0.678030	-0.655167	-0.333214
507	2742033													6.516516	-1.051886	7.230335	0.730530	-0.661696	-0.168772	-0.110607	-0.358537	0.926940	-0.673864	-0.658490	-0.335110
508	2742199													6.409317	-1.094040	7.220892	0.733482	-0.658976	-0.166598	-0.111705	-0.358635	0.926770	-0.670467	-0.661160	-0.336663
509	2742366													6.423351	-1.116088	7.203841	0.736006	-0.656594	-0.164859	-0.112649	-0.358914	0.926548	-0.667537	-0.663374	-0.338128
510	2742533													6.444537	-1.128662	7.285677	0.738241	-0.654512	-0.163139	-0.113650	-0.359087	0.926359	-0.664894	-0.665335	-0.339478
511	2742699													6.398579	-1.172114	7.265719	0.739879	-0.652958	-0.161942	-0.114445	-0.359377	0.926148	-0.662934	-0.666704	-0.340623
512	2742866													6.413628	-1.122151	7.254676	0.741139	-0.651713	-0.161194	-0.115017	-0.359813	0.925908	-0.661426	-0.667686	-0.341630
513	2743033													6.369763	-1.214947	7.304359	0.741881	-0.651031	-0.160535	-0.115605	-0.360015	0.925756	-0.660491	-0.668242	-0.342351
514	2743199													6.355740	-1.211010	7.349585	0.742254	-0.650617	-0.160488	-0.115781	-0.360402	0.925584	-0.660041	-0.668436	-0.342839
515	2743366													6.259698	-1.101295	7.429023	0.742145	-0.650711	-0.160613	-0.115910	-0.360630	0.925479	-0.660141	-0.668222	-0.343064
516	2743533													6.323071	-1.168876	7.323900	0.741539	-0.651392	-0.160647	-0.116170	-0.360495	0.925499	-0.660775	-0.667631	-0.342993
517	2743699													6.293844	-1.231073	7.376143	0.741091	-0.651859	-0.160822	-0.116211	-0.360454	0.925510	-0.661271	-0.667197	-0.342882
518	2743866													6.313859	-1.161139	7.366361	0.740196	-0.652716	-0.161469	-0.115970	-0.360471	0.925533	-0.662315	-0.666350	-0.342515
519	2744033													6.278279	-1.076313	7.340126	0.738995	-0.653857	-0.162346	-0.115574	-0.360439	0.925595	-0.663723	-0.665248	-0.341932
520	2744199													6.363213	-1.127113	7.311607	0.737399	-0.655466	-0.163117	-0.115323	-0.360117	0.925752	-0.665540	-0.663837	-0.341140
521	2744366													6.420835	-1.175141	7.319665	0.735580	-0.657216	-0.164283	-0.114780	-0.359912	0.925899	-0.667643	-0.662217	-0.340179
522	2744533													6.262329	-1.151876	7.338253	0.733385	-0.659283	-0.165805	-0.114120	-0.359832	0.926011	-0.670166	-0.660202	-0.339134
523	2744699													6.451232	-1.068154	7.293207	0.730813	-0.661775	-0.167233	-0.113641	-0.359546	0.926181	-0.673052	-0.657860	-0.337966
524	2744866													6.501799	-1.088493	7.116140	0.727884	-0.664668	-0.168528	-0.113215	-0.358895	0.926486	-0.676290	-0.655294	-0.336484
525	2745033													6.556632	-1.140306	7.158489	0.724682	-0.667750	-0.170137	-0.112542	-0.358279	0.926806	-0.679832	-0.652492	-0.334788
526	2745199													6.500204	-1.082174	7.100410	0.720890	-0.671295	-0.172282	-0.111655	-0.357832	0.927087	-0.683996	-0.649091	-0.332911
527	2745366													6.654393	-1.075191	7.104880	0.716767	-0.675155	-0.174387	-0.110825	-0.357202	0.927429	-0.688449	-0.645424	-0.330855
528	2745533													6.674820	-1.088767	7.057114	0.712393	-0.679338	-0.176059	-0.110226	-0.356075	0.927934	-0.693070	-0.641647	-0.328546
529	2745699													6.738751	-1.090318	6.890248	0.707663	-0.683818	-0.177780	-0.109620	-0.354830	0.928482	-0.697994	-0.637564	-0.326061
530	2745866													6.848888	-1.074695	6.878983	0.702813	-0.688256	-0.179882	-0.108798	-0.353886	0.928939	-0.703006	-0.633299	-0.323597
531	2746199													6.975648	-1.000351	6.915146	0.692532	-0.697433	-0.184355	-0.107279	-0.352283	0.929724	-0.713366	-0.624086	-0.318788
532	2746366													7.004330	-1.048226	6.772759	0.687078	-0.702292	-0.186304	-0.106754	-0.351204	0.930193	-0.718698	-0.619227	-0.316277
533	2746533													7.077376	-1.056754	6.656343	0.681518	-0.707112	-0.188482	-0.106276	-0.350464	0.930527	-0.724043	-0.614139	-0.313997
534	2746699													7.157630	-1.014680	6.643172	0.675860	-0.711749	-0.191380	-0.105563	-0.350468	0.930607	-0.729431	-0.608757	-0.312002
535	2746866													7.112296	-0.981281	6.697753	0.670431	-0.716137	-0.194088	-0.104846	-0.350398	0.930714	-0.734526	-0.603630	-0.310002
536	2747033													7.170790	-1.025827	6.634366	0.664677	-0.720777	-0.196685	-0.104113	-0.350041	0.930930	-0.739841	-0.598291	-0.307707
537	2747199													7.379510	-0.988495	6.434881	0.658949	-0.725398	-0.198958	-0.103441	-0.349384	0.931252	-0.745041	-0.593067	-0.305262
538	2747366													7.339342	-1.001881	6.438241	0.653271	-0.729984	-0.200896	-0.102872	-0.348460	0.931662	-0.750102	-0.587961	-0.302734
539	2747533													7.215883	-0.999267	6.464999	0.647411	-0.734682	-0.202735	-0.102318	-0.347383	0.932124	-0.755242	-0.582724	-0.300071
540	2747699													7.266438	-1.049601	6.423697	0.641217	-0.739624	-0.204442	-0.101824	-0.346078	0.932664	-0.760574	-0.577223	-0.297223
541	2747866													7.397774	-1.022395	6.300149	0.634744	-0.744679	-0.206284	-0.101220	-0.344786	0.933208	-0.766064	-0.571469	-0.294227
542	2748033													7.521490	-0.936807	6.203152	0.628304	-0.749620	-0.208093	-0.100608	-0.343529	0.933737	-0.771435	-0.565736	-0.291259
543	2748199													7.602624	-0.965242	6.112991	0.621894	-0.754567	-0.209469	-0.100189	-0.341953	0.934361	-0.776666	-0.560087	-0.288258
544	2748366													7.615366	-1.016327	6.167515	0.615372	-0.759477	-0.210980	-0.099638	-0.340462	0.934964	-0.781914	-0.554329	-0.285184
545	2748533													7.641471	-1.006812	6.090426	0.608791	-0.764372	-0.212388	-0.099162	-0.338935	0.935570	-0.787109	-0.548505	-0.282137
546	2748699													7.761630	-0.982413	5.865663	0.602361	-0.769187	-0.213337	-0.098899	-0.337123	0.936252	-0.792073	-0.542863	-0.279142
547	2748866													7.770798	-0.944760	5.870813	0.595957	-0.773892	-0.214303	-0.098548	-0.335341	0.936928	-0.796946	-0.537250	-0.276114
548	2749033													7.853316	-0.944851	5.747141	0.589309	-0.778538	-0.215857	-0.097953	-0.334061	0.937448	-0.801948	-0.531302	-0.273125
549	2749199													7.969490	-0.999404	5.724300	0.582964	-0.782809	-0.217632	-0.097260	-0.333163	0.937839	-0.806656	-0.525559	-0.270358
550	2749366													8.042700	-0.935424	5.694516	0.576812	-0.786949	-0.219087	-0.096678	-0.332081	0.938283	-0.811136	-0.520032	-0.267629
551	2749533													8.091784	-0.928700	5.654879	0.571018	-0.790842	-0.220245	-0.096170	-0.330878	0.938760	-0.815285	-0.514868	-0.264993
552	2749699													8.044885	-0.940197	5.620635	0.565194	-0.794612	-0.221694	-0.095560	-0.329986	0.939136	-0.819405	-0.509609	-0.262439
553	2749866													8.030010	-0.931832	5.515244	0.559536	-0.798078	-0.223587	-0.094812	-0.329634	0.939336	-0.823365	-0.504394	-0.260109
554	2750033													8.188147	-0.908967	5.416597	0.554073	-0.801433	-0.225185	-0.094213	-0.329134	0.939572	-0.827120	-0.499375	-0.257870
555	2750199													8.186491	-0.885626	5.319904	0.549124	-0.804546	-0.226206	-0.093829	-0.328303	0.939900	-0.830457	-0.494897	-0.255769
556	2750366													8.140543	-0.830709	5.324485	0.544086	-0.807706	-0.227117	-0.093369	-0.327296	0.940298	-0.833818	-0.490397	-0.253492
557	2750533													8.281502	-0.884730	5.253097	0.539349	-0.810450	-0.228633	-0.092602	-0.326945	0.940495	-0.836975	-0.486083	-0.251387
558	2750699													8.452422	-0.899266	5.211874	0.535418	-0.812613	-0.230190	-0.091969	-0.327022	0.940531	-0.839565	-0.482406	-0.249829
559	2750866													8.394020	-0.907677	5.192199	0.531989	-0.814604	-0.231103	-0.091629	-0.326708	0.940673	-0.841779	-0.479252	-0.248446
560	2751033													8.345791	-0.955039	5.113607	0.528332	-0.816834	-0.231621	-0.091419	-0.325947	0.940958	-0.844102	-0.475963	-0.246882
561	2751199													8.430605	-0.905340	4.941179	0.525077	-0.818670	-0.232537	-0.091079	-0.325720	0.941069	-0.846167	-0.472954	-0.245592
562	2751366													8.377551	-0.887264	5.061363	0.522357	-0.820254	-0.233081	-0.090991	-0.325392	0.941191	-0.847859	-0.470429	-0.244606
563	2751533													8.293635	-0.861820	5.143052	0.519797	-0.821710	-0.233676	-0.090759	-0.325101	0.941314	-0.849455	-0.468084	-0.243564
564	2751699													8.309051	-0.853496	5.167396	0.516954	-0.823278	-0.234462	-0.090370	-0.324858	0.941436	-0.851229	-0.465491	-0.242336
565	2751866													8.498611	-0.929008	4.999244	0.514541	-0.824541	-0.235329	-0.089865	-0.324790	0.941507	-0.852744	-0.463297	-0.241215
566	2752033													8.505850	-0.998700	4.947668	0.513193	-0.825182	-0.236025	-0.089369	-0.324881	0.941523	-0.853608	-0.462089	-0.240472
567	2752199													8.347184	-0.943346	5.033732	0.511441	-0.825956	-0.237118	-0.088853	-0.325288	0.941431	-0.854712	-0.460418	-0.239754
568	2752366													8.384421	-0.857633	4.986130	0.509384	-0.826961	-0.238040	-0.088522	-0.325505	0.941388	-0.855974	-0.458456	-0.239011
569	2752533													8.428662	-0.794342	5.000230	0.508202	-0.827436	-0.238914	-0.087953	-0.325820	0.941332	-0.856735	-0.457374	-0.238357
570	2752699													8.603818	-0.800895	5.005809	0.507957	-0.827358	-0.239704	-0.087147	-0.326211	0.941271	-0.856963	-0.457236	-0.237803
571	2752866													8.456760	-0.780915	5.176880	0.508072	-0.827377	-0.239396	-0.086704	-0.325660	0.941503	-0.856940	-0.457595	-0.237196
572	2753033													8.296377	-0.782933	5.025760	0.507181	-0.827891	-0.239509	-0.086310	-0.325298	0.941664	-0.857507	-0.456922	-0.236440
573	2753199													8.398520	-0.813615	4.868923	0.505747	-0.828378	-0.240853	-0.085736	-0.326072	0.941449	-0.858411	-0.455485	-0.235932
574	2753366													8.448507	-0.849020	4.963850	0.505146	-0.828293	-0.242399	-0.085097	-0.327303	0.941080	-0.858828	-0.454755	-0.235821
575	2753533													8.384273	-0.832174	4.977332	0.505168	-0.828244	-0.242522	-0.084678	-0.327228	0.941144	-0.858857	-0.454899	-0.235439
576	2753699													8.453162	-0.822596	4.886750	0.505298	-0.827976	-0.243164	-0.083988	-0.327633	0.941065	-0.858848	-0.455095	-0.235093
577	2753866													8.391654	-0.793999	5.079606	0.504864	-0.827928	-0.244228	-0.083513	-0.328456	0.940820	-0.859149	-0.454590	-0.234969
578	2754033													8.445366	-0.849304	4.962831	0.503990	-0.827992	-0.245810	-0.082994	-0.329708	0.940428	-0.859713	-0.453565	-0.234888
579	2754199													8.412075	-0.868927	4.982047	0.503453	-0.827818	-0.247491	-0.082402	-0.331137	0.939978	-0.860084	-0.452841	-0.234926
580	2754366													8.415645	-0.849821	5.023458	0.503156	-0.827761	-0.248285	-0.082012	-0.331741	0.939799	-0.860295	-0.452503	-0.234804
581	2754533													8.456056	-0.795801	4.985125	0.503183	-0.827681	-0.248499	-0.081664	-0.331810	0.939805	-0.860313	-0.452600	-0.234553
582	2754699													8.388572	-0.806400	5.074865	0.502849	-0.827673	-0.249200	-0.081195	-0.332256	0.939688	-0.860553	-0.452287	-0.234277
583	2754866													8.376824	-0.775956	4.978869	0.501674	-0.828205	-0.249799	-0.080845	-0.332390	0.939671	-0.861271	-0.451214	-0.233707
584	2755033													8.570222	-0.802068	4.779830	0.501060	-0.828464	-0.250173	-0.080461	-0.332424	0.939691	-0.861664	-0.450713	-0.233223
585	2755199													8.550859	-0.800043	5.013336	0.501221	-0.828297	-0.250403	-0.079975	-0.332481	0.939713	-0.861615	-0.450978	-0.232889
586	2755366													8.425503	-0.772042	5.047399	0.501105	-0.828328	-0.250533	-0.079637	-0.332415	0.939765	-0.861715	-0.450969	-0.232540
587	2755533													8.372170	-0.769994	4.999286	0.500494	-0.828709	-0.250495	-0.079430	-0.332077	0.939902	-0.862088	-0.450519	-0.232026
588	2755699													8.386472	-0.765402	5.009155	0.499425	-0.829437	-0.250216	-0.079238	-0.331335	0.940180	-0.862726	-0.449723	-0.231200
589	2755866													8.441818	-0.760228	4.832789	0.498575	-0.829995	-0.250061	-0.078963	-0.330758	0.940406	-0.863243	-0.449118	-0.230446
590	2756033													8.527250	-0.756675	4.812030	0.497960	-0.830382	-0.250005	-0.078645	-0.330344	0.940579	-0.863627	-0.448709	-0.229803
591	2756199													8.549959	-0.756444	4.900938	0.497548	-0.830618	-0.250038	-0.078367	-0.330112	0.940683	-0.863889	-0.448441	-0.229340
592	2756366													8.465336	-0.728094	5.025019	0.496880	-0.830976	-0.250179	-0.078135	-0.329952	0.940759	-0.864294	-0.447897	-0.228875
593	2756533													8.449086	-0.726938	4.885943	0.495881	-0.831395	-0.250766	-0.077845	-0.330167	0.940707	-0.864894	-0.446958	-0.228444
594	2756699													8.556851	-0.723402	4.783969	0.495036	-0.831690	-0.251459	-0.077595	-0.330570	0.940586	-0.865401	-0.446112	-0.228179
595	2756866													8.603550	-0.750470	4.811114	0.494766	-0.831667	-0.252066	-0.077370	-0.331060	0.940433	-0.865575	-0.445792	-0.228143
596	2757033													8.501761	-0.725571	4.959743	0.494336	-0.831637	-0.253004	-0.077139	-0.331873	0.940165	-0.865842	-0.445241	-0.228208
597	2757199													8.450117	-0.722041	4.874990	0.493460	-0.831926	-0.253765	-0.077050	-0.332426	0.939977	-0.866349	-0.444288	-0.228139
598	2757366													8.575840	-0.719593	4.726229	0.492750	-0.832238	-0.254120	-0.077058	-0.332620	0.939907	-0.866752	-0.443557	-0.228030
599	2757533													8.649443	-0.739989	4.784652	0.492651	-0.832268	-0.254215	-0.077087	-0.332714	0.939872	-0.866806	-0.443432	-0.228069
600	2757699													8.514324	-0.745410	4.830820	0.492651	-0.832267	-0.254220	-0.077127	-0.332739	0.939860	-0.866803	-0.443415	-0.228114
601	2757866													8.466359	-0.718064	4.788521	0.492065	-0.832449	-0.254757	-0.077044	-0.333130	0.939728	-0.867143	-0.442780	-0.228056
602	2758033													8.575955	-0.758084	4.781036	0.491455	-0.832766	-0.254899	-0.077077	-0.333126	0.939727	-0.867486	-0.442186	-0.227903
603	2758200													8.615314	-0.772576	4.819790	0.491475	-0.832896	-0.254435	-0.077196	-0.332669	0.939879	-0.867464	-0.442285	-0.227795
604	2758366													8.650953	-0.743320	4.775690	0.491744	-0.832895	-0.253916	-0.077259	-0.332195	0.940041	-0.867305	-0.442642	-0.227704
605	2758533													8.543927	-0.742404	4.861614	0.492379	-0.832775	-0.253079	-0.077486	-0.331554	0.940249	-0.866925	-0.443349	-0.227778
606	2758700													8.444042	-0.758696	4.877119	0.492871	-0.832758	-0.252177	-0.077683	-0.330782	0.940505	-0.866628	-0.443957	-0.227723
607	2758866													8.439264	-0.741329	4.877958	0.493029	-0.832833	-0.251618	-0.077734	-0.330223	0.940697	-0.866533	-0.444232	-0.227549
608	2759033													8.457301	-0.716418	4.860116	0.492940	-0.832914	-0.251524	-0.077652	-0.330049	0.940764	-0.866591	-0.444209	-0.227372
609	2759200													8.501272	-0.716855	4.820037	0.492638	-0.833059	-0.251634	-0.077613	-0.330064	0.940762	-0.866766	-0.443926	-0.227258
610	2759366													8.552758	-0.766471	4.816153	0.492425	-0.833186	-0.251631	-0.077658	-0.330021	0.940774	-0.866883	-0.443720	-0.227214
611	2759533													8.541453	-0.778072	4.868262	0.492467	-0.833201	-0.251498	-0.077687	-0.329898	0.940815	-0.866857	-0.443783	-0.227193
612	2759700													8.469410	-0.760870	4.891951	0.492590	-0.833155	-0.251412	-0.077720	-0.329854	0.940827	-0.866784	-0.443902	-0.227235
613	2759866													8.445537	-0.767738	4.878175	0.492477	-0.833238	-0.251360	-0.077782	-0.329794	0.940843	-0.866843	-0.443792	-0.227226
614	2760033													8.539070	-0.786018	4.833456	0.492631	-0.833211	-0.251147	-0.077868	-0.329642	0.940889	-0.866748	-0.443955	-0.227272
615	2760200													8.545868	-0.758039	4.880371	0.493060	-0.833074	-0.250756	-0.078051	-0.329422	0.940951	-0.866487	-0.444374	-0.227447
616	2760366													8.493535	-0.757406	4.845977	0.493438	-0.832983	-0.250314	-0.078285	-0.329156	0.941025	-0.866251	-0.444742	-0.227628
617	2760533													8.392803	-0.773001	4.888619	0.493598	-0.832878	-0.250349	-0.078305	-0.329252	0.940990	-0.866158	-0.444867	-0.227736
618	2760700													8.487782	-0.745702	4.860388	0.493452	-0.833023	-0.250154	-0.078413	-0.329043	0.941054	-0.866231	-0.444750	-0.227687
619	2760866													8.662979	-0.762676	4.755389	0.493841	-0.832880	-0.249864	-0.078474	-0.328864	0.941111	-0.866004	-0.445151	-0.227766
620	2761033													8.604517	-0.762108	4.846073	0.494760	-0.832526	-0.249224	-0.078725	-0.328543	0.941202	-0.865456	-0.446050	-0.228090
621	2761200													8.526218	-0.741692	4.872720	0.495656	-0.832258	-0.248338	-0.079164	-0.328034	0.941343	-0.864904	-0.446923	-0.228477
622	2761366													8.509965	-0.783486	4.883055	0.496656	-0.831889	-0.247575	-0.079545	-0.327667	0.941439	-0.864295	-0.447877	-0.228911
623	2761533													8.433539	-0.766320	4.956078	0.497506	-0.831341	-0.247709	-0.079587	-0.328096	0.941286	-0.863802	-0.448581	-0.229394
624	2761700													8.478004	-0.728434	4.849948	0.498092	-0.830886	-0.248060	-0.079638	-0.328696	0.941072	-0.863460	-0.448985	-0.229891
625	2761866													8.553622	-0.740982	4.848171	0.498982	-0.830393	-0.247921	-0.079851	-0.328918	0.940976	-0.862926	-0.449733	-0.230432
626	2762033													8.506745	-0.754757	4.905174	0.500346	-0.829681	-0.247555	-0.080103	-0.329049	0.940909	-0.862112	-0.450950	-0.231099
627	2762200													8.397057	-0.748861	4.999887	0.501100	-0.829161	-0.247772	-0.080264	-0.329609	0.940699	-0.861659	-0.451497	-0.231719
628	2762366													8.432599	-0.761938	4.921755	0.501373	-0.828873	-0.248183	-0.080482	-0.330273	0.940448	-0.861480	-0.451541	-0.232299
629	2762533													8.545863	-0.768529	4.875168	0.501862	-0.828703	-0.247759	-0.080843	-0.330132	0.940466	-0.861161	-0.451955	-0.232676
630	2762700													8.642607	-0.766526	4.837080	0.503062	-0.828272	-0.246766	-0.081290	-0.329607	0.940612	-0.860419	-0.453127	-0.233143
631	2762866													8.485379	-0.771056	5.048902	0.504351	-0.827676	-0.246135	-0.081739	-0.329526	0.940602	-0.859621	-0.454274	-0.233851
632	2763033													8.313784	-0.763303	5.123920	0.504358	-0.827860	-0.245502	-0.082475	-0.329197	0.940652	-0.859547	-0.454178	-0.234311
633	2763200													8.405709	-0.769352	4.864212	0.503636	-0.828673	-0.244237	-0.083433	-0.328042	0.940972	-0.859878	-0.453530	-0.234352
634	2763366													8.638426	-0.789518	4.655297	0.503977	-0.828937	-0.242632	-0.084383	-0.326827	0.941310	-0.859585	-0.453925	-0.234661
635	2763533													8.729789	-0.817232	4.783670	0.505852	-0.828386	-0.240604	-0.085425	-0.325657	0.941621	-0.858380	-0.455767	-0.235500
636	2763700													8.539431	-0.820578	4.965996	0.508325	-0.827757	-0.237538	-0.086791	-0.323672	0.942180	-0.856781	-0.458317	-0.236372
637	2763866													8.374590	-0.850844	4.978711	0.510353	-0.827410	-0.234376	-0.088089	-0.321406	0.942835	-0.855441	-0.460533	-0.236916
638	2764033													8.408207	-0.909729	4.897316	0.512314	-0.826804	-0.232229	-0.089045	-0.320094	0.943192	-0.854169	-0.462531	-0.237612
639	2764200													8.447442	-0.941903	4.939151	0.514872	-0.825671	-0.230596	-0.089894	-0.319507	0.943310	-0.852541	-0.464955	-0.238728
640	2764366													8.460753	-0.928608	4.981936	0.517950	-0.824180	-0.229029	-0.090649	-0.319118	0.943370	-0.850594	-0.467857	-0.239998
641	2764533													8.298342	-0.873074	5.205485	0.521239	-0.822525	-0.227513	-0.091396	-0.318861	0.943384	-0.848503	-0.470935	-0.241379
642	2764700													8.263647	-0.870306	5.260870	0.523788	-0.821301	-0.226078	-0.092194	-0.318493	0.943431	-0.846845	-0.473315	-0.242542
643	2764866													8.331839	-0.882332	5.166384	0.526451	-0.819906	-0.224953	-0.092845	-0.318446	0.943383	-0.845121	-0.475759	-0.243770
644	2765033													8.294711	-0.909146	5.171319	0.529491	-0.818158	-0.224181	-0.093399	-0.318884	0.943181	-0.843158	-0.478467	-0.245261
645	2765200													8.225205	-0.944614	5.273918	0.532330	-0.816468	-0.223617	-0.093946	-0.319502	0.942917	-0.841308	-0.480935	-0.246784
646	2765366													8.175036	-0.927596	5.369575	0.534979	-0.814891	-0.223048	-0.094512	-0.320070	0.942668	-0.839563	-0.483226	-0.248248
647	2765533													8.064226	-0.869407	5.456919	0.537508	-0.813529	-0.221936	-0.095283	-0.320097	0.942581	-0.837858	-0.485498	-0.249570
648	2765700													7.993821	-0.871008	5.395149	0.539417	-0.812869	-0.219711	-0.096496	-0.318883	0.942869	-0.836492	-0.487398	-0.250450
649	2765866													8.119576	-0.931153	5.365036	0.540970	-0.812232	-0.218246	-0.097352	-0.318223	0.943004	-0.835389	-0.488891	-0.251221
650	2766033													8.220640	-1.021232	5.364017	0.542889	-0.811025	-0.217968	-0.097787	-0.318828	0.942755	-0.834092	-0.490497	-0.252396
651	2766200													8.163042	-0.982722	5.413187	0.545092	-0.809371	-0.218618	-0.097803	-0.320372	0.942229	-0.832652	-0.492220	-0.253791
652	2766366													8.099422	-0.919173	5.313942	0.547052	-0.807743	-0.219741	-0.097678	-0.322305	0.941583	-0.831380	-0.493631	-0.255217
653	2766533													8.226628	-0.855445	5.202617	0.548946	-0.806293	-0.220342	-0.097894	-0.323814	0.941043	-0.830105	-0.495012	-0.256688
654	2766700													8.432870	-0.868962	5.339056	0.551437	-0.804613	-0.220262	-0.098518	-0.324999	0.940569	-0.828379	-0.496965	-0.258486
655	2766866													8.440436	-0.919618	5.452947	0.554907	-0.802326	-0.219889	-0.099210	-0.326254	0.940061	-0.825975	-0.499832	-0.260640
656	2767033													8.014012	-0.994310	5.527878	0.558961	-0.799640	-0.219403	-0.099759	-0.327527	0.939561	-0.823171	-0.503290	-0.262846
657	2767200													7.953877	-0.930337	5.239584	0.562687	-0.797153	-0.218929	-0.100100	-0.328585	0.939155	-0.820587	-0.506535	-0.264686
658	2767366													8.307131	-0.994457	5.238429	0.566872	-0.794310	-0.218466	-0.100345	-0.329793	0.938705	-0.817672	-0.510203	-0.266656
659	2767533													8.256280	-1.010696	5.545449	0.572169	-0.790717	-0.217690	-0.100752	-0.331190	0.938170	-0.813923	-0.514859	-0.269163
660	2767700													7.960850	-1.006867	5.734114	0.577091	-0.787418	-0.216653	-0.101347	-0.332284	0.937718	-0.810367	-0.519191	-0.271561
661	2767866													7.975596	-1.032665	5.703680	0.581656	-0.784488	-0.215069	-0.102011	-0.332657	0.937514	-0.807013	-0.523371	-0.273518
662	2768033													7.883912	-0.991420	5.698131	0.586584	-0.781258	-0.213437	-0.102555	-0.333070	0.937308	-0.803369	-0.527921	-0.275495
663	2768200													7.864871	-0.946917	5.617913	0.591337	-0.778148	-0.211677	-0.103250	-0.333384	0.937120	-0.799788	-0.532298	-0.277486
664	2768366													8.035050	-0.949471	5.641757	0.596245	-0.774926	-0.209717	-0.104027	-0.333607	0.936955	-0.796034	-0.536839	-0.279525
665	2768533													7.902749	-0.988671	5.918756	0.601653	-0.771349	-0.207447	-0.104820	-0.333711	0.936830	-0.791850	-0.541902	-0.281631
666	2768700													7.691708	-1.019679	6.052953	0.606900	-0.767871	-0.205051	-0.105685	-0.333677	0.936745	-0.787720	-0.546840	-0.283660
667	2768866													7.593382	-1.047428	6.062388	0.611898	-0.764586	-0.202455	-0.106619	-0.333369	0.936749	-0.783717	-0.551609	-0.285507
668	2769033													7.550721	-1.024249	6.049382	0.616553	-0.761444	-0.200164	-0.107375	-0.333184	0.936728	-0.779957	-0.556050	-0.287186
669	2769200													7.597158	-1.051642	6.049129	0.621015	-0.758300	-0.198297	-0.107999	-0.333367	0.936591	-0.776322	-0.560221	-0.288922
670	2769366													7.640776	-1.049848	6.143562	0.625680	-0.754903	-0.196585	-0.108476	-0.333755	0.936398	-0.772501	-0.564560	-0.290713
671	2769533													7.561691	-1.072965	6.229528	0.630488	-0.751404	-0.194619	-0.109043	-0.333991	0.936248	-0.768501	-0.569071	-0.292513
672	2769700													7.483325	-1.112269	6.342222	0.635226	-0.747888	-0.192746	-0.109516	-0.334269	0.936093	-0.764522	-0.573522	-0.294242
673	2769866													7.375778	-1.127403	6.364170	0.640036	-0.744294	-0.190735	-0.110043	-0.334479	0.935957	-0.760424	-0.578057	-0.295983
674	2770033													7.272517	-1.090551	6.406218	0.644612	-0.740950	-0.188329	-0.110852	-0.334323	0.935917	-0.756430	-0.582427	-0.297644
675	2770200													7.301878	-1.099100	6.322836	0.648866	-0.737880	-0.185759	-0.111838	-0.333964	0.935928	-0.752639	-0.586517	-0.299221
676	2770366													7.408853	-1.107566	6.357439	0.653361	-0.734526	-0.183275	-0.112587	-0.333677	0.935940	-0.748628	-0.590873	-0.300710
677	2770533													7.365264	-1.128796	6.472856	0.658173	-0.730889	-0.180581	-0.113298	-0.333283	0.935995	-0.744292	-0.595587	-0.302166
678	2770700													7.252163	-1.189157	6.648072	0.663205	-0.726974	-0.177955	-0.113839	-0.332985	0.936035	-0.739730	-0.600525	-0.303595
679	2770866													7.168767	-1.157212	6.665450	0.668150	-0.723070	-0.175343	-0.114376	-0.332686	0.936076	-0.735183	-0.605384	-0.304986
680	2771033													7.192308	-1.139900	6.659599	0.673297	-0.718993	-0.172394	-0.115074	-0.332224	0.936154	-0.730362	-0.610472	-0.306423
681	2771200													7.298581	-1.142349	6.606260	0.678961	-0.714450	-0.169036	-0.115914	-0.331668	0.936248	-0.724966	-0.616082	-0.308004
682	2771366													7.300149	-1.143228	6.648898	0.685450	-0.709085	-0.165399	-0.116746	-0.331251	0.936292	-0.718700	-0.622471	-0.309838
683	2771533													7.030823	-1.119027	6.735039	0.692197	-0.703428	-0.161408	-0.117624	-0.330613	0.936408	-0.712059	-0.629193	-0.311589
684	2771700													6.852438	-1.151744	6.861908	0.698565	-0.698054	-0.157250	-0.118482	-0.329571	0.936667	-0.705669	-0.635692	-0.312934
685	2771866													6.902150	-1.163794	6.799758	0.704546	-0.692932	-0.153171	-0.119237	-0.328356	0.936998	-0.699570	-0.641894	-0.313965
686	2772033													6.957271	-1.093472	6.765653	0.710190	-0.687964	-0.149456	-0.119974	-0.327455	0.937219	-0.693712	-0.647672	-0.315093
687	2772200													6.871861	-1.126089	6.774960	0.715932	-0.682776	-0.145805	-0.120812	-0.326842	0.937325	-0.687638	-0.653446	-0.316484
688	2772366													6.829349	-1.166743	6.799808	0.721655	-0.677465	-0.142322	-0.121727	-0.326574	0.937300	-0.681467	-0.659083	-0.318139
689	2772533													6.499210	-1.218026	7.062684	0.727433	-0.671958	-0.138974	-0.122568	-0.326520	0.937210	-0.675143	-0.664724	-0.319882
690	2772700													6.325059	-1.243295	7.214597	0.732453	-0.667066	-0.136146	-0.123328	-0.326667	0.937059	-0.669554	-0.669560	-0.321536
691	2772866													6.321529	-1.227535	7.323605	0.736822	-0.662727	-0.133737	-0.123930	-0.326854	0.936914	-0.664631	-0.673765	-0.322965
692	2773033													6.298958	-1.183598	7.347978	0.740373	-0.659128	-0.131904	-0.124357	-0.327147	0.936755	-0.660593	-0.677145	-0.324178
693	2773200													6.239956	-1.228224	7.392265	0.743290	-0.656142	-0.130376	-0.124726	-0.327399	0.936618	-0.657239	-0.679917	-0.325190
694	2773366													6.122072	-1.221714	7.471510	0.745433	-0.653931	-0.129245	-0.125014	-0.327602	0.936509	-0.654753	-0.681947	-0.325955
695	2773533													6.170244	-1.231074	7.487435	0.746829	-0.652461	-0.128608	-0.125125	-0.327802	0.936424	-0.653138	-0.683257	-0.326451
696	2773700													6.145000	-1.252851	7.484514	0.747756	-0.651462	-0.128290	-0.125066	-0.327950	0.936380	-0.652089	-0.684139	-0.326702
697	2773866													6.173279	-1.243071	7.454020	0.748223	-0.650923	-0.128301	-0.124902	-0.328130	0.936339	-0.651584	-0.684565	-0.326816
698	2774033													6.218266	-1.219893	7.426961	0.748379	-0.650702	-0.128514	-0.124680	-0.328316	0.936303	-0.651447	-0.684687	-0.326835
699	2774200													6.313578	-1.230836	7.430906	0.748627	-0.650367	-0.128768	-0.124370	-0.328535	0.936267	-0.651222	-0.684900	-0.326837
700	2774366													6.215719	-1.232168	7.480020	0.748666	-0.650255	-0.129106	-0.124044	-0.328707	0.936250	-0.651239	-0.684924	-0.326752
701	2774533													6.379244	-1.213724	7.300159	0.748663	-0.650186	-0.129467	-0.123694	-0.328856	0.936244	-0.651309	-0.684917	-0.326627
702	2774700													6.247776	-1.285962	7.423272	0.749119	-0.649567	-0.129934	-0.123121	-0.329256	0.936179	-0.650893	-0.685312	-0.326628
703	2774867													6.295065	-1.192199	7.384284	0.749020	-0.649544	-0.130615	-0.122587	-0.329604	0.936127	-0.651107	-0.685166	-0.326506
704	2775033													6.334962	-1.223920	7.390296	0.749249	-0.649173	-0.131153	-0.122084	-0.330015	0.936048	-0.650939	-0.685321	-0.326517
705	2775200													6.224922	-1.218647	7.500090	0.749092	-0.649189	-0.131966	-0.121489	-0.330448	0.935973	-0.651231	-0.685097	-0.326405
706	2775367													6.334163	-1.188526	7.425688	0.748447	-0.649677	-0.133217	-0.120703	-0.330959	0.935894	-0.652118	-0.684387	-0.326123
707	2775533													6.339993	-1.170317	7.425895	0.747575	-0.650435	-0.134413	-0.120012	-0.331331	0.935851	-0.653245	-0.683487	-0.325755
708	2775700													6.333557	-1.160214	7.359727	0.746465	-0.651454	-0.135635	-0.119425	-0.331680	0.935802	-0.654620	-0.682346	-0.325388
709	2775867													6.355635	-1.138310	7.311510	0.745130	-0.652738	-0.136803	-0.118984	-0.331945	0.935765	-0.656220	-0.680989	-0.325007
710	2776033													6.440926	-1.119306	7.254146	0.743678	-0.654093	-0.138223	-0.118427	-0.332375	0.935683	-0.657965	-0.679477	-0.324643
711	2776200													6.366197	-1.161655	7.303639	0.742078	-0.655627	-0.139549	-0.117990	-0.332694	0.935624	-0.659848	-0.677841	-0.324242
712	2776367													6.396388	-1.142255	7.307981	0.740186	-0.657452	-0.141003	-0.117586	-0.333031	0.935555	-0.662041	-0.675905	-0.323812
713	2776533													6.438415	-1.127406	7.233126	0.737925	-0.659675	-0.142467	-0.117310	-0.333263	0.935507	-0.664609	-0.673621	-0.323310
714	2776700													6.459473	-1.142313	7.235710	0.735370	-0.662119	-0.144321	-0.116806	-0.333625	0.935441	-0.667523	-0.671038	-0.322678
715	2776867													6.547892	-1.121281	7.073130	0.732401	-0.664996	-0.146179	-0.116366	-0.333789	0.935438	-0.670855	-0.668106	-0.321850
716	2777033													6.458924	-1.137031	7.285896	0.729196	-0.668048	-0.148277	-0.115836	-0.334057	0.935408	-0.674430	-0.664920	-0.320977
717	2777200													6.543764	-1.147235	7.185317	0.725360	-0.671726	-0.150457	-0.115462	-0.334197	0.935404	-0.678617	-0.661133	-0.319972
718	2777367													6.516201	-1.146642	7.135524	0.721323	-0.675598	-0.152515	-0.115185	-0.334158	0.935452	-0.682953	-0.657196	-0.318855
719	2777533													6.680023	-1.133069	7.052686	0.716731	-0.679943	-0.154837	-0.114815	-0.334067	0.935530	-0.687833	-0.652746	-0.317504
720	2777700													6.673124	-1.120433	7.044535	0.712059	-0.684300	-0.157180	-0.114369	-0.333919	0.935638	-0.692743	-0.648252	-0.316033
721	2777867													6.741650	-1.120667	7.032775	0.707036	-0.688917	-0.159666	-0.113865	-0.333735	0.935765	-0.697951	-0.643439	-0.314406
722	2778033													6.831067	-1.112809	6.913657	0.701724	-0.693776	-0.162043	-0.113414	-0.333324	0.935966	-0.703363	-0.638412	-0.312586
723	2778200													6.807456	-1.110680	6.921362	0.696259	-0.698696	-0.164462	-0.112921	-0.332889	0.936181	-0.708853	-0.633253	-0.310674
724	2778367													6.794819	-1.076348	6.890767	0.690290	-0.704034	-0.166844	-0.112466	-0.332200	0.936480	-0.714739	-0.627678	-0.308494
725	2778533													6.897289	-1.045376	6.803828	0.683907	-0.709694	-0.169131	-0.112086	-0.331280	0.936851	-0.720908	-0.621761	-0.306112
726	2778700													7.058810	-1.113878	6.600723	0.677455	-0.715347	-0.171272	-0.111738	-0.330224	0.937266	-0.727028	-0.615817	-0.303643
727	2778867													7.267136	-0.954853	6.537618	0.671200	-0.720651	-0.173648	-0.111082	-0.329392	0.937636	-0.732907	-0.610052	-0.301139
728	2779033													7.284735	-1.053022	6.621737	0.665154	-0.725784	-0.175520	-0.110700	-0.328308	0.938061	-0.738455	-0.604525	-0.298720
729	2779200													7.201343	-1.090616	6.675436	0.658871	-0.731000	-0.177562	-0.110185	-0.327274	0.938483	-0.744142	-0.598775	-0.296176
730	2779367													7.241601	-1.101837	6.573804	0.652577	-0.736154	-0.179502	-0.109668	-0.326163	0.938930	-0.749744	-0.593039	-0.293579
731	2779533													7.359276	-1.048520	6.401323	0.646469	-0.741131	-0.181116	-0.109289	-0.324902	0.939412	-0.755072	-0.587507	-0.291036
732	2779700													7.461286	-1.030376	6.167608	0.640572	-0.745969	-0.182199	-0.109118	-0.323288	0.939988	-0.760105	-0.582249	-0.288488
733	2779867													7.496636	-1.016710	6.234011	0.634952	-0.750512	-0.183214	-0.108873	-0.321717	0.940556	-0.764842	-0.577260	-0.285985
734	2780033													7.450851	-1.044601	6.187491	0.629159	-0.755163	-0.184086	-0.108669	-0.319967	0.941176	-0.769643	-0.572145	-0.283374
735	2780200													7.599701	-1.077645	6.061716	0.623321	-0.759764	-0.185014	-0.108433	-0.318295	0.941770	-0.774412	-0.566963	-0.280783
736	2780367													7.696924	-1.104802	6.039303	0.617764	-0.764037	-0.186051	-0.108068	-0.316839	0.942303	-0.778902	-0.562015	-0.278300
737	2780533													7.769542	-1.100435	6.035208	0.611945	-0.768440	-0.187146	-0.107682	-0.315371	0.942839	-0.783536	-0.556813	-0.275737
738	2780700													7.829475	-1.067630	5.944050	0.606372	-0.772568	-0.188286	-0.107269	-0.314092	0.943313	-0.787913	-0.551801	-0.273329
739	2780867													7.850426	-1.093266	5.869224	0.600907	-0.776413	-0.189980	-0.106638	-0.313424	0.943607	-0.792173	-0.546761	-0.271134
740	2781033													7.829668	-1.050218	5.925215	0.595373	-0.780159	-0.192048	-0.105892	-0.313139	0.943785	-0.796440	-0.541568	-0.269047
741	2781200													7.793710	-1.082666	5.873570	0.590012	-0.783739	-0.194009	-0.105077	-0.312783	0.943995	-0.800528	-0.536582	-0.266898
742	2781367													7.748936	-1.058850	5.797193	0.584514	-0.787253	-0.196407	-0.104017	-0.312772	0.944116	-0.804689	-0.531419	-0.264707
743	2781533													7.886057	-0.990112	5.761465	0.578759	-0.790911	-0.198741	-0.103083	-0.312702	0.944241	-0.808957	-0.526001	-0.262508
744	2781700													7.962543	-0.937086	5.628934	0.573259	-0.794466	-0.200491	-0.102370	-0.312215	0.944480	-0.812954	-0.520908	-0.260310
745	2781867													7.932302	-0.974671	5.664888	0.567752	-0.797987	-0.202173	-0.101589	-0.311636	0.944755	-0.816907	-0.515848	-0.257999
746	2782033													8.061438	-0.981056	5.541487	0.562351	-0.801238	-0.204397	-0.100540	-0.311604	0.944878	-0.820764	-0.510803	-0.255787
747	2782200													8.099936	-0.996107	5.436073	0.557309	-0.804216	-0.206504	-0.099502	-0.311604	0.944988	-0.824322	-0.506103	-0.253681
748	2782367													8.111304	-0.939996	5.298566	0.552530	-0.806967	-0.208602	-0.098501	-0.311740	0.945048	-0.827652	-0.501620	-0.251732
749	2782533													8.231465	-0.929906	5.256342	0.547732	-0.809599	-0.211043	-0.097395	-0.312231	0.945001	-0.830966	-0.497052	-0.249870
750	2782700													8.268691	-0.940170	5.349454	0.543640	-0.811892	-0.212808	-0.096507	-0.312334	0.945058	-0.833752	-0.493234	-0.248150
751	2782867													8.270766	-0.889067	5.348032	0.539751	-0.814014	-0.214594	-0.095440	-0.312443	0.945130	-0.836397	-0.489654	-0.246331
752	2783033													8.354370	-0.919176	5.302885	0.535803	-0.816162	-0.216321	-0.094529	-0.312573	0.945179	-0.839035	-0.485981	-0.244628
753	2783200													8.320433	-0.923726	5.262926	0.532469	-0.817857	-0.218144	-0.093683	-0.313075	0.945097	-0.841250	-0.482798	-0.243322
754	2783367													8.151956	-0.912667	5.173794	0.529004	-0.819669	-0.219767	-0.092966	-0.313387	0.945064	-0.843511	-0.479512	-0.241985
755	2783533													8.286219	-0.893088	5.083109	0.525415	-0.821498	-0.221542	-0.092198	-0.313815	0.944997	-0.845836	-0.476090	-0.240624
756	2783700													8.411613	-0.881746	5.163731	0.522382	-0.823001	-0.223129	-0.091525	-0.314275	0.944910	-0.847786	-0.473182	-0.239497
757	2783867													8.337618	-0.874052	5.154425	0.519405	-0.824639	-0.224028	-0.091131	-0.314125	0.944998	-0.849655	-0.470421	-0.238309
758	2784033													8.321498	-0.874834	4.965118	0.515872	-0.826485	-0.225384	-0.090587	-0.314248	0.945009	-0.851863	-0.467087	-0.236980
759	2784200													8.508647	-0.897111	4.821710	0.512832	-0.828083	-0.226457	-0.090158	-0.314276	0.945041	-0.853742	-0.464230	-0.235829
760	2784367													8.597960	-0.910425	4.935659	0.510864	-0.829014	-0.227494	-0.089688	-0.314586	0.944982	-0.854970	-0.462354	-0.235064
761	2784533													8.357749	-0.855541	5.197570	0.508748	-0.830018	-0.228575	-0.089255	-0.314922	0.944911	-0.856276	-0.460320	-0.234299
762	2784700													8.388347	-0.843036	4.905933	0.505514	-0.831753	-0.229441	-0.088933	-0.314732	0.945005	-0.858223	-0.457308	-0.233072
763	2784867													8.611567	-0.843952	4.714212	0.503396	-0.832735	-0.230531	-0.088304	-0.314986	0.944980	-0.859532	-0.455342	-0.232096
764	2785033													8.581805	-0.876519	4.989148	0.502366	-0.833076	-0.231543	-0.087786	-0.315544	0.944841	-0.860187	-0.454330	-0.231651
765	2785200													8.415915	-0.883795	4.973809	0.500777	-0.833916	-0.231962	-0.087606	-0.315440	0.944893	-0.861131	-0.452860	-0.231021
766	2785367													8.368960	-0.823395	4.891070	0.498852	-0.834743	-0.233134	-0.087064	-0.315899	0.944790	-0.862303	-0.451013	-0.230263
767	2785533													8.569239	-0.780738	4.840422	0.496844	-0.835682	-0.234055	-0.086667	-0.316129	0.944749	-0.863502	-0.449108	-0.229492
768	2785700													8.582372	-0.836464	4.950932	0.496100	-0.835827	-0.235112	-0.086150	-0.316832	0.944561	-0.863981	-0.448342	-0.229187
769	2785867													8.390570	-0.823101	5.025445	0.494778	-0.836557	-0.235302	-0.086013	-0.316580	0.944658	-0.864752	-0.447157	-0.228591
770	2786033													8.492026	-0.810134	4.802272	0.493119	-0.837415	-0.235733	-0.085670	-0.316395	0.944751	-0.865734	-0.445679	-0.227762
771	2786200													8.579163	-0.817806	4.838376	0.492085	-0.837853	-0.236338	-0.085312	-0.316588	0.944719	-0.866357	-0.444719	-0.227267
772	2786367													8.513642	-0.817122	4.887093	0.491529	-0.838086	-0.236666	-0.085069	-0.316669	0.944714	-0.866696	-0.444222	-0.226947
773	2786533													8.305207	-0.806213	5.055864	0.490461	-0.838700	-0.236707	-0.084824	-0.316275	0.944868	-0.867325	-0.443342	-0.226262
774	2786700													8.446709	-0.790969	4.722538	0.488491	-0.839935	-0.236400	-0.084699	-0.315288	0.945209	-0.868448	-0.441703	-0.225157
775	2786867													8.720732	-0.816292	4.595404	0.487546	-0.840515	-0.236291	-0.084477	-0.314778	0.945399	-0.869001	-0.440964	-0.224473
776	2787033													8.726586	-0.855364	4.716549	0.487643	-0.840487	-0.236191	-0.084350	-0.314630	0.945459	-0.868958	-0.441124	-0.224322
777	2787200													8.523471	-0.847516	4.875759	0.487648	-0.840455	-0.236292	-0.084185	-0.314661	0.945463	-0.868972	-0.441161	-0.224198
778	2787367													8.386530	-0.804823	4.921433	0.486739	-0.840848	-0.236769	-0.083934	-0.314807	0.945437	-0.869506	-0.440309	-0.223804
779	2787533													8.500589	-0.783250	4.757960	0.485212	-0.841561	-0.237369	-0.083680	-0.314911	0.945425	-0.870383	-0.438868	-0.223221
780	2787700													8.717059	-0.801867	4.612502	0.484556	-0.841852	-0.237679	-0.083473	-0.314966	0.945425	-0.870768	-0.438272	-0.222891
781	2787867													8.647981	-0.778412	4.757522	0.484615	-0.841834	-0.237621	-0.083412	-0.314888	0.945457	-0.870742	-0.438362	-0.222819
782	2788033													8.543601	-0.795462	4.743938	0.484310	-0.842022	-0.237576	-0.083438	-0.314763	0.945496	-0.870909	-0.438090	-0.222699
783	2788200													8.538770	-0.792914	4.737418	0.483821	-0.842250	-0.237765	-0.083383	-0.314807	0.945486	-0.871185	-0.437621	-0.222539
784	2788367													8.564664	-0.787510	4.699518	0.483372	-0.842557	-0.237592	-0.083416	-0.314500	0.945585	-0.871432	-0.437250	-0.222303
785	2788533													8.673893	-0.774975	4.651474	0.483280	-0.842713	-0.237223	-0.083435	-0.314070	0.945727	-0.871481	-0.437258	-0.222096
786	2788700													8.693296	-0.797063	4.655564	0.483684	-0.842534	-0.237036	-0.083408	-0.313961	0.945765	-0.871259	-0.437681	-0.222132
787	2788867													8.596140	-0.811983	4.692536	0.484182	-0.842200	-0.237208	-0.083358	-0.314272	0.945666	-0.870988	-0.438101	-0.222369
788	2789033													8.518989	-0.784136	4.739165	0.484182	-0.842045	-0.237755	-0.083327	-0.314871	0.945470	-0.870990	-0.437968	-0.222620
789	2789200													8.491997	-0.827816	4.768212	0.483857	-0.842154	-0.238034	-0.083382	-0.315118	0.945382	-0.871166	-0.437582	-0.222692
790	2789367													8.554167	-0.809076	4.758520	0.483557	-0.842257	-0.238275	-0.083266	-0.315245	0.945350	-0.871343	-0.437291	-0.222570
791	2789533													8.694878	-0.768122	4.759389	0.483369	-0.842356	-0.238308	-0.083255	-0.315222	0.945359	-0.871449	-0.437117	-0.222499
792	2789700													8.676295	-0.840300	4.767199	0.483659	-0.842170	-0.238379	-0.083327	-0.315421	0.945286	-0.871281	-0.437332	-0.222732
793	2789867													8.451774	-0.820053	4.788385	0.483895	-0.841937	-0.238719	-0.083336	-0.315876	0.945134	-0.871149	-0.437452	-0.223015
794	2790033													8.412040	-0.814466	4.778279	0.483688	-0.842005	-0.238899	-0.083460	-0.316080	0.945054	-0.871252	-0.437173	-0.223158
795	2790200													8.518529	-0.793987	4.727634	0.483465	-0.842136	-0.238891	-0.083591	-0.316072	0.945045	-0.871364	-0.436927	-0.223204
796	2790367													8.657863	-0.797215	4.699194	0.483596	-0.842119	-0.238684	-0.083760	-0.315962	0.945067	-0.871275	-0.437038	-0.223334
797	2790533													8.659954	-0.834403	4.782414	0.484149	-0.841902	-0.238331	-0.083979	-0.315835	0.945090	-0.870946	-0.437549	-0.223613
798	2790700													8.510799	-0.854305	4.854044	0.484848	-0.841632	-0.237860	-0.084252	-0.315646	0.945129	-0.870531	-0.438204	-0.223949
799	2790867													8.415709	-0.827342	4.805956	0.484975	-0.841644	-0.237561	-0.084529	-0.315486	0.945158	-0.870433	-0.438298	-0.224146
800	2791033													8.566386	-0.823145	4.686546	0.485159	-0.841618	-0.237277	-0.084818	-0.315366	0.945172	-0.870302	-0.438434	-0.224386
801	2791200													8.659509	-0.828892	4.719270	0.485962	-0.841260	-0.236902	-0.085074	-0.315307	0.945169	-0.869829	-0.439162	-0.224797
802	2791367													8.606509	-0.828269	4.802423	0.487012	-0.840835	-0.236252	-0.085344	-0.315018	0.945241	-0.869215	-0.440181	-0.225178
803	2791534													8.510089	-0.820545	4.875336	0.487967	-0.840467	-0.235592	-0.085610	-0.314690	0.945326	-0.868653	-0.441119	-0.225511
804	2791700													8.433805	-0.820423	4.808849	0.488412	-0.840465	-0.234675	-0.086063	-0.314018	0.945508	-0.868358	-0.441601	-0.225704
805	2791867													8.494081	-0.851049	4.678967	0.488731	-0.840452	-0.234057	-0.086332	-0.313553	0.945638	-0.868152	-0.441956	-0.225801
806	2792034													8.578332	-0.792002	4.732398	0.489087	-0.840361	-0.233642	-0.086480	-0.313265	0.945720	-0.867938	-0.442334	-0.225888
807	2792200													8.722416	-0.815057	4.700282	0.489765	-0.839996	-0.233531	-0.086535	-0.313368	0.945681	-0.867549	-0.442953	-0.226166
808	2792367													8.612418	-0.862531	4.780612	0.490898	-0.839411	-0.233256	-0.086652	-0.313451	0.945643	-0.866897	-0.444002	-0.226609
809	2792534													8.511397	-0.839281	4.819065	0.491900	-0.838922	-0.232904	-0.086907	-0.313480	0.945609	-0.866303	-0.444904	-0.227110
810	2792700													8.525588	-0.859930	4.842479	0.492971	-0.838414	-0.232468	-0.087201	-0.313457	0.945590	-0.865665	-0.445877	-0.227636
811	2792867													8.499642	-0.848530	4.831344	0.494253	-0.837784	-0.232018	-0.087387	-0.313427	0.945583	-0.864914	-0.447082	-0.228124
812	2793034													8.498990	-0.851408	4.836434	0.495589	-0.837146	-0.231467	-0.087575	-0.313300	0.945608	-0.864131	-0.448362	-0.228581
813	2793200													8.540596	-0.851967	4.849034	0.497088	-0.836435	-0.230824	-0.087767	-0.313122	0.945649	-0.863250	-0.449812	-0.229060
814	2793367													8.536770	-0.871835	4.891853	0.498964	-0.835538	-0.230025	-0.088010	-0.312909	0.945697	-0.862142	-0.451624	-0.229666
815	2793534													8.501630	-0.872361	4.934536	0.501116	-0.834526	-0.229017	-0.088310	-0.312576	0.945779	-0.860862	-0.453721	-0.230334
816	2793700													8.466034	-0.868921	5.003633	0.503468	-0.833426	-0.227860	-0.088736	-0.312205	0.945861	-0.859445	-0.455992	-0.231141
817	2793867													8.409971	-0.858204	5.074426	0.505969	-0.832245	-0.226637	-0.089261	-0.311861	0.945926	-0.857921	-0.458379	-0.232079
818	2794034													8.239223	-0.883638	5.197540	0.507833	-0.830997	-0.227045	-0.089428	-0.312990	0.945537	-0.856801	-0.459871	-0.233261
819	2794200													8.175030	-0.908864	5.195510	0.508303	-0.830193	-0.228929	-0.089435	-0.315284	0.944774	-0.856522	-0.459757	-0.234508
820	2794367													8.393716	-0.928171	5.037938	0.508074	-0.829901	-0.230490	-0.089766	-0.317167	0.944112	-0.856623	-0.458989	-0.235641
821	2794534													8.630684	-0.921850	4.967485	0.508994	-0.829442	-0.230113	-0.090488	-0.317413	0.943960	-0.856001	-0.459647	-0.236616
822	2794700													8.548597	-0.873717	5.072348	0.511171	-0.828809	-0.227551	-0.091695	-0.315832	0.944374	-0.854574	-0.461871	-0.237442
823	2794867													8.173752	-0.862309	5.314892	0.512923	-0.828690	-0.224015	-0.093177	-0.313161	0.945118	-0.853363	-0.463900	-0.237843
824	2795034													8.057131	-0.885995	5.081212	0.512789	-0.829272	-0.222160	-0.094218	-0.311568	0.945541	-0.853329	-0.463932	-0.237901
825	2795200													8.460417	-0.901811	4.630386	0.512750	-0.829410	-0.221734	-0.094998	-0.311495	0.945487	-0.853266	-0.463734	-0.238511
826	2795367													8.836565	-0.950170	4.560438	0.514878	-0.828290	-0.220988	-0.095886	-0.311809	0.945294	-0.851884	-0.465522	-0.239965
827	2795534													8.638535	-0.991618	4.960673	0.518932	-0.826133	-0.219577	-0.096632	-0.311918	0.945182	-0.849336	-0.469267	-0.241695
828	2795700													8.277333	-0.882599	5.217429	0.522229	-0.824559	-0.217669	-0.097444	-0.311262	0.945315	-0.847220	-0.472460	-0.242898
829	2795867													8.304728	-0.874541	5.144500	0.524750	-0.823456	-0.215772	-0.098320	-0.310408	0.945505	-0.845560	-0.474939	-0.243848
830	2796034													8.322887	-0.933012	5.143517	0.527902	-0.821891	-0.214044	-0.099010	-0.309859	0.945613	-0.843515	-0.477998	-0.244951
831	2796200													8.281998	-0.983029	5.223163	0.531318	-0.820077	-0.212543	-0.099581	-0.309602	0.945637	-0.841299	-0.481269	-0.246161
832	2796367													8.226846	-0.981412	5.232541	0.534561	-0.818316	-0.211196	-0.100045	-0.309413	0.945650	-0.839187	-0.484379	-0.247269
833	2796534													8.186669	-0.945909	5.252808	0.537690	-0.816541	-0.210120	-0.100398	-0.309443	0.945603	-0.837144	-0.487345	-0.248363
834	2796700													8.181273	-0.961405	5.309178	0.540797	-0.814783	-0.208965	-0.100818	-0.309422	0.945565	-0.835089	-0.490292	-0.249479
835	2796867													8.214131	-0.988323	5.385286	0.544128	-0.812898	-0.207658	-0.101270	-0.309331	0.945547	-0.832868	-0.493469	-0.250638
836	2797034													8.153465	-1.029211	5.477052	0.547768	-0.810854	-0.206074	-0.101806	-0.309086	0.945569	-0.830413	-0.496973	-0.251857
837	2797200													8.093620	-1.048203	5.545665	0.551718	-0.808594	-0.204407	-0.102309	-0.308847	0.945593	-0.827732	-0.500788	-0.253123
838	2797367													8.098820	-1.039535	5.549841	0.555885	-0.806152	-0.202756	-0.102780	-0.308699	0.945590	-0.824881	-0.504800	-0.254458
839	2797534													8.125310	-0.985788	5.330012	0.560628	-0.803318	-0.200938	-0.103327	-0.308627	0.945554	-0.821596	-0.509342	-0.256029
840	2797700													8.194089	-0.948592	5.159942	0.566057	-0.800025	-0.198847	-0.104102	-0.308652	0.945461	-0.817767	-0.514484	-0.257999
841	2797867													8.311150	-0.921978	5.223336	0.572125	-0.796273	-0.196526	-0.105116	-0.308831	0.945290	-0.813403	-0.520166	-0.260391
842	2798034													8.323792	-0.997899	5.549628	0.579203	-0.791758	-0.194017	-0.106255	-0.309301	0.945009	-0.808229	-0.526737	-0.263276
843	2798200													7.835282	-1.044721	5.912979	0.586964	-0.786723	-0.191153	-0.107414	-0.309690	0.944751	-0.802456	-0.534003	-0.266282
844	2798367													7.698908	-1.033390	5.682745	0.594113	-0.782044	-0.188249	-0.108448	-0.309768	0.944607	-0.797038	-0.540788	-0.268848
845	2798534													8.073498	-1.057817	5.332882	0.602309	-0.776523	-0.185029	-0.109321	-0.309844	0.944482	-0.790742	-0.548642	-0.271512
846	2798700													8.195429	-1.080896	5.539614	0.611536	-0.770016	-0.181932	-0.110033	-0.310471	0.944193	-0.783528	-0.557390	-0.274591
847	2798867													7.939741	-1.090515	6.007203	0.620524	-0.763506	-0.178909	-0.110920	-0.311307	0.943814	-0.776304	-0.565814	-0.277862
848	2799034													7.422553	-1.081699	6.283112	0.628637	-0.757545	-0.175903	-0.111863	-0.311911	0.943503	-0.769612	-0.573444	-0.280820
849	2799200													7.255642	-1.108365	6.407502	0.635719	-0.752211	-0.173319	-0.112474	-0.312397	0.943270	-0.763682	-0.580161	-0.283201
850	2799367													7.254412	-1.114691	6.441505	0.641876	-0.747492	-0.171029	-0.112823	-0.312674	0.943136	-0.758463	-0.586080	-0.285032
851	2799534													7.374688	-1.079094	6.447399	0.647198	-0.743394	-0.168820	-0.113152	-0.312680	0.943095	-0.753878	-0.591266	-0.286483
852	2799700													7.471223	-1.069545	6.161083	0.651627	-0.739895	-0.167144	-0.113405	-0.312900	0.942992	-0.750014	-0.595524	-0.287802
853	2799867													7.748182	-1.099808	6.107121	0.656497	-0.735933	-0.165574	-0.113560	-0.313418	0.942801	-0.745732	-0.600143	-0.289330
854	2800034													7.618723	-1.099114	6.353999	0.662364	-0.731039	-0.163876	-0.113623	-0.314232	0.942522	-0.740516	-0.605673	-0.291199
