// General information: 
//  MT Manager version: 2022.2.0 
//  XDA version: 2022.2.0 build 7381 rev 124627 built on 2023-07-19
// Device information: 
//  DeviceId: 00B4D200
//  ProductCode: MTW2-3A7G6
//  Firmware Version: 4.6.0
//  Hardware Version: 2.0.0
// Device settings: 
//  Filter Profile: human(46.1)
//  Option Flags: Orientation Smoother Disabled, Position/Velocity Smoother Disabled, Continuous Zero Rotation Update Disabled, AHS Disabled, ICC Disabled
// Coordinate system: ENU
PacketCounter	SampleTimeFine	Acc_X	Acc_Y	Acc_Z	Quat_q0	Quat_q1	Quat_q2	Quat_q3	Roll	Pitch	Yaw	Mat[1][1]	Mat[2][1]	Mat[3][1]	Mat[1][2]	Mat[2][2]	Mat[3][2]	Mat[1][3]	Mat[2][3]	Mat[3][3]	Latitude	Longitude	Altitude	Vel_E	Vel_N	Vel_U
56665		8.986709	0.983509	-3.230489	-0.338879	-0.715933	0.400350	-0.460782	161.407878	-68.609994	-45.683077	0.254799	-0.260948	0.931119	-0.885547	-0.449762	0.116282	0.388439	-0.854178	-0.345681						
56666		8.947774	1.031616	-3.200541	-0.338851	-0.715933	0.400309	-0.460839	161.411902	-68.614849	-45.679852	0.254759	-0.260877	0.931150	-0.885501	-0.449865	0.116232	0.388569	-0.854146	-0.345614						
56667		8.865186	0.993964	-3.207991	-0.338837	-0.715942	0.400263	-0.460876	161.409434	-68.617656	-45.671233	0.254766	-0.260806	0.931168	-0.885454	-0.449957	0.116232	0.388672	-0.854119	-0.345566						
56668		8.811563	1.025147	-3.168887	-0.338822	-0.715932	0.400245	-0.460918	161.413445	-68.621927	-45.671448	0.254717	-0.260758	0.931195	-0.885434	-0.450007	0.116186	0.388748	-0.854107	-0.345508						
56669		8.831629	0.988773	-3.204420	-0.338781	-0.715937	0.400229	-0.460954	161.423200	-68.623842	-45.675471	0.254677	-0.260753	0.931208	-0.885403	-0.450088	0.116117	0.388847	-0.854066	-0.345499						
56670		8.885384	0.990571	-3.177728	-0.338718	-0.715934	0.400254	-0.460984	161.445513	-68.624811	-45.693858	0.254582	-0.260824	0.931214	-0.885397	-0.450135	0.115978	0.388922	-0.854020	-0.345529						
56671		8.885510	0.989330	-3.177762	-0.338662	-0.715937	0.400277	-0.461000	161.464337	-68.624299	-45.709583	0.254516	-0.260900	0.931210	-0.885392	-0.450173	0.115867	0.388976	-0.853976	-0.345575						
56672		8.934301	1.020952	-3.167680	-0.338567	-0.715950	0.400312	-0.461018	161.495125	-68.622197	-45.734780	0.254425	-0.261036	0.931197	-0.885378	-0.450246	0.115692	0.389068	-0.853896	-0.345669						
56673		8.919788	0.990749	-3.180511	-0.338509	-0.715947	0.400345	-0.461037	161.516882	-68.622264	-45.754151	0.254336	-0.261121	0.931198	-0.885383	-0.450271	0.115560	0.389116	-0.853857	-0.345712						
56674		8.968766	1.011044	-3.191822	-0.338452	-0.715945	0.400384	-0.461048	161.538554	-68.621325	-45.774178	0.254256	-0.261221	0.931192	-0.885391	-0.450285	0.115434	0.389148	-0.853819	-0.345770						
56675		8.968842	1.009999	-3.191938	-0.338411	-0.715949	0.400400	-0.461060	161.552425	-68.620912	-45.785561	0.254208	-0.261276	0.931189	-0.885386	-0.450317	0.115353	0.389191	-0.853785	-0.345805						
56676		8.949584	1.010853	-3.220386	-0.338392	-0.715947	0.400410	-0.461066	161.559455	-68.620956	-45.791780	0.254179	-0.261303	0.931189	-0.885387	-0.450325	0.115310	0.389207	-0.853773	-0.345818						
56677		8.954279	0.991858	-3.182760	-0.338375	-0.715966	0.400409	-0.461051	161.561811	-68.617903	-45.792742	0.254210	-0.261343	0.931170	-0.885375	-0.450350	0.115312	0.389216	-0.853747	-0.345870						
56678		8.958901	0.972975	-3.145306	-0.338346	-0.715985	0.400407	-0.461045	161.567536	-68.615405	-45.795714	0.254224	-0.261386	0.931154	-0.885355	-0.450393	0.115290	0.389250	-0.853712	-0.345920						
56679		8.905304	0.969804	-3.171979	-0.338305	-0.716005	0.400411	-0.461040	161.577382	-68.612502	-45.802276	0.254227	-0.261448	0.931135	-0.885336	-0.450443	0.115245	0.389292	-0.853666	-0.345985						
56680		8.870869	0.965053	-3.170700	-0.338249	-0.716048	0.400443	-0.460986	161.591649	-68.603055	-45.815359	0.254275	-0.261617	0.931075	-0.885329	-0.450467	0.115208	0.389278	-0.853602	-0.346159						
56681		8.889735	0.962921	-3.143771	-0.338145	-0.716115	0.400470	-0.460936	161.616376	-68.591136	-45.833971	0.254325	-0.261838	0.930999	-0.885290	-0.450564	0.115119	0.389333	-0.853483	-0.346392						
56682		8.845321	1.018322	-3.175780	-0.338058	-0.716187	0.400499	-0.460861	161.635413	-68.577066	-45.849140	0.254414	-0.262069	0.930910	-0.885261	-0.450634	0.115076	0.389341	-0.853375	-0.346648						
56683		8.854449	1.054019	-3.225025	-0.337972	-0.716281	0.400549	-0.460737	161.653439	-68.556953	-45.865929	0.254565	-0.262379	0.930781	-0.885242	-0.450672	0.115070	0.389285	-0.853260	-0.346994						
56684		8.892099	1.051179	-3.171074	-0.337899	-0.716384	0.400595	-0.460588	161.665555	-68.534403	-45.878141	0.254764	-0.262696	0.930637	-0.885224	-0.450696	0.115112	0.389195	-0.853149	-0.347366						
56685		8.895894	0.998524	-3.201361	-0.337841	-0.716483	0.400650	-0.460429	161.674809	-68.511601	-45.889915	0.254968	-0.263014	0.930492	-0.885222	-0.450685	0.115172	0.389067	-0.853057	-0.347736						
56686		8.928887	1.003178	-3.206729	-0.337764	-0.716581	0.400704	-0.460286	161.689727	-68.489613	-45.905162	0.255147	-0.263338	0.930351	-0.885210	-0.450703	0.115194	0.388977	-0.852948	-0.348105						
56687		8.947341	0.978753	-3.224502	-0.337674	-0.716673	0.400763	-0.460158	161.709997	-68.469114	-45.924872	0.255287	-0.263665	0.930220	-0.885199	-0.450730	0.115175	0.388910	-0.852832	-0.348462						
56688		9.000070	0.969700	-3.222549	-0.337596	-0.716732	0.400840	-0.460055	161.733447	-68.453046	-45.950148	0.255352	-0.263965	0.930117	-0.885216	-0.450712	0.115114	0.388829	-0.852749	-0.348757						
56689		8.965176	0.964538	-3.222594	-0.337493	-0.716790	0.400884	-0.460003	161.760772	-68.441364	-45.973052	0.255379	-0.264204	0.930042	-0.885195	-0.450782	0.115007	0.388860	-0.852639	-0.348992						
56690		8.959920	0.982047	-3.261925	-0.337397	-0.716826	0.400938	-0.459970	161.790268	-68.432847	-45.999444	0.255353	-0.264421	0.929987	-0.885190	-0.450825	0.114871	0.388887	-0.852548	-0.349182						
56691		8.905801	0.989452	-3.268192	-0.337299	-0.716876	0.400973	-0.459935	161.816263	-68.423434	-46.020436	0.255362	-0.264624	0.929927	-0.885166	-0.450901	0.114760	0.388937	-0.852445	-0.349379						
56692		8.885842	1.012821	-3.254966	-0.337214	-0.716917	0.401001	-0.459908	161.838672	-68.415711	-46.038241	0.255367	-0.264794	0.929877	-0.885143	-0.450970	0.114663	0.388985	-0.852356	-0.349543						
56693		8.865902	1.025142	-3.263263	-0.337145	-0.716978	0.401010	-0.459855	161.851372	-68.404996	-46.046403	0.255450	-0.264955	0.929809	-0.885106	-0.451049	0.114639	0.389015	-0.852264	-0.349734						
56694		8.845872	1.026464	-3.293321	-0.337084	-0.717045	0.401020	-0.459786	161.861149	-68.392747	-46.052665	0.255559	-0.265126	0.929730	-0.885072	-0.451115	0.114641	0.389021	-0.852176	-0.349942						
56695		8.854834	0.966315	-3.263044	-0.337027	-0.717131	0.401025	-0.459691	161.866115	-68.377071	-46.054465	0.255727	-0.265317	0.929629	-0.885031	-0.451184	0.114690	0.389004	-0.852080	-0.350194						
56696		8.898073	1.007022	-3.314101	-0.336982	-0.717211	0.401034	-0.459590	161.869034	-68.361415	-46.055754	0.255897	-0.265506	0.929528	-0.884999	-0.451230	0.114752	0.388964	-0.851997	-0.350441						
56697		8.950816	1.021848	-3.268565	-0.336909	-0.717315	0.401028	-0.459486	161.874960	-68.343452	-46.056134	0.256098	-0.265718	0.929413	-0.884937	-0.451338	0.114806	0.388973	-0.851873	-0.350730						
56698		8.950074	1.010883	-3.292068	-0.336868	-0.717388	0.401014	-0.459415	161.875050	-68.331397	-46.052252	0.256252	-0.265841	0.929335	-0.884889	-0.451417	0.114866	0.388981	-0.851793	-0.350916						
56699		8.983671	1.027239	-3.274113	-0.336843	-0.717448	0.401007	-0.459346	161.872967	-68.320718	-46.048437	0.256390	-0.265949	0.929266	-0.884858	-0.451460	0.114933	0.388960	-0.851737	-0.351077						
56700		9.007740	1.092415	-3.309395	-0.336842	-0.717478	0.401008	-0.459299	161.869100	-68.314545	-46.045253	0.256474	-0.266007	0.929226	-0.884851	-0.451461	0.114988	0.388922	-0.851718	-0.351164						
56701		9.032022	1.049695	-3.286587	-0.336854	-0.717483	0.401010	-0.459281	161.864989	-68.312939	-46.042695	0.256504	-0.266014	0.929216	-0.884856	-0.451441	0.115021	0.388889	-0.851726	-0.351180						
56702		8.929649	1.060126	-3.235969	-0.336910	-0.717455	0.400991	-0.459299	161.850277	-68.318019	-46.031040	0.256501	-0.265902	0.929249	-0.884872	-0.451395	0.115086	0.388857	-0.851785	-0.351073						
56703		8.891092	1.086526	-3.248258	-0.336978	-0.717414	0.400974	-0.459329	161.833988	-68.325399	-46.018818	0.256474	-0.265762	0.929296	-0.884896	-0.451331	0.115148	0.388818	-0.851863	-0.350926						
56704		8.837928	1.095604	-3.251294	-0.337047	-0.717367	0.400978	-0.459348	161.820689	-68.332058	-46.011887	0.256431	-0.265653	0.929339	-0.884941	-0.451231	0.115196	0.388744	-0.851950	-0.350797						
56705		8.808980	1.061432	-3.231868	-0.337106	-0.717326	0.401026	-0.459326	161.814280	-68.333758	-46.015695	0.256395	-0.265650	0.929350	-0.885017	-0.451074	0.115226	0.388596	-0.852034	-0.350758						
56706		8.779788	1.026991	-3.213197	-0.337137	-0.717297	0.401094	-0.459289	161.816618	-68.332337	-46.027811	0.256354	-0.265721	0.929341	-0.885094	-0.450924	0.115219	0.388446	-0.852092	-0.350784						
56707		8.848086	1.024154	-3.239511	-0.337166	-0.717287	0.401174	-0.459214	161.818348	-68.326128	-46.040864	0.256364	-0.265852	0.929301	-0.885177	-0.450757	0.115240	0.388252	-0.852139	-0.350883						
56708		8.882070	1.028306	-3.242345	-0.337167	-0.717274	0.401255	-0.459164	161.828721	-68.321597	-46.059737	0.256327	-0.265989	0.929272	-0.885249	-0.450626	0.115200	0.388112	-0.852165	-0.350974						
56709		8.901351	1.003638	-3.257826	-0.337166	-0.717283	0.401331	-0.459084	161.836295	-68.312983	-46.075644	0.256350	-0.266161	0.929216	-0.885310	-0.450506	0.115197	0.387956	-0.852176	-0.351122						
56710		8.920564	0.990628	-3.251787	-0.337171	-0.717284	0.401389	-0.459028	161.840882	-68.307295	-46.087008	0.256361	-0.266278	0.929180	-0.885361	-0.450406	0.115197	0.387834	-0.852191	-0.351219						
56711		8.959410	0.976181	-3.216899	-0.337175	-0.717287	0.401425	-0.458988	161.843197	-68.303295	-46.093822	0.256375	-0.266355	0.929154	-0.885393	-0.450341	0.115203	0.387751	-0.852202	-0.351285						
56712		8.954538	0.983227	-3.276315	-0.337155	-0.717289	0.401453	-0.458975	161.851863	-68.301022	-46.103519	0.256355	-0.266425	0.929139	-0.885407	-0.450324	0.115162	0.387731	-0.852189	-0.351338						
56713		8.969275	1.000304	-3.285310	-0.337154	-0.717296	0.401431	-0.458984	161.848651	-68.301633	-46.098001	0.256374	-0.266393	0.929143	-0.885387	-0.450360	0.115178	0.387766	-0.852180	-0.351322						
56714		8.950021	1.001784	-3.313120	-0.337150	-0.717295	0.401402	-0.459015	161.847003	-68.304717	-46.092771	0.256364	-0.266334	0.929163	-0.885361	-0.450412	0.115173	0.387832	-0.852171	-0.351271						
56715		8.935606	1.007447	-3.260023	-0.337143	-0.717304	0.401352	-0.459049	161.842243	-68.307603	-46.082153	0.256381	-0.266253	0.929182	-0.885314	-0.450501	0.115187	0.387929	-0.852149	-0.351217						
56716		8.936062	0.995915	-3.280448	-0.337131	-0.717299	0.401291	-0.459119	161.839821	-68.314578	-46.071779	0.256350	-0.266125	0.929227	-0.885258	-0.450615	0.115167	0.388075	-0.852129	-0.351105						
56717		8.892585	1.074738	-3.265935	-0.337112	-0.717310	0.401217	-0.459180	161.835944	-68.319679	-46.058186	0.256356	-0.266004	0.929260	-0.885185	-0.450760	0.115165	0.388239	-0.852090	-0.351018						
56718		8.878407	1.057058	-3.255603	-0.337067	-0.717308	0.401163	-0.459264	161.843509	-68.326729	-46.055209	0.256290	-0.265909	0.929305	-0.885120	-0.450909	0.115083	0.388430	-0.852041	-0.350925						
56719		8.942455	1.083800	-3.296542	-0.337034	-0.717319	0.401096	-0.459329	161.844505	-68.331710	-46.045882	0.256278	-0.265809	0.929337	-0.885047	-0.451060	0.115052	0.388605	-0.851992	-0.350850						
56720		8.962455	1.070509	-3.288417	-0.337012	-0.717317	0.401034	-0.459403	161.844607	-68.338617	-46.037008	0.256241	-0.265689	0.929382	-0.884986	-0.451189	0.115016	0.388768	-0.851961	-0.350744						
56721		8.948367	1.064093	-3.256205	-0.336996	-0.717283	0.401007	-0.459491	161.851424	-68.348627	-46.038374	0.256122	-0.265578	0.929446	-0.884964	-0.451255	0.114924	0.388896	-0.851961	-0.350603						
56722		8.949068	1.085917	-3.211251	-0.336977	-0.717230	0.400990	-0.459603	161.862921	-68.361723	-46.044807	0.255945	-0.265454	0.929530	-0.884955	-0.451307	0.114787	0.389033	-0.851972	-0.350424						
56723		8.915862	1.068549	-3.228562	-0.336933	-0.717178	0.400974	-0.459731	161.881797	-68.375620	-46.056214	0.255735	-0.265342	0.929620	-0.884936	-0.451392	0.114602	0.389214	-0.851962	-0.350248						
56724		8.936402	1.065132	-3.197682	-0.336909	-0.717090	0.400974	-0.459886	161.901855	-68.394589	-46.071635	0.255450	-0.265189	0.929742	-0.884948	-0.451425	0.114384	0.389375	-0.851992	-0.349995						
56725		8.835104	1.038704	-3.210011	-0.336887	-0.717006	0.400976	-0.460030	161.920806	-68.412351	-46.086565	0.255181	-0.265048	0.929856	-0.884961	-0.451450	0.114178	0.389521	-0.852022	-0.349759						
56726		8.816643	1.061126	-3.193042	-0.336871	-0.716918	0.401008	-0.460151	161.941944	-68.428115	-46.107339	0.254908	-0.264956	0.929957	-0.885003	-0.451421	0.113970	0.389605	-0.852066	-0.349558						
56727		8.793059	0.971405	-3.200009	-0.336820	-0.716856	0.401059	-0.460241	161.971930	-68.438218	-46.136094	0.254661	-0.264966	0.930022	-0.885039	-0.451409	0.113736	0.389684	-0.852070	-0.349462						
56728		8.774337	0.959001	-3.249082	-0.336732	-0.716820	0.401097	-0.460328	162.007931	-68.445541	-46.166433	0.254439	-0.265015	0.930069	-0.885043	-0.451465	0.113480	0.389819	-0.852025	-0.349420						
56729		8.789415	0.962231	-3.279694	-0.336605	-0.716825	0.401151	-0.460367	162.051196	-68.444669	-46.202594	0.254281	-0.265186	0.930063	-0.885033	-0.451551	0.113220	0.389946	-0.851926	-0.349519						
56730		8.886988	1.025921	-3.260182	-0.336481	-0.716857	0.401201	-0.460365	162.089268	-68.438424	-46.234199	0.254205	-0.265399	0.930023	-0.885014	-0.451638	0.113019	0.390038	-0.851814	-0.349691						
56731		8.959831	0.991493	-3.271358	-0.336394	-0.716920	0.401211	-0.460320	162.106872	-68.427888	-46.245680	0.254270	-0.265574	0.929956	-0.884970	-0.451737	0.112964	0.390095	-0.851707	-0.349888						
56732		9.037449	0.962132	-3.201055	-0.336337	-0.716946	0.401172	-0.460355	162.115944	-68.428126	-46.245337	0.254269	-0.265569	0.929957	-0.884906	-0.451877	0.112908	0.390241	-0.851634	-0.349902						
56733		9.013614	0.981742	-3.266570	-0.336311	-0.716949	0.401119	-0.460416	162.117343	-68.433425	-46.238415	0.254241	-0.265477	0.929991	-0.884849	-0.451997	0.112873	0.390388	-0.851599	-0.349823						
56734		8.999487	0.963892	-3.255987	-0.336274	-0.716933	0.401056	-0.460522	162.124141	-68.443683	-46.234268	0.254146	-0.265338	0.930057	-0.884784	-0.452147	0.112780	0.390598	-0.851562	-0.349678						
56735		9.053776	0.965781	-3.228003	-0.336230	-0.716923	0.401000	-0.460618	162.132280	-68.452339	-46.231664	0.254060	-0.265225	0.930112	-0.884720	-0.452296	0.112687	0.390799	-0.851518	-0.349560						
56736		9.015550	1.002240	-3.218519	-0.336219	-0.716877	0.400949	-0.460743	162.136950	-68.466872	-46.228495	0.253912	-0.265041	0.930206	-0.884683	-0.452394	0.112587	0.390979	-0.851524	-0.349345						
56737		8.977627	1.027453	-3.229883	-0.336233	-0.716834	0.400862	-0.460876	162.129427	-68.482997	-46.211995	0.253807	-0.264778	0.930309	-0.884626	-0.452514	0.112552	0.391176	-0.851542	-0.349081						
56738		8.910443	1.018325	-3.222456	-0.336253	-0.716757	0.400796	-0.461038	162.127573	-68.503799	-46.203157	0.253614	-0.264495	0.930442	-0.884597	-0.452594	0.112460	0.391367	-0.851587	-0.348756						
56739		8.897047	0.988840	-3.231647	-0.336273	-0.716698	0.400732	-0.461170	162.123328	-68.520811	-46.192645	0.253471	-0.264250	0.930551	-0.884566	-0.452669	0.112401	0.391529	-0.851624	-0.348485						
56740		8.844304	1.019913	-3.190641	-0.336302	-0.716622	0.400700	-0.461295	162.122231	-68.538064	-46.189160	0.253293	-0.264032	0.930661	-0.884569	-0.452682	0.112321	0.391637	-0.851684	-0.348216						
56741		8.835460	0.960284	-3.184137	-0.336318	-0.716563	0.400661	-0.461409	162.122078	-68.553051	-46.185015	0.253144	-0.263838	0.930757	-0.884558	-0.452722	0.112248	0.391759	-0.851723	-0.347984						
56742		8.865628	1.016993	-3.157062	-0.336333	-0.716507	0.400644	-0.461500	162.123662	-68.565414	-46.184977	0.253005	-0.263693	0.930835	-0.884564	-0.452729	0.112176	0.391836	-0.851764	-0.347796						
56743		8.939848	0.971428	-3.185898	-0.336341	-0.716449	0.400624	-0.461601	162.127710	-68.578693	-46.186330	0.252849	-0.263543	0.930920	-0.884565	-0.452749	0.112086	0.391934	-0.851800	-0.347598						
56744		8.940716	0.970388	-3.183779	-0.336327	-0.716401	0.400602	-0.461706	162.136856	-68.591144	-46.190429	0.252691	-0.263415	0.930999	-0.884551	-0.452805	0.111968	0.392067	-0.851810	-0.347424						
56745		8.956465	0.974899	-3.212333	-0.336339	-0.716332	0.400606	-0.461801	162.143688	-68.604362	-46.197229	0.252511	-0.263290	0.931084	-0.884576	-0.452783	0.111861	0.392127	-0.851860	-0.347233						
56746		8.942404	0.979619	-3.157852	-0.336346	-0.716255	0.400603	-0.461918	162.152592	-68.620085	-46.204703	0.252299	-0.263139	0.931184	-0.884596	-0.452777	0.111728	0.392219	-0.851910	-0.347007						
56747		8.958433	0.972464	-3.207580	-0.336356	-0.716183	0.400601	-0.462024	162.160080	-68.634565	-46.211235	0.252107	-0.262998	0.931276	-0.884615	-0.452768	0.111611	0.392298	-0.851959	-0.346797						
56748		8.905722	0.980128	-3.210335	-0.336370	-0.716116	0.400595	-0.462122	162.165211	-68.648114	-46.215576	0.251934	-0.262858	0.931362	-0.884633	-0.452758	0.111513	0.392369	-0.852007	-0.346598						
56749		8.925864	0.977829	-3.179646	-0.336387	-0.716058	0.400593	-0.462201	162.168474	-68.659489	-46.219026	0.251791	-0.262739	0.931434	-0.884653	-0.452737	0.111436	0.392416	-0.852055	-0.346428						
56750		8.921942	1.007439	-3.193936	-0.336421	-0.716009	0.400579	-0.462264	162.163889	-68.669428	-46.215098	0.251697	-0.262605	0.931497	-0.884667	-0.452715	0.111414	0.392445	-0.852107	-0.346265						
56751		8.941996	0.994339	-3.185150	-0.336462	-0.715968	0.400576	-0.462301	162.157316	-68.676559	-46.211390	0.251633	-0.262505	0.931543	-0.884692	-0.452665	0.111419	0.392429	-0.852165	-0.346142						
56752		8.888890	1.003134	-3.188723	-0.336515	-0.715922	0.400579	-0.462332	162.148396	-68.683713	-46.207103	0.251573	-0.262403	0.931588	-0.884729	-0.452588	0.111437	0.392385	-0.852237	-0.346014						
56753		8.913576	0.948588	-3.185665	-0.336550	-0.715894	0.400583	-0.462345	162.142532	-68.687615	-46.204638	0.251540	-0.262346	0.931613	-0.884755	-0.452534	0.111453	0.392347	-0.852284	-0.345942						
56754		8.962901	0.969908	-3.195847	-0.336580	-0.715858	0.400613	-0.462352	162.142017	-68.691062	-46.209568	0.251479	-0.262327	0.931635	-0.884802	-0.452445	0.111439	0.392280	-0.852337	-0.345888						
56755		8.894777	0.961269	-3.191089	-0.336605	-0.715825	0.400648	-0.462356	162.143342	-68.693832	-46.216303	0.251417	-0.262324	0.931652	-0.884850	-0.452357	0.111417	0.392212	-0.852384	-0.345848						
56756		8.929470	0.953668	-3.213791	-0.336642	-0.715780	0.400687	-0.462364	162.143248	-68.697932	-46.223194	0.251339	-0.262306	0.931678	-0.884910	-0.452243	0.111397	0.392125	-0.852450	-0.345784						
56757		8.959041	1.010807	-3.188115	-0.336663	-0.715749	0.400716	-0.462372	162.144656	-68.701016	-46.229039	0.251278	-0.262296	0.931698	-0.884951	-0.452170	0.111373	0.392073	-0.852492	-0.345739						
56758		8.910390	0.989277	-3.176107	-0.336714	-0.715701	0.400748	-0.462381	162.140128	-68.705844	-46.232034	0.251209	-0.262252	0.931728	-0.885012	-0.452049	0.111376	0.391978	-0.852570	-0.345655						
56759		8.822979	0.982758	-3.199870	-0.336795	-0.715673	0.400774	-0.462343	162.122729	-68.706204	-46.224997	0.251238	-0.262217	0.931731	-0.885076	-0.451899	0.111480	0.391816	-0.852660	-0.345616						
56760		8.812883	0.936090	-3.174244	-0.336848	-0.715649	0.400834	-0.462290	162.117004	-68.703681	-46.230518	0.251241	-0.262271	0.931715	-0.885156	-0.451732	0.111527	0.391635	-0.852732	-0.345644						
56761		8.782752	0.925161	-3.113538	-0.336873	-0.715655	0.400912	-0.462195	162.117117	-68.694622	-46.241794	0.251291	-0.262427	0.931657	-0.885231	-0.451572	0.111571	0.391431	-0.852769	-0.345784						
56762		8.811728	0.959830	-3.133293	-0.336875	-0.715687	0.401016	-0.462054	162.123597	-68.678677	-46.260426	0.251385	-0.262696	0.931556	-0.885313	-0.451403	0.111612	0.391187	-0.852776	-0.346044						
56763		8.844880	0.964496	-3.138127	-0.336841	-0.715773	0.401115	-0.461860	162.131976	-68.653668	-46.278099	0.251585	-0.263067	0.931397	-0.885361	-0.451290	0.111686	0.390949	-0.852721	-0.346447						
56764		8.882256	0.939252	-3.127952	-0.336797	-0.715880	0.401233	-0.461623	162.142463	-68.622848	-46.299401	0.251833	-0.263523	0.931201	-0.885416	-0.451160	0.111776	0.390665	-0.852649	-0.346944						
56765		8.929265	0.973209	-3.122448	-0.336749	-0.716022	0.401349	-0.461337	162.148723	-68.585360	-46.316741	0.252174	-0.264040	0.930963	-0.885459	-0.451038	0.111925	0.390347	-0.852554	-0.347536						
56766		8.961607	0.966967	-3.151383	-0.336678	-0.716157	0.401473	-0.461070	162.163538	-68.549237	-46.341033	0.252467	-0.264571	0.930732	-0.885500	-0.450934	0.112015	0.390063	-0.852444	-0.348124						
56767		8.940009	0.981286	-3.164111	-0.336636	-0.716323	0.401588	-0.460744	162.164337	-68.506730	-46.353983	0.252884	-0.265128	0.930461	-0.885539	-0.450806	0.112221	0.389704	-0.852339	-0.348783						
56768		8.986635	1.004483	-3.181337	-0.336580	-0.716490	0.401698	-0.460428	162.168203	-68.464760	-46.368113	0.253289	-0.265683	0.930192	-0.885568	-0.450705	0.112407	0.389377	-0.852219	-0.349439						
56769		8.949988	1.013588	-3.163769	-0.336545	-0.716652	0.401826	-0.460091	162.168734	-68.421603	-46.382765	0.253704	-0.266255	0.929915	-0.885621	-0.450548	0.112618	0.388986	-0.852124	-0.350107						
56770		8.962552	1.009831	-3.221844	-0.336530	-0.716801	0.401941	-0.459768	162.163603	-68.381156	-46.392245	0.254113	-0.266772	0.929655	-0.885675	-0.450382	0.112850	0.388595	-0.852049	-0.350722						
56771		8.994468	1.016314	-3.229646	-0.336523	-0.716953	0.402055	-0.459437	162.155406	-68.340139	-46.399490	0.254538	-0.267286	0.929391	-0.885732	-0.450207	0.113104	0.388187	-0.851981	-0.351339						
56772		8.992387	0.995591	-3.278075	-0.336525	-0.717082	0.402166	-0.459137	162.147699	-68.303613	-46.407156	0.254911	-0.267750	0.929156	-0.885795	-0.450026	0.113333	0.387800	-0.851931	-0.351888						
56773		8.990298	1.020629	-3.239878	-0.336528	-0.717204	0.402275	-0.458849	162.140471	-68.268668	-46.414978	0.255265	-0.268195	0.928930	-0.885857	-0.449848	0.113551	0.387423	-0.851885	-0.352413						
56774		9.003328	1.016735	-3.296323	-0.336543	-0.717293	0.402368	-0.458617	162.132914	-68.241438	-46.421285	0.255540	-0.268543	0.928754	-0.885921	-0.449677	0.113733	0.387097	-0.851866	-0.352818						
56775		9.036124	1.033876	-3.280322	-0.336553	-0.717359	0.402463	-0.458423	162.130179	-68.218912	-46.431507	0.255743	-0.268853	0.928608	-0.885988	-0.449511	0.113862	0.386807	-0.851856	-0.353160						
56776		9.035216	1.023363	-3.304112	-0.336590	-0.717374	0.402549	-0.458298	162.126358	-68.206723	-46.441045	0.255835	-0.269039	0.928529	-0.886072	-0.449324	0.113946	0.386555	-0.851896	-0.353340						
56777		9.019970	1.018350	-3.274665	-0.336617	-0.717394	0.402599	-0.458201	162.120576	-68.196815	-46.444056	0.255931	-0.269168	0.928465	-0.886121	-0.449206	0.114031	0.386378	-0.851917	-0.353482						
56778		8.985566	1.025924	-3.251313	-0.336650	-0.717369	0.402654	-0.458168	162.120481	-68.195788	-46.452672	0.255902	-0.269219	0.928459	-0.886188	-0.449073	0.114037	0.386244	-0.851971	-0.353497						
56779		8.951541	0.998787	-3.291770	-0.336698	-0.717330	0.402700	-0.458153	162.116593	-68.197741	-46.457726	0.255857	-0.269219	0.928471	-0.886257	-0.448934	0.114051	0.386117	-0.852044	-0.353459						
56780		8.932487	1.011699	-3.297483	-0.336752	-0.717269	0.402719	-0.458193	162.111750	-68.206518	-46.458895	0.255753	-0.269121	0.928528	-0.886310	-0.448831	0.114037	0.386062	-0.852130	-0.353314						
56781		8.899014	1.007261	-3.293361	-0.336804	-0.717207	0.402715	-0.458255	162.105131	-68.217539	-46.455599	0.255646	-0.268976	0.928599	-0.886344	-0.448768	0.114023	0.386056	-0.852208	-0.353131						
56782		8.870322	0.995707	-3.229965	-0.336880	-0.717141	0.402726	-0.458292	162.093315	-68.227104	-46.451165	0.255560	-0.268844	0.928661	-0.886402	-0.448647	0.114049	0.385980	-0.852314	-0.352960						
56783		8.812628	1.011873	-3.291764	-0.336934	-0.717090	0.402696	-0.458359	162.081553	-68.238249	-46.440364	0.255486	-0.268665	0.928734	-0.886412	-0.448623	0.114065	0.386006	-0.852383	-0.352765						
56784		8.837630	0.980149	-3.245229	-0.336982	-0.717038	0.402687	-0.458414	162.074221	-68.247994	-46.435668	0.255399	-0.268530	0.928797	-0.886438	-0.448572	0.114062	0.386003	-0.852452	-0.352600						
56785		8.867610	0.991664	-3.305229	-0.336994	-0.717027	0.402670	-0.458436	162.070172	-68.251212	-46.430719	0.255386	-0.268470	0.928817	-0.886431	-0.448584	0.114071	0.386028	-0.852465	-0.352542						
56786		8.902099	1.007378	-3.284975	-0.336997	-0.717023	0.402640	-0.458468	162.066750	-68.254770	-46.424229	0.255377	-0.268399	0.928840	-0.886408	-0.448628	0.114074	0.386087	-0.852464	-0.352481						
56787		8.868157	1.014589	-3.260432	-0.336994	-0.717026	0.402612	-0.458489	162.064214	-68.256656	-46.418452	0.255383	-0.268351	0.928853	-0.886383	-0.448677	0.114080	0.386141	-0.852453	-0.352447						
56788		8.902514	1.041890	-3.218804	-0.336992	-0.717041	0.402559	-0.458515	162.056948	-68.258624	-46.405538	0.255421	-0.268271	0.928865	-0.886333	-0.448766	0.114115	0.386230	-0.852432	-0.352402						
56789		8.902740	1.030876	-3.239711	-0.337007	-0.717055	0.402519	-0.458517	162.046004	-68.258794	-46.392177	0.255482	-0.268209	0.928866	-0.886303	-0.448810	0.114182	0.386260	-0.852428	-0.352377						
56790		8.898015	1.084750	-3.211985	-0.337044	-0.717064	0.402473	-0.458514	162.028492	-68.259475	-46.373761	0.255561	-0.268119	0.928871	-0.886277	-0.448833	0.114286	0.386266	-0.852444	-0.352332						
56791		8.898146	1.074137	-3.233027	-0.337069	-0.717078	0.402451	-0.458494	162.016714	-68.257741	-46.362449	0.255633	-0.268089	0.928860	-0.886266	-0.448835	0.114367	0.386245	-0.852452	-0.352335						
56792		8.917515	1.073598	-3.204417	-0.337110	-0.717103	0.402431	-0.458443	161.998795	-68.252931	-46.347116	0.255758	-0.268077	0.928829	-0.886260	-0.448813	0.114501	0.386175	-0.852468	-0.352373						
56793		8.951624	1.067369	-3.228212	-0.337148	-0.717105	0.402449	-0.458395	161.988891	-68.249234	-46.343229	0.255818	-0.268103	0.928805	-0.886291	-0.448731	0.114581	0.386064	-0.852503	-0.352411						
56794		8.970913	1.066543	-3.199929	-0.337179	-0.717116	0.402474	-0.458333	161.980700	-68.243544	-46.341102	0.255892	-0.268160	0.928768	-0.886322	-0.448650	0.114660	0.385945	-0.852527	-0.352482						
56795		8.936532	1.051391	-3.219775	-0.337214	-0.717115	0.402533	-0.458258	161.977075	-68.237127	-46.347418	0.255934	-0.268264	0.928726	-0.886387	-0.448508	0.114714	0.385767	-0.852570	-0.352574						
56796		8.955755	1.050040	-3.191861	-0.337224	-0.717110	0.402599	-0.458200	161.981833	-68.231762	-46.360248	0.255934	-0.268384	0.928692	-0.886448	-0.448388	0.114712	0.385627	-0.852595	-0.352666						
56797		8.921264	1.057200	-3.168824	-0.337248	-0.717103	0.402688	-0.458115	161.985208	-68.224209	-46.375583	0.255946	-0.268541	0.928643	-0.886534	-0.448212	0.114729	0.385419	-0.852638	-0.352789						
56798		8.818459	1.032758	-3.184626	-0.337244	-0.717094	0.402775	-0.458056	161.997140	-68.218368	-46.396291	0.255915	-0.268702	0.928605	-0.886608	-0.448077	0.114685	0.385271	-0.852658	-0.352903						
56799		8.803361	1.015230	-3.176717	-0.337218	-0.717127	0.402844	-0.457963	162.007389	-68.206440	-46.412151	0.255974	-0.268913	0.928528	-0.886647	-0.448002	0.114681	0.385143	-0.852631	-0.353107						
56800		8.773314	0.957752	-3.203649	-0.337176	-0.717175	0.402936	-0.457838	162.022838	-68.189865	-46.434433	0.256054	-0.269207	0.928420	-0.886694	-0.447911	0.114669	0.384980	-0.852586	-0.353394						
56801		8.723407	0.924337	-3.216880	-0.337072	-0.717255	0.403050	-0.457689	162.054008	-68.167093	-46.469403	0.256144	-0.269631	0.928272	-0.886727	-0.447867	0.114590	0.384845	-0.852476	-0.353807						
56802		8.731859	0.947991	-3.289361	-0.336905	-0.717387	0.403155	-0.457513	162.095407	-68.136942	-46.508374	0.256297	-0.270159	0.928077	-0.886712	-0.447923	0.114485	0.384778	-0.852279	-0.354355						
56803		8.832437	0.994281	-3.236967	-0.336704	-0.717581	0.403241	-0.457279	162.135372	-68.096828	-46.542032	0.256585	-0.270781	0.927816	-0.886652	-0.448055	0.114437	0.384725	-0.852012	-0.355053						
56804		8.962122	1.029654	-3.289865	-0.336507	-0.717778	0.403306	-0.457059	162.171335	-68.058112	-46.569824	0.256884	-0.271361	0.927563	-0.886574	-0.448216	0.114406	0.384703	-0.851743	-0.355721						
56805		9.003934	0.961655	-3.287314	-0.336307	-0.717964	0.403325	-0.456897	162.205088	-68.025843	-46.589921	0.257148	-0.271831	0.927353	-0.886461	-0.448453	0.114356	0.384789	-0.851468	-0.356286						
56806		8.875333	0.991435	-3.308011	-0.336123	-0.718120	0.403355	-0.456760	162.239560	-67.998048	-46.612765	0.257349	-0.272260	0.927171	-0.886370	-0.448652	0.114279	0.384864	-0.851226	-0.356783						
56807		8.907778	0.971913	-3.358110	-0.335907	-0.718297	0.403378	-0.456621	162.279165	-67.967847	-46.637225	0.257568	-0.272725	0.926973	-0.886254	-0.448906	0.114181	0.384984	-0.850943	-0.357327						
56808		8.955003	1.003651	-3.352917	-0.335676	-0.718466	0.403403	-0.456501	162.324813	-67.939432	-46.666299	0.257745	-0.273190	0.926787	-0.886136	-0.449175	0.114036	0.385136	-0.850652	-0.357856						
56809		8.982681	1.048399	-3.354694	-0.335460	-0.718649	0.403424	-0.456355	162.363665	-67.908254	-46.689972	0.257978	-0.273663	0.926583	-0.886018	-0.449431	0.113946	0.385252	-0.850365	-0.358414						
56810		8.942054	1.073415	-3.372831	-0.335278	-0.718792	0.403439	-0.456250	162.397199	-67.884310	-46.710131	0.258147	-0.274036	0.926426	-0.885918	-0.449651	0.113853	0.385369	-0.850128	-0.358850						
56811		8.906557	1.068409	-3.374150	-0.335125	-0.718925	0.403453	-0.456140	162.423961	-67.861516	-46.726169	0.258323	-0.274377	0.926276	-0.885833	-0.449833	0.113797	0.385447	-0.849922	-0.359254						
56812		8.939696	1.083568	-3.358219	-0.335011	-0.719019	0.403487	-0.456046	162.446944	-67.843332	-46.743597	0.258441	-0.274669	0.926156	-0.885791	-0.449931	0.113741	0.385465	-0.849776	-0.359580						
56813		8.904688	1.079045	-3.358083	-0.334962	-0.719078	0.403517	-0.455963	162.455698	-67.830406	-46.751992	0.258544	-0.274859	0.926071	-0.885780	-0.449950	0.113749	0.385420	-0.849704	-0.359797						
56814		8.874974	1.044398	-3.340802	-0.334933	-0.719089	0.403560	-0.455928	162.466914	-67.825174	-46.765238	0.258538	-0.274981	0.926037	-0.885801	-0.449919	0.113704	0.385375	-0.849681	-0.359900						
56815		8.908830	1.025286	-3.386716	-0.334921	-0.719092	0.403582	-0.455912	162.472265	-67.822989	-46.771902	0.258530	-0.275037	0.926022	-0.885815	-0.449899	0.113681	0.385349	-0.849674	-0.359944						
56816		8.953036	0.968563	-3.356575	-0.334922	-0.719045	0.403622	-0.455951	162.482986	-67.829027	-46.785921	0.258396	-0.275029	0.926062	-0.885861	-0.449832	0.113585	0.385333	-0.849712	-0.359872						
56817		8.948887	1.009273	-3.349690	-0.334940	-0.718983	0.403637	-0.456022	162.488577	-67.839734	-46.793302	0.258242	-0.274936	0.926132	-0.885896	-0.449785	0.113498	0.385356	-0.849767	-0.359718						
56818		9.018221	1.005244	-3.373506	-0.334985	-0.718877	0.403632	-0.456160	162.490634	-67.860225	-46.796802	0.257999	-0.274710	0.926267	-0.885937	-0.449732	0.113385	0.385424	-0.849868	-0.359406						
56819		8.931838	1.008896	-3.371747	-0.335076	-0.718753	0.403607	-0.456311	162.479835	-67.884622	-46.789414	0.257764	-0.274389	0.926428	-0.885985	-0.449651	0.113334	0.385472	-0.850014	-0.359009						
56820		8.918996	0.991174	-3.357847	-0.335188	-0.718607	0.403554	-0.456506	162.463318	-67.915325	-46.774937	0.257493	-0.273962	0.926629	-0.886024	-0.449586	0.113288	0.385563	-0.850187	-0.358503						
56821		8.881948	1.005387	-3.387699	-0.335323	-0.718461	0.403473	-0.456708	162.437169	-67.947556	-46.749998	0.257255	-0.273471	0.926841	-0.886048	-0.449537	0.113294	0.385666	-0.850371	-0.357954						
56822		8.869462	0.999582	-3.351383	-0.335440	-0.718322	0.403382	-0.456920	162.414070	-67.979963	-46.725524	0.257013	-0.272979	0.927053	-0.886055	-0.449526	0.113280	0.385811	-0.850535	-0.357408						
56823		8.891051	0.986409	-3.339051	-0.335556	-0.718184	0.403302	-0.457124	162.392113	-68.011405	-46.703167	0.256770	-0.272508	0.927258	-0.886071	-0.449500	0.113263	0.385938	-0.850699	-0.356880						
56824		8.878381	0.980470	-3.303095	-0.335659	-0.718057	0.403221	-0.457318	162.371841	-68.040811	-46.681551	0.256547	-0.272065	0.927450	-0.886077	-0.449491	0.113245	0.386071	-0.850846	-0.356386						
56825		8.811821	0.983432	-3.272157	-0.335760	-0.717951	0.403133	-0.457488	162.348903	-68.066782	-46.656688	0.256376	-0.271648	0.927620	-0.886072	-0.449498	0.113260	0.386196	-0.850975	-0.355940						
56826		8.832886	0.958823	-3.282578	-0.335823	-0.717859	0.403064	-0.457646	162.336549	-68.089511	-46.641025	0.256198	-0.271310	0.927768	-0.886063	-0.449524	0.113225	0.386335	-0.851069	-0.355565						
56827		8.883152	0.979654	-3.290485	-0.335856	-0.717780	0.403022	-0.457784	162.334113	-68.108465	-46.635340	0.256014	-0.271062	0.927891	-0.886061	-0.449548	0.113147	0.386462	-0.851136	-0.355268						
56828		8.830682	1.010493	-3.249049	-0.335867	-0.717712	0.402977	-0.457922	162.336269	-68.125995	-46.632058	0.255834	-0.270841	0.928005	-0.886044	-0.449606	0.113048	0.386619	-0.851176	-0.355002						
56829		8.870648	0.972334	-3.254277	-0.335876	-0.717675	0.402930	-0.458015	162.334279	-68.137525	-46.624895	0.255740	-0.270673	0.928080	-0.886017	-0.449671	0.113004	0.386743	-0.851195	-0.354820						
56830		8.876581	1.060918	-3.272102	-0.335886	-0.717639	0.402890	-0.458098	162.332274	-68.148104	-46.618762	0.255651	-0.270521	0.928149	-0.885997	-0.449721	0.112964	0.386849	-0.851217	-0.354653						
56831		8.886847	0.988814	-3.259599	-0.335907	-0.717609	0.402850	-0.458166	162.326529	-68.157164	-46.610012	0.255592	-0.270375	0.928208	-0.885979	-0.449757	0.112955	0.386928	-0.851243	-0.354501						
56832		8.887519	0.977342	-3.279362	-0.335939	-0.717582	0.402803	-0.458226	162.316043	-68.165710	-46.597124	0.255558	-0.270217	0.928263	-0.885961	-0.449789	0.112978	0.386994	-0.851277	-0.354349						
56833		8.922361	0.981363	-3.279881	-0.335950	-0.717541	0.402794	-0.458290	162.317810	-68.174568	-46.597951	0.255455	-0.270117	0.928321	-0.885967	-0.449790	0.112923	0.387047	-0.851309	-0.354216						
56834		8.923003	0.992321	-3.256672	-0.335964	-0.717501	0.402774	-0.458360	162.317760	-68.184099	-46.596144	0.255357	-0.269996	0.928383	-0.885966	-0.449803	0.112877	0.387113	-0.851340	-0.354068						
56835		8.923709	0.980358	-3.276513	-0.335982	-0.717460	0.402761	-0.458423	162.317101	-68.193021	-46.594848	0.255264	-0.269886	0.928441	-0.885973	-0.449801	0.112837	0.387160	-0.851376	-0.353929						
56836		8.973354	1.001226	-3.286047	-0.335998	-0.717409	0.402746	-0.458503	162.318145	-68.204131	-46.594712	0.255141	-0.269754	0.928513	-0.885979	-0.449802	0.112776	0.387225	-0.851417	-0.353760						
56837		8.920431	1.009562	-3.288918	-0.336034	-0.717361	0.402732	-0.458564	162.313087	-68.213817	-46.590642	0.255052	-0.269622	0.928575	-0.885995	-0.449776	0.112759	0.387249	-0.851472	-0.353600						
56838		8.950627	1.043744	-3.305268	-0.336075	-0.717310	0.402713	-0.458631	162.306666	-68.224468	-46.585116	0.254960	-0.269472	0.928644	-0.886009	-0.449751	0.112746	0.387277	-0.851533	-0.353423						
56839		8.902451	1.033904	-3.270215	-0.336158	-0.717241	0.402702	-0.458687	162.290827	-68.236381	-46.574835	0.254875	-0.269286	0.928721	-0.886052	-0.449658	0.112785	0.387235	-0.851641	-0.353208						
56840		8.888545	1.005383	-3.280464	-0.336223	-0.717179	0.402708	-0.458732	162.281662	-68.246189	-46.571383	0.254782	-0.269155	0.928785	-0.886100	-0.449561	0.112793	0.387186	-0.851734	-0.353039						
56841		8.869793	1.007201	-3.307116	-0.336306	-0.717129	0.402700	-0.458756	162.263463	-68.253981	-46.559542	0.254751	-0.269011	0.928835	-0.886140	-0.449462	0.112867	0.387114	-0.851832	-0.352882						
56842		8.821385	0.997913	-3.272512	-0.336392	-0.717075	0.402700	-0.458777	162.245891	-68.261757	-46.549473	0.254712	-0.268875	0.928886	-0.886191	-0.449345	0.112937	0.387025	-0.851936	-0.352728						
56843		8.856020	1.003033	-3.273207	-0.336484	-0.717047	0.402697	-0.458756	162.222255	-68.264225	-46.534225	0.254756	-0.268778	0.928902	-0.886234	-0.449226	0.113070	0.386896	-0.852029	-0.352643						
56844		8.822126	0.999818	-3.269934	-0.336559	-0.717015	0.402699	-0.458750	162.204896	-68.267800	-46.523806	0.254765	-0.268689	0.928925	-0.886274	-0.449124	0.113159	0.386798	-0.852111	-0.352554						
56845		8.837123	1.006702	-3.299738	-0.336650	-0.717006	0.402699	-0.458697	162.178929	-68.266144	-46.507026	0.254862	-0.268634	0.928914	-0.886316	-0.449000	0.113327	0.386639	-0.852194	-0.352528						
56846		8.886066	1.040909	-3.288808	-0.336732	-0.716984	0.402713	-0.458658	162.159292	-68.266215	-46.496774	0.254909	-0.268588	0.928914	-0.886368	-0.448866	0.113448	0.386488	-0.852279	-0.352488						
56847		8.915631	1.065383	-3.328040	-0.336839	-0.716983	0.402711	-0.458583	162.127254	-68.262463	-46.475416	0.255051	-0.268537	0.928890	-0.886412	-0.448726	0.113664	0.386294	-0.852369	-0.352482						
56848		8.934919	1.077585	-3.277280	-0.336977	-0.716973	0.402686	-0.458520	162.085102	-68.261521	-46.444257	0.255208	-0.268409	0.928884	-0.886451	-0.448582	0.113928	0.386101	-0.852485	-0.352413						
56849		8.969369	1.061574	-3.321417	-0.337152	-0.716947	0.402676	-0.458441	162.035519	-68.261106	-46.410878	0.255369	-0.268265	0.928881	-0.886523	-0.448361	0.114235	0.385829	-0.852646	-0.352321						
56850		9.003694	1.080363	-3.300394	-0.337363	-0.716903	0.402648	-0.458379	161.976147	-68.264459	-46.368912	0.255527	-0.268039	0.928903	-0.886599	-0.448122	0.114583	0.385549	-0.852843	-0.352150						
56851		8.970002	1.068064	-3.317626	-0.337596	-0.716848	0.402606	-0.458330	161.910439	-68.270521	-46.321126	0.255683	-0.267755	0.928942	-0.886676	-0.447874	0.114956	0.385269	-0.853063	-0.351925						
56852		8.980292	0.999551	-3.304193	-0.337838	-0.716763	0.402562	-0.458324	161.845972	-68.282592	-46.274496	0.255766	-0.267405	0.929020	-0.886761	-0.447619	0.115291	0.385017	-0.853307	-0.351610						
56853		8.946923	1.009553	-3.277107	-0.338054	-0.716672	0.402515	-0.458348	161.789663	-68.297048	-46.232940	0.255797	-0.267050	0.929114	-0.886835	-0.447402	0.115563	0.384826	-0.853531	-0.351274						
56854		8.923852	1.043945	-3.318067	-0.338283	-0.716577	0.402462	-0.458373	161.729249	-68.312226	-46.187851	0.255837	-0.266671	0.929211	-0.886910	-0.447178	0.115856	0.384627	-0.853767	-0.350918						
56855		8.895427	1.023347	-3.274511	-0.338499	-0.716468	0.402412	-0.458429	161.675037	-68.330765	-46.147602	0.255816	-0.266275	0.929331	-0.886986	-0.446966	0.116094	0.384466	-0.854002	-0.350523						
56856		8.945618	1.047129	-3.281426	-0.338722	-0.716355	0.402358	-0.458487	161.618897	-68.349943	-46.105574	0.255796	-0.265863	0.929455	-0.887062	-0.446752	0.116339	0.384305	-0.854242	-0.350114						
56857		8.917335	1.026481	-3.237395	-0.338945	-0.716257	0.402256	-0.458566	161.555250	-68.370557	-46.051257	0.255815	-0.265379	0.929587	-0.887094	-0.446613	0.116622	0.384217	-0.854465	-0.349667						
56858		8.919026	1.017415	-3.254059	-0.339168	-0.716128	0.402164	-0.458683	161.497265	-68.396486	-46.002941	0.255747	-0.264861	0.929754	-0.887143	-0.446458	0.116842	0.384150	-0.854707	-0.349150						
56859		8.905786	1.013463	-3.218271	-0.339368	-0.716007	0.402064	-0.458811	161.443554	-68.422278	-45.955934	0.255673	-0.264350	0.929920	-0.887173	-0.446347	0.117036	0.384128	-0.854923	-0.348643						
56860		8.926982	1.001825	-3.206043	-0.339529	-0.715878	0.401973	-0.458974	161.403839	-68.450592	-45.919613	0.255521	-0.263858	0.930101	-0.887197	-0.446275	0.117132	0.384175	-0.855113	-0.348126						
56861		8.904712	1.034173	-3.245746	-0.339643	-0.715767	0.401895	-0.459131	161.376668	-68.475765	-45.892851	0.255360	-0.263445	0.930262	-0.887207	-0.446247	0.117166	0.384260	-0.855255	-0.347684						
56862		8.925917	1.020886	-3.234015	-0.339721	-0.715631	0.401845	-0.459329	161.367065	-68.505067	-45.882519	0.255076	-0.263057	0.930450	-0.887232	-0.446221	0.117072	0.384389	-0.855388	-0.347213						
56863		8.908116	1.044343	-3.214544	-0.339799	-0.715498	0.401775	-0.459539	161.354906	-68.535355	-45.867538	0.254802	-0.262638	0.930644	-0.887240	-0.446227	0.116989	0.384552	-0.855513	-0.346722						
56864		8.943994	1.058880	-3.189893	-0.339853	-0.715358	0.401730	-0.459756	161.353600	-68.566007	-45.863475	0.254474	-0.262262	0.930839	-0.887261	-0.446225	0.116837	0.384722	-0.855629	-0.346248						
56865		8.907214	1.072098	-3.220880	-0.339909	-0.715235	0.401670	-0.459958	161.347725	-68.594226	-45.853788	0.254199	-0.261890	0.931019	-0.887265	-0.446246	0.116726	0.384894	-0.855732	-0.345801						
56866		8.927685	1.092005	-3.144393	-0.339962	-0.715094	0.401638	-0.460167	161.348352	-68.623914	-45.852907	0.253867	-0.261540	0.931208	-0.887296	-0.446226	0.116568	0.385042	-0.855850	-0.345345						
56867		8.895482	1.074843	-3.159741	-0.340009	-0.714969	0.401613	-0.460347	161.349017	-68.649760	-45.852712	0.253575	-0.261238	0.931372	-0.887327	-0.446201	0.116430	0.385164	-0.855955	-0.344949						
56868		8.897402	1.061749	-3.177294	-0.340036	-0.714835	0.401616	-0.460534	161.360810	-68.676002	-45.864246	0.253226	-0.260983	0.931539	-0.887374	-0.446161	0.116223	0.385284	-0.856054	-0.344568						
56869		8.918024	1.058183	-3.145081	-0.340042	-0.714725	0.401633	-0.460685	161.376504	-68.696731	-45.879703	0.252921	-0.260809	0.931671	-0.887418	-0.446125	0.116021	0.385383	-0.856125	-0.344281						
56870		8.885173	1.051843	-3.140117	-0.340055	-0.714602	0.401660	-0.460843	161.393577	-68.718991	-45.898056	0.252585	-0.260630	0.931812	-0.887478	-0.446064	0.115802	0.385466	-0.856212	-0.343972						
56871		8.890972	1.019708	-3.121340	-0.340060	-0.714512	0.401695	-0.460948	161.408907	-68.733962	-45.915541	0.252336	-0.260532	0.931906	-0.887532	-0.446001	0.115633	0.385505	-0.856275	-0.343773						
56872		8.892881	0.983485	-3.183900	-0.340034	-0.714420	0.401738	-0.461072	161.434974	-68.749907	-45.941416	0.252038	-0.260460	0.932007	-0.887580	-0.445966	0.115394	0.385588	-0.856315	-0.343579						
56873		8.864496	0.935396	-3.185720	-0.339999	-0.714351	0.401768	-0.461179	161.458945	-68.762750	-45.963271	0.251794	-0.260406	0.932089	-0.887607	-0.445967	0.115184	0.385687	-0.856331	-0.343429						
56874		8.894921	0.967552	-3.202031	-0.339917	-0.714301	0.401800	-0.461289	161.494664	-68.773379	-45.992892	0.251539	-0.260411	0.932156	-0.887612	-0.446027	0.114915	0.385841	-0.856298	-0.343337						
56875		8.924875	1.011016	-3.197299	-0.339823	-0.714282	0.401811	-0.461378	161.527237	-68.779915	-46.016595	0.251357	-0.260439	0.932197	-0.887586	-0.446137	0.114686	0.386019	-0.856232	-0.343302						
56876		9.027805	1.033300	-3.179950	-0.339760	-0.714268	0.401769	-0.461482	161.543553	-68.788956	-46.021605	0.251232	-0.260355	0.932254	-0.887528	-0.446290	0.114541	0.386235	-0.856178	-0.343195						
56877		9.072037	0.975906	-3.147383	-0.339745	-0.714225	0.401675	-0.461642	161.543777	-68.806730	-46.009115	0.251088	-0.260092	0.932366	-0.887453	-0.446462	0.114448	0.386499	-0.856168	-0.342921						
56878		9.000332	0.996765	-3.156562	-0.339741	-0.714169	0.401552	-0.461838	161.539168	-68.829312	-45.989511	0.250922	-0.259742	0.932509	-0.887363	-0.446664	0.114360	0.386814	-0.856169	-0.342563						
56879		9.001731	0.995635	-3.152929	-0.339722	-0.714105	0.401465	-0.462026	161.544013	-68.850824	-45.981537	0.250715	-0.259455	0.932644	-0.887298	-0.446829	0.114220	0.387097	-0.856170	-0.342241						
56880		9.037312	0.998266	-3.151263	-0.339684	-0.714040	0.401392	-0.462219	161.556715	-68.872126	-45.980849	0.250477	-0.259203	0.932778	-0.887236	-0.446999	0.114034	0.387393	-0.856158	-0.341937						
56881		9.014784	1.039864	-3.171158	-0.339662	-0.713978	0.401298	-0.462412	161.561625	-68.893946	-45.971976	0.250270	-0.258909	0.932915	-0.887164	-0.447178	0.113893	0.387692	-0.856153	-0.341610						
56882		9.001024	1.032525	-3.137088	-0.339638	-0.713901	0.401217	-0.462619	161.570843	-68.917844	-45.968161	0.250017	-0.258612	0.933066	-0.887105	-0.447341	0.113715	0.387991	-0.856158	-0.341259						
56883		9.031912	1.076679	-3.129503	-0.339642	-0.713802	0.401164	-0.462815	161.577991	-68.942518	-45.967612	0.249740	-0.258321	0.933220	-0.887086	-0.447421	0.113545	0.388212	-0.856204	-0.340892						
56884		9.018261	1.069314	-3.095023	-0.339661	-0.713694	0.401108	-0.463016	161.581613	-68.968804	-45.964553	0.249456	-0.258000	0.933385	-0.887074	-0.447485	0.113388	0.388422	-0.856267	-0.340493						
56885		8.984880	1.086694	-3.046046	-0.339722	-0.713569	0.401076	-0.463192	161.577362	-68.994703	-45.960106	0.249183	-0.257677	0.933547	-0.887104	-0.447454	0.113280	0.388530	-0.856381	-0.340084						
56886		8.918362	1.066048	-3.060056	-0.339809	-0.713447	0.401029	-0.463356	161.563053	-69.020145	-45.946702	0.248955	-0.257321	0.933706	-0.887131	-0.447411	0.113234	0.388613	-0.856510	-0.339662						
56887		8.909446	1.017829	-3.030922	-0.339881	-0.713313	0.401031	-0.463508	161.560911	-69.044412	-45.948933	0.248670	-0.257046	0.933858	-0.887196	-0.447310	0.113122	0.388647	-0.856645	-0.339283						
56888		8.880960	0.982361	-3.009731	-0.339955	-0.713190	0.401073	-0.463607	161.561337	-69.062908	-45.958482	0.248417	-0.256871	0.933973	-0.887293	-0.447143	0.113024	0.388587	-0.856785	-0.338998						
56889		8.886835	0.939357	-3.012555	-0.339971	-0.713089	0.401127	-0.463703	161.577276	-69.077841	-45.979579	0.248154	-0.256787	0.934066	-0.887370	-0.447033	0.112852	0.388579	-0.856867	-0.338798						
56890		8.867868	0.962129	-2.996516	-0.339959	-0.713020	0.401186	-0.463768	161.598127	-69.087212	-46.003913	0.247938	-0.256783	0.934125	-0.887431	-0.446955	0.112681	0.388577	-0.856910	-0.338694						
56891		8.903765	0.930496	-3.061955	-0.339936	-0.712986	0.401246	-0.463784	161.617113	-69.089591	-46.026216	0.247811	-0.256851	0.934140	-0.887480	-0.446890	0.112556	0.388547	-0.856923	-0.338695						
56892		8.888151	0.934847	-3.010072	-0.339875	-0.712980	0.401308	-0.463784	161.644121	-69.087611	-46.053533	0.247711	-0.256993	0.934127	-0.887507	-0.446873	0.112407	0.388549	-0.856889	-0.338778						
56893		8.932740	0.985091	-3.037474	-0.339808	-0.712998	0.401380	-0.463744	161.670252	-69.080225	-46.080983	0.247672	-0.257198	0.934081	-0.887534	-0.446849	0.112290	0.388513	-0.856840	-0.338944						
56894		8.936720	0.953695	-3.022996	-0.339702	-0.713053	0.401437	-0.463689	161.701411	-69.068215	-46.108740	0.247683	-0.257459	0.934006	-0.887523	-0.446902	0.112167	0.388531	-0.856734	-0.339191						
56895		8.961543	1.017392	-3.058863	-0.339640	-0.713100	0.401506	-0.463601	161.721593	-69.054873	-46.131225	0.247732	-0.257713	0.933923	-0.887543	-0.446875	0.112116	0.388453	-0.856672	-0.339437						
56896		9.018830	0.977700	-3.039289	-0.339547	-0.713170	0.401559	-0.463515	161.745622	-69.039460	-46.153106	0.247808	-0.257989	0.933827	-0.887530	-0.446917	0.112052	0.388435	-0.856567	-0.339722						
56897		8.999175	0.978629	-3.070420	-0.339474	-0.713224	0.401625	-0.463428	161.767787	-69.025419	-46.176253	0.247862	-0.258254	0.933739	-0.887541	-0.446909	0.111993	0.388374	-0.856491	-0.339983						
56898		8.964623	0.962410	-3.092583	-0.339391	-0.713286	0.401681	-0.463345	161.790254	-69.011033	-46.197819	0.247927	-0.258517	0.933649	-0.887538	-0.446931	0.111933	0.388341	-0.856400	-0.340250						
56899		8.998119	0.965871	-3.096566	-0.339299	-0.713352	0.401748	-0.463254	161.816358	-68.995287	-46.223233	0.247990	-0.258812	0.933551	-0.887538	-0.446950	0.111858	0.388301	-0.856301	-0.340544						
56900		8.977679	0.989529	-3.084688	-0.339203	-0.713415	0.401809	-0.463174	161.843542	-68.980762	-46.248746	0.248039	-0.259093	0.933460	-0.887533	-0.446982	0.111770	0.388281	-0.856200	-0.340822						
56901		8.957631	1.001698	-3.094294	-0.339112	-0.713475	0.401876	-0.463089	161.870122	-68.965954	-46.274687	0.248088	-0.259380	0.933367	-0.887535	-0.446998	0.111687	0.388244	-0.856105	-0.341103						
56902		9.010396	0.992120	-3.091252	-0.339043	-0.713534	0.401970	-0.462968	161.892991	-68.948374	-46.302052	0.248162	-0.259705	0.933257	-0.887570	-0.446940	0.111640	0.388117	-0.856036	-0.341420						
56903		8.932212	1.044059	-3.122725	-0.339002	-0.713594	0.402032	-0.462850	161.903644	-68.932020	-46.316749	0.248279	-0.259961	0.933155	-0.887591	-0.446895	0.111659	0.387995	-0.855982	-0.341694						
56904		8.940464	0.972263	-3.114739	-0.338947	-0.713668	0.402123	-0.462698	161.919888	-68.911069	-46.338915	0.248414	-0.260304	0.933023	-0.887625	-0.446824	0.111668	0.387829	-0.855915	-0.342050						
56905		8.905448	0.956521	-3.137843	-0.338875	-0.713742	0.402230	-0.462545	161.942946	-68.889297	-46.367909	0.248527	-0.260687	0.932886	-0.887666	-0.446750	0.111640	0.387663	-0.855837	-0.342432						
56906		8.889045	0.950461	-3.110855	-0.338783	-0.713834	0.402323	-0.462390	161.967748	-68.865822	-46.395547	0.248665	-0.261083	0.932739	-0.887682	-0.446725	0.111610	0.387538	-0.855729	-0.342844						
56907		8.902607	0.967149	-3.123714	-0.338676	-0.713931	0.402450	-0.462207	162.000293	-68.838677	-46.433261	0.248797	-0.261567	0.932568	-0.887720	-0.446665	0.111552	0.387367	-0.855613	-0.343327						
56908		8.832692	0.957978	-3.124661	-0.338538	-0.714029	0.402589	-0.462035	162.043192	-68.811572	-46.479501	0.248890	-0.262088	0.932397	-0.887754	-0.446627	0.111431	0.387229	-0.855473	-0.343830						
56909		8.899904	0.953501	-3.154446	-0.338380	-0.714141	0.402741	-0.461845	162.091280	-68.781121	-46.530514	0.248998	-0.262669	0.932205	-0.887786	-0.446598	0.111295	0.387087	-0.855310	-0.344395						
56910		8.898021	0.963095	-3.137999	-0.338191	-0.714235	0.402930	-0.461674	162.155677	-68.752192	-46.598314	0.249010	-0.263305	0.932022	-0.887841	-0.446549	0.111052	0.386953	-0.855140	-0.344968						
56911		8.902806	1.015728	-3.227642	-0.338007	-0.714356	0.403100	-0.461473	162.212154	-68.719223	-46.657401	0.249106	-0.263952	0.931813	-0.887876	-0.446523	0.110875	0.386810	-0.854954	-0.345588						
56912		8.940232	0.964554	-3.261960	-0.337797	-0.714461	0.403286	-0.461302	162.280549	-68.689101	-46.726926	0.249122	-0.264610	0.931622	-0.887916	-0.446508	0.110612	0.386708	-0.854758	-0.346187						
56913		8.988382	0.948843	-3.342651	-0.337590	-0.714559	0.403458	-0.461150	162.347108	-68.661240	-46.793493	0.249124	-0.265230	0.931445	-0.887949	-0.446509	0.110347	0.386631	-0.854566	-0.346747						
56914		9.051045	0.984154	-3.366902	-0.337380	-0.714613	0.403633	-0.461068	162.421700	-68.642415	-46.866899	0.248993	-0.265772	0.931326	-0.887993	-0.446510	0.109988	0.386614	-0.854397	-0.347182						
56915		9.168083	0.998161	-3.406148	-0.337178	-0.714621	0.403794	-0.461062	162.499249	-68.633737	-46.941468	0.248744	-0.266199	0.931271	-0.888040	-0.446522	0.109560	0.386668	-0.854257	-0.347465						
56916		9.217527	1.003287	-3.439550	-0.337029	-0.714536	0.403939	-0.461177	162.573337	-68.643436	-47.013960	0.248299	-0.266398	0.931332	-0.888117	-0.446490	0.109064	0.386776	-0.854212	-0.347456						
56917		9.229432	1.033860	-3.484407	-0.336914	-0.714375	0.404047	-0.461414	162.644614	-68.670474	-47.081387	0.247686	-0.266368	0.931504	-0.888196	-0.446470	0.108500	0.386987	-0.854232	-0.347172						
56918		9.281068	1.049532	-3.490272	-0.336900	-0.714123	0.404094	-0.461774	162.693293	-68.718009	-47.127587	0.246945	-0.266002	0.931805	-0.888288	-0.446414	0.107975	0.387249	-0.854376	-0.346526						
56919		9.260918	1.099222	-3.483582	-0.336989	-0.713777	0.404098	-0.462240	162.720726	-68.784447	-47.156253	0.246077	-0.265333	0.932226	-0.888411	-0.446287	0.107488	0.387520	-0.854650	-0.345545						
56920		9.266434	1.071657	-3.514665	-0.337203	-0.713322	0.404052	-0.462825	162.721184	-68.872792	-47.162726	0.245070	-0.264306	0.932782	-0.888571	-0.446072	0.107058	0.387792	-0.855080	-0.344173						
56921		9.238582	1.063677	-3.497265	-0.337539	-0.712768	0.403965	-0.463510	162.695521	-68.980451	-47.148693	0.243942	-0.262961	0.933458	-0.888772	-0.445759	0.106691	0.388042	-0.855658	-0.342451						
56922		9.177349	1.063896	-3.453370	-0.337989	-0.712121	0.403826	-0.464296	162.643019	-69.107042	-47.111723	0.242707	-0.261291	0.934248	-0.889000	-0.445376	0.106389	0.388293	-0.856369	-0.340384						
56923		9.156264	1.015609	-3.435030	-0.338543	-0.711394	0.403631	-0.465177	162.564101	-69.250900	-47.051139	0.241385	-0.259317	0.935141	-0.889246	-0.444940	0.106155	0.388554	-0.857195	-0.337998						
56924		9.116959	0.980954	-3.421215	-0.339194	-0.710572	0.403418	-0.466142	162.466191	-69.411356	-46.977361	0.239930	-0.257090	0.936129	-0.889540	-0.444403	0.105943	0.388782	-0.858144	-0.335318						
56925		9.108768	0.980644	-3.422564	-0.339904	-0.709684	0.403168	-0.467192	162.354204	-69.585736	-46.890267	0.238373	-0.254644	0.937195	-0.889845	-0.443842	0.105734	0.389042	-0.859163	-0.332394						
56926		9.105086	0.961584	-3.383828	-0.340677	-0.708725	0.402875	-0.468337	162.225928	-69.775441	-46.787209	0.236704	-0.251952	0.938345	-0.890158	-0.443263	0.105530	0.389345	-0.860255	-0.329199						
56927		9.181935	0.997746	-3.369652	-0.341535	-0.707681	0.402572	-0.469549	162.080183	-69.979066	-46.672720	0.234918	-0.249051	0.939568	-0.890521	-0.442579	0.105340	0.389598	-0.861451	-0.325755						
56928		9.247290	1.009400	-3.283930	-0.342475	-0.706537	0.402193	-0.470911	161.910695	-70.205614	-46.532654	0.232968	-0.245778	0.940914	-0.890879	-0.441904	0.105149	0.389950	-0.862736	-0.321908						
56929		9.361413	1.038020	-3.284274	-0.343517	-0.705282	0.401792	-0.472374	161.718740	-70.451347	-46.376134	0.230853	-0.242217	0.942358	-0.891290	-0.441119	0.104960	0.390269	-0.864144	-0.317719						
56930		9.390625	1.075679	-3.205330	-0.344653	-0.703886	0.401362	-0.473990	161.508178	-70.722758	-46.204932	0.228483	-0.238301	0.943932	-0.891751	-0.440245	0.104710	0.390609	-0.865677	-0.313094						
56931		9.388355	1.086449	-3.164674	-0.345905	-0.702360	0.400899	-0.475731	161.268851	-71.016929	-46.010900	0.225920	-0.234036	0.945615	-0.892266	-0.439260	0.104459	0.390923	-0.867340	-0.308060						
56932		9.418182	1.131062	-3.136295	-0.347252	-0.700687	0.400406	-0.477628	161.007718	-71.337401	-45.799167	0.223092	-0.229404	0.947419	-0.892834	-0.438182	0.104139	0.391252	-0.869120	-0.302575						
56933		9.392188	1.065214	-3.076529	-0.348694	-0.698880	0.399876	-0.479665	160.719547	-71.681699	-45.564158	0.220042	-0.224418	0.949325	-0.893444	-0.437022	0.103778	0.391586	-0.871004	-0.296668						
56934		9.413047	1.058098	-3.096450	-0.350240	-0.696934	0.399316	-0.481831	160.400483	-72.049373	-45.303590	0.216771	-0.219080	0.951322	-0.894107	-0.435757	0.103383	0.391897	-0.872995	-0.290340						
56935		9.451793	1.059357	-3.060759	-0.351845	-0.694830	0.398758	-0.484157	160.071211	-72.442762	-45.036995	0.213167	-0.213442	0.953416	-0.894835	-0.434394	0.102821	0.392212	-0.875068	-0.283594						
56936		9.440443	1.050038	-2.991510	-0.353550	-0.692571	0.398139	-0.486655	159.702982	-72.864409	-44.733302	0.209305	-0.207366	0.955610	-0.895593	-0.432976	0.102205	0.392563	-0.877229	-0.276339						
56937		9.480812	1.068700	-2.984055	-0.355326	-0.690160	0.397502	-0.489300	159.309334	-73.310770	-44.408067	0.205154	-0.200959	0.957876	-0.896403	-0.431471	0.101467	0.392905	-0.879459	-0.268658						
56938		9.506189	1.061331	-2.904912	-0.357210	-0.687571	0.396829	-0.492111	158.872140	-73.786075	-44.044605	0.200706	-0.194122	0.960226	-0.897271	-0.429855	0.100647	0.393221	-0.881783	-0.260455						
56939		9.557130	1.006237	-2.876667	-0.359192	-0.684808	0.396101	-0.495099	158.385132	-74.290753	-43.634186	0.195962	-0.186835	0.962648	-0.898178	-0.428169	0.099737	0.393542	-0.884174	-0.251717						
56940		9.619083	1.000652	-2.784625	-0.361259	-0.681870	0.395274	-0.498302	157.836362	-74.828283	-43.159027	0.190908	-0.179018	0.965146	-0.899082	-0.426502	0.098732	0.393962	-0.886594	-0.242375						
56941		9.563270	0.986543	-2.722875	-0.363462	-0.678739	0.394361	-0.501685	157.199291	-75.397294	-42.599627	0.185582	-0.170649	0.967697	-0.900024	-0.424749	0.097701	0.394355	-0.889082	-0.232414						
56942		9.388159	0.905399	-2.582939	-0.365692	-0.675433	0.393376	-0.505287	156.505174	-75.997206	-41.977966	0.179880	-0.161840	0.970284	-0.900957	-0.423049	0.096465	0.394866	-0.891537	-0.221909						
56943		9.262582	0.843747	-2.447186	-0.367962	-0.672021	0.392371	-0.508956	155.739081	-76.609391	-41.287330	0.174018	-0.152810	0.972814	-0.901916	-0.421298	0.095158	0.395303	-0.893956	-0.211135						
56944		9.181706	0.843063	-2.309939	-0.370187	-0.668524	0.391355	-0.512717	154.927135	-77.232850	-40.546653	0.167925	-0.143658	0.975276	-0.902863	-0.419605	0.093649	0.395777	-0.896267	-0.200165						
56945		9.139130	0.772091	-2.160331	-0.372378	-0.664991	0.390347	-0.516479	154.053846	-77.855804	-39.744194	0.161757	-0.134504	0.977621	-0.903805	-0.417928	0.092044	0.396195	-0.898468	-0.189168						
56946		9.089803	0.741783	-2.006044	-0.374515	-0.661415	0.389320	-0.520287	153.110822	-78.482416	-38.866877	0.155463	-0.125295	0.979863	-0.904715	-0.416337	0.090303	0.396639	-0.900536	-0.178081						
56947		9.082125	0.721456	-1.795798	-0.376574	-0.657844	0.388297	-0.524080	152.099889	-79.103359	-37.917015	0.149132	-0.116167	0.981970	-0.905587	-0.414835	0.088457	0.397080	-0.902451	-0.167065						
56948		9.188461	0.696247	-1.673730	-0.378581	-0.654264	0.387253	-0.527873	150.988364	-79.720853	-36.861793	0.142770	-0.107046	0.983950	-0.906417	-0.413423	0.086543	0.397524	-0.904225	-0.156053						
56949		9.208255	0.707799	-1.474727	-0.380539	-0.650692	0.386214	-0.531628	149.764689	-80.329998	-35.692776	0.136421	-0.098002	0.985792	-0.907223	-0.412057	0.084583	0.397913	-0.905872	-0.145123						
56950		9.246708	0.633576	-1.368307	-0.382427	-0.647148	0.385199	-0.535322	148.429418	-80.926643	-34.410427	0.130103	-0.089118	0.987487	-0.908006	-0.410742	0.082563	0.398244	-0.907386	-0.134359						
56951		9.304545	0.717825	-1.255132	-0.384272	-0.643666	0.384143	-0.538947	146.914843	-81.507008	-32.943286	0.123942	-0.080314	0.989034	-0.908724	-0.409538	0.080621	0.398572	-0.908751	-0.123742						
56952		9.298271	0.786559	-1.176261	-0.386095	-0.640236	0.383074	-0.542479	145.192367	-82.068778	-31.267607	0.117942	-0.071619	0.990434	-0.909412	-0.408371	0.078765	0.398823	-0.910002	-0.113295						
56953		9.356833	0.769279	-1.039095	-0.387983	-0.636827	0.381996	-0.545893	143.167554	-82.610632	-29.297729	0.112161	-0.062936	0.991695	-0.910125	-0.407096	0.077100	0.398863	-0.911214	-0.102940						
56954		9.319863	0.631504	-0.918593	-0.389886	-0.633431	0.380847	-0.549281	140.778607	-83.138090	-26.960423	0.106492	-0.054168	0.992837	-0.910794	-0.405889	0.075547	0.398889	-0.912316	-0.092560						
56955		9.098592	0.576739	-0.804211	-0.391751	-0.630109	0.379690	-0.552566	138.042838	-83.638063	-24.274463	0.101012	-0.045554	0.993842	-0.911429	-0.404733	0.074084	0.398866	-0.913300	-0.082402						
56956		9.132319	0.514683	-0.653279	-0.393526	-0.626898	0.378588	-0.555705	135.009534	-84.103194	-21.290002	0.095726	-0.037303	0.994709	-0.912040	-0.403618	0.072634	0.398773	-0.914167	-0.072658						
56957		9.265563	0.490615	-0.497206	-0.395196	-0.623835	0.377516	-0.558687	131.654787	-84.528180	-17.979519	0.090700	-0.029434	0.995443	-0.912598	-0.402603	0.071247	0.398672	-0.914901	-0.063378						
56958		9.321398	0.496719	-0.407376	-0.396777	-0.620899	0.376443	-0.561554	127.905009	-84.915265	-14.267333	0.085895	-0.021842	0.996065	-0.913090	-0.401717	0.069931	0.398608	-0.915503	-0.054450						
56959		9.421924	0.484199	-0.352822	-0.398329	-0.618038	0.375375	-0.564320	123.662717	-85.265208	-10.062087	0.081274	-0.014422	0.996587	-0.913562	-0.400855	0.068702	0.398497	-0.916028	-0.045754						
56960		9.591646	0.483346	-0.226617	-0.399817	-0.615245	0.374287	-0.567036	118.880392	-85.578696	-5.310293	0.076759	-0.007135	0.997024	-0.913977	-0.400112	0.067502	0.398440	-0.916439	-0.037233						
56961		9.682691	0.530681	-0.089859	-0.401301	-0.612465	0.373138	-0.569748	113.376091	-85.853248	0.168180	0.072311	0.000212	0.997382	-0.914349	-0.399450	0.066376	0.398419	-0.916755	-0.028691						
56962		9.559575	0.483352	0.057932	-0.402780	-0.609657	0.371994	-0.572457	107.147175	-86.086635	6.370012	0.067827	0.007572	0.997668	-0.914726	-0.398777	0.065214	0.398341	-0.917017	-0.020121						
56963		9.412590	0.381743	0.166595	-0.404206	-0.606894	0.370835	-0.575134	100.329677	-86.266481	13.165625	0.063405	0.014831	0.997878	-0.915060	-0.398198	0.064061	0.398303	-0.917179	-0.011676						
56964		9.342255	0.415555	0.285139	-0.405555	-0.604235	0.369657	-0.577737	93.173863	-86.384056	20.307328	0.059148	0.021888	0.998009	-0.915327	-0.397758	0.062972	0.398345	-0.917229	-0.003492						
56965		9.331546	0.489105	0.372020	-0.406848	-0.601704	0.368483	-0.580213	85.991793	-86.436269	27.478874	0.055146	0.028681	0.998066	-0.915553	-0.397389	0.062007	0.398399	-0.917202	0.004345						
56966		9.386838	0.488374	0.431891	-0.408145	-0.599274	0.367327	-0.582546	79.013334	-86.425038	34.443498	0.051423	0.035267	0.998054	-0.915785	-0.396978	0.061212	0.398364	-0.917150	0.011884						
56967		9.493664	0.434624	0.507613	-0.409387	-0.596971	0.366159	-0.584769	72.487206	-86.359822	40.961044	0.047945	0.041621	0.997982	-0.915967	-0.396659	0.060548	0.398379	-0.917022	0.019105						
56968		9.511282	0.475984	0.559031	-0.410631	-0.594720	0.365011	-0.586905	66.438260	-86.248945	46.998331	0.044619	0.047845	0.997858	-0.916162	-0.396298	0.059967	0.398318	-0.916875	0.026151						
56969		9.612888	0.465366	0.638515	-0.411824	-0.592557	0.363881	-0.588955	61.009492	-86.103553	52.417893	0.041445	0.053852	0.997688	-0.916332	-0.395984	0.059439	0.398270	-0.916677	0.032935						
56970		9.668113	0.460922	0.639207	-0.412993	-0.590402	0.362744	-0.590998	56.030471	-85.927307	57.389732	0.038275	0.059826	0.997475	-0.916486	-0.395707	0.058901	0.398232	-0.916426	0.039684						
56971		9.612645	0.509934	0.685301	-0.414133	-0.588258	0.361634	-0.593015	51.529159	-85.727691	61.883338	0.035108	0.065705	0.997221	-0.916643	-0.395429	0.058325	0.398163	-0.916143	0.046346						
56972		9.610071	0.497373	0.695324	-0.415239	-0.586125	0.360548	-0.595013	47.471758	-85.509170	65.933401	0.031930	0.071493	0.996930	-0.916796	-0.395165	0.057702	0.398077	-0.915824	0.052927						
56973		9.593650	0.499256	0.690972	-0.416319	-0.584020	0.359482	-0.596968	43.864849	-85.275231	69.532612	0.028802	0.077169	0.996602	-0.916949	-0.394901	0.057079	0.397964	-0.915477	0.059386						
56974		9.516526	0.500228	0.748963	-0.417382	-0.581907	0.358434	-0.598916	40.599706	-85.027117	72.789393	0.025649	0.082803	0.996236	-0.917105	-0.394633	0.056412	0.397819	-0.915100	0.065817						
56975		9.538431	0.499684	0.788729	-0.418421	-0.579844	0.357397	-0.600810	37.729362	-84.769812	75.652119	0.022590	0.088314	0.995837	-0.917252	-0.394383	0.055782	0.397667	-0.914693	0.072097						
56976		9.645747	0.512208	0.798759	-0.419468	-0.577752	0.356373	-0.602700	35.112022	-84.500260	78.258866	0.019503	0.093836	0.995397	-0.917418	-0.394089	0.055126	0.397448	-0.914269	0.078401						
56977		9.696725	0.484701	0.955327	-0.420531	-0.575620	0.355313	-0.604622	32.706427	-84.214050	80.654955	0.016370	0.099474	0.994905	-0.917575	-0.393813	0.054472	0.397225	-0.913792	0.084829						
56978		9.882169	0.452578	1.147283	-0.421621	-0.573382	0.354197	-0.606641	30.420476	-83.905335	82.932832	0.013063	0.105365	0.994348	-0.917726	-0.393560	0.053759	0.397000	-0.913241	0.091555						
56979		9.965239	0.456384	1.310533	-0.422732	-0.571021	0.353000	-0.608789	28.234365	-83.570842	85.115377	0.009535	0.111568	0.993711	-0.917849	-0.393378	0.052973	0.396814	-0.912582	0.098652						
56980		9.878617	0.424235	1.390505	-0.423843	-0.568544	0.351778	-0.611037	26.148213	-83.217185	87.198797	0.005772	0.117965	0.993001	-0.917971	-0.393218	0.052049	0.396606	-0.911846	0.106019						
56981		9.604802	0.380274	1.509252	-0.424899	-0.566059	0.350577	-0.613297	24.234022	-82.859661	89.112801	0.001925	0.124285	0.992245	-0.918074	-0.393113	0.051021	0.396405	-0.911052	0.113346						
56982		9.494992	0.407082	1.542900	-0.425865	-0.563619	0.349400	-0.615542	22.497886	-82.505415	90.854558	-0.001945	0.130418	0.991457	-0.918133	-0.393117	0.049910	0.396268	-0.910192	0.120506						
56983		9.366558	0.455163	1.612712	-0.426763	-0.561262	0.348245	-0.617725	20.960306	-82.157453	92.401835	-0.005718	0.136331	0.990647	-0.918157	-0.393198	0.048811	0.396175	-0.909290	0.127422						
56984		9.365387	0.433650	1.657522	-0.427606	-0.558946	0.347182	-0.619837	19.553524	-81.819389	93.814383	-0.009466	0.141979	0.989824	-0.918203	-0.393236	0.047624	0.395996	-0.908409	0.134088						
56985		9.311903	0.398238	1.650552	-0.428367	-0.556735	0.346170	-0.621864	18.296383	-81.494564	95.080384	-0.013097	0.147322	0.989002	-0.918221	-0.393337	0.046432	0.395851	-0.907514	0.140426						
56986		9.281695	0.447750	1.665650	-0.429049	-0.554637	0.345206	-0.623801	17.174280	-81.184401	96.214446	-0.016590	0.152354	0.988187	-0.918210	-0.393500	0.045253	0.395746	-0.906613	0.146421						
56987		9.334168	0.439226	1.751094	-0.429668	-0.552628	0.344308	-0.625651	16.154402	-80.888254	97.246136	-0.019974	0.157096	0.987381	-0.918194	-0.393674	0.044060	0.395628	-0.905727	0.152108						
56988		9.426751	0.387355	1.756837	-0.430247	-0.550666	0.343481	-0.627436	15.202792	-80.602095	98.206808	-0.023309	0.161618	0.986578	-0.918190	-0.393818	0.042821	0.395453	-0.904869	0.157575						
56989		9.441594	0.422705	1.795273	-0.430796	-0.548756	0.342675	-0.629171	14.327703	-80.321979	99.091498	-0.026564	0.165999	0.985768	-0.918178	-0.393978	0.041602	0.395277	-0.904005	0.162882						
56990		9.483617	0.424021	1.896479	-0.431315	-0.546873	0.341904	-0.630871	13.502194	-80.047041	99.925979	-0.029793	0.170252	0.984950	-0.918165	-0.394138	0.040355	0.395077	-0.903144	0.168062						
56991		9.488653	0.359389	1.921869	-0.431835	-0.544984	0.341163	-0.632549	12.715302	-79.772598	100.718407	-0.033022	0.174458	0.984111	-0.918171	-0.394251	0.039081	0.394805	-0.902292	0.173201						
56992		9.464862	0.289139	1.964954	-0.432291	-0.543132	0.340428	-0.634225	11.963316	-79.502612	101.481543	-0.036265	0.178545	0.983263	-0.918134	-0.394466	0.037765	0.394607	-0.901398	0.178234						
56993		9.469312	0.333684	2.019418	-0.432678	-0.541301	0.339749	-0.635888	11.222068	-79.239935	102.235111	-0.039565	0.182456	0.982418	-0.918083	-0.394720	0.036333	0.394409	-0.900503	0.183127						
56994		9.437591	0.235487	2.039677	-0.433031	-0.539512	0.339067	-0.637530	10.526868	-78.980868	102.946227	-0.042822	0.186278	0.981563	-0.918002	-0.395036	0.034920	0.394257	-0.899582	0.187920						
56995		9.397540	0.221236	2.069055	-0.433358	-0.537781	0.338381	-0.639133	9.885876	-78.727039	103.605954	-0.045986	0.189997	0.980707	-0.917896	-0.395399	0.033562	0.394147	-0.898644	0.192581						
56996		9.420691	0.282275	2.121470	-0.433665	-0.536104	0.337673	-0.640706	9.299631	-78.476855	104.214870	-0.049054	0.193647	0.979844	-0.917759	-0.395824	0.032281	0.394097	-0.897677	0.197138						
56997		9.459690	0.287431	2.183597	-0.433995	-0.534460	0.336930	-0.642245	8.773416	-78.226199	104.764535	-0.052001	0.197311	0.978961	-0.917614	-0.396253	0.031123	0.394057	-0.896689	0.201661						
56998		9.610485	0.274225	2.258847	-0.434356	-0.532805	0.336162	-0.643777	8.284342	-77.971262	105.275752	-0.054907	0.201039	0.978043	-0.917475	-0.396659	0.030028	0.393986	-0.895681	0.206228						
56999		9.552480	0.238892	2.354748	-0.434757	-0.531110	0.335337	-0.645335	7.827217	-77.706169	105.755748	-0.057817	0.204925	0.977069	-0.917330	-0.397071	0.028997	0.393908	-0.894617	0.210941						
57000		9.511573	0.223715	2.418456	-0.435164	-0.529381	0.334536	-0.646895	7.374594	-77.438835	106.227660	-0.060776	0.208817	0.976064	-0.917206	-0.397435	0.027915	0.393752	-0.893555	0.215683						
57001		9.403456	0.176190	2.460586	-0.435529	-0.527714	0.333717	-0.648434	6.957232	-77.177176	106.670308	-0.063666	0.212609	0.975061	-0.917037	-0.397896	0.026883	0.393688	-0.892455	0.220303						
57002		9.276278	0.223632	2.529012	-0.435858	-0.526105	0.332947	-0.649913	6.559638	-76.926544	107.092185	-0.066482	0.216210	0.974081	-0.916870	-0.398348	0.025840	0.393610	-0.891388	0.224719						
57003		9.242886	0.244092	2.538585	-0.436138	-0.524608	0.332244	-0.651294	6.192543	-76.694460	107.483008	-0.069140	0.219513	0.973157	-0.916704	-0.398795	0.024826	0.393540	-0.890380	0.228801						
57004		9.214174	0.218965	2.574210	-0.436386	-0.523210	0.331608	-0.652576	5.853612	-76.479433	107.843305	-0.071638	0.222548	0.972286	-0.916550	-0.399208	0.023844	0.393451	-0.889441	0.232575						
57005		9.331572	0.255767	2.563524	-0.436623	-0.521907	0.331042	-0.653747	5.545392	-76.281107	108.168001	-0.073947	0.225335	0.971471	-0.916428	-0.399542	0.022918	0.393308	-0.888589	0.236049						
57006		9.338072	0.193906	2.572928	-0.436835	-0.520642	0.330541	-0.654866	5.239537	-76.092553	108.487123	-0.076214	0.227951	0.970685	-0.916324	-0.399835	0.021949	0.393117	-0.887790	0.239350						
57007		9.412167	0.168108	2.568849	-0.437027	-0.519444	0.330065	-0.655929	4.955273	-75.913870	108.784822	-0.078372	0.230416	0.969931	-0.916217	-0.400129	0.021023	0.392942	-0.887020	0.242471						
57008		9.505161	0.157583	2.566679	-0.437207	-0.518218	0.329631	-0.656996	4.656935	-75.735343	109.093455	-0.080600	0.232846	0.969168	-0.916128	-0.400387	0.020005	0.392701	-0.886269	0.245588						
57009		9.498549	0.155895	2.529215	-0.437400	-0.516981	0.329182	-0.658066	4.370198	-75.554165	109.390241	-0.082822	0.235315	0.968384	-0.916038	-0.400641	0.019009	0.392447	-0.885502	0.248739						
57010		9.532082	0.139361	2.526686	-0.437599	-0.515685	0.328729	-0.659176	4.073107	-75.365603	109.696356	-0.085152	0.237868	0.967558	-0.915951	-0.400888	0.017946	0.392151	-0.884708	0.252012						
57011		9.557415	0.091335	2.539189	-0.437798	-0.514330	0.328260	-0.660335	3.768076	-75.168715	110.011112	-0.087595	0.240520	0.966684	-0.915855	-0.401156	0.016822	0.391837	-0.883869	0.255420						
57012		9.641682	0.047723	2.556607	-0.438028	-0.512875	0.327739	-0.661572	3.459015	-74.955786	110.330414	-0.090181	0.243395	0.965726	-0.915753	-0.401437	0.015661	0.391490	-0.882954	0.259091						
57013		9.623675	0.059362	2.510612	-0.438301	-0.511308	0.327153	-0.662893	3.150161	-74.724028	110.649748	-0.092913	0.246542	0.964668	-0.915645	-0.401727	0.014478	0.391103	-0.881948	0.263070						
57014		9.620996	0.078048	2.538967	-0.438627	-0.509600	0.326515	-0.664306	2.834105	-74.471416	110.973944	-0.095828	0.249981	0.963497	-0.915549	-0.401989	0.013237	0.390624	-0.880860	0.267392						
57015		9.561573	0.049942	2.562275	-0.438991	-0.507801	0.325787	-0.665798	2.530850	-74.200801	111.288452	-0.098850	0.253689	0.962222	-0.915429	-0.402299	0.012023	0.390151	-0.879658	0.272001						
57016		9.490964	-0.013006	2.635659	-0.439385	-0.505877	0.325003	-0.667385	2.222204	-73.910852	111.608758	-0.102059	0.257656	0.960832	-0.915301	-0.402628	0.010746	0.389626	-0.878353	0.276924						
57017		9.420328	0.038179	2.707500	-0.439797	-0.503858	0.324155	-0.669051	1.916131	-73.604963	111.928964	-0.105411	0.261836	0.959338	-0.915150	-0.403004	0.009438	0.389088	-0.876943	0.282101						
57018		9.337785	0.054429	2.828329	-0.440242	-0.501751	0.323284	-0.670761	1.612457	-73.286832	112.244165	-0.108865	0.266179	0.957756	-0.915010	-0.403349	0.008092	0.388464	-0.875476	0.287467						
57019		9.297176	0.063542	2.916703	-0.440698	-0.499618	0.322439	-0.672458	1.312152	-72.967955	112.551603	-0.112334	0.270509	0.956141	-0.914895	-0.403636	0.006707	0.387747	-0.874015	0.292830						
57020		9.158181	0.018793	2.903582	-0.441168	-0.497472	0.321620	-0.674131	1.020170	-72.649774	112.846491	-0.115785	0.274817	0.954500	-0.914804	-0.403863	0.005309	0.386946	-0.872566	0.298164						
57021		9.155036	-0.051640	2.966006	-0.441622	-0.495378	0.320832	-0.675749	0.743360	-72.340459	113.124913	-0.119141	0.278986	0.952876	-0.914718	-0.404073	0.003936	0.386129	-0.871144	0.303335						
57022		9.157069	-0.003574	2.989423	-0.442050	-0.493315	0.320070	-0.677339	0.473317	-72.037039	113.396771	-0.122465	0.283044	0.951256	-0.914625	-0.404295	0.002548	0.385309	-0.869731	0.308392						
57023		9.194006	-0.020635	3.112319	-0.442528	-0.491264	0.319340	-0.678860	0.223539	-71.737801	113.640091	-0.125657	0.287069	0.949632	-0.914590	-0.404381	0.001223	0.384364	-0.868370	0.313364						
57024		9.433194	-0.093828	3.249119	-0.443031	-0.489189	0.318583	-0.680384	-0.011830	-71.433902	113.868376	-0.128836	0.291168	0.947957	-0.914557	-0.404458	-0.000066	0.383390	-0.866969	0.318398						
57025		9.442276	0.003414	3.351627	-0.443564	-0.487013	0.317787	-0.681968	-0.247675	-71.115434	114.095709	-0.132139	0.295460	0.946173	-0.914526	-0.404525	-0.001399	0.382337	-0.865484	0.323660						
57026		9.310006	-0.037308	3.441481	-0.444146	-0.484769	0.317020	-0.683543	-0.483613	-70.791474	114.314383	-0.135466	0.299824	0.944327	-0.914549	-0.404465	-0.002777	0.381115	-0.864010	0.328995						
57027		9.241609	-0.134660	3.443275	-0.444725	-0.482523	0.316293	-0.685091	-0.719546	-70.470825	114.529193	-0.138781	0.304117	0.942471	-0.914592	-0.404357	-0.004198	0.379818	-0.862559	0.334260						
57028		9.128093	-0.114425	3.504519	-0.445285	-0.480318	0.315610	-0.686590	-0.950739	-70.158602	114.737148	-0.142031	0.308272	0.940636	-0.914643	-0.404223	-0.005632	0.378490	-0.861146	0.339371						
57029		9.041003	-0.116781	3.528824	-0.445840	-0.478140	0.314988	-0.688034	-1.180765	-69.854730	114.938764	-0.145217	0.312289	0.938822	-0.914724	-0.404018	-0.007097	0.377084	-0.859794	0.344328						
57030		8.955462	-0.229252	3.519726	-0.446403	-0.476022	0.314434	-0.689390	-1.401437	-69.563294	115.124571	-0.148254	0.316136	0.937058	-0.914847	-0.403711	-0.008540	0.375601	-0.858531	0.349068						
57031		8.971611	-0.304732	3.631633	-0.446918	-0.473999	0.313877	-0.690703	-1.606082	-69.283104	115.300162	-0.151179	0.319819	0.935340	-0.914930	-0.403492	-0.009915	0.374231	-0.857269	0.353612						
57032		9.099024	-0.289177	3.769877	-0.447440	-0.472003	0.313311	-0.691988	-1.796062	-69.005696	115.461035	-0.154021	0.323479	0.933616	-0.915014	-0.403266	-0.011229	0.372864	-0.856001	0.358099						
57033		9.112611	-0.275521	3.856766	-0.447992	-0.470046	0.312707	-0.693235	-1.959808	-68.730560	115.596435	-0.156721	0.327153	0.931885	-0.915100	-0.403036	-0.012406	0.371524	-0.854712	0.362542						
57034		9.072042	-0.260014	3.900229	-0.448588	-0.468097	0.312108	-0.694437	-2.109234	-68.457154	115.712358	-0.159310	0.330838	0.930143	-0.915225	-0.402715	-0.013515	0.370112	-0.853444	0.366948						
57035		8.962275	-0.277188	3.945030	-0.449224	-0.466214	0.311501	-0.695564	-2.232148	-68.191538	115.799069	-0.161685	0.334476	0.928431	-0.915381	-0.402330	-0.014470	0.368696	-0.852207	0.371223						
57036		8.967991	-0.267144	3.957113	-0.449873	-0.464366	0.310914	-0.696642	-2.346108	-67.931928	115.873941	-0.163956	0.338046	0.926738	-0.915558	-0.401893	-0.015380	0.367250	-0.851004	0.375393						
57037		8.968608	-0.260874	4.002044	-0.450524	-0.462574	0.310342	-0.697668	-2.449346	-67.680405	115.937037	-0.166106	0.341520	0.925080	-0.915745	-0.401431	-0.016230	0.365813	-0.849833	0.379426						
57038		8.992219	-0.303386	3.990506	-0.451161	-0.460816	0.309821	-0.698651	-2.555705	-67.436980	116.000277	-0.168204	0.344866	0.923458	-0.915949	-0.400929	-0.017109	0.364341	-0.848719	0.383318						
57039		9.042796	-0.346167	4.000652	-0.451785	-0.459106	0.309253	-0.699625	-2.645195	-67.195938	116.052565	-0.170224	0.348199	0.921836	-0.916119	-0.400507	-0.017887	0.362973	-0.847556	0.387168						
57040		9.061073	-0.304049	3.998551	-0.452421	-0.457376	0.308687	-0.700596	-2.734476	-66.953091	116.102554	-0.172245	0.351556	0.920185	-0.916300	-0.400056	-0.018677	0.361559	-0.846383	0.391039						
57041		9.033113	-0.254537	4.024641	-0.453049	-0.455632	0.308134	-0.701569	-2.827869	-66.709910	116.155694	-0.174291	0.354899	0.918515	-0.916482	-0.399600	-0.019507	0.360116	-0.845202	0.394905						
57042		9.037927	-0.291480	3.957376	-0.453677	-0.453867	0.307559	-0.702559	-2.919327	-66.462882	116.208240	-0.176364	0.358289	0.916802	-0.916652	-0.399169	-0.020338	0.358672	-0.843975	0.398825						
57043		9.061899	-0.243679	4.029687	-0.454313	-0.452076	0.306973	-0.703558	-3.009802	-66.212499	116.259179	-0.178453	0.361721	0.915048	-0.916822	-0.398734	-0.021178	0.357200	-0.842715	0.402789						
57044		9.030614	-0.330620	4.003562	-0.454957	-0.450231	0.306356	-0.704593	-3.100706	-65.953847	116.311281	-0.180611	0.365258	0.913218	-0.916982	-0.398319	-0.022041	0.355702	-0.841385	0.406876						
57045		8.967812	-0.353222	4.015712	-0.455586	-0.448365	0.305717	-0.705654	-3.192177	-65.691446	116.366734	-0.182820	0.368826	0.911342	-0.917118	-0.397957	-0.022923	0.354220	-0.839998	0.411012						
57046		8.995918	-0.389766	4.081184	-0.456215	-0.446454	0.305034	-0.706754	-3.281574	-65.420907	116.422874	-0.185094	0.372497	0.909388	-0.917230	-0.397645	-0.023810	0.352744	-0.838525	0.415267						
57047		9.035390	-0.307472	4.113639	-0.456843	-0.444493	0.304283	-0.707907	-3.365605	-65.140073	116.478446	-0.187441	0.376302	0.907338	-0.917308	-0.397413	-0.024681	0.351300	-0.836935	0.419676						
57048		8.916187	-0.326929	4.188550	-0.457454	-0.442492	0.303505	-0.709099	-3.452459	-64.853027	116.539895	-0.189873	0.380163	0.905221	-0.917357	-0.397242	-0.025590	0.349863	-0.835270	0.424170						
57049		8.913581	-0.300913	4.189074	-0.458075	-0.440433	0.302711	-0.710319	-3.541876	-64.558454	116.602887	-0.192372	0.384110	0.903024	-0.917405	-0.397068	-0.026539	0.348368	-0.833545	0.428769						
57050		8.843951	-0.302672	4.261000	-0.458679	-0.438328	0.301890	-0.711580	-3.634624	-64.256892	116.671971	-0.194966	0.388120	0.900750	-0.917426	-0.396953	-0.027534	0.346869	-0.831740	0.433463						
57051		8.708116	-0.359451	4.273843	-0.459238	-0.436231	0.301083	-0.712848	-3.733170	-63.957696	116.749680	-0.197607	0.392050	0.898470	-0.917417	-0.396900	-0.028586	0.345395	-0.829920	0.438103						
57052		8.668527	-0.364186	4.261860	-0.459762	-0.434132	0.300279	-0.714129	-3.835437	-63.658632	116.833820	-0.200296	0.395939	0.896166	-0.917381	-0.396903	-0.029681	0.343939	-0.828071	0.442725						
57053		8.695010	-0.444865	4.327094	-0.460243	-0.432059	0.299462	-0.715419	-3.936095	-63.361940	116.921759	-0.203002	0.399763	0.893857	-0.917304	-0.396997	-0.030777	0.342555	-0.826186	0.447295						
57054		8.782080	-0.497388	4.430340	-0.460679	-0.429973	0.298590	-0.716758	-4.034270	-63.059977	117.015890	-0.205796	0.403620	0.891481	-0.917162	-0.397237	-0.031874	0.341265	-0.824192	0.451935						
57055		8.879170	-0.456722	4.479262	-0.461125	-0.427883	0.297630	-0.718120	-4.114844	-62.751932	117.098671	-0.208559	0.407583	0.889033	-0.916988	-0.397560	-0.032853	0.340053	-0.822084	0.456664						
57056		8.848280	-0.512723	4.555568	-0.461607	-0.425729	0.296624	-0.719505	-4.189222	-62.433772	117.174100	-0.211347	0.411694	0.886477	-0.916821	-0.397866	-0.033806	0.338781	-0.819885	0.461537						
57057		8.779975	-0.466998	4.600831	-0.462080	-0.423589	0.295515	-0.720920	-4.244566	-62.110420	117.240317	-0.214109	0.415891	0.883851	-0.916599	-0.398306	-0.034621	0.337644	-0.817549	0.466486						
57058		8.686956	-0.419084	4.621715	-0.462573	-0.421417	0.294372	-0.722342	-4.293888	-61.781684	117.300322	-0.216867	0.420166	0.881152	-0.916380	-0.398742	-0.035402	0.336477	-0.815148	0.471505						
57059		8.548232	-0.404439	4.660471	-0.463075	-0.419263	0.293229	-0.723738	-4.337753	-61.455578	117.353912	-0.219561	0.424410	0.878447	-0.916170	-0.399156	-0.036142	0.335299	-0.812742	0.476471						
57060		8.508867	-0.442271	4.719235	-0.463559	-0.417101	0.292103	-0.725131	-4.386036	-61.130299	117.411482	-0.222279	0.428610	0.875720	-0.915956	-0.399577	-0.036924	0.334092	-0.810328	0.481405						
57061		8.636645	-0.494996	4.879843	-0.464005	-0.414959	0.290954	-0.726536	-4.431927	-60.806033	117.472407	-0.225018	0.432764	0.872973	-0.915700	-0.400090	-0.037692	0.332957	-0.807863	0.486309						
57062		8.676188	-0.464721	5.009381	-0.464446	-0.412772	0.289787	-0.727965	-4.479640	-60.475897	117.535831	-0.227818	0.436967	0.870148	-0.915433	-0.400627	-0.038489	0.331786	-0.805331	0.491284						
57063		8.642138	-0.492860	5.109467	-0.464904	-0.410587	0.288633	-0.729365	-4.524981	-60.147471	117.593580	-0.230565	0.441151	0.867309	-0.915187	-0.401111	-0.039271	0.330563	-0.802805	0.496218						
57064		8.477864	-0.512635	5.187554	-0.465383	-0.408406	0.287473	-0.730741	-4.564309	-59.819822	117.643278	-0.233245	0.445337	0.864449	-0.914961	-0.401555	-0.040006	0.329308	-0.800268	0.501127						
57065		8.365272	-0.513796	5.263782	-0.465868	-0.406322	0.286330	-0.732041	-4.591793	-59.505022	117.680556	-0.235738	0.449384	0.861674	-0.914754	-0.401963	-0.040626	0.328105	-0.797796	0.505834						
57066		8.264046	-0.509538	5.304525	-0.466354	-0.404327	0.285233	-0.733264	-4.613796	-59.203976	117.709632	-0.238068	0.453267	0.858995	-0.914576	-0.402312	-0.041183	0.326917	-0.795421	0.510324						
57067		8.202918	-0.517315	5.353144	-0.466821	-0.402475	0.284187	-0.734391	-4.627103	-58.923200	117.730037	-0.240185	0.456902	0.856476	-0.914414	-0.402633	-0.041641	0.325819	-0.793175	0.514504						
57068		8.145489	-0.498345	5.421048	-0.467275	-0.400750	0.283222	-0.735418	-4.637861	-58.662847	117.744246	-0.242107	0.460283	0.854122	-0.914287	-0.402879	-0.042052	0.324752	-0.791093	0.518370						
57069		8.137377	-0.513479	5.442165	-0.467697	-0.399162	0.282332	-0.736354	-4.646576	-58.423425	117.755544	-0.243858	0.463389	0.851941	-0.914174	-0.403095	-0.042419	0.323757	-0.789167	0.521917						
57070		8.174353	-0.546790	5.399382	-0.468095	-0.397700	0.281500	-0.737211	-4.651173	-58.202373	117.762648	-0.245445	0.466264	0.849915	-0.914074	-0.403291	-0.042728	0.322840	-0.787372	0.525185						
57071		8.266364	-0.546715	5.470349	-0.468459	-0.396317	0.280725	-0.738019	-4.658455	-57.994370	117.772070	-0.246958	0.468951	0.847996	-0.913976	-0.403479	-0.043045	0.321963	-0.785678	0.528252						
57072		8.333218	-0.597176	5.468895	-0.468823	-0.394993	0.279985	-0.738779	-4.663548	-57.795588	117.777429	-0.248371	0.471528	0.846152	-0.913897	-0.403627	-0.043330	0.321098	-0.784058	0.531177						
57073		8.307928	-0.609488	5.457119	-0.469169	-0.393726	0.279208	-0.739529	-4.658417	-57.600713	117.778601	-0.249721	0.474066	0.844335	-0.913791	-0.403847	-0.043516	0.320352	-0.782412	0.534046						
57074		8.328645	-0.613729	5.407196	-0.469538	-0.392460	0.278409	-0.740269	-4.647110	-57.404902	117.773103	-0.251018	0.476641	0.842498	-0.913697	-0.404045	-0.043645	0.319604	-0.780744	0.536928						
57075		8.444077	-0.534847	5.441193	-0.469931	-0.391187	0.277548	-0.741016	-4.624862	-57.204431	117.759427	-0.252276	0.479306	0.840608	-0.913599	-0.404265	-0.043673	0.318895	-0.778997	0.539880						
57076		8.417867	-0.529104	5.544753	-0.470361	-0.389844	0.276624	-0.741796	-4.597236	-56.992156	117.740433	-0.253565	0.482143	0.838596	-0.913504	-0.404480	-0.043662	0.318144	-0.777132	0.543001						
57077		8.540684	-0.548966	5.591945	-0.470818	-0.388427	0.275627	-0.742620	-4.564624	-56.766847	117.718309	-0.254910	0.485156	0.836447	-0.913399	-0.404721	-0.043616	0.317368	-0.775129	0.546309						
57078		8.392152	-0.487941	5.643339	-0.471279	-0.386894	0.274573	-0.743518	-4.536862	-56.524988	117.702756	-0.256418	0.488347	0.834126	-0.913270	-0.405011	-0.043630	0.316524	-0.772970	0.549845						
57079		8.135260	-0.445709	5.669229	-0.471764	-0.385367	0.273513	-0.744393	-4.504815	-56.283758	117.680998	-0.257862	0.491550	0.831797	-0.913162	-0.405259	-0.043598	0.315663	-0.770807	0.553365						
57080		8.040990	-0.503078	5.668129	-0.472236	-0.383868	0.272472	-0.745250	-4.473963	-56.047172	117.660323	-0.259277	0.494681	0.829498	-0.913055	-0.405503	-0.043567	0.314812	-0.768673	0.556808						
57081		7.992333	-0.485307	5.655985	-0.472673	-0.382426	0.271461	-0.746083	-4.444929	-55.819036	117.643454	-0.260661	0.497679	0.827267	-0.912934	-0.405777	-0.043541	0.314017	-0.766590	0.560119						
57082		7.948582	-0.483553	5.660458	-0.473066	-0.381040	0.270485	-0.746896	-4.419321	-55.599680	117.632495	-0.262033	0.500531	0.825110	-0.912795	-0.406092	-0.043534	0.313281	-0.764564	0.563292						
57083		7.998167	-0.519611	5.677055	-0.473416	-0.379720	0.269542	-0.747688	-4.395964	-55.389824	117.626477	-0.263380	0.503233	0.823036	-0.912636	-0.406449	-0.043536	0.312613	-0.762598	0.566319						
57084		7.997583	-0.547134	5.711097	-0.473726	-0.378425	0.268618	-0.748480	-4.376722	-55.183992	117.627215	-0.264756	0.505846	0.820990	-0.912453	-0.406855	-0.043571	0.311984	-0.760650	0.569278						
57085		7.965557	-0.525527	5.662547	-0.474012	-0.377189	0.267693	-0.749254	-4.353435	-54.984898	117.627703	-0.266082	0.508368	0.819001	-0.912253	-0.407306	-0.043556	0.311441	-0.758725	0.572137						
57086		8.027207	-0.515242	5.650525	-0.474279	-0.375980	0.266760	-0.750025	-4.328016	-54.788144	117.629137	-0.267397	0.510850	0.817026	-0.912035	-0.407797	-0.043514	0.310952	-0.756791	0.574957						
57087		8.065196	-0.555224	5.697877	-0.474558	-0.374746	0.265805	-0.750805	-4.301057	-54.587490	117.628958	-0.268721	0.513383	0.815001	-0.911819	-0.408285	-0.043458	0.310442	-0.754812	0.577827						
57088		8.061954	-0.539587	5.736318	-0.474851	-0.373506	0.264776	-0.751600	-4.263062	-54.381573	117.622434	-0.270018	0.516005	0.812914	-0.911588	-0.408819	-0.043292	0.309996	-0.752732	0.580773						
57089		8.255951	-0.542365	5.821256	-0.475189	-0.372187	0.263690	-0.752423	-4.221024	-54.163296	117.610472	-0.271344	0.518802	0.810689	-0.911370	-0.409326	-0.043094	0.309479	-0.750531	0.583889						
57090		8.223056	-0.466554	5.822218	-0.475606	-0.370743	0.262537	-0.753275	-4.175252	-53.927326	117.589343	-0.272697	0.521857	0.808271	-0.911192	-0.409746	-0.042870	0.308813	-0.748180	0.587248						
57091		8.010260	-0.466284	5.887724	-0.476086	-0.369252	0.261370	-0.754110	-4.126155	-53.685812	117.558613	-0.273991	0.525019	0.805782	-0.911064	-0.410057	-0.042611	0.308044	-0.745794	0.590678						
57092		7.967804	-0.452014	5.935269	-0.476611	-0.367714	0.260213	-0.754929	-4.079051	-53.440243	117.522906	-0.275257	0.528248	0.803236	-0.910983	-0.410263	-0.042371	0.307155	-0.743397	0.594152						
57093		7.833190	-0.400029	5.965465	-0.477173	-0.366164	0.259068	-0.755721	-4.031508	-53.194664	117.481470	-0.276461	0.531496	0.800676	-0.910941	-0.410380	-0.042120	0.306195	-0.741013	0.597616						
57094		7.796213	-0.443406	6.026363	-0.477792	-0.364618	0.257955	-0.756458	-3.982257	-52.952192	117.429536	-0.277537	0.534749	0.798133	-0.910969	-0.410348	-0.041841	0.305138	-0.738687	0.601027						
57095		7.835884	-0.419233	6.035830	-0.478410	-0.363047	0.256828	-0.757206	-3.934339	-52.706285	117.379435	-0.278642	0.538028	0.795540	-0.910990	-0.410327	-0.041573	0.304064	-0.736313	0.604473						
57096		7.723635	-0.410720	6.088288	-0.479023	-0.361447	0.255721	-0.757957	-3.892885	-52.458825	117.333402	-0.279785	0.541299	0.792916	-0.911018	-0.410286	-0.041368	0.302930	-0.733935	0.607926						
57097		7.671860	-0.511767	6.134611	-0.479579	-0.359856	0.254670	-0.758716	-3.863876	-52.216072	117.300800	-0.281015	0.544439	0.790327	-0.911018	-0.410295	-0.041287	0.301789	-0.731604	0.611293						
57098		7.763160	-0.472391	6.151045	-0.480085	-0.358310	0.253659	-0.759467	-3.840297	-51.980842	117.276016	-0.282265	0.547440	0.787805	-0.910994	-0.410352	-0.041252	0.300694	-0.729329	0.614542						
57099		7.737619	-0.471984	6.183174	-0.480563	-0.356776	0.252644	-0.760224	-3.817873	-51.746870	117.255476	-0.283539	0.550396	0.785283	-0.910946	-0.410460	-0.041225	0.299637	-0.727040	0.617763						
57100		7.735618	-0.478505	6.303066	-0.481021	-0.355238	0.251641	-0.760987	-3.799421	-51.513315	117.239655	-0.284850	0.553316	0.782753	-0.910886	-0.410591	-0.041238	0.298574	-0.724746	0.620965						
57101		7.776629	-0.420316	6.375859	-0.481507	-0.353692	0.250622	-0.761736	-3.776826	-51.278216	117.217740	-0.286105	0.556276	0.780193	-0.910849	-0.410679	-0.041204	0.297487	-0.722426	0.624181						
57102		7.784807	-0.380798	6.469894	-0.482007	-0.352096	0.249615	-0.762489	-3.759874	-51.038719	117.197449	-0.287396	0.559273	0.777571	-0.910827	-0.410723	-0.041233	0.296305	-0.720083	0.627442						
57103		7.605442	-0.422504	6.518040	-0.482537	-0.350480	0.248625	-0.763221	-3.744123	-50.798716	117.173101	-0.288643	0.562288	0.774930	-0.910842	-0.410687	-0.041273	0.295046	-0.717752	0.630698						
57104		7.477250	-0.447395	6.573063	-0.483009	-0.348903	0.247689	-0.763950	-3.736813	-50.566329	117.159164	-0.289939	0.565150	0.772360	-0.910828	-0.410706	-0.041397	0.293818	-0.715490	0.633834						
57105		7.347902	-0.456675	6.607211	-0.483441	-0.347433	0.246788	-0.764638	-3.727028	-50.348152	117.146156	-0.291150	0.567829	0.769936	-0.910799	-0.410762	-0.041480	0.292707	-0.713334	0.636771						
57106		7.306804	-0.472287	6.623748	-0.483805	-0.346061	0.245990	-0.765287	-3.726856	-50.147253	117.143050	-0.292349	0.570244	0.767694	-0.910754	-0.410844	-0.041653	0.291650	-0.711357	0.639462						
57107		7.334509	-0.466938	6.616809	-0.484113	-0.344811	0.245252	-0.765892	-3.727314	-49.963593	117.143951	-0.293479	0.572426	0.765636	-0.910688	-0.410972	-0.041818	0.290717	-0.709528	0.641914						
57108		7.401203	-0.511471	6.562085	-0.484357	-0.343641	0.244584	-0.766478	-3.734466	-49.793078	117.154009	-0.294619	0.574399	0.763718	-0.910596	-0.411154	-0.042046	0.289855	-0.707826	0.644179						
57109		7.457628	-0.581474	6.614649	-0.484545	-0.342557	0.243931	-0.767052	-3.740018	-49.632747	117.168959	-0.295743	0.576222	0.761909	-0.910462	-0.411428	-0.042248	0.289127	-0.706184	0.646305						
57110		7.562883	-0.639097	6.576175	-0.484691	-0.341496	0.243258	-0.767646	-3.744146	-49.473526	117.188970	-0.296911	0.577999	0.760106	-0.910286	-0.411800	-0.042433	0.288486	-0.704512	0.648412						
57111		7.626075	-0.578599	6.610585	-0.484822	-0.340438	0.242536	-0.768262	-3.742918	-49.311426	117.209469	-0.298100	0.579803	0.758264	-0.910077	-0.412248	-0.042559	0.287917	-0.702766	0.650557						
57112		7.778483	-0.555341	6.670381	-0.484978	-0.339324	0.241731	-0.768909	-3.734085	-49.137949	117.225457	-0.299310	0.581759	0.756287	-0.909859	-0.412725	-0.042608	0.287351	-0.700867	0.652851						
57113		7.766907	-0.446228	6.754882	-0.485232	-0.338119	0.240829	-0.769563	-3.713387	-48.948830	117.225512	-0.300451	0.583975	0.754123	-0.909690	-0.413103	-0.042534	0.286692	-0.698798	0.655354						
57114		7.605823	-0.445732	6.824685	-0.485572	-0.336821	0.239918	-0.770202	-3.693044	-48.749591	117.215133	-0.301543	0.586358	0.751835	-0.909596	-0.413318	-0.042470	0.285844	-0.696673	0.657982						
57115		7.442929	-0.450211	6.793607	-0.485958	-0.335519	0.239007	-0.770810	-3.669085	-48.550310	117.196364	-0.302544	0.588779	0.749537	-0.909545	-0.413442	-0.042362	0.284948	-0.694554	0.660605						
57116		7.314763	-0.441645	6.801634	-0.486326	-0.334250	0.238159	-0.771391	-3.651520	-48.358802	117.180900	-0.303528	0.591086	0.747321	-0.909504	-0.413535	-0.042318	0.284029	-0.692536	0.663115						
57117		7.210606	-0.502915	6.811143	-0.486700	-0.333054	0.237374	-0.771914	-3.634619	-48.179579	117.161786	-0.304396	0.593264	0.745238	-0.909498	-0.413553	-0.042271	0.283118	-0.690660	0.665457						
57118		7.187722	-0.476287	6.855564	-0.487023	-0.331938	0.236652	-0.772413	-3.622269	-48.012953	117.149052	-0.305252	0.595258	0.743296	-0.909473	-0.413609	-0.042264	0.282276	-0.688909	0.667626						
57119		7.185448	-0.472156	6.845967	-0.487306	-0.330929	0.236000	-0.772867	-3.611947	-47.862459	117.139109	-0.306038	0.597046	0.741536	-0.909443	-0.413674	-0.042267	0.281519	-0.687321	0.669580						
57120		7.292366	-0.518025	6.850179	-0.487576	-0.329946	0.235402	-0.773299	-3.606837	-47.718375	117.131625	-0.306810	0.598744	0.739847	-0.909424	-0.413711	-0.042324	0.280742	-0.685820	0.671443						
57121		7.305123	-0.457791	6.853753	-0.487840	-0.329011	0.234803	-0.773713	-3.597765	-47.579346	117.122065	-0.307528	0.600391	0.738212	-0.909402	-0.413759	-0.042330	0.280027	-0.684349	0.673239						
57122		7.292784	-0.510522	6.826938	-0.488096	-0.328075	0.234241	-0.774119	-3.594006	-47.442721	117.115321	-0.308258	0.601992	0.736602	-0.909386	-0.413787	-0.042396	0.279274	-0.682924	0.674997						
57123		7.314165	-0.545088	6.781640	-0.488353	-0.327142	0.233678	-0.774522	-3.589799	-47.306519	117.108145	-0.308980	0.603588	0.734992	-0.909371	-0.413813	-0.042456	0.278523	-0.681499	0.676746						
57124		7.329891	-0.511430	6.762775	-0.488599	-0.326180	0.233090	-0.774949	-3.585954	-47.165493	117.103606	-0.309755	0.605221	0.733321	-0.909338	-0.413880	-0.042524	0.277770	-0.680008	0.678552						
57125		7.276933	-0.504042	6.821632	-0.488856	-0.325207	0.232481	-0.775379	-3.579635	-47.022149	117.097078	-0.310521	0.606888	0.731617	-0.909306	-0.413946	-0.042563	0.277019	-0.678481	0.680386						
57126		7.342098	-0.452813	6.816079	-0.489171	-0.324176	0.231835	-0.775806	-3.569492	-46.870417	117.082160	-0.311244	0.608692	0.729809	-0.909313	-0.413929	-0.042563	0.276181	-0.676873	0.682324						
57127		7.322422	-0.458367	6.895872	-0.489488	-0.323070	0.231187	-0.776260	-3.565661	-46.710537	117.071372	-0.312055	0.610561	0.727899	-0.909319	-0.413909	-0.042644	0.275247	-0.675200	0.684357						
57128		7.352780	-0.441915	6.929345	-0.489822	-0.321917	0.230507	-0.776731	-3.561056	-46.543764	117.059298	-0.312889	0.612511	0.725900	-0.909327	-0.413882	-0.042721	0.274270	-0.673448	0.686472						
57129		7.187302	-0.390530	7.032973	-0.490168	-0.320728	0.229840	-0.777202	-3.560131	-46.374167	117.047404	-0.313737	0.614487	0.723861	-0.909351	-0.413817	-0.042843	0.273220	-0.671685	0.688615						
57130		7.069225	-0.468077	7.025236	-0.490511	-0.319552	0.229206	-0.777656	-3.562306	-46.208257	117.036321	-0.314570	0.616412	0.721860	-0.909385	-0.413726	-0.042999	0.272147	-0.669975	0.690702						
57131		6.980573	-0.475021	7.042805	-0.490804	-0.318466	0.228634	-0.778086	-3.567803	-46.055830	117.030761	-0.315382	0.618151	0.720016	-0.909399	-0.413676	-0.043185	0.271159	-0.668402	0.692612						
57132		6.946402	-0.491264	7.049110	-0.491077	-0.317450	0.228115	-0.778480	-3.574893	-45.914462	117.025989	-0.316137	0.619758	0.718302	-0.909419	-0.413613	-0.043381	0.270213	-0.666952	0.694378						
57133		6.980700	-0.507583	7.115942	-0.491304	-0.316525	0.227648	-0.778851	-3.583697	-45.786013	117.025764	-0.316865	0.621192	0.716740	-0.909418	-0.413594	-0.043588	0.269363	-0.665628	0.695976						
57134		7.116867	-0.505343	7.226619	-0.491511	-0.315674	0.227202	-0.779196	-3.589740	-45.666805	117.025033	-0.317534	0.622523	0.715288	-0.909410	-0.413593	-0.043755	0.268600	-0.664384	0.697459						
57135		7.205192	-0.514852	7.264477	-0.491684	-0.314831	0.226757	-0.779557	-3.597842	-45.548490	117.029812	-0.318257	0.623811	0.713843	-0.909372	-0.413656	-0.043946	0.267871	-0.663135	0.698925						
57136		7.118293	-0.495809	7.298552	-0.491867	-0.314000	0.226339	-0.779898	-3.607090	-45.433301	117.032757	-0.318940	0.625072	0.712434	-0.909354	-0.413674	-0.044149	0.267119	-0.661936	0.700349						
57137		7.051503	-0.519845	7.358487	-0.492050	-0.313244	0.225939	-0.780203	-3.612025	-45.327264	117.031866	-0.319529	0.626250	0.711134	-0.909346	-0.413676	-0.044293	0.266441	-0.660820	0.701660						
57138		7.021628	-0.504002	7.322173	-0.492251	-0.312521	0.225567	-0.780474	-3.616113	-45.226709	117.026811	-0.320041	0.627389	0.709899	-0.909366	-0.413618	-0.044421	0.265758	-0.659775	0.702901						
57139		6.924173	-0.493294	7.281402	-0.492436	-0.311871	0.225238	-0.780712	-3.619949	-45.136793	117.021287	-0.320486	0.628412	0.708793	-0.909392	-0.413548	-0.044539	0.265132	-0.658845	0.704009						
57140		6.931326	-0.474669	7.244346	-0.492601	-0.311286	0.224956	-0.780923	-3.625341	-45.056838	117.017273	-0.320891	0.629315	0.707808	-0.909418	-0.413478	-0.044667	0.264553	-0.658026	0.704991						
57141		7.040016	-0.437988	7.252424	-0.492734	-0.310755	0.224729	-0.781116	-3.634922	-44.986027	117.017442	-0.321290	0.630093	0.706934	-0.909436	-0.413420	-0.044841	0.264007	-0.657318	0.705856						
57142		7.120400	-0.409691	7.158267	-0.492842	-0.310178	0.224512	-0.781339	-3.651391	-44.910855	117.024877	-0.321793	0.630877	0.706006	-0.909431	-0.413402	-0.045103	0.263410	-0.656577	0.706768						
57143		7.095185	-0.427108	7.155599	-0.492930	-0.309582	0.224332	-0.781571	-3.675455	-44.836155	117.038134	-0.322357	0.631621	0.705082	-0.909419	-0.413389	-0.045458	0.262761	-0.655869	0.707667						
57144		7.053827	-0.444062	7.122536	-0.493046	-0.308905	0.224168	-0.781813	-3.706369	-44.753880	117.051613	-0.322966	0.632447	0.704063	-0.909433	-0.413308	-0.045906	0.261962	-0.655124	0.708652						
57145		7.068422	-0.496872	7.059529	-0.493163	-0.308212	0.223997	-0.782062	-3.737869	-44.669433	117.065679	-0.323593	0.633291	0.703015	-0.909445	-0.413232	-0.046363	0.261147	-0.654356	0.709662						
57146		7.038225	-0.473923	7.061980	-0.493307	-0.307439	0.223809	-0.782330	-3.771957	-44.575586	117.078635	-0.324260	0.634242	0.701850	-0.909472	-0.413116	-0.046861	0.260225	-0.653507	0.710782						
57147		7.004846	-0.570204	6.964101	-0.493469	-0.306621	0.223589	-0.782611	-3.804840	-44.474991	117.089791	-0.324944	0.635275	0.700598	-0.909503	-0.412992	-0.047350	0.259261	-0.652582	0.711984						
57148		6.976257	-0.605006	6.983247	-0.493625	-0.305754	0.223310	-0.782931	-3.835233	-44.365361	117.102721	-0.325697	0.636394	0.699231	-0.909505	-0.412933	-0.047818	0.258305	-0.651529	0.713295						
57149		7.053079	-0.610306	6.932105	-0.493768	-0.304857	0.222943	-0.783295	-3.858396	-44.246870	117.116593	-0.326510	0.637601	0.697751	-0.909464	-0.412978	-0.048203	0.257422	-0.650319	0.714716						
57150		7.049787	-0.573262	6.981901	-0.493891	-0.303916	0.222492	-0.783711	-3.876627	-44.118067	117.133534	-0.327413	0.638898	0.696139	-0.909374	-0.413137	-0.048536	0.256591	-0.648943	0.716264						
57151		6.930332	-0.568073	6.972535	-0.494019	-0.302933	0.221985	-0.784155	-3.891215	-43.981211	117.149959	-0.328354	0.640282	0.694422	-0.909268	-0.413336	-0.048832	0.255764	-0.647450	0.717909						
57152		6.863351	-0.587403	6.974569	-0.494122	-0.301954	0.221416	-0.784629	-3.899780	-43.840732	117.168226	-0.329334	0.641690	0.692656	-0.909120	-0.413636	-0.049054	0.255030	-0.645863	0.719598						
57153		6.891493	-0.577881	7.066019	-0.494216	-0.300983	0.220811	-0.785113	-3.903837	-43.698799	117.186351	-0.330320	0.643110	0.690867	-0.908951	-0.413986	-0.049222	0.254354	-0.644224	0.721304						
57154		6.872906	-0.610797	7.120620	-0.494326	-0.300007	0.220171	-0.785596	-3.902836	-43.554342	117.200472	-0.331274	0.644576	0.689042	-0.908788	-0.414332	-0.049328	0.253697	-0.642534	0.723040						
57155		6.914593	-0.617394	7.262436	-0.494428	-0.299054	0.219501	-0.786083	-3.896934	-43.410312	117.213771	-0.332215	0.646038	0.687218	-0.908609	-0.414720	-0.049371	0.253107	-0.640814	0.724771						
57156		6.865860	-0.527094	7.356339	-0.494562	-0.298106	0.218829	-0.786546	-3.888038	-43.266945	117.221091	-0.333083	0.647522	0.685398	-0.908460	-0.415045	-0.049375	0.252500	-0.639103	0.726492						
57157		6.739908	-0.539757	7.424104	-0.494718	-0.297192	0.218191	-0.786971	-3.878721	-43.129510	117.223638	-0.333863	0.648968	0.683650	-0.908347	-0.415294	-0.049368	0.251878	-0.637473	0.728139						
57158		6.649055	-0.550068	7.493307	-0.494887	-0.296329	0.217631	-0.787345	-3.873460	-43.002691	117.223442	-0.334552	0.650313	0.682033	-0.908275	-0.415447	-0.049403	0.251221	-0.636001	0.729651						
57159		6.714158	-0.473130	7.511082	-0.495062	-0.295564	0.217143	-0.787658	-3.867967	-42.890926	117.219164	-0.335111	0.651519	0.680605	-0.908238	-0.415526	-0.049423	0.250609	-0.634713	0.730982						
57160		6.717525	-0.517084	7.551765	-0.495254	-0.294807	0.216725	-0.787936	-3.869079	-42.784763	117.213691	-0.335625	0.652672	0.679246	-0.908240	-0.415508	-0.049522	0.249911	-0.633540	0.732238						
57161		6.756976	-0.527391	7.557804	-0.495413	-0.294093	0.216323	-0.788213	-3.870592	-42.684028	117.211921	-0.336150	0.653743	0.677955	-0.908220	-0.415541	-0.049622	0.249278	-0.632412	0.733427						
57162		6.785880	-0.443761	7.611147	-0.495558	-0.293392	0.215985	-0.788475	-3.879509	-42.588741	117.213730	-0.336686	0.654734	0.676731	-0.908208	-0.415545	-0.049812	0.248598	-0.631384	0.734543						
57163		6.709058	-0.477211	7.593177	-0.495687	-0.292732	0.215744	-0.788706	-3.897509	-42.504018	117.219120	-0.337205	0.655592	0.675642	-0.908213	-0.415498	-0.050111	0.247875	-0.630524	0.735525						
57164		6.685059	-0.568294	7.623397	-0.495773	-0.292140	0.215563	-0.788921	-3.919616	-42.430142	117.229927	-0.337727	0.656302	0.674691	-0.908200	-0.415484	-0.050454	0.247210	-0.629794	0.736374						
57165		6.618356	-0.535789	7.659355	-0.495851	-0.291650	0.215428	-0.789090	-3.939104	-42.370070	117.238065	-0.338144	0.656883	0.673917	-0.908201	-0.415446	-0.050753	0.246637	-0.629214	0.737062						
57166		6.655010	-0.511638	7.722912	-0.495963	-0.291191	0.215336	-0.789214	-3.958932	-42.316215	117.240077	-0.338457	0.657434	0.673222	-0.908250	-0.415302	-0.051052	0.246027	-0.628732	0.737676						
57167		6.675963	-0.562658	7.656694	-0.496098	-0.290784	0.215252	-0.789302	-3.973777	-42.268434	117.235585	-0.338662	0.657959	0.672605	-0.908326	-0.415106	-0.051282	0.245461	-0.628312	0.738223						
57168		6.603438	-0.627475	7.670242	-0.496251	-0.290391	0.215172	-0.789372	-3.986863	-42.222552	117.227524	-0.338816	0.658486	0.672012	-0.908422	-0.414872	-0.051488	0.244895	-0.627916	0.738748						
57169		6.588557	-0.743250	7.673548	-0.496355	-0.290103	0.215096	-0.789434	-3.994843	-42.187783	117.222400	-0.338943	0.658879	0.671563	-0.908479	-0.414731	-0.051619	0.244507	-0.627596	0.739148						
57170		6.696369	-0.728424	7.759851	-0.496395	-0.289897	0.215041	-0.789499	-4.002814	-42.162698	117.224638	-0.339104	0.659127	0.671238	-0.908486	-0.414699	-0.051743	0.244257	-0.627357	0.739434						
57171		6.756030	-0.729856	7.828828	-0.496382	-0.289784	0.214976	-0.789567	-4.005417	-42.146459	117.230753	-0.339261	0.659260	0.671028	-0.908446	-0.414781	-0.051790	0.244187	-0.627163	0.739621						
57172		6.617651	-0.723777	7.797881	-0.496298	-0.289734	0.214897	-0.789659	-4.005633	-42.135633	117.245166	-0.339485	0.659287	0.670888	-0.908339	-0.415015	-0.051801	0.244277	-0.626979	0.739747						
57173		6.484248	-0.608147	7.826408	-0.496158	-0.289842	0.214820	-0.789729	-3.996967	-42.141374	117.261141	-0.339638	0.659133	0.670962	-0.908188	-0.415359	-0.051685	0.244623	-0.626914	0.739688						
57174		6.499948	-0.502635	7.786001	-0.496017	-0.290056	0.214793	-0.789746	-3.985316	-42.161567	117.273235	-0.339669	0.658851	0.671224	-0.908059	-0.415662	-0.051518	0.245059	-0.627010	0.739463						
57175		6.454993	-0.501432	7.748211	-0.495891	-0.290377	0.214840	-0.789695	-3.972742	-42.197795	117.279673	-0.339548	0.658435	0.671692	-0.907973	-0.415873	-0.051326	0.245543	-0.627306	0.739050						
57176		6.453682	-0.566100	7.686640	-0.495756	-0.290780	0.214967	-0.789596	-3.963165	-42.247899	117.285570	-0.339346	0.657878	0.672340	-0.907910	-0.416031	-0.051162	0.246056	-0.627786	0.738473						
57177		6.583849	-0.553006	7.663085	-0.495596	-0.291289	0.215141	-0.789462	-3.952147	-42.312150	117.291739	-0.339071	0.657171	0.673169	-0.907844	-0.416199	-0.050968	0.246678	-0.628415	0.737730						
57178		6.680069	-0.558529	7.653415	-0.495411	-0.291791	0.215371	-0.789330	-3.949884	-42.379054	117.304069	-0.338852	0.656399	0.674032	-0.907772	-0.416366	-0.050885	0.247244	-0.629110	0.736947						
57179		6.701941	-0.620375	7.560628	-0.495187	-0.292337	0.215620	-0.789200	-3.948753	-42.451771	117.321382	-0.338657	0.655536	0.674969	-0.907671	-0.416595	-0.050811	0.247881	-0.629858	0.736094						
57180		6.742927	-0.559117	7.540763	-0.494938	-0.292891	0.215840	-0.789091	-3.945253	-42.523281	117.341629	-0.338502	0.654668	0.675890	-0.907538	-0.416898	-0.050708	0.248580	-0.630560	0.735256						
57181		6.730354	-0.488210	7.526989	-0.494712	-0.293432	0.216065	-0.788970	-3.942010	-42.593974	117.358858	-0.338315	0.653825	0.676799	-0.907427	-0.417151	-0.050609	0.249238	-0.631267	0.734427						
57182		6.670949	-0.491861	7.512311	-0.494504	-0.293978	0.216312	-0.788829	-3.939682	-42.666610	117.373329	-0.338085	0.652977	0.677731	-0.907341	-0.417349	-0.050520	0.249862	-0.632013	0.733572						
57183		6.700227	-0.486842	7.475861	-0.494330	-0.294544	0.216580	-0.788653	-3.935784	-42.742987	117.381453	-0.337762	0.652126	0.678711	-0.907295	-0.417461	-0.050408	0.250463	-0.632817	0.732674						
57184		6.767890	-0.505623	7.420156	-0.494182	-0.295108	0.216865	-0.788457	-3.932508	-42.820333	117.385877	-0.337391	0.651286	0.679702	-0.907280	-0.417507	-0.050304	0.251018	-0.633652	0.731762						
57185		6.762786	-0.518613	7.398377	-0.494060	-0.295707	0.217175	-0.788224	-3.927362	-42.903169	117.384646	-0.336924	0.650420	0.680761	-0.907300	-0.417480	-0.050171	0.251572	-0.634558	0.730785						
57186		6.791140	-0.560657	7.416646	-0.493972	-0.296295	0.217498	-0.787970	-3.922460	-42.985853	117.378518	-0.336403	0.649583	0.681818	-0.907356	-0.417373	-0.050041	0.252067	-0.635485	0.729809						
57187		6.853459	-0.616102	7.456399	-0.493889	-0.296893	0.217834	-0.787703	-3.917758	-43.070558	117.371162	-0.335856	0.648730	0.682898	-0.907423	-0.417243	-0.049912	0.252555	-0.636441	0.728806						
57188		6.794368	-0.666854	7.496213	-0.493784	-0.297523	0.218188	-0.787433	-3.914036	-43.159692	117.366541	-0.335314	0.647813	0.684034	-0.907476	-0.417143	-0.049792	0.253084	-0.637441	0.727749						
57189		6.680498	-0.650161	7.526730	-0.493626	-0.298263	0.218571	-0.787146	-3.908147	-43.262249	117.365963	-0.334745	0.646728	0.685339	-0.907495	-0.417120	-0.049634	0.253769	-0.638556	0.726531						
57190		6.729326	-0.630096	7.498628	-0.493435	-0.299100	0.218988	-0.786832	-3.900308	-43.377071	117.366762	-0.334122	0.645502	0.686797	-0.907500	-0.417132	-0.049441	0.254571	-0.639787	0.725166						
57191		6.750119	-0.503204	7.526399	-0.493231	-0.300028	0.219440	-0.786481	-3.889824	-43.503704	117.365936	-0.333414	0.644157	0.688401	-0.907510	-0.417139	-0.049205	0.255464	-0.641137	0.723659						
57192		6.801795	-0.482506	7.495382	-0.493043	-0.301007	0.219942	-0.786084	-3.879748	-43.639274	117.360791	-0.332606	0.642739	0.690116	-0.907555	-0.417068	-0.048967	0.256352	-0.642605	0.722040						
57193		6.892475	-0.469608	7.425203	-0.492895	-0.302021	0.220461	-0.785643	-3.865869	-43.779833	117.347256	-0.331676	0.641312	0.691889	-0.907647	-0.416903	-0.048678	0.257232	-0.644136	0.720361						
57194		6.917447	-0.519439	7.364377	-0.492760	-0.303008	0.221015	-0.785192	-3.857371	-43.920029	117.333880	-0.330748	0.639883	0.693654	-0.907760	-0.416681	-0.048457	0.258025	-0.645698	0.718677						
57195		6.960484	-0.628691	7.349530	-0.492596	-0.304014	0.221551	-0.784755	-3.847173	-44.060888	117.323733	-0.329851	0.638425	0.695422	-0.907843	-0.416530	-0.048215	0.258882	-0.647238	0.716982						
57196		6.928994	-0.595587	7.262227	-0.492424	-0.305022	0.222074	-0.784324	-3.835576	-44.201198	117.314153	-0.328961	0.636965	0.697180	-0.907914	-0.416404	-0.047956	0.259763	-0.648755	0.715290						
57197		6.825046	-0.572481	7.229731	-0.492239	-0.306072	0.222601	-0.783881	-3.821598	-44.346303	117.304291	-0.328041	0.635451	0.698993	-0.907978	-0.416299	-0.047663	0.260703	-0.650306	0.713538						
57198		6.775201	-0.542785	7.170497	-0.492031	-0.307202	0.223158	-0.783411	-3.805945	-44.501862	117.294837	-0.327064	0.633816	0.700932	-0.908034	-0.416212	-0.047342	0.261730	-0.651955	0.711655						
57199		6.866987	-0.576221	7.152747	-0.491830	-0.308400	0.223730	-0.782903	-3.785615	-44.665688	117.280450	-0.325985	0.632114	0.702969	-0.908107	-0.416096	-0.046957	0.262820	-0.653679	0.709669						
57200		6.953100	-0.540928	7.159473	-0.491587	-0.309646	0.224304	-0.782400	-3.764167	-44.834735	117.270455	-0.324923	0.630325	0.705064	-0.908145	-0.416060	-0.046555	0.264004	-0.655427	0.707614						
57201		7.095869	-0.525190	7.116346	-0.491356	-0.310903	0.224871	-0.781883	-3.739716	-45.004607	117.256938	-0.323816	0.628540	0.707164	-0.908193	-0.416004	-0.046117	0.265197	-0.657174	0.705544						
57202		7.182009	-0.489411	7.122017	-0.491129	-0.312112	0.225414	-0.781388	-3.716221	-45.167919	117.244577	-0.322756	0.626816	0.709176	-0.908233	-0.415961	-0.045696	0.266347	-0.658846	0.703549						
57203		7.201561	-0.485005	7.102547	-0.490929	-0.313261	0.225922	-0.780906	-3.691570	-45.322799	117.229380	-0.321712	0.625194	0.711079	-0.908285	-0.415895	-0.045270	0.267432	-0.660427	0.701653						
57204		7.175678	-0.534482	7.007488	-0.490752	-0.314345	0.226406	-0.780442	-3.667753	-45.469322	117.212867	-0.320699	0.623668	0.712875	-0.908346	-0.415806	-0.044862	0.268438	-0.661925	0.699855						
57205		7.126887	-0.530106	6.927011	-0.490565	-0.315438	0.226870	-0.779984	-3.641458	-45.615522	117.196725	-0.319691	0.622138	0.714662	-0.908392	-0.415752	-0.044425	0.269484	-0.663396	0.698058						
57206		7.087396	-0.459006	6.903254	-0.490373	-0.316486	0.227349	-0.779540	-3.620911	-45.758012	117.184157	-0.318741	0.620625	0.716400	-0.908437	-0.415693	-0.044062	0.270456	-0.664848	0.696298						
57207		7.088599	-0.469463	6.874273	-0.490197	-0.317548	0.227809	-0.779085	-3.595659	-45.900780	117.167161	-0.317741	0.619130	0.718136	-0.908491	-0.415620	-0.043643	0.271451	-0.666287	0.694533						
57208		7.103289	-0.454860	6.897811	-0.490020	-0.318607	0.228301	-0.778620	-3.574368	-46.045459	117.151324	-0.316741	0.617602	0.719891	-0.908555	-0.415519	-0.043272	0.272403	-0.667766	0.692737						
57209		7.083082	-0.411916	6.882256	-0.489825	-0.319690	0.228834	-0.778142	-3.557138	-46.195463	117.138226	-0.315739	0.615995	0.721705	-0.908619	-0.415412	-0.042947	0.273350	-0.669315	0.690867						
57210		7.188837	-0.467437	6.971056	-0.489624	-0.320806	0.229401	-0.777642	-3.541225	-46.351274	117.125124	-0.314703	0.614318	0.723585	-0.908691	-0.415287	-0.042634	0.274305	-0.670932	0.688917						
57211		7.311763	-0.471835	6.973345	-0.489414	-0.321964	0.229977	-0.777125	-3.523360	-46.512157	117.111145	-0.313625	0.612584	0.725520	-0.908761	-0.415169	-0.042294	0.275305	-0.672589	0.686900						
57212		7.312530	-0.456602	6.963932	-0.489188	-0.323110	0.230553	-0.776621	-3.507725	-46.671846	117.100594	-0.312590	0.610839	0.727436	-0.908816	-0.415080	-0.041982	0.276300	-0.674228	0.684890						
57213		7.262527	-0.442753	6.923183	-0.488961	-0.324309	0.231143	-0.776089	-3.488668	-46.838180	117.086904	-0.311481	0.609031	0.729425	-0.908878	-0.414980	-0.041626	0.277345	-0.675924	0.682794						
57214		7.214473	-0.460468	6.919623	-0.488717	-0.325500	0.231768	-0.775557	-3.475891	-47.005980	117.077846	-0.310411	0.607176	0.731425	-0.908937	-0.414879	-0.041344	0.278350	-0.677653	0.680668						
57215		7.096836	-0.452363	6.876763	-0.488433	-0.326803	0.232429	-0.774990	-3.460284	-47.188235	117.069893	-0.309267	0.605144	0.733590	-0.908978	-0.414821	-0.041018	0.279487	-0.679503	0.678353						
57216		6.877448	-0.456994	6.890510	-0.488119	-0.328266	0.233166	-0.774349	-3.441445	-47.392568	117.059387	-0.307964	0.602867	0.736009	-0.909028	-0.414748	-0.040638	0.280760	-0.681568	0.675751						
57217		6.726264	-0.398270	6.887993	-0.487737	-0.329983	0.234049	-0.773593	-3.422429	-47.633769	117.049608	-0.306449	0.600155	0.738853	-0.909083	-0.414668	-0.040228	0.282236	-0.684006	0.672665						
57218		6.864158	-0.438151	6.973863	-0.487273	-0.331980	0.235116	-0.772706	-3.406284	-47.917248	117.042372	-0.304707	0.596930	0.742178	-0.909146	-0.414570	-0.039821	0.283914	-0.686881	0.669019						
57219		7.410364	-0.538806	6.977289	-0.486727	-0.334143	0.236288	-0.771760	-3.394119	-48.225465	117.042562	-0.302890	0.593365	0.745772	-0.909181	-0.414529	-0.039442	0.285741	-0.689988	0.665032						
57220		7.720234	-0.476029	6.999886	-0.486129	-0.336305	0.237446	-0.770842	-3.384284	-48.532698	117.051076	-0.301155	0.589750	0.749334	-0.909166	-0.414596	-0.039091	0.287617	-0.693041	0.661038						
57221		7.646712	-0.402420	6.866848	-0.485545	-0.338404	0.238593	-0.769936	-3.377579	-48.832977	117.060098	-0.299457	0.586197	0.752794	-0.909160	-0.414638	-0.038782	0.289404	-0.696023	0.657113						
57222		7.610425	-0.383860	6.750253	-0.485004	-0.340456	0.239710	-0.769025	-3.367679	-49.126714	117.062494	-0.297722	0.582740	0.756159	-0.909182	-0.414621	-0.038441	0.291118	-0.698931	0.653258						
57223		7.539745	-0.373197	6.695063	-0.484504	-0.342460	0.240856	-0.768092	-3.362178	-49.417739	117.060796	-0.295953	0.579321	0.759473	-0.909255	-0.414488	-0.038152	0.292690	-0.701846	0.649419						
57224		7.471557	-0.415472	6.596603	-0.484072	-0.344432	0.242004	-0.767121	-3.353763	-49.706088	117.047930	-0.294082	0.575976	0.762737	-0.909392	-0.414217	-0.037833	0.294147	-0.704753	0.645601						
57225		7.387196	-0.450559	6.569805	-0.483674	-0.346462	0.243186	-0.766083	-3.340382	-50.003435	117.024756	-0.292046	0.572561	0.766083	-0.909579	-0.413840	-0.037451	0.295592	-0.707751	0.641650						
57226		7.426900	-0.504233	6.546140	-0.483276	-0.348562	0.244400	-0.764995	-3.323790	-50.310930	116.996965	-0.289898	0.569031	0.769521	-0.909785	-0.413426	-0.037026	0.297071	-0.710833	0.637547						
57227		7.411030	-0.527946	6.455647	-0.482824	-0.350780	0.245649	-0.763866	-3.303972	-50.633851	116.971030	-0.287669	0.565288	0.773108	-0.909963	-0.413075	-0.036555	0.298688	-0.714016	0.633220						
57228		7.623880	-0.540299	6.443026	-0.482318	-0.353064	0.246917	-0.762723	-3.284185	-50.965329	116.950064	-0.285430	0.561396	0.776765	-0.910106	-0.412802	-0.036080	0.300395	-0.717237	0.628756						
57229		7.881528	-0.487686	6.380293	-0.481792	-0.355369	0.248147	-0.761586	-3.258613	-51.297064	116.928755	-0.283179	0.557483	0.780398	-0.910219	-0.412600	-0.035543	0.302178	-0.720398	0.624272						
57230		7.982918	-0.435084	6.335660	-0.481228	-0.357566	0.249364	-0.760515	-3.245138	-51.616405	116.921207	-0.281132	0.553634	0.783871	-0.910291	-0.412474	-0.035149	0.303867	-0.723433	0.619928						
57231		8.032288	-0.426654	6.261736	-0.480700	-0.359687	0.250487	-0.759479	-3.223236	-51.921610	116.907422	-0.279105	0.549970	0.787168	-0.910358	-0.412366	-0.034677	0.305530	-0.726283	0.615763						
57232		7.995820	-0.427998	6.225205	-0.480175	-0.361677	0.251562	-0.758510	-3.207696	-52.209729	116.900352	-0.277243	0.546468	0.790259	-0.910404	-0.412297	-0.034288	0.307084	-0.728961	0.611813						
57233		7.995823	-0.360523	6.083668	-0.479706	-0.363557	0.252591	-0.757566	-3.191783	-52.483274	116.888114	-0.275417	0.543156	0.793176	-0.910480	-0.412160	-0.033908	0.308498	-0.731510	0.608048						
57234		7.918780	-0.376266	6.013929	-0.479272	-0.365338	0.253575	-0.756654	-3.176484	-52.743396	116.874054	-0.273653	0.540005	0.795932	-0.910568	-0.411995	-0.033545	0.309806	-0.733930	0.604456						
57235		7.786060	-0.367814	5.942768	-0.478839	-0.367116	0.254559	-0.755737	-3.160864	-53.003431	116.859249	-0.271879	0.536848	0.798672	-0.910658	-0.411826	-0.033181	0.311100	-0.736338	0.600852						
57236		7.773110	-0.362234	5.851237	-0.478385	-0.368915	0.255542	-0.754817	-3.144574	-53.266003	116.846142	-0.270100	0.533639	0.801421	-0.910732	-0.411692	-0.032809	0.312430	-0.738742	0.597200						
57237		7.785367	-0.336010	5.869280	-0.477935	-0.370729	0.256538	-0.753874	-3.127269	-53.531434	116.830538	-0.268276	0.530394	0.804183	-0.910818	-0.411533	-0.032426	0.313749	-0.741164	0.593497						
57238		8.027316	-0.413721	5.825169	-0.477457	-0.372529	0.257492	-0.752964	-3.108466	-53.792657	116.819192	-0.266514	0.527169	0.806885	-0.910863	-0.411465	-0.032032	0.315118	-0.743498	0.589840						
57239		8.179157	-0.443765	5.803908	-0.476955	-0.374233	0.258371	-0.752135	-3.091960	-54.038431	116.816565	-0.264926	0.524088	0.809411	-0.910852	-0.411516	-0.031675	0.316485	-0.745645	0.586388						
57240		8.134963	-0.446128	5.777044	-0.476467	-0.375877	0.259207	-0.751337	-3.074664	-54.274881	116.813853	-0.263392	0.521115	0.811828	-0.910835	-0.411582	-0.031319	0.317813	-0.747690	0.583057						
57241		8.148253	-0.435365	5.816316	-0.475966	-0.377517	0.260001	-0.750558	-3.052827	-54.508317	116.811209	-0.261874	0.518171	0.814200	-0.910789	-0.411712	-0.030920	0.319194	-0.749662	0.579761						
57242		8.171372	-0.457432	5.761640	-0.475495	-0.379136	0.260761	-0.749776	-3.025463	-54.737464	116.802126	-0.260321	0.515301	0.816515	-0.910757	-0.411816	-0.030471	0.320553	-0.751579	0.576519						
57243		8.050943	-0.380696	5.753024	-0.475044	-0.380759	0.261494	-0.748984	-2.990944	-54.965541	116.786125	-0.258711	0.512469	0.818807	-0.910733	-0.411908	-0.029954	0.321923	-0.753464	0.573287						
57244		8.018795	-0.377460	5.697893	-0.474604	-0.382409	0.262222	-0.748167	-2.951227	-55.196514	116.764568	-0.257029	0.509614	0.821114	-0.910718	-0.411982	-0.029386	0.323308	-0.755357	0.570007						
57245		8.007612	-0.374680	5.670114	-0.474186	-0.384078	0.262962	-0.747317	-2.907771	-55.430817	116.736176	-0.255264	0.506739	0.823442	-0.910730	-0.411998	-0.028783	0.324671	-0.757280	0.566670						
57246		8.061370	-0.323658	5.637302	-0.473757	-0.385741	0.263697	-0.746473	-2.864883	-55.664317	116.709412	-0.253517	0.503856	0.825747	-0.910731	-0.412036	-0.028191	0.326033	-0.759181	0.563335						
57247		8.122151	-0.330214	5.618741	-0.473335	-0.387405	0.264446	-0.745613	-2.822146	-55.899146	116.680626	-0.251742	0.500955	0.828052	-0.910746	-0.412044	-0.027604	0.327365	-0.761094	0.559971						
57248		8.145662	-0.298037	5.608030	-0.472907	-0.389065	0.265216	-0.744747	-2.782855	-56.135264	116.653794	-0.249974	0.498019	0.830355	-0.910764	-0.412039	-0.027054	0.328665	-0.763021	0.556577						
57249		8.155196	-0.322766	5.584679	-0.472489	-0.390722	0.265986	-0.743869	-2.742091	-56.371258	116.624027	-0.248181	0.495087	0.832644	-0.910794	-0.412011	-0.026494	0.329941	-0.764942	0.553175						
57250		8.191976	-0.260425	5.564055	-0.472097	-0.392352	0.266766	-0.742980	-2.702026	-56.605347	116.590633	-0.246367	0.492185	0.834899	-0.910851	-0.411920	-0.025947	0.331141	-0.766861	0.549791						
57251		8.227088	-0.301494	5.586138	-0.471724	-0.393975	0.267562	-0.742072	-2.662068	-56.840039	116.553715	-0.244519	0.489281	0.837147	-0.910932	-0.411774	-0.025404	0.332285	-0.768795	0.546388						
57252		8.219096	-0.341066	5.554402	-0.471364	-0.395596	0.268349	-0.741154	-2.618875	-57.074177	116.512646	-0.242639	0.486391	0.839375	-0.911022	-0.411610	-0.024836	0.333415	-0.770715	0.542985						
57253		8.242760	-0.308753	5.543212	-0.470990	-0.397244	0.269132	-0.740226	-2.572666	-57.311260	116.470601	-0.240732	0.483455	0.841617	-0.911100	-0.411473	-0.024242	0.334582	-0.772633	0.539531						
57254		8.284170	-0.261493	5.539880	-0.470623	-0.398894	0.269933	-0.739280	-2.526699	-57.550081	116.426409	-0.238796	0.480495	0.843861	-0.911193	-0.411301	-0.023654	0.335715	-0.774568	0.536041						
57255		8.260455	-0.288779	5.521078	-0.470269	-0.400599	0.270737	-0.738288	-2.471891	-57.795750	116.372587	-0.236735	0.477473	0.846154	-0.911302	-0.411097	-0.022985	0.336877	-0.776543	0.532443						
57256		8.228117	-0.285076	5.465096	-0.469894	-0.402320	0.271591	-0.737277	-2.423717	-58.046720	116.323205	-0.234678	0.474350	0.848480	-0.911416	-0.410877	-0.022381	0.338004	-0.778571	0.528754						
57257		8.300292	-0.322116	5.477725	-0.469512	-0.404101	0.272482	-0.736216	-2.372884	-58.307400	116.269515	-0.232522	0.471103	0.850879	-0.911545	-0.410624	-0.021751	0.339144	-0.780672	0.524911						
57258		8.326764	-0.289368	5.461989	-0.469101	-0.405927	0.273399	-0.735132	-2.322362	-58.575164	116.217316	-0.230334	0.467743	0.853325	-0.911664	-0.410393	-0.021127	0.340317	-0.782812	0.520951						
57259		8.312417	-0.297195	5.388700	-0.468696	-0.407827	0.274346	-0.733986	-2.264632	-58.853621	116.156061	-0.228002	0.464261	0.855849	-0.911804	-0.410118	-0.020438	0.341510	-0.785026	0.516822						
57260		8.309990	-0.309110	5.372892	-0.468290	-0.409768	0.275324	-0.732796	-2.204603	-59.139291	116.090089	-0.225588	0.460685	0.858417	-0.911961	-0.409801	-0.019732	0.342690	-0.787294	0.512573						
57261		8.364165	-0.309572	5.284133	-0.467889	-0.411793	0.276349	-0.731531	-2.137978	-59.438035	116.014350	-0.223013	0.456954	0.861080	-0.912148	-0.409422	-0.018969	0.343877	-0.789662	0.508116						
57262		8.285650	-0.296516	5.242544	-0.467473	-0.413882	0.277381	-0.730226	-2.063731	-59.744943	115.932728	-0.220342	0.453117	0.863791	-0.912328	-0.409058	-0.018144	0.345119	-0.792059	0.503523						
57263		8.284382	-0.238752	5.248405	-0.467046	-0.416073	0.278487	-0.728832	-1.985930	-60.069053	115.843592	-0.217503	0.449054	0.866627	-0.912538	-0.408626	-0.017291	0.346362	-0.794592	0.498656						
57264		8.393900	-0.192683	5.176185	-0.466617	-0.418351	0.279616	-0.727369	-1.897102	-60.405010	115.742946	-0.214503	0.444851	0.869538	-0.912761	-0.408168	-0.016349	0.347644	-0.797187	0.493595						
57265		8.403245	-0.156554	5.123049	-0.466193	-0.420694	0.280822	-0.725824	-1.807052	-60.754362	115.634481	-0.211363	0.440468	0.872533	-0.913027	-0.407607	-0.015406	0.348865	-0.799903	0.488312						
