// Start Time: Unknown
// Update Rate: 60.0Hz
//Filter Profile: human (46.1)
// Option Flags: AHS Disabled ICC Disabled
// Firmware Version: 4.0.2
0	sampleTimeFine	Year	Month	Day	Second	UTC_Nano	UTC_Year	UTC_Month	UTC_Day	UTC_Hour	UTC_Minute	UTC_Second	UTC_Valid	Acc_X	Acc_Y	Acc_Z	Mat[1][1]	Mat[2][1]	Mat[3][1]	Mat[1][2]	Mat[2][2]	Mat[3][2]	Mat[1][3]	Mat[2][3]	Mat[3][3]
0	295048													0.000000	0.000000	0.000000	-0.212685	-0.965351	0.151202	0.036532	0.146778	0.988495	-0.976438	0.215762	0.004049
1	295215													9.546673	0.267637	-2.126745	-0.213652	-0.964960	0.152334	0.035268	0.148214	0.988326	-0.976273	0.216531	0.002366
2	295382													9.566993	0.267660	-2.125102	-0.214810	-0.964762	0.151956	0.033316	0.148259	0.988387	-0.976087	0.217378	0.000295
3	295548													9.562633	0.280046	-2.123246	-0.215633	-0.964681	0.151304	0.031531	0.147990	0.988486	-0.975965	0.217921	-0.001495
4	295715													9.553236	0.284945	-2.139391	-0.216107	-0.964682	0.150618	0.030352	0.147551	0.988589	-0.975898	0.218213	-0.002606
5	295882													9.556055	0.272475	-2.107695	-0.216442	-0.964763	0.149616	0.029592	0.146695	0.988739	-0.975847	0.218432	-0.003202
6	296048													9.544057	0.292140	-2.104198	-0.216463	-0.964812	0.149269	0.029030	0.146466	0.988790	-0.975859	0.218369	-0.003696
7	296215													9.537233	0.296453	-2.127407	-0.216380	-0.964886	0.148914	0.028682	0.146180	0.988842	-0.975888	0.218237	-0.003955
8	296382													9.545455	0.309989	-2.096677	-0.216273	-0.964967	0.148544	0.028482	0.145844	0.988897	-0.975917	0.218103	-0.004058
9	296548													9.530657	0.340727	-2.105664	-0.216073	-0.965081	0.148095	0.028388	0.145404	0.988965	-0.975964	0.217892	-0.004021
10	296715													9.524141	0.338699	-2.076382	-0.215884	-0.965124	0.148085	0.028421	0.145386	0.988967	-0.976005	0.217711	-0.003956
11	296882													9.556578	0.338324	-2.076772	-0.215642	-0.965146	0.148299	0.028490	0.145589	0.988935	-0.976057	0.217481	-0.003898
12	297048													9.550815	0.313985	-2.058619	-0.215395	-0.965177	0.148451	0.028532	0.145734	0.988912	-0.976110	0.217242	-0.003852
13	297215													9.524714	0.292063	-2.051374	-0.215158	-0.965236	0.148411	0.028509	0.145697	0.988918	-0.976163	0.217005	-0.003830
14	297382													9.542590	0.267927	-2.077036	-0.214937	-0.965278	0.148461	0.028420	0.145768	0.988911	-0.976214	0.216773	-0.003898
15	297548													9.552649	0.252903	-2.070894	-0.214739	-0.965336	0.148368	0.028274	0.145704	0.988924	-0.976262	0.216556	-0.003995
16	297715													9.551303	0.241434	-2.075524	-0.214537	-0.965417	0.148134	0.028091	0.145504	0.988959	-0.976312	0.216330	-0.004097
17	297882													9.573406	0.241269	-2.064456	-0.214312	-0.965488	0.147994	0.027912	0.145399	0.988979	-0.976366	0.216081	-0.004213
18	298048													9.532711	0.265501	-2.063267	-0.214063	-0.965588	0.147705	0.027711	0.145146	0.989022	-0.976427	0.215806	-0.004313
19	298215													9.540550	0.284765	-2.068587	-0.213827	-0.965705	0.147280	0.027583	0.144738	0.989086	-0.976482	0.215556	-0.004312
20	298382													9.542642	0.314204	-2.068564	-0.213550	-0.965822	0.146915	0.027501	0.144382	0.989140	-0.976545	0.215271	-0.004272
21	298548													9.538610	0.308276	-2.072387	-0.213302	-0.965903	0.146745	0.027434	0.144221	0.989165	-0.976601	0.215017	-0.004264
22	298715													9.528181	0.320238	-2.045111	-0.213113	-0.965948	0.146719	0.027375	0.144206	0.989169	-0.976644	0.214822	-0.004290
23	298882													9.526223	0.304049	-2.039540	-0.213008	-0.965943	0.146905	0.027325	0.144407	0.989141	-0.976668	0.214709	-0.004366
24	299048													9.540051	0.297518	-2.042296	-0.212952	-0.965924	0.147115	0.027279	0.144632	0.989109	-0.976682	0.214646	-0.004450
25	299215													9.547828	0.270796	-2.034133	-0.212921	-0.965898	0.147327	0.027226	0.144861	0.989077	-0.976690	0.214606	-0.004547
26	299382													9.547834	0.257140	-2.057457	-0.212875	-0.965894	0.147420	0.027177	0.144966	0.989063	-0.976701	0.214553	-0.004609
27	299548													9.551828	0.275747	-2.076135	-0.212844	-0.965881	0.147550	0.027174	0.145101	0.989044	-0.976708	0.214522	-0.004637
28	299715													9.541386	0.280925	-2.095414	-0.212860	-0.965893	0.147452	0.027163	0.145003	0.989058	-0.976705	0.214536	-0.004629
29	300048													9.531783	0.269703	-2.071901	-0.212894	-0.965892	0.147405	0.027132	0.144961	0.989065	-0.976699	0.214565	-0.004655
30	300215													9.540338	0.295148	-2.057042	-0.212922	-0.965905	0.147277	0.027131	0.144831	0.989084	-0.976692	0.214594	-0.004632
31	300382													9.558765	0.322956	-2.075366	-0.212923	-0.965921	0.147177	0.027083	0.144738	0.989099	-0.976694	0.214588	-0.004658
32	300548													9.546860	0.319942	-2.075427	-0.212907	-0.965919	0.147209	0.027038	0.144781	0.989094	-0.976698	0.214565	-0.004708
33	300715													9.531751	0.315443	-2.081868	-0.212929	-0.965902	0.147293	0.026930	0.144891	0.989081	-0.976697	0.214570	-0.004839
34	300882													9.554571	0.323057	-2.062345	-0.212967	-0.965881	0.147375	0.026833	0.144997	0.989068	-0.976691	0.214594	-0.004962
35	301048													9.550884	0.286125	-2.078181	-0.212958	-0.965868	0.147469	0.026732	0.145115	0.989054	-0.976696	0.214569	-0.005084
36	301215													9.536697	0.257991	-2.088011	-0.212935	-0.965875	0.147460	0.026592	0.145137	0.989054	-0.976704	0.214526	-0.005220
37	301382													9.539322	0.261467	-2.091180	-0.212962	-0.965881	0.147384	0.026448	0.145091	0.989065	-0.976703	0.214531	-0.005354
38	301548													9.549986	0.275186	-2.109358	-0.212996	-0.965882	0.147324	0.026344	0.145052	0.989073	-0.976698	0.214550	-0.005450
39	301715													9.561577	0.314177	-2.101351	-0.213029	-0.965882	0.147275	0.026409	0.144988	0.989081	-0.976689	0.214592	-0.005378
40	301882													9.582665	0.301049	-2.084782	-0.212972	-0.965902	0.147231	0.026616	0.144897	0.989089	-0.976696	0.214567	-0.005151
41	302048													9.588241	0.315268	-2.076818	-0.212815	-0.965926	0.147300	0.026782	0.144931	0.989079	-0.976725	0.214436	-0.004974
42	302215													9.533774	0.342111	-2.070660	-0.212656	-0.965952	0.147361	0.026882	0.144970	0.989071	-0.976757	0.214293	-0.004862
43	302382													9.527889	0.392188	-2.047693	-0.212524	-0.965950	0.147560	0.026905	0.145168	0.989041	-0.976785	0.214165	-0.004862
44	302548													9.532440	0.372447	-2.038900	-0.212384	-0.965931	0.147885	0.026881	0.145505	0.988992	-0.976817	0.214021	-0.004938
45	302715													9.541768	0.326742	-2.040062	-0.212241	-0.965902	0.148282	0.026812	0.145926	0.988932	-0.976850	0.213867	-0.005074
46	302882													9.529724	0.296825	-2.036912	-0.212125	-0.965876	0.148616	0.026686	0.146295	0.988881	-0.976878	0.213733	-0.005258
47	303048													9.536151	0.239054	-2.058754	-0.212016	-0.965878	0.148756	0.026554	0.146466	0.988859	-0.976905	0.213604	-0.005405
48	303215													9.550099	0.253186	-2.033570	-0.211991	-0.965862	0.148899	0.026365	0.146654	0.988836	-0.976916	0.213550	-0.005624
49	303382													9.538940	0.278860	-2.040144	-0.212016	-0.965881	0.148740	0.026202	0.146527	0.988860	-0.976915	0.213552	-0.005758
50	303548													9.547284	0.319485	-2.023987	-0.212050	-0.965894	0.148607	0.026090	0.146416	0.988879	-0.976910	0.213569	-0.005848
51	303715													9.561951	0.347099	-2.046634	-0.212131	-0.965893	0.148495	0.026044	0.146311	0.988896	-0.976894	0.213643	-0.005881
52	303882													9.534111	0.329444	-2.047976	-0.212285	-0.965851	0.148547	0.025959	0.146385	0.988887	-0.976863	0.213782	-0.006003
53	304048													9.544615	0.334802	-2.065772	-0.212529	-0.965761	0.148788	0.025776	0.146673	0.988849	-0.976815	0.213994	-0.006278
54	304215													9.525825	0.382560	-2.070700	-0.212815	-0.965660	0.149028	0.025619	0.146955	0.988811	-0.976757	0.214252	-0.006535
55	304382													9.518103	0.366115	-2.073106	-0.213134	-0.965516	0.149512	0.025573	0.147462	0.988737	-0.976688	0.214557	-0.006738
56	304548													9.526351	0.307581	-2.120774	-0.213480	-0.965338	0.150166	0.025530	0.148144	0.988636	-0.976614	0.214888	-0.006981
57	304715													9.539732	0.292185	-2.129116	-0.213792	-0.965198	0.150617	0.025449	0.148627	0.988566	-0.976548	0.215181	-0.007212
58	304882													9.543388	0.284848	-2.085756	-0.214067	-0.965071	0.151037	0.025317	0.149088	0.988500	-0.976491	0.215429	-0.007482
59	305048													9.555147	0.289062	-2.118063	-0.214276	-0.964962	0.151438	0.025192	0.149528	0.988436	-0.976448	0.215613	-0.007731
60	305215													9.576840	0.297737	-2.125905	-0.214358	-0.964901	0.151710	0.025041	0.149840	0.988393	-0.976434	0.215669	-0.007957
61	305382													9.552210	0.305826	-2.122861	-0.214341	-0.964838	0.152136	0.024943	0.150299	0.988326	-0.976440	0.215634	-0.008149
62	305548													9.529191	0.308487	-2.132503	-0.214305	-0.964799	0.152433	0.024856	0.150621	0.988279	-0.976450	0.215582	-0.008298
63	305715													9.535592	0.310744	-2.109773	-0.214238	-0.964771	0.152703	0.024804	0.150909	0.988236	-0.976466	0.215506	-0.008400
64	305882													9.547018	0.327116	-2.103822	-0.214150	-0.964747	0.152978	0.024746	0.151203	0.988193	-0.976487	0.215407	-0.008506
65	306048													9.540770	0.346681	-2.119944	-0.214047	-0.964711	0.153352	0.024713	0.151592	0.988134	-0.976511	0.215297	-0.008607
66	306215													9.531054	0.356365	-2.097599	-0.213916	-0.964684	0.153706	0.024685	0.151959	0.988078	-0.976540	0.215160	-0.008693
67	306382													9.542216	0.349048	-2.097417	-0.213806	-0.964643	0.154112	0.024617	0.152389	0.988014	-0.976566	0.215038	-0.008835
68	306548													9.546131	0.330575	-2.074309	-0.213718	-0.964590	0.154563	0.024515	0.152873	0.987942	-0.976588	0.214930	-0.009025
69	306715													9.547826	0.308996	-2.094674	-0.213619	-0.964550	0.154953	0.024350	0.153308	0.987878	-0.976614	0.214803	-0.009263
70	306882													9.545516	0.290604	-2.065212	-0.213541	-0.964521	0.155242	0.024155	0.153646	0.987831	-0.976635	0.214692	-0.009512
71	307048													9.539960	0.287868	-2.086115	-0.213457	-0.964506	0.155447	0.023937	0.153903	0.987796	-0.976659	0.214573	-0.009765
72	307215													9.551038	0.259164	-2.061245	-0.213384	-0.964504	0.155560	0.023724	0.154065	0.987776	-0.976680	0.214466	-0.009994
73	307382													9.555148	0.267733	-2.072145	-0.213320	-0.964524	0.155524	0.023530	0.154070	0.987780	-0.976699	0.214373	-0.010171
74	307548													9.548915	0.282044	-2.047201	-0.213251	-0.964552	0.155443	0.023369	0.154021	0.987791	-0.976718	0.214280	-0.010305
75	307715													9.534279	0.306228	-2.062658	-0.213232	-0.964577	0.155316	0.023222	0.153924	0.987810	-0.976726	0.214239	-0.010422
76	307882													9.532976	0.324279	-2.064760	-0.213262	-0.964592	0.155181	0.023093	0.153814	0.987830	-0.976722	0.214250	-0.010527
77	308048													9.538875	0.322799	-2.063683	-0.213317	-0.964581	0.155176	0.022944	0.153842	0.987829	-0.976714	0.214281	-0.010686
78	308215													9.545250	0.337422	-2.067953	-0.213363	-0.964555	0.155275	0.022809	0.153974	0.987812	-0.976707	0.214304	-0.010852
79	308382													9.537380	0.318965	-2.081757	-0.213367	-0.964518	0.155499	0.022710	0.154225	0.987775	-0.976708	0.214290	-0.011002
80	308548													9.539097	0.307936	-2.066983	-0.213355	-0.964472	0.155802	0.022654	0.154547	0.987726	-0.976712	0.214266	-0.011124
81	308715													9.552788	0.306915	-2.078856	-0.213290	-0.964433	0.156130	0.022615	0.154891	0.987673	-0.976727	0.214191	-0.011226
82	308882													9.564795	0.291282	-2.092103	-0.213214	-0.964398	0.156449	0.022645	0.155210	0.987622	-0.976743	0.214118	-0.011254
83	309048													9.554549	0.290531	-2.086070	-0.213089	-0.964381	0.156724	0.022685	0.155482	0.987578	-0.976769	0.213997	-0.011255
84	309215													9.534955	0.286626	-2.078338	-0.212954	-0.964376	0.156936	0.022725	0.155688	0.987545	-0.976798	0.213868	-0.011239
85	309382													9.540962	0.309842	-2.082057	-0.212845	-0.964370	0.157121	0.022755	0.155870	0.987515	-0.976821	0.213763	-0.011232
86	309548													9.535721	0.307425	-2.067105	-0.212755	-0.964368	0.157258	0.022700	0.156021	0.987493	-0.976842	0.213663	-0.011304
87	309715													9.542730	0.341589	-2.083735	-0.212667	-0.964373	0.157347	0.022613	0.156130	0.987478	-0.976863	0.213562	-0.011397
88	309882													9.540016	0.342862	-2.065152	-0.212607	-0.964370	0.157445	0.022503	0.156253	0.987461	-0.976879	0.213484	-0.011519
89	310049													9.571285	0.344621	-2.078628	-0.212536	-0.964362	0.157586	0.022375	0.156425	0.987436	-0.976897	0.213392	-0.011668
90	310215													9.533569	0.323704	-2.097578	-0.212452	-0.964354	0.157752	0.022207	0.156631	0.987408	-0.976919	0.213280	-0.011861
91	310382													9.540434	0.331296	-2.067575	-0.212394	-0.964335	0.157942	0.022018	0.156866	0.987374	-0.976936	0.213190	-0.012084
92	310549													9.550545	0.319311	-2.074989	-0.212242	-0.964330	0.158180	0.021870	0.157140	0.987334	-0.976972	0.213013	-0.012262
93	310715													9.533406	0.301024	-2.071802	-0.212091	-0.964332	0.158370	0.021676	0.157375	0.987301	-0.977010	0.212830	-0.012475
94	310882													9.529640	0.283165	-2.053939	-0.212007	-0.964325	0.158526	0.021447	0.157584	0.987273	-0.977033	0.212709	-0.012727
95	311049													9.537596	0.276048	-2.084707	-0.211993	-0.964316	0.158601	0.021162	0.157722	0.987257	-0.977042	0.212647	-0.013029
96	311215													9.533110	0.304975	-2.068364	-0.212063	-0.964290	0.158661	0.021061	0.157806	0.987246	-0.977029	0.212700	-0.013156
97	311382													9.570971	0.299722	-2.071522	-0.212075	-0.964279	0.158714	0.021146	0.157842	0.987238	-0.977025	0.212724	-0.013083
98	311549													9.592364	0.298510	-2.048398	-0.212010	-0.964282	0.158782	0.021254	0.157887	0.987228	-0.977036	0.212677	-0.012979
99	311715													9.546521	0.309524	-2.050368	-0.211872	-0.964305	0.158826	0.021312	0.157918	0.987222	-0.977065	0.212550	-0.012907
100	311882													9.535613	0.363983	-2.032212	-0.211763	-0.964316	0.158903	0.021287	0.158001	0.987210	-0.977089	0.212437	-0.012931
101	312049													9.523751	0.365392	-2.004972	-0.211660	-0.964301	0.159131	0.021227	0.158246	0.987172	-0.977113	0.212323	-0.013025
102	312215													9.499190	0.328051	-2.025272	-0.211595	-0.964336	0.159010	0.021135	0.158141	0.987190	-0.977129	0.212246	-0.013080
103	312382													9.524447	0.302228	-2.010437	-0.211602	-0.964285	0.159308	0.021002	0.158475	0.987140	-0.977130	0.212226	-0.013282
104	312549													9.541374	0.275703	-2.000232	-0.211617	-0.964311	0.159128	0.020849	0.158324	0.987167	-0.977130	0.212219	-0.013399
105	312715													9.548593	0.254909	-2.037702	-0.211686	-0.964352	0.158790	0.020647	0.158023	0.987219	-0.977120	0.212259	-0.013540
106	312882													9.544248	0.265513	-2.045437	-0.211828	-0.964318	0.158807	0.020465	0.158082	0.987214	-0.977093	0.212369	-0.013751
107	313049													9.531628	0.296008	-2.032229	-0.212030	-0.964358	0.158293	0.020380	0.157578	0.987296	-0.977051	0.212563	-0.013758
108	313215													9.561350	0.341056	-2.041605	-0.212255	-0.964384	0.157835	0.020393	0.157109	0.987371	-0.977001	0.212793	-0.013680
109	313382													9.523940	0.312258	-2.069387	-0.212484	-0.964392	0.157475	0.020431	0.156736	0.987429	-0.976951	0.213030	-0.013600
110	313549													9.597890	0.287442	-2.079357	-0.212705	-0.964403	0.157110	0.020324	0.156388	0.987487	-0.976905	0.213236	-0.013664
111	313715													9.541609	0.335390	-2.083918	-0.212952	-0.964416	0.156697	0.020136	0.156009	0.987550	-0.976855	0.213456	-0.013803
112	313882													9.522756	0.361079	-2.076536	-0.213247	-0.964391	0.156445	0.020047	0.155775	0.987589	-0.976793	0.213737	-0.013885
113	314049													9.529171	0.303102	-2.081772	-0.213577	-0.964347	0.156269	0.020030	0.155603	0.987617	-0.976721	0.214062	-0.013918
114	314215													9.536181	0.258432	-2.108551	-0.213895	-0.964313	0.156041	0.019966	0.155389	0.987652	-0.976653	0.214369	-0.013984
115	314382													9.526684	0.262544	-2.123113	-0.214263	-0.964285	0.155713	0.019868	0.155080	0.987702	-0.976574	0.214721	-0.014070
116	314549													9.540502	0.272734	-2.122453	-0.214578	-0.964281	0.155302	0.019758	0.154688	0.987766	-0.976507	0.215022	-0.014140
117	314715													9.518627	0.289533	-2.124631	-0.214853	-0.964282	0.154916	0.019698	0.154310	0.987826	-0.976448	0.215289	-0.014159
118	314882													9.518321	0.309358	-2.134608	-0.215086	-0.964290	0.154539	0.019734	0.153918	0.987886	-0.976396	0.215530	-0.014076
119	315049													9.531952	0.306914	-2.134288	-0.215291	-0.964299	0.154198	0.019784	0.153561	0.987941	-0.976349	0.215746	-0.013982
120	315215													9.548975	0.303438	-2.147877	-0.215461	-0.964311	0.153884	0.019812	0.153236	0.987991	-0.976312	0.215922	-0.013911
121	315382													9.565102	0.299951	-2.154139	-0.215558	-0.964333	0.153612	0.019850	0.152950	0.988034	-0.976289	0.216028	-0.013828
122	315549													9.605053	0.306266	-2.147573	-0.215570	-0.964370	0.153364	0.019870	0.152692	0.988074	-0.976286	0.216047	-0.013754
123	315715													9.598516	0.341306	-2.160458	-0.215480	-0.964422	0.153162	0.019879	0.152482	0.988106	-0.976306	0.215961	-0.013685
124	315882													9.616581	0.314630	-2.145133	-0.215306	-0.964480	0.153039	0.019917	0.152345	0.988127	-0.976344	0.215798	-0.013592
125	316049													9.554478	0.273292	-2.125781	-0.215062	-0.964560	0.152878	0.019861	0.152189	0.988152	-0.976398	0.215550	-0.013573
126	316215													9.521501	0.308072	-2.073357	-0.214795	-0.964647	0.152705	0.019810	0.152019	0.988179	-0.976458	0.215281	-0.013543
127	316382													9.502902	0.315607	-2.053941	-0.214533	-0.964727	0.152571	0.019795	0.151882	0.988200	-0.976516	0.215022	-0.013487
128	316549													9.515736	0.284540	-2.061818	-0.214321	-0.964803	0.152385	0.019767	0.151694	0.988230	-0.976563	0.214811	-0.013440
129	316715													9.508198	0.274535	-2.105113	-0.214246	-0.964801	0.152502	0.019719	0.151823	0.988211	-0.976581	0.214728	-0.013503
130	316882													9.531404	0.257136	-2.094903	-0.214296	-0.964865	0.152027	0.019643	0.151354	0.988284	-0.976571	0.214772	-0.013482
131	317049													9.490048	0.299736	-2.112802	-0.214470	-0.964921	0.151429	0.019623	0.150749	0.988377	-0.976533	0.214949	-0.013397
132	317215													9.480521	0.310875	-2.117369	-0.214781	-0.964954	0.150774	0.019699	0.150065	0.988480	-0.976464	0.215277	-0.013223
133	317382													9.517634	0.315159	-2.122896	-0.215131	-0.964980	0.150110	0.019833	0.149361	0.988584	-0.976384	0.215652	-0.012994
134	317549													9.513938	0.337020	-2.133990	-0.215420	-0.965016	0.149462	0.019902	0.148685	0.988684	-0.976319	0.215957	-0.012824
135	317715													9.522898	0.367212	-2.141906	-0.215596	-0.965078	0.148802	0.019916	0.148009	0.988786	-0.976280	0.216141	-0.012690
136	317882													9.539122	0.400040	-2.129178	-0.215593	-0.965161	0.148271	0.019830	0.147483	0.988866	-0.976282	0.216132	-0.012657
137	318049													9.549791	0.366868	-2.113502	-0.215379	-0.965279	0.147814	0.019637	0.147055	0.988933	-0.976333	0.215898	-0.012717
138	318215													9.545451	0.339639	-2.121131	-0.214991	-0.965419	0.147459	0.019364	0.146746	0.988985	-0.976424	0.215478	-0.012855
139	318382													9.565669	0.305434	-2.089320	-0.214455	-0.965580	0.147189	0.019035	0.146535	0.989022	-0.976548	0.214902	-0.013045
140	318549													9.583862	0.288267	-2.067766	-0.213795	-0.965706	0.147321	0.018714	0.146731	0.988999	-0.976699	0.214200	-0.013298
141	318715													9.558729	0.266314	-2.029220	-0.213088	-0.965846	0.147431	0.018468	0.146887	0.988981	-0.976859	0.213462	-0.013462
142	318882													9.529423	0.260199	-2.036588	-0.212468	-0.966033	0.147094	0.018295	0.146572	0.989031	-0.976997	0.212829	-0.013469
143	319049													9.501513	0.256219	-2.029264	-0.212030	-0.966197	0.146652	0.018155	0.146144	0.989097	-0.977095	0.212380	-0.013446
144	319215													9.541322	0.276205	-2.024263	-0.211820	-0.966312	0.146195	0.018149	0.145674	0.989166	-0.977140	0.212179	-0.013319
145	319382													9.509485	0.248829	-2.015025	-0.211730	-0.966400	0.145745	0.018270	0.145186	0.989236	-0.977157	0.212113	-0.013084
146	319549													9.437115	0.247739	-2.018800	-0.211897	-0.966446	0.145196	0.018484	0.144580	0.989320	-0.977117	0.212318	-0.012772
147	319715													9.462590	0.313376	-2.024346	-0.212193	-0.966459	0.144678	0.018821	0.143980	0.989402	-0.977046	0.212667	-0.012362
148	319882													9.547846	0.289399	-2.044098	-0.212506	-0.966457	0.144228	0.019261	0.143428	0.989473	-0.976970	0.213047	-0.011865
149	320049													9.637734	0.300601	-2.110625	-0.212780	-0.966467	0.143758	0.019719	0.142850	0.989548	-0.976901	0.213391	-0.011338
150	320215													9.643947	0.350772	-2.142794	-0.213006	-0.966487	0.143289	0.020253	0.142256	0.989623	-0.976841	0.213697	-0.010727
151	320382													9.600128	0.341683	-2.161987	-0.213278	-0.966491	0.142855	0.020804	0.141694	0.989692	-0.976770	0.214052	-0.010113
152	320549													9.524746	0.389086	-2.179334	-0.213628	-0.966475	0.142438	0.021239	0.141175	0.989757	-0.976684	0.214465	-0.009632
153	320715													9.483943	0.466701	-2.157738	-0.214104	-0.966423	0.142076	0.021556	0.140739	0.989812	-0.976573	0.214985	-0.009301
154	320882													9.521029	0.540128	-2.119579	-0.214537	-0.966336	0.142013	0.021811	0.140622	0.989823	-0.976472	0.215452	-0.009092
155	321049													9.511931	0.546648	-2.097668	-0.214733	-0.966248	0.142320	0.021945	0.140909	0.989779	-0.976426	0.215662	-0.009054
156	321215													9.520825	0.496691	-2.082965	-0.214674	-0.966181	0.142860	0.021878	0.141477	0.989700	-0.976441	0.215588	-0.009233
157	321382													9.512917	0.399310	-2.061842	-0.214360	-0.966111	0.143803	0.021506	0.142521	0.989558	-0.976518	0.215214	-0.009774
158	321549													9.503431	0.301683	-2.065792	-0.213827	-0.966115	0.144572	0.020752	0.143469	0.989437	-0.976651	0.214568	-0.010629
159	321715													9.507305	0.217252	-2.055951	-0.213233	-0.966185	0.144979	0.019714	0.144106	0.989366	-0.976802	0.213824	-0.011681
160	321882													9.518694	0.153130	-2.037336	-0.212585	-0.966392	0.144548	0.018496	0.143923	0.989416	-0.976968	0.213008	-0.012722
161	322049													9.554634	0.118465	-2.016049	-0.211862	-0.966675	0.143717	0.017263	0.143331	0.989524	-0.977147	0.212123	-0.013678
162	322215													9.535073	0.063927	-2.054258	-0.211205	-0.967001	0.142482	0.016144	0.142299	0.989692	-0.977309	0.211328	-0.014443
163	322382													9.578585	0.076991	-2.027505	-0.210618	-0.967369	0.140844	0.015199	0.140817	0.989919	-0.977450	0.210635	-0.014955
164	322549													9.555522	0.165085	-2.020072	-0.210071	-0.967747	0.139053	0.014628	0.139100	0.990170	-0.977577	0.210041	-0.015064
165	322715													9.529928	0.236898	-2.023434	-0.209615	-0.968082	0.137398	0.014501	0.137426	0.990406	-0.977676	0.209597	-0.014768
166	322882													9.552598	0.285382	-2.026506	-0.209266	-0.968343	0.136084	0.014742	0.136026	0.990596	-0.977748	0.209304	-0.014190
167	323049													9.604959	0.361013	-2.045387	-0.208916	-0.968547	0.135171	0.015209	0.134986	0.990731	-0.977815	0.209035	-0.013470
168	323215													9.590036	0.405955	-2.062604	-0.208522	-0.968689	0.134757	0.015778	0.134435	0.990797	-0.977890	0.208730	-0.012748
169	323382													9.584637	0.421685	-2.067263	-0.208133	-0.968712	0.135193	0.016423	0.134739	0.990745	-0.977963	0.208427	-0.012134
170	323549													9.605312	0.400858	-2.087179	-0.207640	-0.968742	0.135735	0.017073	0.135149	0.990678	-0.978056	0.208022	-0.011523
171	323715													9.601935	0.367086	-2.131610	-0.207058	-0.968761	0.136487	0.017699	0.135779	0.990581	-0.978169	0.207524	-0.010968
172	323882													9.614925	0.312862	-2.145953	-0.206269	-0.968804	0.137378	0.018299	0.136553	0.990464	-0.978324	0.206816	-0.010438
173	324049													9.623410	0.278578	-2.155564	-0.205216	-0.968915	0.138169	0.018854	0.137234	0.990359	-0.978535	0.205842	-0.009894
174	324215													9.619899	0.298640	-2.139315	-0.203885	-0.969100	0.138838	0.019414	0.137787	0.990272	-0.978802	0.204597	-0.009279
175	324382													9.616899	0.308562	-2.118572	-0.202258	-0.969354	0.139444	0.019966	0.138275	0.990193	-0.979129	0.203059	-0.008613
176	324549													9.562684	0.338728	-2.125139	-0.200346	-0.969681	0.139927	0.020437	0.138655	0.990130	-0.979512	0.201228	-0.007961
177	324715													9.539169	0.360179	-2.070188	-0.198326	-0.970032	0.140375	0.020740	0.139035	0.990070	-0.979917	0.199268	-0.007456
178	324882													9.565916	0.394169	-2.061870	-0.196257	-0.970392	0.140790	0.020870	0.139416	0.990014	-0.980330	0.197236	-0.007109
179	325049													9.621123	0.362131	-2.043232	-0.194120	-0.970758	0.141234	0.020797	0.139868	0.989952	-0.980757	0.195107	-0.006963
180	325215													9.664557	0.335691	-1.978183	-0.191881	-0.971140	0.141665	0.020529	0.140344	0.989890	-0.981204	0.192849	-0.006993
181	325382													9.637801	0.294689	-1.945221	-0.189483	-0.971551	0.142072	0.020084	0.140828	0.989830	-0.981679	0.190410	-0.007172
182	325549													9.592868	0.248770	-1.920888	-0.187010	-0.971991	0.142339	0.019609	0.141173	0.989791	-0.982162	0.187892	-0.007341
183	325715													9.588058	0.210003	-1.887774	-0.184448	-0.972463	0.142462	0.019162	0.141363	0.989772	-0.982655	0.185292	-0.007440
184	325882													9.582956	0.191139	-1.833010	-0.181801	-0.972984	0.142303	0.018738	0.141261	0.989795	-0.983157	0.182612	-0.007450
185	326049													9.613243	0.208475	-1.769974	-0.179150	-0.973521	0.141991	0.018371	0.140991	0.989840	-0.983650	0.179939	-0.007374
186	326215													9.646282	0.223818	-1.731872	-0.176425	-0.974086	0.141531	0.018052	0.140560	0.989908	-0.984149	0.177199	-0.007214
187	326382													9.629114	0.252231	-1.708399	-0.173690	-0.974651	0.141020	0.017759	0.140074	0.989982	-0.984640	0.174454	-0.007020
188	326549													9.700122	0.281071	-1.688184	-0.170876	-0.975217	0.140545	0.017573	0.139604	0.990051	-0.985136	0.171645	-0.006718
189	326716													9.678421	0.275383	-1.652936	-0.167877	-0.975793	0.140161	0.017439	0.139217	0.990108	-0.985654	0.168661	-0.006355
190	326882													9.687201	0.281309	-1.656960	-0.164749	-0.976371	0.139850	0.017358	0.138895	0.990155	-0.986183	0.165554	-0.005935
191	327049													9.703273	0.310042	-1.648940	-0.161475	-0.976951	0.139618	0.017338	0.138644	0.990190	-0.986725	0.162311	-0.005449
192	327216													9.755712	0.275324	-1.639444	-0.157986	-0.977534	0.139523	0.017396	0.138521	0.990207	-0.987288	0.158866	-0.004879
193	327382													9.812406	0.321884	-1.596897	-0.154165	-0.978151	0.139475	0.017606	0.138421	0.990217	-0.987888	0.155112	-0.004118
194	327549													9.810563	0.357625	-1.535526	-0.149916	-0.978786	0.139653	0.018056	0.138516	0.990196	-0.988534	0.150968	-0.003093
195	327716													9.872662	0.310053	-1.516804	-0.145132	-0.979450	0.140050	0.018676	0.138811	0.990143	-0.989236	0.146317	-0.001854
196	327882													9.821070	0.243998	-1.483879	-0.139727	-0.980193	0.140350	0.019357	0.139010	0.990102	-0.990001	0.141061	-0.000450
197	328049													9.704359	0.254273	-1.411321	-0.133837	-0.980995	0.140487	0.020144	0.139040	0.990082	-0.990799	0.135340	0.001153
198	328216													9.682122	0.295787	-1.360532	-0.127740	-0.981813	0.140449	0.020999	0.138900	0.990084	-0.991585	0.129423	0.002874
199	328382													9.677743	0.328676	-1.300068	-0.121501	-0.982631	0.140265	0.021773	0.138639	0.990104	-0.992353	0.123352	0.004551
200	328549													9.722614	0.441991	-1.234249	-0.115178	-0.983431	0.139991	0.022354	0.138327	0.990134	-0.993093	0.117171	0.006051
201	328716													9.746873	0.455517	-1.174651	-0.108677	-0.984157	0.140086	0.022693	0.138427	0.990113	-0.993818	0.110781	0.007289
202	328882													9.758535	0.414043	-1.143197	-0.102086	-0.984844	0.140215	0.022726	0.138606	0.990087	-0.994516	0.104260	0.008232
203	329049													9.810928	0.441926	-1.056183	-0.095290	-0.985479	0.140541	0.022459	0.139019	0.990035	-0.995196	0.097497	0.008886
204	329216													9.704458	0.398017	-1.004797	-0.088411	-0.986058	0.140971	0.021975	0.139560	0.989970	-0.995842	0.090622	0.009330
205	329382													9.687147	0.395473	-0.894253	-0.081676	-0.986544	0.141631	0.021473	0.140331	0.989872	-0.996428	0.083890	0.009722
206	329549													9.673759	0.248637	-0.846365	-0.075179	-0.986947	0.142421	0.021014	0.141226	0.989754	-0.996949	0.077401	0.010123
207	329716													9.745118	0.210496	-0.770443	-0.068871	-0.987326	0.142981	0.020401	0.141898	0.989671	-0.997417	0.071077	0.010369
208	329882													9.754375	0.266057	-0.698200	-0.062696	-0.987676	0.143407	0.019808	0.142430	0.989607	-0.997836	0.064885	0.010634
209	330049													9.762816	0.268159	-0.641182	-0.056643	-0.987974	0.143870	0.019452	0.142982	0.989534	-0.998205	0.058849	0.011119
210	330216													9.810489	0.244378	-0.554603	-0.050534	-0.988239	0.144328	0.019298	0.143519	0.989459	-0.998536	0.052787	0.011818
211	330382													9.827107	0.206752	-0.513660	-0.044333	-0.988480	0.144711	0.019284	0.143979	0.989393	-0.998831	0.046653	0.012679
212	330549													9.829409	0.283769	-0.438145	-0.037927	-0.988718	0.144905	0.019438	0.144252	0.989350	-0.999091	0.040339	0.013748
213	330716													9.819709	0.213388	-0.404325	-0.031361	-0.988915	0.145131	0.019847	0.144558	0.989297	-0.999311	0.033906	0.015093
214	330882													9.819324	0.300029	-0.341157	-0.024548	-0.989109	0.145126	0.020392	0.144644	0.989274	-0.999491	0.027244	0.016619
215	331049													9.850931	0.299496	-0.297438	-0.017540	-0.989240	0.145245	0.021089	0.144869	0.989226	-0.999624	0.020414	0.018321
216	331216													9.886851	0.333412	-0.202454	-0.010199	-0.989335	0.145304	0.021854	0.145056	0.989182	-0.999709	0.013264	0.020142
217	331382													9.895950	0.337596	-0.133418	-0.002526	-0.989364	0.145441	0.022628	0.145348	0.989122	-0.999741	0.005789	0.022020
218	331549													9.888388	0.346755	-0.054551	0.005465	-0.989340	0.145518	0.023390	0.145607	0.989066	-0.999711	-0.002002	0.023937
219	331716													9.909864	0.380420	0.047402	0.013759	-0.989236	0.145679	0.024194	0.145979	0.988992	-0.999613	-0.010082	0.025942
220	331882													9.883437	0.396130	0.119550	0.022409	-0.989054	0.145843	0.024986	0.146389	0.988912	-0.999437	-0.018517	0.027993
221	332049													9.854036	0.366013	0.217132	0.031306	-0.988778	0.146078	0.025804	0.146901	0.988815	-0.999177	-0.027187	0.030113
222	332216													9.843345	0.353383	0.312746	0.040404	-0.988419	0.146273	0.026657	0.147407	0.988717	-0.998828	-0.036049	0.032304
223	332382													9.820959	0.329211	0.398335	0.049569	-0.987984	0.146392	0.027546	0.147869	0.988623	-0.998391	-0.044973	0.034545
224	332549													9.804211	0.332471	0.480429	0.058777	-0.987485	0.146350	0.028460	0.148201	0.988548	-0.997865	-0.053939	0.036815
225	332716													9.797368	0.343622	0.550779	0.068021	-0.986921	0.146149	0.029295	0.148401	0.988493	-0.997254	-0.062957	0.039006
226	332882													9.746592	0.336859	0.657483	0.077279	-0.986285	0.145840	0.030083	0.148518	0.988452	-0.996556	-0.071999	0.041148
227	333049													9.703343	0.360297	0.767427	0.086397	-0.985602	0.145345	0.030825	0.148465	0.988437	-0.995784	-0.080918	0.043208
228	333216													9.689198	0.382389	0.878505	0.095291	-0.984865	0.144780	0.031610	0.148362	0.988428	-0.994947	-0.089612	0.045269
229	333382													9.718859	0.423371	0.992936	0.103891	-0.984086	0.144160	0.032419	0.148218	0.988423	-0.994060	-0.098015	0.047302
230	333549													9.736560	0.450776	1.079450	0.112313	-0.983248	0.143555	0.033180	0.148100	0.988416	-0.993119	-0.106249	0.049258
231	333716													9.787032	0.475372	1.145887	0.120623	-0.982329	0.143105	0.033924	0.148153	0.988382	-0.992119	-0.114367	0.051195
232	333882													9.759526	0.502353	1.239380	0.128827	-0.981338	0.142760	0.034605	0.148320	0.988334	-0.991063	-0.122384	0.053066
233	334049													9.735247	0.458376	1.313033	0.137002	-0.980258	0.142563	0.035234	0.148651	0.988262	-0.989944	-0.130371	0.054904
234	334216													9.686759	0.471971	1.380250	0.145016	-0.979131	0.142384	0.035842	0.149010	0.988186	-0.988780	-0.138199	0.056703
235	334382													9.673390	0.453357	1.438430	0.152846	-0.977952	0.142295	0.036446	0.149468	0.988095	-0.987578	-0.145840	0.058488
236	334549													9.699729	0.467175	1.493354	0.160499	-0.976736	0.142219	0.037019	0.149942	0.988001	-0.986342	-0.153308	0.060223
237	334716													9.683650	0.488393	1.582931	0.168082	-0.975461	0.142209	0.037564	0.150495	0.987897	-0.985057	-0.160706	0.061938
238	334882													9.681814	0.513331	1.685266	0.175579	-0.974133	0.142256	0.038257	0.151143	0.987771	-0.983722	-0.167990	0.063805
239	335049													9.711489	0.507882	1.753138	0.183122	-0.972729	0.142353	0.039044	0.151884	0.987627	-0.982315	-0.175298	0.065793
240	335216													9.700514	0.466582	1.820110	0.190740	-0.971239	0.142525	0.039893	0.152740	0.987461	-0.980830	-0.182663	0.067879
241	335382													9.696094	0.492174	1.852200	0.198573	-0.969645	0.142680	0.040737	0.153619	0.987290	-0.979239	-0.190237	0.070005
242	335549													9.692829	0.494177	1.891888	0.206695	-0.967920	0.142853	0.041599	0.154568	0.987106	-0.977521	-0.198087	0.072213
243	335716													9.745420	0.556301	1.961830	0.215287	-0.966009	0.143102	0.042475	0.155662	0.986897	-0.975627	-0.206388	0.074544
244	335882													9.768392	0.543021	2.063873	0.224493	-0.963858	0.143458	0.043277	0.156931	0.986661	-0.973514	-0.215290	0.076943
245	336049													9.790795	0.529721	2.151210	0.234400	-0.961443	0.143820	0.043964	0.158274	0.986416	-0.971146	-0.224893	0.079368
246	336216													9.705420	0.511338	2.264879	0.244872	-0.958793	0.144063	0.044525	0.159550	0.986185	-0.968533	-0.235074	0.081760
247	336382													9.548469	0.500829	2.365463	0.255609	-0.955975	0.144140	0.045078	0.160716	0.985971	-0.965729	-0.245526	0.084174
248	336549													9.406350	0.511198	2.455436	0.266211	-0.953077	0.144137	0.045714	0.161848	0.985756	-0.962830	-0.255830	0.086655
249	336716													9.329416	0.533308	2.555518	0.276439	-0.950167	0.144099	0.046446	0.162976	0.985536	-0.959909	-0.265747	0.089185
250	336882													9.319767	0.530716	2.633996	0.286206	-0.947268	0.144118	0.047268	0.164185	0.985296	-0.957002	-0.275185	0.091766
251	337049													9.416890	0.540051	2.767225	0.295609	-0.944367	0.144177	0.048117	0.165449	0.985044	-0.954096	-0.284250	0.094348
252	337216													9.426579	0.581076	2.913347	0.304895	-0.941401	0.144231	0.049009	0.166750	0.984781	-0.951124	-0.293186	0.096978
253	337382													9.339683	0.636117	2.990951	0.313956	-0.938387	0.144438	0.050009	0.168263	0.984473	-0.948120	-0.301858	0.099755
254	337549													9.272714	0.624375	3.095288	0.322664	-0.935366	0.144841	0.051068	0.170007	0.984119	-0.945135	-0.310143	0.102623
255	337716													9.225946	0.616135	3.183286	0.330973	-0.932373	0.145390	0.052105	0.171895	0.983736	-0.942201	-0.318015	0.105474
256	337882													9.231427	0.633148	3.261849	0.338925	-0.929415	0.146005	0.053085	0.173835	0.983343	-0.939315	-0.325529	0.108255
257	338049													9.240250	0.660520	3.361639	0.346616	-0.926459	0.146735	0.054001	0.175882	0.982929	-0.936451	-0.332775	0.110993
258	338216													9.325373	0.672600	3.486393	0.354314	-0.923417	0.147520	0.054842	0.178001	0.982501	-0.933517	-0.340024	0.113710
259	338382													9.306007	0.665688	3.585807	0.362087	-0.920270	0.148314	0.055581	0.180143	0.982069	-0.930486	-0.347351	0.116377
260	338549													9.193455	0.657572	3.643113	0.369855	-0.917058	0.149038	0.056258	0.182223	0.981646	-0.927385	-0.354682	0.118988
261	338716													9.124278	0.658394	3.751611	0.377479	-0.913845	0.149656	0.056865	0.184183	0.981246	-0.924271	-0.361889	0.121491
262	338882													9.071658	0.628487	3.791008	0.384907	-0.910668	0.150105	0.057487	0.185975	0.980871	-0.921164	-0.368915	0.123934
263	339049													9.062974	0.639271	3.876716	0.392182	-0.907515	0.150368	0.058146	0.187593	0.980524	-0.918048	-0.375800	0.126339
264	339216													9.079161	0.680219	3.934230	0.399401	-0.904339	0.150501	0.058843	0.189113	0.980191	-0.914886	-0.382633	0.128746
265	339382													9.068415	0.724815	4.046679	0.406665	-0.901075	0.150622	0.059525	0.190655	0.979851	-0.911636	-0.389506	0.131169
266	339549													9.091184	0.726015	4.122506	0.414129	-0.897651	0.150733	0.060109	0.192210	0.979511	-0.908231	-0.396583	0.133556
267	339716													9.028335	0.746976	4.184465	0.421809	-0.894053	0.150820	0.060477	0.193715	0.979192	-0.904665	-0.403911	0.135780
268	339882													8.952869	0.762280	4.256062	0.429590	-0.890323	0.150921	0.060622	0.195185	0.978891	-0.900987	-0.411372	0.137823
269	340049													8.884099	0.776048	4.309005	0.437426	-0.886470	0.151093	0.060592	0.196693	0.978591	-0.897211	-0.418906	0.139752
270	340216													8.889509	0.748142	4.393797	0.445335	-0.882484	0.151321	0.060432	0.198244	0.978288	-0.893322	-0.426522	0.141616
271	340382													8.903186	0.722417	4.450614	0.453468	-0.878300	0.151513	0.060185	0.199784	0.977990	-0.889238	-0.434369	0.143456
272	340549													8.876602	0.754119	4.551945	0.461775	-0.873939	0.151638	0.059899	0.201291	0.977698	-0.884972	-0.442394	0.145300
273	340716													8.780145	0.743032	4.655078	0.470216	-0.869382	0.151896	0.059509	0.202951	0.977379	-0.880543	-0.450541	0.147166
274	340882													8.643847	0.660665	4.766413	0.478503	-0.864816	0.152080	0.059167	0.204557	0.977065	-0.876090	-0.458530	0.149050
275	341049													8.566817	0.650631	4.952434	0.486313	-0.860444	0.152105	0.058989	0.206009	0.976770	-0.871791	-0.466043	0.150942
276	341216													8.479844	0.670729	5.045003	0.493443	-0.856401	0.151960	0.058917	0.207220	0.976519	-0.867780	-0.472903	0.152708
277	341382													8.402926	0.710631	5.168038	0.499645	-0.852846	0.151685	0.058910	0.208159	0.976319	-0.864225	-0.478877	0.154246
278	341549													8.416562	0.729658	5.257404	0.504907	-0.849785	0.151442	0.058938	0.208980	0.976142	-0.861159	-0.483935	0.155600
279	341716													8.442946	0.713240	5.329760	0.509440	-0.847127	0.151152	0.058978	0.209615	0.976004	-0.858483	-0.488301	0.156748
280	341882													8.459339	0.728481	5.380388	0.513395	-0.844804	0.150768	0.059000	0.210021	0.975915	-0.856122	-0.492135	0.157667
281	342049													8.416617	0.720088	5.380937	0.516844	-0.842773	0.150356	0.058966	0.210263	0.975865	-0.854047	-0.495504	0.158368
282	342216													8.392830	0.694985	5.415781	0.519674	-0.841111	0.149902	0.058912	0.210315	0.975857	-0.852331	-0.498297	0.158847
283	342382													8.303833	0.731961	5.490290	0.521800	-0.839874	0.149454	0.058908	0.210253	0.975871	-0.851031	-0.500406	0.159185
284	342549													8.257208	0.732213	5.535354	0.523069	-0.839152	0.149071	0.059058	0.210172	0.975879	-0.850242	-0.501648	0.159493
285	342716													8.325363	0.739576	5.594421	0.523583	-0.838894	0.148720	0.059296	0.210017	0.975898	-0.849909	-0.502145	0.159704
286	342882													8.310596	0.724944	5.580526	0.523455	-0.839028	0.148413	0.059476	0.209738	0.975947	-0.849975	-0.502038	0.159690
287	343049													8.255932	0.757146	5.575094	0.522599	-0.839593	0.148233	0.059557	0.209390	0.976017	-0.850496	-0.501237	0.159431
288	343216													8.248008	0.747021	5.568682	0.521031	-0.840568	0.148231	0.059591	0.209067	0.976084	-0.851455	-0.499737	0.159021
289	343383													8.254292	0.758334	5.531339	0.518798	-0.841916	0.148414	0.059613	0.208809	0.976138	-0.852816	-0.497571	0.158518
290	343549													8.220714	0.676030	5.510497	0.515768	-0.843718	0.148739	0.059668	0.208568	0.976186	-0.854648	-0.494611	0.157916
291	343716													8.189884	0.617192	5.460141	0.511792	-0.846091	0.148992	0.059841	0.208114	0.976272	-0.857023	-0.490733	0.157142
292	343883													8.190018	0.570542	5.426163	0.506739	-0.849106	0.149116	0.060148	0.207369	0.976412	-0.859999	-0.485817	0.156154
293	344049													8.202036	0.522022	5.372883	0.500497	-0.852826	0.148968	0.060755	0.206246	0.976612	-0.863604	-0.479741	0.155039
294	344216													8.311487	0.545930	5.322892	0.493083	-0.857226	0.148432	0.061762	0.204676	0.976879	-0.867787	-0.472516	0.153866
295	344383													8.415860	0.631192	5.280533	0.484720	-0.862118	0.147645	0.063071	0.202812	0.977184	-0.872393	-0.464348	0.152682
296	344549													8.527605	0.722608	5.169855	0.475594	-0.867336	0.146761	0.064520	0.200782	0.977509	-0.877296	-0.455428	0.151451
297	344716													8.615010	0.792683	5.030996	0.465844	-0.872755	0.145904	0.065803	0.198600	0.977869	-0.882417	-0.445934	0.149946
298	344883													8.657039	0.916563	4.889915	0.455472	-0.878318	0.145266	0.066716	0.196392	0.978253	-0.887746	-0.435876	0.148049
299	345049													8.716138	0.987979	4.744120	0.444599	-0.883903	0.145076	0.067132	0.194390	0.978624	-0.893210	-0.425356	0.145764
300	345216													8.781134	0.949095	4.564060	0.433296	-0.889435	0.145466	0.067012	0.192753	0.978956	-0.898757	-0.414430	0.143122
301	345383													8.845469	0.866031	4.405003	0.421657	-0.894891	0.146204	0.066441	0.191297	0.979281	-0.904318	-0.403206	0.140119
302	345549													8.964243	0.788907	4.224105	0.409742	-0.900257	0.147137	0.065476	0.189908	0.979616	-0.909848	-0.391756	0.136758
303	345716													9.057777	0.743351	4.083799	0.397767	-0.905463	0.148048	0.064229	0.188447	0.979981	-0.915235	-0.380295	0.133115
304	345883													9.132872	0.705936	3.920985	0.385829	-0.910473	0.148914	0.062838	0.186972	0.980353	-0.920428	-0.368892	0.129352
305	346049													9.119093	0.627048	3.758142	0.373954	-0.915296	0.149641	0.061509	0.185468	0.980723	-0.925405	-0.357541	0.125656
306	346216													9.151745	0.586052	3.531800	0.362099	-0.919973	0.150117	0.060430	0.183875	0.981090	-0.930179	-0.346180	0.122175
307	346383													9.245235	0.531992	3.346235	0.350344	-0.924493	0.150241	0.059607	0.182089	0.981474	-0.934722	-0.334898	0.118900
308	346549													9.301555	0.485927	3.180615	0.338948	-0.928788	0.149890	0.059034	0.180004	0.981893	-0.938951	-0.323962	0.115842
309	346716													9.283510	0.466849	3.045154	0.327968	-0.932880	0.148904	0.058631	0.177419	0.982387	-0.942867	-0.313462	0.112884
310	346883													9.404606	0.577345	3.044672	0.317110	-0.936838	0.147565	0.058298	0.174556	0.982920	-0.946595	-0.303091	0.109970
311	347049													9.466771	0.625440	2.983826	0.306458	-0.940606	0.146097	0.057973	0.171640	0.983453	-0.950117	-0.292917	0.107130
312	347216													9.461070	0.706968	2.925151	0.295866	-0.944195	0.144771	0.057641	0.168927	0.983942	-0.953489	-0.282770	0.104404
313	347383													9.420945	0.730311	2.781629	0.285311	-0.947600	0.143709	0.057225	0.166516	0.984377	-0.956725	-0.272630	0.101735
314	347549													9.438366	0.701268	2.690056	0.274659	-0.950870	0.142861	0.056637	0.164315	0.984781	-0.959872	-0.262388	0.098985
315	347716													9.511341	0.694092	2.551612	0.263967	-0.953989	0.142222	0.055790	0.162306	0.985162	-0.962917	-0.252116	0.096066
316	347883													9.569013	0.671058	2.464581	0.253363	-0.956914	0.141855	0.054693	0.160575	0.985507	-0.965824	-0.241933	0.093020
317	348049													9.624480	0.621644	2.363293	0.242854	-0.959660	0.141682	0.053478	0.159077	0.985817	-0.968588	-0.231832	0.089953
318	348216													9.623040	0.584864	2.284287	0.232441	-0.962248	0.141597	0.052213	0.157720	0.986102	-0.971208	-0.221818	0.086903
319	348383													9.621533	0.551875	2.169979	0.221954	-0.964734	0.141507	0.050961	0.156405	0.986377	-0.973725	-0.211719	0.083878
320	348549													9.633570	0.524557	2.073934	0.211615	-0.967070	0.141405	0.049719	0.155145	0.986640	-0.976088	-0.201757	0.080913
321	348716													9.612700	0.507589	1.960898	0.201171	-0.969305	0.141346	0.048501	0.153975	0.986884	-0.978355	-0.191677	0.077988
322	348883													9.600060	0.526877	1.847317	0.190655	-0.971444	0.141234	0.047359	0.152808	0.987121	-0.980514	-0.181511	0.075140
323	349049													9.621340	0.525191	1.738893	0.180118	-0.973469	0.141119	0.046311	0.151699	0.987341	-0.982554	-0.171302	0.072406
324	349216													9.637836	0.513948	1.642852	0.169537	-0.975371	0.141095	0.045259	0.150723	0.987540	-0.984484	-0.161039	0.069698
325	349383													9.715179	0.519529	1.533516	0.158950	-0.977139	0.141186	0.044192	0.149902	0.987713	-0.986297	-0.150757	0.067009
326	349549													9.771680	0.497773	1.440346	0.148447	-0.978761	0.141387	0.043105	0.149239	0.987861	-0.987980	-0.140550	0.064344
327	349716													9.758650	0.482039	1.345966	0.138254	-0.980214	0.141654	0.042019	0.148704	0.987989	-0.989505	-0.130641	0.061746
328	349883													9.686374	0.442186	1.252103	0.128168	-0.981535	0.141995	0.040855	0.148280	0.988101	-0.990911	-0.120841	0.059105
329	350049													9.740081	0.423042	1.189389	0.117954	-0.982765	0.142334	0.039777	0.147896	0.988203	-0.992222	-0.110901	0.056537
330	350216													9.810331	0.407311	1.046894	0.107816	-0.983875	0.142710	0.038764	0.147598	0.988287	-0.993415	-0.101021	0.054052
331	350383													9.786596	0.379389	0.949250	0.097832	-0.984871	0.143032	0.037831	0.147298	0.988368	-0.994484	-0.091283	0.051669
332	350549													9.762230	0.369727	0.854009	0.087958	-0.985767	0.143269	0.036890	0.146952	0.988456	-0.995441	-0.081657	0.049290
333	350716													9.793172	0.393393	0.792559	0.078016	-0.986572	0.143491	0.036032	0.146626	0.988536	-0.996301	-0.071951	0.046987
334	350883													9.733562	0.406107	0.710360	0.068096	-0.987270	0.143737	0.035206	0.146360	0.988605	-0.997057	-0.062259	0.044725
335	351049													9.758235	0.399467	0.632128	0.057968	-0.987871	0.144053	0.034363	0.146184	0.988660	-0.997727	-0.052361	0.042420
336	351216													9.829369	0.374341	0.543034	0.047840	-0.988354	0.144456	0.033580	0.146131	0.988695	-0.998290	-0.042448	0.040179
337	351383													9.845644	0.371822	0.434190	0.037823	-0.988723	0.144901	0.032831	0.146156	0.988717	-0.998745	-0.032639	0.037989
338	351549													9.756257	0.352827	0.317171	0.028016	-0.988983	0.145355	0.032203	0.146229	0.988726	-0.999089	-0.023019	0.035945
339	351716													9.746518	0.342599	0.224351	0.018051	-0.989145	0.145827	0.031631	0.146342	0.988728	-0.999337	-0.013235	0.033929
340	351883													9.818786	0.311810	0.118430	0.008011	-0.989203	0.146330	0.030997	0.146510	0.988723	-0.999487	-0.003385	0.031836
341	352049													9.853616	0.306812	0.004815	-0.001960	-0.989172	0.146745	0.030370	0.146619	0.988727	-0.999537	0.006394	0.029754
342	352216													9.836914	0.299325	-0.146697	-0.011838	-0.989047	0.147124	0.029831	0.146720	0.988728	-0.999485	0.016094	0.027768
343	352383													9.861223	0.306757	-0.224252	-0.021584	-0.988837	0.147433	0.029356	0.146776	0.988734	-0.999336	0.025668	0.025860
344	352549													9.919997	0.304317	-0.340600	-0.031033	-0.988533	0.147785	0.028919	0.146906	0.988728	-0.999100	0.034957	0.024028
345	352716													9.910219	0.294605	-0.438824	-0.039986	-0.988152	0.148180	0.028517	0.147110	0.988709	-0.998793	0.043760	0.022297
346	352883													9.823350	0.278811	-0.517918	-0.048603	-0.987711	0.148540	0.028128	0.147303	0.988691	-0.998422	0.052231	0.020623
347	353049													9.807524	0.289849	-0.614916	-0.057035	-0.987229	0.148744	0.027753	0.147362	0.988693	-0.997986	0.060519	0.018994
348	353216													9.827014	0.311920	-0.698089	-0.065406	-0.986666	0.149035	0.027388	0.147523	0.988679	-0.997483	0.068748	0.017374
349	353383													9.840090	0.267820	-0.785258	-0.073571	-0.986060	0.149242	0.027066	0.147618	0.988674	-0.996923	0.076777	0.015829
350	353549													9.800000	0.264883	-0.854380	-0.081433	-0.985419	0.149395	0.026791	0.147675	0.988673	-0.996319	0.084513	0.014375
351	353716													9.787169	0.251205	-0.946362	-0.089043	-0.984743	0.149508	0.026507	0.147708	0.988676	-0.995675	0.091997	0.012950
352	353883													9.780530	0.232955	-1.025708	-0.096400	-0.984062	0.149431	0.026249	0.147565	0.988704	-0.994996	0.099234	0.011605
353	354049													9.799949	0.235545	-1.075951	-0.103477	-0.983358	0.149331	0.026076	0.147403	0.988733	-0.994290	0.106205	0.010389
354	354216													9.798100	0.249640	-1.116500	-0.110251	-0.982665	0.149047	0.025930	0.147066	0.988787	-0.993566	0.112879	0.009267
355	354383													9.714029	0.243204	-1.179474	-0.116850	-0.981966	0.148623	0.025850	0.146590	0.988859	-0.992813	0.119391	0.008255
356	354549													9.698968	0.252414	-1.245110	-0.123520	-0.981219	0.148160	0.025805	0.146077	0.988937	-0.992006	0.125977	0.007277
357	354716													9.706278	0.286542	-1.320873	-0.130187	-0.980441	0.147606	0.025750	0.145479	0.989026	-0.991155	0.132560	0.006307
358	354883													9.702840	0.278567	-1.346928	-0.136805	-0.979626	0.147027	0.025701	0.144862	0.989118	-0.990265	0.139095	0.005360
359	355049													9.683172	0.287858	-1.410551	-0.143233	-0.978780	0.146541	0.025656	0.144346	0.989195	-0.989356	0.145445	0.004436
360	355216													9.673059	0.281524	-1.500201	-0.149573	-0.977908	0.146025	0.025595	0.143807	0.989275	-0.988419	0.151706	0.003520
361	355383													9.623610	0.280406	-1.527095	-0.155886	-0.977020	0.145367	0.025515	0.143134	0.989374	-0.987445	0.157939	0.002617
362	355549													9.665429	0.266871	-1.578107	-0.162257	-0.976079	0.144717	0.025425	0.142477	0.989472	-0.986421	0.164228	0.001699
363	355716													9.670485	0.298967	-1.649231	-0.168531	-0.975096	0.144171	0.025248	0.141945	0.989553	-0.985373	0.170411	0.000697
364	355883													9.653305	0.243674	-1.715548	-0.174633	-0.974106	0.143598	0.025092	0.141389	0.989636	-0.984314	0.176426	-0.000249
365	356049													9.664765	0.294254	-1.778121	-0.180562	-0.973110	0.143020	0.024907	0.140840	0.989719	-0.983248	0.182268	-0.001193
366	356216													9.632216	0.248873	-1.833404	-0.186353	-0.972103	0.142440	0.024744	0.140289	0.989801	-0.982171	0.187977	-0.002089
367	356383													9.575115	0.247946	-1.896565	-0.192077	-0.971076	0.141835	0.024585	0.139720	0.989886	-0.981072	0.193621	-0.002963
368	356549													9.571745	0.250046	-1.963897	-0.197577	-0.970068	0.141177	0.024395	0.139106	0.989977	-0.979984	0.199041	-0.003820
369	356716													9.524041	0.243732	-1.981601	-0.203123	-0.969021	0.140499	0.024172	0.138484	0.990070	-0.978855	0.204502	-0.004706
370	356883													9.496165	0.252814	-2.018640	-0.208667	-0.967936	0.139848	0.023849	0.137917	0.990157	-0.977696	0.209948	-0.005694
371	357049													9.586328	0.259075	-2.079301	-0.214348	-0.966781	0.139248	0.023507	0.137414	0.990235	-0.976475	0.215528	-0.006728
372	357216													9.547926	0.238525	-2.124914	-0.219875	-0.965624	0.138656	0.023183	0.136921	0.990311	-0.975253	0.220959	-0.007720
373	357383													9.524267	0.288408	-2.205039	-0.225225	-0.964484	0.138003	0.022852	0.136374	0.990394	-0.974039	0.226215	-0.008674
374	357549													9.485882	0.233706	-2.245499	-0.230579	-0.963300	0.137425	0.022491	0.135917	0.990465	-0.972794	0.231472	-0.009674
375	357716													9.400387	0.230606	-2.296854	-0.236089	-0.962060	0.136756	0.022138	0.135372	0.990547	-0.971479	0.236885	-0.010662
376	357883													9.453273	0.257662	-2.351340	-0.241739	-0.960755	0.136057	0.021794	0.134804	0.990633	-0.970097	0.242439	-0.011649
377	358049													9.451498	0.214791	-2.395201	-0.247415	-0.959407	0.135367	0.021457	0.134251	0.990715	-0.968672	0.248023	-0.012630
378	358216													9.431164	0.208489	-2.472909	-0.253142	-0.958008	0.134684	0.021096	0.133719	0.990795	-0.967199	0.253653	-0.013640
379	358383													9.433037	0.228880	-2.558777	-0.258711	-0.956623	0.133947	0.020744	0.133134	0.990881	-0.965732	0.259130	-0.014599
380	358549													9.435943	0.174825	-2.633271	-0.264221	-0.955209	0.133279	0.020401	0.132624	0.990956	-0.964246	0.264550	-0.015554
381	358716													9.450307	0.195507	-2.684554	-0.269581	-0.953808	0.132574	0.019986	0.132099	0.991035	-0.962770	0.269814	-0.016549
382	358883													9.420614	0.196058	-2.738751	-0.274721	-0.952435	0.131897	0.019655	0.131584	0.991110	-0.961323	0.274871	-0.017429
383	359049													9.483192	0.217375	-2.794231	-0.279659	-0.951077	0.131316	0.019506	0.131116	0.991175	-0.959901	0.279753	-0.018116
384	359216													9.486339	0.184156	-2.853698	-0.284221	-0.949786	0.130864	0.019503	0.130737	0.991225	-0.958561	0.284279	-0.018635
385	359383													9.454358	0.226169	-2.869908	-0.288332	-0.948599	0.130476	0.019586	0.130392	0.991269	-0.957330	0.288370	-0.019017
386	359549													9.422149	0.190932	-2.943170	-0.292020	-0.947503	0.130240	0.019769	0.130167	0.991295	-0.956208	0.292053	-0.019280
387	359716													9.426418	0.218355	-2.993878	-0.295194	-0.946535	0.130122	0.019993	0.130042	0.991307	-0.955228	0.295230	-0.019463
388	359883													9.401230	0.222484	-3.052918	-0.297883	-0.945695	0.130106	0.020241	0.130006	0.991307	-0.954388	0.297926	-0.019585
389	360050													9.427817	0.228975	-3.081212	-0.300034	-0.944995	0.130244	0.020503	0.130114	0.991287	-0.953708	0.300090	-0.019663
390	360216													9.444161	0.209049	-3.106354	-0.301562	-0.944472	0.130507	0.020722	0.130354	0.991251	-0.953221	0.301628	-0.019739
391	360383													9.400736	0.202722	-3.122877	-0.302473	-0.944134	0.130851	0.020919	0.130672	0.991205	-0.952929	0.302550	-0.019774
392	360550													9.382614	0.220230	-3.153993	-0.302920	-0.943932	0.131269	0.021105	0.131063	0.991149	-0.952782	0.303009	-0.019780
393	360716													9.305428	0.210719	-3.153263	-0.302987	-0.943844	0.131744	0.021331	0.131491	0.991088	-0.952756	0.303097	-0.019706
394	360883													9.230399	0.164771	-3.132253	-0.302915	-0.943798	0.132245	0.021561	0.131942	0.991023	-0.952774	0.303047	-0.019618
395	361050													9.313286	0.154472	-3.152010	-0.302721	-0.943804	0.132641	0.021714	0.132305	0.990971	-0.952832	0.302868	-0.019558
396	361216													9.285070	0.183241	-3.115359	-0.302367	-0.943882	0.132894	0.021835	0.132525	0.990939	-0.952941	0.302529	-0.019462
397	361383													9.273748	0.228689	-3.075274	-0.301913	-0.943991	0.133150	0.022126	0.132692	0.990910	-0.953079	0.302115	-0.019174
398	361550													9.326653	0.205366	-3.090125	-0.301303	-0.944152	0.133390	0.022443	0.132830	0.990885	-0.953264	0.301550	-0.018832
399	361716													9.303457	0.211419	-3.049518	-0.300558	-0.944360	0.133599	0.022735	0.132942	0.990863	-0.953492	0.300849	-0.018487
400	361883													9.285821	0.218491	-3.056588	-0.299603	-0.944638	0.133777	0.022969	0.133036	0.990845	-0.953787	0.299933	-0.018161
401	362050													9.297041	0.238087	-3.025187	-0.298501	-0.944966	0.133928	0.023170	0.133109	0.990831	-0.954128	0.298867	-0.017838
402	362216													9.314639	0.252630	-3.005436	-0.297227	-0.945342	0.134105	0.023362	0.133211	0.990812	-0.954521	0.297629	-0.017509
403	362383													9.315379	0.249732	-2.988851	-0.295794	-0.945754	0.134373	0.023522	0.133414	0.990781	-0.954962	0.296228	-0.017217
404	362550													9.359710	0.241489	-2.962473	-0.294187	-0.946215	0.134653	0.023651	0.133637	0.990748	-0.955455	0.294650	-0.016935
405	362716													9.380530	0.249099	-2.942775	-0.292376	-0.946736	0.134931	0.023773	0.133857	0.990715	-0.956008	0.292869	-0.016630
406	362883													9.391124	0.254832	-2.920624	-0.290313	-0.947329	0.135230	0.023906	0.134093	0.990680	-0.956633	0.290840	-0.016282
407	363050													9.358950	0.258233	-2.899464	-0.287936	-0.948010	0.135537	0.024100	0.134313	0.990646	-0.957347	0.288509	-0.015827
408	363216													9.380056	0.277345	-2.826939	-0.285335	-0.948749	0.135866	0.024332	0.134543	0.990609	-0.958119	0.285961	-0.015305
409	363383													9.424786	0.285830	-2.805897	-0.282480	-0.949550	0.136233	0.024578	0.134806	0.990567	-0.958958	0.283164	-0.014742
410	363550													9.401069	0.278770	-2.778527	-0.279398	-0.950407	0.136612	0.024807	0.135086	0.990523	-0.959855	0.280139	-0.014166
411	363716													9.422511	0.277614	-2.763127	-0.276160	-0.951300	0.136982	0.024943	0.135382	0.990479	-0.960788	0.276948	-0.013659
412	363883													9.459885	0.281171	-2.721493	-0.272756	-0.952233	0.137321	0.025025	0.135663	0.990439	-0.961758	0.273585	-0.013173
413	364050													9.483020	0.286788	-2.692377	-0.269061	-0.953227	0.137709	0.025049	0.136008	0.990391	-0.962797	0.269926	-0.012717
414	364216													9.492868	0.245052	-2.661707	-0.265058	-0.954296	0.138074	0.025073	0.136326	0.990347	-0.963906	0.265961	-0.012207
415	364383													9.530184	0.234279	-2.658133	-0.260729	-0.955447	0.138355	0.025080	0.136560	0.990314	-0.965086	0.261673	-0.011642
416	364550													9.562249	0.215947	-2.661184	-0.256016	-0.956694	0.138538	0.025199	0.136661	0.990297	-0.966344	0.257023	-0.010880
417	364716													9.575109	0.218057	-2.591361	-0.250893	-0.958037	0.138629	0.025368	0.136653	0.990294	-0.967682	0.251975	-0.009982
418	364883													9.692511	0.219772	-2.556319	-0.245189	-0.959513	0.138624	0.025681	0.136511	0.990306	-0.969135	0.246372	-0.008830
419	365050													9.691765	0.201770	-2.494897	-0.238707	-0.961180	0.138388	0.026101	0.136106	0.990350	-0.970741	0.240015	-0.007402
420	365216													9.632617	0.246337	-2.459557	-0.231422	-0.963033	0.137878	0.026545	0.135422	0.990432	-0.972491	0.232868	-0.005776
421	365383													9.548838	0.288556	-2.367744	-0.223629	-0.964964	0.137239	0.026942	0.134631	0.990529	-0.974302	0.225209	-0.004109
422	365550													9.522663	0.316090	-2.300839	-0.215563	-0.966888	0.136603	0.027219	0.133888	0.990623	-0.976111	0.217260	-0.002544
423	365716													9.548141	0.329070	-2.188988	-0.207215	-0.968800	0.135974	0.027362	0.133197	0.990712	-0.977913	0.209010	-0.001092
424	365883													9.531783	0.324832	-2.098339	-0.198670	-0.970665	0.135426	0.027427	0.132620	0.990787	-0.979683	0.200554	0.000275
425	366050													9.519682	0.323836	-1.991210	-0.190134	-0.972440	0.134941	0.027404	0.132138	0.990852	-0.981376	0.192093	0.001525
426	366216													9.516851	0.284116	-1.908366	-0.181732	-0.974114	0.134443	0.027325	0.131665	0.990918	-0.982968	0.183755	0.002690
427	366383													9.580364	0.308040	-1.822370	-0.173434	-0.975689	0.133983	0.027219	0.131243	0.990976	-0.984469	0.175516	0.003796
428	366550													9.653636	0.285971	-1.740506	-0.165070	-0.977193	0.133587	0.027102	0.130900	0.991025	-0.985909	0.167209	0.004876
429	366716													9.720145	0.293468	-1.656087	-0.156465	-0.978650	0.133280	0.027062	0.130644	0.991060	-0.987313	0.158673	0.006043
430	366883													9.791478	0.290636	-1.570391	-0.147450	-0.980086	0.133002	0.027134	0.130413	0.991088	-0.988697	0.149745	0.007364
431	367050													9.795599	0.280439	-1.485274	-0.137929	-0.981500	0.132790	0.027338	0.130248	0.991105	-0.990065	0.140332	0.008867
432	367216													9.708219	0.274307	-1.413799	-0.128005	-0.982878	0.132532	0.027653	0.130042	0.991123	-0.991388	0.130533	0.010533
433	367383													9.643301	0.308212	-1.298313	-0.117946	-0.984145	0.132468	0.028104	0.130038	0.991111	-0.992622	0.120621	0.012321
434	367550													9.651254	0.286675	-1.198173	-0.107904	-0.985300	0.132441	0.028665	0.130080	0.991089	-0.993748	0.110739	0.014207
435	367716													9.666395	0.276053	-1.111514	-0.097837	-0.986350	0.132443	0.029240	0.130175	0.991060	-0.994773	0.100835	0.016105
436	367883													9.771340	0.266795	-1.028562	-0.087638	-0.987303	0.132487	0.029736	0.130347	0.991022	-0.995708	0.090791	0.017935
437	368050													9.828656	0.240167	-0.891488	-0.077083	-0.988185	0.132474	0.030091	0.130503	0.990991	-0.996570	0.080375	0.019675
438	368216													9.719213	0.276200	-0.784675	-0.066380	-0.988973	0.132383	0.030454	0.130606	0.990967	-0.997330	0.069812	0.021449
439	368383													9.654172	0.297807	-0.662804	-0.055730	-0.989650	0.132237	0.030983	0.130665	0.990942	-0.997965	0.059323	0.023380
440	368550													9.648859	0.294276	-0.509322	-0.045399	-0.990188	0.132163	0.031563	0.130812	0.990905	-0.998470	0.049158	0.025315
441	368716													9.641445	0.319729	-0.401572	-0.035422	-0.990612	0.132036	0.032099	0.130923	0.990873	-0.998857	0.039337	0.027160
442	368883													9.647116	0.342457	-0.270429	-0.025854	-0.990910	0.132022	0.032539	0.131162	0.990827	-0.999136	0.029913	0.028853
443	369050													9.721033	0.402402	-0.163087	-0.016626	-0.991091	0.132148	0.032841	0.131554	0.990765	-0.999322	0.020813	0.030362
444	369216													9.761091	0.402515	-0.050290	-0.007655	-0.991152	0.132514	0.033037	0.132195	0.990673	-0.999425	0.011961	0.031732
445	369383													9.796327	0.384701	0.005673	0.001254	-0.991110	0.133039	0.033195	0.133007	0.990559	-0.999448	0.003174	0.033066
446	369550													9.807593	0.337444	0.063451	0.010127	-0.990995	0.133519	0.033329	0.133786	0.990450	-0.999393	-0.005580	0.034384
447	369716													9.828828	0.290599	0.118826	0.019011	-0.990804	0.133962	0.033556	0.134543	0.990339	-0.999256	-0.014332	0.035805
448	369883													9.856903	0.286093	0.168460	0.028052	-0.990534	0.134373	0.033895	0.135291	0.990226	-0.999032	-0.023224	0.037369
449	370050													9.889267	0.290617	0.267005	0.037321	-0.990167	0.134820	0.034390	0.136106	0.990097	-0.998711	-0.032315	0.039132
450	370216													9.864136	0.328613	0.352314	0.046861	-0.989703	0.135250	0.035169	0.136950	0.989953	-0.998282	-0.041633	0.041225
451	370383													9.807776	0.311567	0.435958	0.056546	-0.989137	0.135689	0.036164	0.137846	0.989793	-0.997745	-0.051062	0.043566
452	370550													9.789747	0.285451	0.486529	0.066313	-0.988486	0.136011	0.037270	0.138670	0.989637	-0.997103	-0.060556	0.046037
453	370716													9.738564	0.324789	0.575230	0.076050	-0.987753	0.136234	0.038429	0.139432	0.989486	-0.996363	-0.070015	0.048562
454	370883													9.777504	0.398981	0.710379	0.085816	-0.986919	0.136479	0.039670	0.140260	0.989320	-0.995521	-0.079486	0.051188
455	371050													9.771402	0.402714	0.849484	0.095579	-0.985983	0.136753	0.040977	0.141163	0.989138	-0.994578	-0.088938	0.053895
456	371216													9.762745	0.428731	0.954804	0.105257	-0.984949	0.137097	0.042262	0.142169	0.988940	-0.993547	-0.098299	0.056590
457	371383													9.737353	0.425302	1.047891	0.114776	-0.983840	0.137421	0.043476	0.143177	0.988742	-0.992440	-0.107510	0.059207
458	371550													9.733188	0.458768	1.106253	0.124175	-0.982656	0.137725	0.044584	0.144184	0.988546	-0.991258	-0.116613	0.061715
459	371716													9.740309	0.477332	1.209066	0.133606	-0.981370	0.138064	0.045552	0.145247	0.988346	-0.989987	-0.125760	0.064109
460	371883													9.768761	0.509606	1.321120	0.143146	-0.979962	0.138508	0.046454	0.146448	0.988127	-0.988611	-0.135013	0.066486
461	372050													9.843633	0.497060	1.464358	0.152898	-0.978418	0.138995	0.047345	0.147740	0.987892	-0.987107	-0.144466	0.068912
462	372216													9.763004	0.448720	1.589016	0.162922	-0.976733	0.139463	0.048241	0.149068	0.987649	-0.985459	-0.154182	0.071405
463	372383													9.641582	0.443221	1.679991	0.172774	-0.974994	0.139773	0.049200	0.150272	0.987420	-0.983732	-0.163724	0.073933
464	372550													9.569147	0.436410	1.777524	0.182354	-0.973231	0.139890	0.050263	0.151317	0.987207	-0.981947	-0.172990	0.076511
465	372716													9.522070	0.471136	1.829975	0.191536	-0.971470	0.139860	0.051377	0.152226	0.987009	-0.980140	-0.181862	0.079068
466	372883													9.556304	0.508663	1.914161	0.200446	-0.969689	0.139730	0.052533	0.153058	0.986820	-0.978295	-0.190464	0.081620
467	373050													9.639801	0.562006	1.981727	0.209350	-0.967827	0.139585	0.053656	0.153903	0.986628	-0.976368	-0.199061	0.084149
468	373216													9.777101	0.578890	2.095024	0.218564	-0.965807	0.139454	0.054718	0.154814	0.986427	-0.974287	-0.207967	0.086684
469	373383													9.748026	0.598610	2.186467	0.228253	-0.963585	0.139301	0.055670	0.155761	0.986225	-0.972009	-0.217354	0.089195
470	373550													9.605112	0.589815	2.310793	0.238175	-0.961207	0.139117	0.056545	0.156720	0.986023	-0.969575	-0.226980	0.091678
471	373716													9.441154	0.546243	2.373584	0.247891	-0.958786	0.138854	0.057428	0.157618	0.985829	-0.967084	-0.236404	0.094133
472	373883													9.373990	0.530456	2.430307	0.257239	-0.956383	0.138416	0.058368	0.158352	0.985656	-0.964583	-0.245470	0.096557
473	374050													9.406188	0.549477	2.533046	0.266206	-0.954012	0.137827	0.059351	0.158937	0.985503	-0.962087	-0.254166	0.098932
474	374216													9.474575	0.589590	2.621471	0.274983	-0.951615	0.137161	0.060331	0.159459	0.985359	-0.959554	-0.262682	0.101260
475	374383													9.558908	0.635382	2.739646	0.283833	-0.949116	0.136444	0.061302	0.159966	0.985217	-0.956912	-0.271273	0.103586
476	374550													9.550473	0.698616	2.875520	0.292889	-0.946460	0.135756	0.062180	0.160536	0.985069	-0.954122	-0.280075	0.105870
477	374716													9.462516	0.737968	3.033614	0.302071	-0.943649	0.135201	0.062980	0.161272	0.984898	-0.951203	-0.288994	0.108147
478	374883													9.282083	0.687069	3.087763	0.311032	-0.940797	0.134759	0.063671	0.162100	0.984718	-0.948264	-0.297699	0.110319
479	375050													9.184010	0.668955	3.128742	0.319436	-0.938034	0.134363	0.064252	0.162906	0.984547	-0.945427	-0.305867	0.112309
480	375216													9.172551	0.667494	3.191321	0.327242	-0.935398	0.133951	0.064762	0.163624	0.984395	-0.942719	-0.313461	0.114123
481	375383													9.207204	0.670589	3.262955	0.334535	-0.932878	0.133506	0.065202	0.164242	0.984263	-0.940125	-0.320566	0.115770
482	375550													9.312167	0.685643	3.337825	0.341616	-0.930369	0.133084	0.065647	0.164878	0.984127	-0.937544	-0.327457	0.117401
483	375716													9.310541	0.703501	3.396187	0.348700	-0.927793	0.132699	0.066106	0.165580	0.983978	-0.934900	-0.334341	0.119070
484	375883													9.331852	0.734465	3.436960	0.355971	-0.925072	0.132388	0.066522	0.166393	0.983813	-0.932126	-0.341403	0.120768
485	376050													9.348719	0.755714	3.556891	0.363529	-0.922151	0.132228	0.066858	0.167399	0.983620	-0.929181	-0.348734	0.122508
486	376216													9.263576	0.749505	3.655796	0.371377	-0.919026	0.132176	0.067119	0.168558	0.983404	-0.926053	-0.356342	0.124283
487	376383													9.155657	0.728406	3.719942	0.379180	-0.915832	0.132188	0.067336	0.169787	0.983178	-0.922870	-0.363900	0.126048
488	376550													9.081506	0.729854	3.812140	0.386831	-0.912613	0.132282	0.067462	0.171071	0.982946	-0.919680	-0.371311	0.127742
489	376717													9.091674	0.729022	3.873947	0.394329	-0.909372	0.132465	0.067506	0.172420	0.982708	-0.916487	-0.378568	0.129378
490	376883													9.078049	0.766026	3.949865	0.401841	-0.906039	0.132729	0.067444	0.173837	0.982462	-0.913222	-0.385842	0.130962
491	377050													9.092246	0.729030	4.039383	0.409465	-0.902554	0.133170	0.067194	0.175406	0.982200	-0.909848	-0.393228	0.132469
492	377217													9.007227	0.695788	4.136323	0.417160	-0.898956	0.133630	0.066871	0.176996	0.981937	-0.906370	-0.400689	0.133950
493	377383													8.989359	0.667775	4.215879	0.424888	-0.895255	0.134123	0.066553	0.178654	0.981659	-0.902796	-0.408169	0.135490
494	377550													8.909340	0.615234	4.273887	0.432491	-0.891545	0.134535	0.066249	0.180231	0.981391	-0.899201	-0.415530	0.137013
495	377717													8.865621	0.618672	4.338797	0.439894	-0.887870	0.134835	0.066009	0.181703	0.981135	-0.895620	-0.422695	0.138538
496	377883													8.876954	0.589726	4.385613	0.447112	-0.884234	0.134985	0.065858	0.183042	0.980897	-0.892050	-0.429680	0.140074
497	378050													8.830610	0.611173	4.465170	0.454158	-0.880648	0.134909	0.065789	0.184163	0.980691	-0.888489	-0.436513	0.141576
498	378217													8.793745	0.666535	4.551867	0.461084	-0.877077	0.134678	0.065890	0.185196	0.980490	-0.884907	-0.443214	0.143181
499	378383													8.800872	0.695615	4.634807	0.467894	-0.873493	0.134482	0.066041	0.186297	0.980272	-0.881313	-0.449782	0.144853
500	378550													8.828231	0.742808	4.709230	0.474762	-0.869802	0.134331	0.066092	0.187433	0.980051	-0.877629	-0.456413	0.146473
501	378717													8.759146	0.797212	4.758706	0.481859	-0.865896	0.134298	0.065876	0.188630	0.979836	-0.873769	-0.463296	0.147935
502	378883													8.692023	0.838344	4.833660	0.489084	-0.861795	0.134557	0.065303	0.190012	0.979607	-0.869788	-0.470324	0.149210
503	379050													8.663270	0.819781	4.904058	0.496431	-0.857499	0.135098	0.064342	0.191548	0.979372	-0.865689	-0.477498	0.150263
504	379217													8.575066	0.809830	4.960533	0.503880	-0.853014	0.135910	0.063032	0.193237	0.979125	-0.861471	-0.484795	0.151136
505	379383													8.547584	0.783565	4.998433	0.511298	-0.848408	0.137036	0.061482	0.195156	0.978843	-0.857202	-0.492055	0.151944
506	379550													8.433008	0.699308	5.005479	0.518637	-0.843741	0.138266	0.059770	0.197099	0.978560	-0.852903	-0.499253	0.152653
507	379717													8.489763	0.900905	5.116507	0.525913	-0.838992	0.139674	0.057964	0.199191	0.978245	-0.848561	-0.506375	0.153388
508	379883													8.601986	0.889076	5.206289	0.533480	-0.833826	0.141894	0.055970	0.202195	0.977745	-0.843959	-0.513665	0.154536
509	380050													8.564146	0.614800	5.263362	0.541489	-0.828173	0.144634	0.053803	0.205823	0.977109	-0.838984	-0.521312	0.156009
510	380217													8.435224	0.359872	5.352871	0.549726	-0.822274	0.147199	0.051528	0.209257	0.976502	-0.833754	-0.529224	0.157404
511	380383													8.272783	0.250225	5.471422	0.557892	-0.816415	0.149075	0.049357	0.211949	0.976034	-0.828444	-0.537164	0.158541
512	380550													8.057414	0.335453	5.606554	0.565552	-0.810891	0.150354	0.047465	0.214013	0.975677	-0.823346	-0.544659	0.159524
513	380717													7.862991	0.425261	5.759712	0.572239	-0.806002	0.151338	0.046121	0.215877	0.975331	-0.818789	-0.551143	0.160706
514	380883													7.898761	0.377920	5.912042	0.577812	-0.801835	0.152294	0.045264	0.217791	0.974945	-0.814914	-0.556442	0.162137
515	381050													8.083313	0.269165	6.038803	0.582585	-0.798264	0.152869	0.044847	0.219369	0.974611	-0.811532	-0.560938	0.163601
516	381217													7.995854	0.310905	6.129290	0.586768	-0.795215	0.152762	0.044771	0.220222	0.974422	-0.808517	-0.564920	0.164822
517	381383													7.872120	0.392419	6.198531	0.590179	-0.792768	0.152339	0.044851	0.220618	0.974329	-0.806026	-0.568196	0.165761
518	381550													7.821732	0.431910	6.249691	0.592647	-0.791034	0.151773	0.044998	0.220652	0.974314	-0.804204	-0.570595	0.166363
519	381717													7.885592	0.569095	6.314056	0.594270	-0.789908	0.151288	0.045155	0.220580	0.974323	-0.802997	-0.572180	0.166753
520	381883													7.861790	0.475437	6.286473	0.595130	-0.789317	0.150995	0.045221	0.220486	0.974341	-0.802356	-0.573031	0.166911
521	382050													7.920261	0.486492	6.295153	0.595278	-0.789276	0.150624	0.045325	0.220140	0.974415	-0.802240	-0.573221	0.166819
522	382217													7.928325	0.563074	6.265903	0.594939	-0.789580	0.150371	0.045383	0.219782	0.974493	-0.802489	-0.572939	0.166590
523	382383													7.946658	0.484848	6.206583	0.594131	-0.790197	0.150326	0.045327	0.219479	0.974564	-0.803090	-0.572205	0.166216
524	382550													7.898187	0.461892	6.190854	0.592848	-0.791207	0.150077	0.045336	0.218853	0.974704	-0.804037	-0.571047	0.165617
525	382717													7.884227	0.559595	6.169446	0.591066	-0.792576	0.149880	0.045413	0.218214	0.974844	-0.805344	-0.569391	0.164972
526	382883													7.795504	0.336028	6.092221	0.588574	-0.794460	0.149716	0.045533	0.217473	0.975004	-0.807160	-0.567045	0.164173
527	383050													7.885508	0.305696	6.052232	0.585338	-0.797002	0.148890	0.046130	0.216075	0.975287	-0.809476	-0.564004	0.163242
528	383217													8.037961	0.466769	6.016913	0.581660	-0.799906	0.147721	0.047274	0.214537	0.975571	-0.812057	-0.560467	0.162603
529	383383													7.924343	0.327365	5.943226	0.577595	-0.803073	0.146486	0.048782	0.213081	0.975816	-0.814865	-0.556480	0.162250
530	383550													7.970184	0.171298	5.901072	0.572904	-0.806763	0.144619	0.050715	0.211000	0.976169	-0.818052	-0.551917	0.161798
531	383717													7.951200	0.331915	5.894533	0.567526	-0.811042	0.141862	0.052969	0.207905	0.976714	-0.821650	-0.546797	0.160951
532	383883													8.043132	0.629585	5.953324	0.561236	-0.815919	0.138890	0.055277	0.204389	0.977328	-0.825808	-0.540834	0.159812
533	384050													8.177170	0.822280	5.968489	0.554355	-0.821061	0.136195	0.057472	0.201014	0.977901	-0.830294	-0.534277	0.158621
534	384217													8.288973	0.962086	5.878042	0.547192	-0.826186	0.134158	0.059276	0.198132	0.978381	-0.834906	-0.527410	0.157389
535	384383													8.219215	0.894137	5.727502	0.539625	-0.831333	0.133005	0.060386	0.195794	0.978784	-0.839737	-0.520145	0.155856
536	384550													8.254203	0.755400	5.577616	0.531596	-0.836575	0.132467	0.060666	0.193601	0.979203	-0.844822	-0.512505	0.153669
537	384717													8.184241	0.657013	5.452437	0.522943	-0.842047	0.132238	0.060245	0.191267	0.979687	-0.850236	-0.504354	0.150751
538	384883													8.236598	0.757032	5.366931	0.513452	-0.847873	0.132207	0.059556	0.188905	0.980188	-0.856049	-0.495406	0.147490
539	385050													8.440744	0.777101	5.290670	0.503344	-0.853823	0.132783	0.058842	0.187181	0.980561	-0.862080	-0.485747	0.144457
540	385217													8.620214	0.669038	5.151408	0.493013	-0.859679	0.133755	0.058183	0.185971	0.980831	-0.868075	-0.475780	0.141705
541	385383													8.622128	0.591113	4.964534	0.482585	-0.865392	0.134937	0.057519	0.185046	0.981045	-0.873958	-0.465677	0.139077
542	385550													8.528678	0.468016	4.796187	0.471830	-0.871113	0.136155	0.056762	0.184116	0.981264	-0.879860	-0.455262	0.136318
543	385717													8.494121	0.379768	4.665962	0.460350	-0.877076	0.137170	0.056021	0.182910	0.981532	-0.885968	-0.444164	0.133337
544	385883													8.666471	0.419209	4.546723	0.448043	-0.883319	0.137863	0.055422	0.181353	0.981855	-0.892293	-0.432272	0.130209
545	386050													8.931637	0.479382	4.444190	0.435473	-0.889521	0.138260	0.054927	0.179557	0.982213	-0.898525	-0.420133	0.127051
546	386217													9.034547	0.559771	4.297206	0.422998	-0.895498	0.138407	0.054582	0.177649	0.982579	-0.904485	-0.408075	0.124023
547	386383													9.022535	0.590641	4.189519	0.410578	-0.901246	0.138499	0.054258	0.175771	0.982935	-0.910210	-0.396057	0.121067
548	386550													9.085830	0.576297	4.055993	0.398235	-0.906751	0.138608	0.053816	0.173943	0.983284	-0.915703	-0.384119	0.118068
549	386717													9.034202	0.499300	3.927117	0.385840	-0.912088	0.138649	0.053289	0.172069	0.983643	-0.921025	-0.372140	0.114995
550	386883													9.088032	0.435520	3.735765	0.373245	-0.917329	0.138546	0.052636	0.170037	0.984031	-0.926239	-0.359992	0.111750
551	387050													9.192141	0.423768	3.572807	0.360461	-0.922473	0.138243	0.051807	0.167777	0.984463	-0.931335	-0.347698	0.108268
552	387217													9.237162	0.382360	3.439510	0.347663	-0.927451	0.137713	0.050949	0.165345	0.984919	-0.936234	-0.335403	0.104737
553	387383													9.282272	0.399388	3.302058	0.334832	-0.932277	0.136920	0.050229	0.162760	0.985386	-0.940938	-0.323062	0.101325
554	387550													9.324215	0.413971	3.176676	0.322092	-0.936892	0.135980	0.049729	0.160180	0.985834	-0.945401	-0.310767	0.098183
555	387717													9.396070	0.395325	3.077286	0.309405	-0.941315	0.134884	0.049436	0.157575	0.986269	-0.949644	-0.298489	0.095289
556	387883													9.377806	0.426792	2.989927	0.296838	-0.945532	0.133629	0.049285	0.154920	0.986697	-0.953655	-0.286304	0.092587
557	388050													9.405505	0.479581	2.828470	0.284211	-0.949575	0.132405	0.049129	0.152343	0.987106	-0.957502	-0.274042	0.089949
558	388217													9.439897	0.520654	2.677464	0.271622	-0.953411	0.131262	0.048871	0.149878	0.987496	-0.961162	-0.261811	0.087305
559	388383													9.471521	0.527729	2.576003	0.259132	-0.957011	0.130307	0.048511	0.147642	0.987851	-0.964623	-0.249662	0.084684
560	388550													9.463282	0.518587	2.448424	0.246613	-0.960413	0.129570	0.048034	0.145649	0.988170	-0.967923	-0.237472	0.082052
561	388717													9.529590	0.496107	2.335897	0.233979	-0.963639	0.129052	0.047366	0.143877	0.988461	-0.971087	-0.225167	0.079308
562	388883													9.606659	0.495690	2.221673	0.221301	-0.966683	0.128647	0.046606	0.142251	0.988733	-0.974091	-0.212812	0.076533
563	389050													9.655670	0.504395	2.091189	0.208610	-0.969531	0.128417	0.045786	0.140843	0.988973	-0.976927	-0.200430	0.073772
564	389217													9.654132	0.490078	1.934798	0.196029	-0.972163	0.128345	0.044875	0.139641	0.989185	-0.979571	-0.188149	0.071000
565	389383													9.680708	0.483104	1.804032	0.183502	-0.974583	0.128512	0.043880	0.138722	0.989359	-0.982040	-0.175910	0.068220
566	389550													9.666150	0.465238	1.648547	0.171064	-0.976801	0.128830	0.042875	0.138014	0.989502	-0.984327	-0.163744	0.065489
567	389717													9.700403	0.387334	1.513434	0.158648	-0.978839	0.129247	0.041784	0.137444	0.989628	-0.986451	-0.151602	0.062705
568	389883													9.744735	0.384259	1.372086	0.146359	-0.980704	0.129609	0.040710	0.136880	0.989751	-0.988394	-0.139582	0.059958
569	390050													9.739429	0.368718	1.255065	0.134298	-0.982373	0.130029	0.039684	0.136444	0.989853	-0.990146	-0.127775	0.057309
570	390217													9.753489	0.341640	1.121445	0.122303	-0.983880	0.130468	0.038645	0.136076	0.989944	-0.991740	-0.116031	0.054665
571	390383													9.803790	0.330497	1.038615	0.110422	-0.985231	0.130869	0.037670	0.135728	0.990030	-0.993171	-0.104391	0.052101
572	390550													9.818192	0.306035	0.882942	0.098904	-0.986402	0.131262	0.036738	0.135439	0.990104	-0.994419	-0.093103	0.049634
573	390717													9.745856	0.281463	0.804469	0.087635	-0.987432	0.131524	0.035906	0.135077	0.990184	-0.995505	-0.082052	0.047292
574	390883													9.805694	0.313953	0.690636	0.076379	-0.988321	0.131862	0.035058	0.134829	0.990249	-0.996462	-0.071011	0.044947
575	391050													9.889971	0.265617	0.581656	0.065401	-0.989073	0.132124	0.034266	0.134555	0.990313	-0.997271	-0.060240	0.042691
576	391217													9.881060	0.286091	0.482010	0.054814	-0.989692	0.132306	0.033522	0.134255	0.990380	-0.997934	-0.049852	0.040536
577	391383													9.887123	0.274646	0.406471	0.044463	-0.990191	0.132455	0.032867	0.133964	0.990441	-0.998470	-0.039684	0.038501
578	391550													9.872781	0.279301	0.310085	0.034293	-0.990578	0.132586	0.032309	0.133694	0.990496	-0.998889	-0.029683	0.036589
579	391717													9.845971	0.283940	0.174617	0.024363	-0.990855	0.132715	0.031869	0.133457	0.990542	-0.999195	-0.019903	0.034829
580	391883													9.765204	0.299110	0.078594	0.014619	-0.991026	0.132867	0.031420	0.133271	0.990581	-0.999399	-0.010306	0.033086
581	392050													9.778282	0.326844	-0.019932	0.004901	-0.991097	0.133054	0.030788	0.133142	0.990619	-0.999514	-0.000758	0.031167
582	392217													9.817133	0.309832	-0.088610	-0.004711	-0.991056	0.133362	0.029917	0.133165	0.990642	-0.999541	0.008657	0.029022
583	392383													9.859691	0.260394	-0.177843	-0.014026	-0.990933	0.133625	0.028924	0.133180	0.990670	-0.999483	0.017760	0.026793
584	392550													9.848702	0.243702	-0.251028	-0.022928	-0.990673	0.134317	0.027858	0.133667	0.990635	-0.999349	0.026455	0.024534
585	392717													9.830187	0.217632	-0.341684	-0.031765	-0.990364	0.134798	0.026892	0.133971	0.990620	-0.999134	0.035092	0.022377
586	392883													9.805058	0.176803	-0.445358	-0.040367	-0.989993	0.135217	0.025984	0.134242	0.990608	-0.998847	0.043502	0.020305
587	393050													9.797553	0.195747	-0.536817	-0.048868	-0.989581	0.135428	0.025297	0.134321	0.990615	-0.998485	0.051835	0.018470
588	393217													9.792667	0.201684	-0.632651	-0.057210	-0.989098	0.135688	0.024768	0.134463	0.990609	-0.998055	0.060034	0.016805
589	393384													9.793645	0.197034	-0.695902	-0.065415	-0.988561	0.135895	0.024281	0.134569	0.990607	-0.997563	0.068100	0.015200
590	393550													9.767867	0.181691	-0.774954	-0.073394	-0.987978	0.136063	0.023871	0.134652	0.990605	-0.997017	0.075952	0.013701
591	393717													9.730552	0.197811	-0.833220	-0.081395	-0.987327	0.136235	0.023451	0.134753	0.990602	-0.996406	0.083825	0.012185
592	393884													9.748240	0.181825	-0.879277	-0.089457	-0.986624	0.136272	0.023015	0.134736	0.990614	-0.995725	0.091754	0.010654
593	394050													9.772433	0.191893	-0.959185	-0.097583	-0.985850	0.136296	0.022627	0.134717	0.990626	-0.994970	0.099752	0.009160
594	394217													9.805386	0.197879	-1.026474	-0.105658	-0.985005	0.136386	0.022280	0.134774	0.990626	-0.994153	0.107706	0.007706
595	394384													9.757326	0.183653	-1.120077	-0.113434	-0.984139	0.136396	0.022002	0.134760	0.990634	-0.993302	0.115373	0.006366
596	394550													9.681917	0.160813	-1.193254	-0.121245	-0.983215	0.136336	0.021756	0.134684	0.990650	-0.992384	0.123078	0.005061
597	394717													9.710643	0.179462	-1.240777	-0.128983	-0.982236	0.136292	0.021507	0.134637	0.990662	-0.991414	0.130710	0.003760
598	394884													9.730691	0.206969	-1.315824	-0.136601	-0.981208	0.136275	0.021255	0.134630	0.990668	-0.990398	0.138223	0.002465
599	395050													9.701950	0.197137	-1.376419	-0.144030	-0.980142	0.136294	0.021075	0.134661	0.990668	-0.989349	0.145558	0.001262
600	395217													9.706032	0.164000	-1.470772	-0.151381	-0.979029	0.136331	0.020831	0.134731	0.990663	-0.988256	0.152807	-0.000002
601	395384													9.600231	0.152630	-1.537606	-0.158668	-0.977877	0.136310	0.020544	0.134759	0.990665	-0.987118	0.159988	-0.001292
602	395550													9.623332	0.149619	-1.609385	-0.166029	-0.976674	0.136169	0.020281	0.134675	0.990682	-0.985912	0.167244	-0.002552
603	395717													9.633029	0.136086	-1.702086	-0.173417	-0.975422	0.135938	0.019950	0.134522	0.990710	-0.984646	0.174518	-0.003868
604	395884													9.594163	0.143609	-1.736383	-0.180770	-0.974132	0.135607	0.019606	0.134282	0.990749	-0.983330	0.181756	-0.005175
605	396050													9.579072	0.159762	-1.775246	-0.188250	-0.972769	0.135210	0.019265	0.133987	0.990796	-0.981932	0.189122	-0.006483
606	396217													9.597520	0.159110	-1.842292	-0.195636	-0.971365	0.134819	0.018916	0.133712	0.990840	-0.980494	0.196394	-0.007785
607	396384													9.537859	0.154143	-1.912481	-0.203126	-0.969895	0.134330	0.018617	0.133340	0.990895	-0.978976	0.203777	-0.009028
608	396550													9.544897	0.156612	-1.992488	-0.210726	-0.968338	0.133848	0.018305	0.132990	0.990948	-0.977374	0.211269	-0.010299
609	396717													9.562305	0.162399	-2.069547	-0.218258	-0.966730	0.133401	0.018043	0.132676	0.990995	-0.975724	0.218700	-0.011515
610	396884													9.443554	0.187695	-2.179296	-0.225664	-0.965090	0.132955	0.017775	0.132374	0.991040	-0.974043	0.226006	-0.012718
611	397050													9.471943	0.155646	-2.243878	-0.233243	-0.963334	0.132608	0.017446	0.132202	0.991069	-0.972262	0.233474	-0.014029
612	397217													9.574921	0.125484	-2.334886	-0.240752	-0.961532	0.132267	0.016978	0.132083	0.991093	-0.970438	0.240853	-0.015474
613	397384													9.627520	0.157904	-2.440500	-0.247915	-0.959762	0.131890	0.016437	0.131953	0.991120	-0.968642	0.247881	-0.016937
614	397550													9.509859	0.138856	-2.516939	-0.254596	-0.958054	0.131583	0.015889	0.131905	0.991135	-0.966917	0.254430	-0.018360
615	397717													9.414225	0.133916	-2.572521	-0.260880	-0.956401	0.131295	0.015426	0.131857	0.991149	-0.965248	0.260597	-0.019645
616	397884													9.394505	0.130822	-2.647877	-0.267168	-0.954682	0.131164	0.015082	0.131952	0.991141	-0.963532	0.266780	-0.020855
617	398050													9.379850	0.067148	-2.737415	-0.273462	-0.952903	0.131130	0.014801	0.132142	0.991120	-0.961769	0.272975	-0.022031
618	398217													9.487730	0.063187	-2.819027	-0.279597	-0.951139	0.130993	0.014564	0.132217	0.991114	-0.960007	0.279021	-0.023115
619	398384													9.403835	0.093852	-2.918859	-0.285358	-0.949441	0.130889	0.014492	0.132278	0.991107	-0.958312	0.284717	-0.023987
620	398550													9.378586	0.118240	-2.964766	-0.290846	-0.947778	0.130867	0.014658	0.132350	0.991095	-0.956658	0.290174	-0.024601
621	398717													9.449017	0.091451	-3.061186	-0.295895	-0.946204	0.130937	0.015047	0.132441	0.991077	-0.955102	0.295225	-0.024951
622	398884													9.478133	0.103540	-3.106860	-0.300310	-0.944801	0.131013	0.015538	0.132489	0.991063	-0.953715	0.299662	-0.025107
623	399050													9.479346	0.111275	-3.160333	-0.304048	-0.943594	0.131095	0.016078	0.132508	0.991052	-0.952521	0.303435	-0.025118
624	399217													9.460130	0.120051	-3.179839	-0.307006	-0.942621	0.131200	0.016621	0.132526	0.991040	-0.951563	0.306435	-0.025019
625	399384													9.381652	0.125156	-3.213843	-0.309223	-0.941877	0.131334	0.017145	0.132558	0.991027	-0.950835	0.308700	-0.024842
626	399550													9.331556	0.125439	-3.236390	-0.310917	-0.941297	0.131496	0.017658	0.132608	0.991011	-0.950273	0.310445	-0.024609
627	399717													9.290347	0.130982	-3.248203	-0.312227	-0.940839	0.131670	0.018170	0.132659	0.990995	-0.949834	0.311808	-0.024325
628	399884													9.308688	0.124364	-3.250009	-0.313186	-0.940497	0.131837	0.018650	0.132703	0.990980	-0.949509	0.312820	-0.024020
629	400050													9.321477	0.160338	-3.261545	-0.313790	-0.940270	0.132015	0.019108	0.132756	0.990965	-0.949300	0.313477	-0.023691
630	400217													9.315614	0.190123	-3.238071	-0.313942	-0.940186	0.132248	0.019602	0.132842	0.990943	-0.949240	0.313691	-0.023275
631	400384													9.259921	0.214600	-3.215210	-0.313753	-0.940200	0.132604	0.020085	0.133053	0.990905	-0.949292	0.313563	-0.022862
632	400550													9.253894	0.210134	-3.186368	-0.313408	-0.940257	0.133013	0.020515	0.133333	0.990859	-0.949397	0.313272	-0.022499
633	400717													9.285965	0.209440	-3.190727	-0.312876	-0.940373	0.133446	0.020809	0.133680	0.990806	-0.949566	0.312776	-0.022257
634	400884													9.281446	0.195880	-3.214302	-0.312070	-0.940572	0.133927	0.020990	0.134107	0.990745	-0.949827	0.311992	-0.022108
635	401050													9.299978	0.167606	-3.212984	-0.310993	-0.940872	0.134327	0.021047	0.134483	0.990692	-0.950179	0.310925	-0.022021
636	401217													9.354251	0.150193	-3.217979	-0.309557	-0.941299	0.134647	0.021010	0.134797	0.990650	-0.950649	0.309492	-0.021950
637	401384													9.405614	0.137417	-3.227206	-0.307732	-0.941871	0.134832	0.020900	0.134983	0.990628	-0.951243	0.307666	-0.021853
638	401550													9.457246	0.149521	-3.209973	-0.305438	-0.942602	0.134944	0.020809	0.135075	0.990617	-0.951985	0.305380	-0.021643
639	401717													9.519770	0.153427	-3.215239	-0.302604	-0.943508	0.134996	0.020739	0.135085	0.990617	-0.952891	0.302564	-0.021310
640	401884													9.595472	0.165094	-3.231452	-0.299040	-0.944646	0.134976	0.020687	0.134998	0.990630	-0.954016	0.299031	-0.020828
641	402050													9.641629	0.181345	-3.210675	-0.294483	-0.946081	0.134945	0.020647	0.134875	0.990648	-0.955434	0.294515	-0.020185
642	402217													9.721424	0.194451	-3.187632	-0.288608	-0.947882	0.135001	0.020638	0.134809	0.990657	-0.957225	0.288698	-0.019344
643	402384													9.769202	0.114577	-3.127375	-0.281173	-0.950097	0.135122	0.020751	0.134750	0.990662	-0.959433	0.281352	-0.018173
644	402550													9.681683	0.059372	-3.100041	-0.272141	-0.952737	0.135024	0.021014	0.134403	0.990704	-0.962028	0.272449	-0.016556
645	402717													9.545894	-0.002183	-2.953478	-0.261561	-0.955755	0.134607	0.021377	0.133692	0.990792	-0.964950	0.262030	-0.014537
646	402884													9.497592	0.018830	-2.776609	-0.249961	-0.958985	0.133668	0.021794	0.132443	0.990951	-0.968011	0.250612	-0.012205
647	403050													9.457221	0.105856	-2.573154	-0.237912	-0.962231	0.132324	0.022149	0.130826	0.991158	-0.971034	0.238739	-0.009813
648	403217													9.362128	0.221264	-2.358271	-0.226029	-0.965298	0.130809	0.022575	0.129058	0.991380	-0.973859	0.227034	-0.007379
649	403384													9.388922	0.295399	-2.201552	-0.214482	-0.968129	0.129322	0.023164	0.127324	0.991591	-0.976453	0.215674	-0.004883
650	403550													9.415979	0.354378	-2.075289	-0.203317	-0.970707	0.128027	0.023935	0.125792	0.991768	-0.978820	0.204707	-0.002342
651	403717													9.397414	0.360987	-2.028101	-0.192510	-0.973040	0.127014	0.024715	0.124587	0.991901	-0.980984	0.194090	0.000064
652	403884													9.425225	0.360688	-1.923489	-0.181995	-0.975125	0.126530	0.025417	0.123971	0.991960	-0.982971	0.183748	0.002223
653	404050													9.461723	0.281788	-1.787916	-0.171627	-0.977032	0.126301	0.025947	0.123676	0.991983	-0.984820	0.173529	0.004125
654	404217													9.641255	0.237354	-1.609119	-0.161222	-0.978817	0.126194	0.026260	0.123567	0.991989	-0.986569	0.163245	0.005782
655	404384													9.691596	0.305199	-1.509537	-0.150594	-0.980510	0.126182	0.026442	0.123597	0.991980	-0.988242	0.152723	0.007314
656	404550													9.609036	0.291687	-1.427672	-0.140020	-0.982055	0.126346	0.026594	0.123827	0.991947	-0.989792	0.142252	0.008778
657	404717													9.480471	0.308077	-1.324521	-0.129846	-0.983426	0.126541	0.026722	0.124105	0.991909	-0.991174	0.132177	0.010164
658	404884													9.459980	0.304336	-1.243350	-0.120134	-0.984604	0.126975	0.026902	0.124626	0.991839	-0.992393	0.122570	0.011516
659	405050													9.580759	0.285264	-1.129430	-0.110752	-0.985629	0.127552	0.027065	0.125302	0.991749	-0.993480	0.113290	0.012799
660	405217													9.688344	0.260205	-1.006728	-0.101347	-0.986555	0.128214	0.027153	0.126086	0.991648	-0.994480	0.103982	0.014009
661	405384													9.815695	0.241195	-0.843010	-0.091747	-0.987394	0.128981	0.027198	0.126995	0.991530	-0.995411	0.094478	0.015204
662	405550													9.778378	0.242772	-0.747735	-0.081794	-0.988177	0.129675	0.027245	0.127846	0.991420	-0.996277	0.084626	0.016466
663	405717													9.644062	0.249350	-0.646929	-0.071982	-0.988845	0.130403	0.027370	0.128735	0.991301	-0.997030	0.074925	0.017798
664	405884													9.621103	0.263465	-0.553897	-0.062533	-0.989396	0.131093	0.027608	0.129585	0.991184	-0.997661	0.065601	0.019212
665	406050													9.672182	0.274129	-0.444683	-0.053467	-0.989818	0.131917	0.027924	0.130573	0.991045	-0.998179	0.056672	0.020659
666	406217													9.782245	0.232611	-0.352470	-0.044642	-0.990139	0.132781	0.028184	0.131613	0.990901	-0.998605	0.047978	0.022031
667	406384													9.846587	0.204116	-0.257336	-0.035878	-0.990375	0.133682	0.028421	0.132703	0.990748	-0.998952	0.039346	0.023387
668	406550													9.866348	0.208196	-0.164150	-0.027149	-0.990540	0.134510	0.028677	0.133733	0.990602	-0.999220	0.030752	0.024775
669	406717													9.760173	0.229139	-0.111932	-0.018500	-0.990630	0.135315	0.029028	0.134749	0.990455	-0.999407	0.022251	0.026263
670	406884													9.666615	0.259885	-0.083088	-0.010188	-0.990622	0.136252	0.029491	0.135902	0.990283	-0.999513	0.014107	0.027830
671	407050													9.722763	0.267169	-0.049392	-0.002181	-0.990537	0.137227	0.029890	0.137102	0.990106	-0.999551	0.006261	0.029308
672	407217													9.776735	0.305330	-0.003645	0.005624	-0.990383	0.138237	0.030136	0.138344	0.989926	-0.999530	-0.001401	0.030625
673	407384													9.857018	0.368597	0.079432	0.013480	-0.990126	0.139528	0.030356	0.139882	0.989703	-0.999448	-0.009106	0.031942
674	407550													9.943670	0.335190	0.168582	0.021559	-0.989793	0.140875	0.030605	0.141496	0.989466	-0.999299	-0.017021	0.033343
675	407717													9.938063	0.280210	0.200310	0.030017	-0.989358	0.142374	0.030827	0.143286	0.989201	-0.999074	-0.025304	0.034800
676	407884													9.884859	0.268189	0.240907	0.038766	-0.988827	0.143936	0.031057	0.145167	0.988920	-0.998766	-0.033866	0.036337
677	408050													9.784701	0.261112	0.283716	0.047775	-0.988201	0.145519	0.031390	0.147098	0.988624	-0.998365	-0.042664	0.038048
678	408217													9.854181	0.226548	0.415196	0.057026	-0.987475	0.147109	0.031860	0.149074	0.988313	-0.997864	-0.051672	0.039962
679	408384													9.951114	0.163301	0.574002	0.066606	-0.986660	0.148543	0.032419	0.150935	0.988012	-0.997253	-0.060992	0.042040
680	408550													9.857114	0.113349	0.691924	0.076474	-0.985788	0.149579	0.033100	0.152445	0.987757	-0.996522	-0.070587	0.044288
681	408717													9.760417	0.135245	0.803935	0.086280	-0.984894	0.150133	0.033961	0.153515	0.987563	-0.995692	-0.080108	0.046693
682	408884													9.689190	0.163845	0.891743	0.095793	-0.983992	0.150279	0.034996	0.154209	0.987418	-0.994786	-0.089328	0.049208
683	409050													9.698713	0.256897	0.965669	0.105018	-0.983078	0.150099	0.036154	0.154608	0.987314	-0.993813	-0.098259	0.051779
684	409217													9.756795	0.347421	1.071220	0.114100	-0.982113	0.149787	0.037354	0.154906	0.987223	-0.992767	-0.107047	0.054360
685	409384													9.871601	0.412292	1.159212	0.123276	-0.981042	0.149533	0.038531	0.155301	0.987116	-0.991624	-0.115926	0.056946
686	409550													9.868985	0.450278	1.285595	0.132775	-0.979818	0.149421	0.039704	0.155893	0.986976	-0.990351	-0.125113	0.059601
687	409717													9.839436	0.451301	1.357205	0.142491	-0.978448	0.149452	0.040827	0.156674	0.986806	-0.988954	-0.134510	0.062272
688	409884													9.755329	0.406975	1.425369	0.152498	-0.976924	0.149546	0.041822	0.157559	0.986624	-0.987418	-0.144204	0.064885
689	410051													9.736622	0.372913	1.494645	0.162677	-0.975277	0.149572	0.042753	0.158416	0.986446	-0.985753	-0.154077	0.067467
690	410217													9.809847	0.393373	1.584024	0.173172	-0.973481	0.149490	0.043625	0.159216	0.986279	-0.983925	-0.164274	0.070040
691	410384													9.853010	0.374418	1.695191	0.184222	-0.971485	0.149265	0.044491	0.159950	0.986122	-0.981877	-0.175024	0.072688
692	410551													9.796635	0.368669	1.761716	0.195836	-0.969278	0.148825	0.045360	0.160555	0.985984	-0.979587	-0.186341	0.075409
693	410717													9.673155	0.401110	1.835836	0.207866	-0.966874	0.148144	0.046306	0.161010	0.985866	-0.977061	-0.198068	0.078241
694	410884													9.538383	0.443517	1.904741	0.220005	-0.964316	0.147285	0.047466	0.161388	0.985749	-0.974343	-0.209879	0.081279
695	411051													9.506209	0.463876	1.989780	0.232173	-0.961597	0.146383	0.048847	0.161833	0.985609	-0.971447	-0.221681	0.084545
696	411217													9.553005	0.496224	2.143283	0.244352	-0.958719	0.145433	0.050324	0.162315	0.985455	-0.968380	-0.233479	0.087909
697	411384													9.590978	0.533859	2.272938	0.256742	-0.955622	0.144464	0.051686	0.162837	0.985298	-0.965097	-0.245501	0.091200
698	411551													9.554123	0.591575	2.403697	0.269318	-0.952307	0.143455	0.052869	0.163354	0.985150	-0.961599	-0.257735	0.094342
699	411717													9.498515	0.577359	2.515730	0.281998	-0.948785	0.142423	0.053788	0.163849	0.985018	-0.957906	-0.270112	0.097239
700	411884													9.369040	0.610806	2.616860	0.294729	-0.945074	0.141316	0.054407	0.164241	0.984919	-0.954031	-0.282596	0.099826
701	412051													9.308658	0.620715	2.729663	0.307298	-0.941207	0.140347	0.054893	0.164770	0.984803	-0.950029	-0.294924	0.102299
702	412217													9.304370	0.602088	2.836965	0.319745	-0.937175	0.139519	0.055381	0.165482	0.984657	-0.945884	-0.307112	0.104814
703	412384													9.358394	0.581222	2.986184	0.332241	-0.932930	0.138773	0.055886	0.166344	0.984483	-0.941537	-0.319330	0.107404
704	412551													9.324954	0.577080	3.112468	0.344865	-0.928445	0.138049	0.056335	0.167279	0.984299	-0.936960	-0.331673	0.109992
705	412717													9.298010	0.579257	3.257656	0.357571	-0.923739	0.137292	0.056769	0.168240	0.984110	-0.932159	-0.344096	0.112597
706	412884													9.229999	0.578181	3.395471	0.370403	-0.918789	0.136488	0.057107	0.169187	0.983928	-0.927114	-0.356656	0.115137
707	413051													9.124883	0.592521	3.545860	0.383185	-0.913654	0.135666	0.057300	0.170107	0.983758	-0.921892	-0.369188	0.117535
708	413217													9.012620	0.646850	3.648339	0.395807	-0.908368	0.134927	0.057269	0.171055	0.983596	-0.916546	-0.381587	0.119726
709	413384													8.971341	0.701898	3.802894	0.408154	-0.902952	0.134490	0.056856	0.172176	0.983424	-0.911141	-0.393742	0.121612
710	413551													8.873659	0.740230	3.961141	0.420170	-0.897442	0.134371	0.056014	0.173443	0.983250	-0.905715	-0.405605	0.123145
711	413717													8.827785	0.773390	4.158222	0.431692	-0.891898	0.134756	0.054826	0.175061	0.983030	-0.900353	-0.416978	0.124472
712	413884													8.930721	0.723027	4.351643	0.443022	-0.886182	0.135695	0.053346	0.177148	0.982737	-0.894922	-0.428135	0.125755
713	414051													9.012189	0.636053	4.546799	0.454586	-0.880110	0.136960	0.051559	0.179510	0.982404	-0.889209	-0.439525	0.126980
714	414217													8.918977	0.540907	4.716313	0.466423	-0.873691	0.138253	0.049525	0.181843	0.982080	-0.883174	-0.451217	0.128085
715	414384													8.692591	0.563408	4.852695	0.478362	-0.867004	0.139545	0.047324	0.184126	0.981763	-0.876887	-0.463034	0.129109
716	414551													8.479965	0.511529	4.967854	0.489954	-0.860269	0.141006	0.044925	0.186453	0.981436	-0.870590	-0.474524	0.130001
717	414717													8.374275	0.389664	5.093364	0.500906	-0.853694	0.142475	0.042322	0.188578	0.981146	-0.864466	-0.485432	0.130590
718	414884													8.377724	0.348170	5.216327	0.511174	-0.847371	0.143748	0.039670	0.190334	0.980918	-0.858561	-0.495717	0.130909
719	415051													8.344916	0.406868	5.274643	0.521085	-0.841153	0.144676	0.037195	0.191727	0.980743	-0.852694	-0.505670	0.131193
720	415217													8.359152	0.525826	5.396564	0.530661	-0.834973	0.145669	0.034774	0.193166	0.980550	-0.846871	-0.515274	0.131541
721	415384													8.468211	0.660292	5.478203	0.540346	-0.828496	0.147037	0.031956	0.194824	0.980318	-0.840836	-0.525012	0.131748
722	415551													8.299834	0.787971	5.536582	0.550259	-0.821518	0.149407	0.028069	0.197030	0.979996	-0.834522	-0.535058	0.131477
723	415717													8.098813	0.584966	5.572783	0.559890	-0.814317	0.153007	0.022997	0.199866	0.979553	-0.828248	-0.544923	0.130630
724	415884													8.078176	-0.000260	5.665488	0.569004	-0.807184	0.157124	0.017294	0.202775	0.979073	-0.822153	-0.554379	0.129340
725	416051													8.006650	-0.563119	5.775014	0.577577	-0.800506	0.159984	0.012107	0.204357	0.978822	-0.816247	-0.563408	0.127724
726	416217													7.819768	-0.584733	5.964346	0.585289	-0.794763	0.160588	0.008790	0.204263	0.978877	-0.810777	-0.571514	0.126539
727	416384													7.771157	-0.403783	6.195279	0.591988	-0.789996	0.159552	0.007688	0.203494	0.979046	-0.805910	-0.578357	0.126539
728	416551													7.950813	-0.274015	6.383303	0.597800	-0.786030	0.157452	0.008263	0.202443	0.979259	-0.801603	-0.584100	0.127516
729	416717													7.860830	-0.000313	6.441307	0.602839	-0.782773	0.154438	0.009506	0.200597	0.979628	-0.797806	-0.589090	0.128369
730	416884													7.769390	0.341850	6.471352	0.607076	-0.780044	0.151625	0.010363	0.198564	0.980033	-0.794576	-0.593384	0.128628
731	417051													7.794610	0.473783	6.458391	0.610422	-0.777816	0.149626	0.010502	0.196835	0.980380	-0.792007	-0.596874	0.128322
732	417217													7.880900	0.389401	6.475078	0.613299	-0.775738	0.148640	0.010041	0.195829	0.980587	-0.789787	-0.599901	0.127891
733	417384													7.916362	0.169045	6.485971	0.615935	-0.773726	0.148233	0.009393	0.195361	0.980687	-0.787741	-0.602646	0.127597
734	417551													7.842809	-0.033333	6.474437	0.618253	-0.771922	0.147984	0.008899	0.195143	0.980734	-0.785929	-0.605025	0.127517
735	417717													7.711267	0.099686	6.554343	0.620026	-0.770568	0.147621	0.008821	0.194987	0.980766	-0.784532	-0.606798	0.127695
736	417884													7.659251	0.143403	6.605500	0.620992	-0.769770	0.147725	0.008884	0.195369	0.980689	-0.783766	-0.607688	0.128161
737	418051													7.766748	0.058709	6.626964	0.621087	-0.769626	0.148079	0.008984	0.195918	0.980579	-0.783691	-0.607694	0.128596
738	418217													7.691523	0.112436	6.579251	0.620531	-0.769992	0.148503	0.009082	0.196416	0.980479	-0.784129	-0.607069	0.128875
739	418384													7.629165	0.110833	6.505664	0.619150	-0.770982	0.149127	0.009147	0.196973	0.980366	-0.785219	-0.605630	0.129008
740	418551													7.743639	0.070545	6.422937	0.617066	-0.772545	0.149679	0.009308	0.197364	0.980286	-0.786857	-0.603508	0.128977
741	418717													7.749223	0.117720	6.413479	0.614471	-0.774500	0.150251	0.009566	0.197746	0.980207	-0.788881	-0.600871	0.128918
742	418884													7.649683	-0.018361	6.361120	0.611297	-0.776912	0.150744	0.010054	0.198086	0.980133	-0.791337	-0.597637	0.128901
743	419051													7.749146	-0.208305	6.308089	0.607370	-0.779990	0.150724	0.010966	0.197942	0.980152	-0.794343	-0.593663	0.128777
744	419217													7.687212	-0.248162	6.297658	0.602734	-0.783742	0.149869	0.012471	0.197048	0.980314	-0.797845	-0.588999	0.128542
745	419384													7.561035	-0.240523	6.277505	0.596957	-0.788455	0.148257	0.014691	0.195508	0.980592	-0.802138	-0.583194	0.128293
746	419551													7.665049	-0.138866	6.258142	0.589841	-0.794253	0.145775	0.017756	0.193234	0.980992	-0.807324	-0.576041	0.128080
747	419717													7.959323	0.219893	6.212830	0.581887	-0.800609	0.142945	0.021118	0.190581	0.981444	-0.812995	-0.568071	0.127804
748	419884													8.057282	0.400369	6.132806	0.573393	-0.807143	0.140502	0.024146	0.188068	0.981859	-0.818925	-0.559598	0.127326
749	420051													8.131384	0.471448	5.990091	0.564597	-0.813636	0.138660	0.026492	0.185775	0.982235	-0.824941	-0.550894	0.126443
750	420217													8.006003	0.462553	5.900755	0.555292	-0.820220	0.137436	0.028095	0.183663	0.982588	-0.831181	-0.541762	0.125030
751	420384													7.986788	0.431734	5.785792	0.545019	-0.827201	0.136721	0.029034	0.181592	0.982945	-0.837920	-0.531755	0.122988
752	420551													8.202936	0.412864	5.665922	0.533838	-0.834530	0.136293	0.029525	0.179480	0.983318	-0.845071	-0.520909	0.120453
753	420717													8.423301	0.444862	5.526418	0.522205	-0.841897	0.136058	0.029754	0.177427	0.983684	-0.852301	-0.509637	0.117703
754	420884													8.543108	0.431366	5.321847	0.510458	-0.849068	0.136072	0.029859	0.175648	0.984000	-0.859384	-0.498228	0.115013
755	421051													8.601239	0.384705	5.179753	0.498757	-0.855955	0.136319	0.029777	0.174106	0.984277	-0.866230	-0.486856	0.112325
756	421217													8.614154	0.309905	4.974380	0.487017	-0.862640	0.136627	0.029557	0.172622	0.984545	-0.872892	-0.475451	0.109567
757	421384													8.615306	0.288880	4.811537	0.475151	-0.869179	0.136967	0.029283	0.171195	0.984802	-0.879417	-0.463919	0.106796
758	421551													8.629198	0.224841	4.638346	0.462979	-0.875675	0.137269	0.029079	0.169789	0.985051	-0.885892	-0.452067	0.104072
759	421717													8.726949	0.247202	4.508765	0.450480	-0.882159	0.137343	0.028935	0.168182	0.985331	-0.892317	-0.439898	0.101288
760	421884													8.897331	0.321251	4.386641	0.437744	-0.888542	0.137379	0.028876	0.166611	0.985600	-0.898636	-0.427473	0.098590
761	422051													9.028132	0.335406	4.258258	0.424997	-0.894687	0.137525	0.028879	0.165253	0.985828	-0.904734	-0.415003	0.096069
762	422217													9.021458	0.279945	4.115901	0.412267	-0.900596	0.137703	0.028918	0.164005	0.986036	-0.910604	-0.402527	0.093658
763	422384													9.024558	0.258325	3.964415	0.399511	-0.906300	0.137882	0.028937	0.162799	0.986235	-0.916272	-0.390022	0.091266
764	422551													9.082644	0.241377	3.833621	0.386740	-0.911805	0.138003	0.028902	0.161558	0.986440	-0.921736	-0.377507	0.088833
765	422717													9.131094	0.255899	3.698001	0.373937	-0.917123	0.138048	0.028727	0.160228	0.986662	-0.927009	-0.364984	0.086262
766	422884													9.157658	0.280426	3.620650	0.361062	-0.922272	0.138015	0.028431	0.158817	0.986899	-0.932108	-0.352408	0.083564
767	423051													9.240841	0.278687	3.480442	0.348180	-0.927212	0.138015	0.028051	0.157467	0.987126	-0.937008	-0.339826	0.080836
768	423217													9.255654	0.249557	3.349858	0.335271	-0.931950	0.138063	0.027658	0.156218	0.987335	-0.941716	-0.327207	0.078151
769	423384													9.281294	0.257175	3.232371	0.322287	-0.936521	0.138057	0.027339	0.154986	0.987538	-0.946247	-0.314496	0.075554
770	423551													9.336995	0.284983	3.061315	0.309297	-0.940886	0.138090	0.027117	0.153878	0.987718	-0.950579	-0.301753	0.073108
771	423717													9.381962	0.285804	2.895710	0.296323	-0.945036	0.138199	0.026946	0.152912	0.987872	-0.954708	-0.289005	0.070777
772	423884													9.423111	0.269229	2.776670	0.283191	-0.949018	0.138450	0.026779	0.152128	0.987998	-0.958690	-0.276085	0.068495
773	424051													9.502088	0.244418	2.663949	0.269996	-0.952807	0.138783	0.026557	0.151450	0.988108	-0.962495	-0.263099	0.066194
774	424217													9.599569	0.253882	2.530884	0.256834	-0.956380	0.139188	0.026416	0.150912	0.988194	-0.966094	-0.250125	0.064023
775	424384													9.605730	0.306768	2.382082	0.243726	-0.959725	0.139733	0.026312	0.150568	0.988249	-0.969487	-0.237186	0.061949
776	424551													9.630676	0.271978	2.239798	0.230683	-0.962821	0.140572	0.026125	0.150545	0.988258	-0.972678	-0.224301	0.059882
777	424717													9.626780	0.337406	2.058274	0.217776	-0.965677	0.141570	0.025924	0.150724	0.988236	-0.975654	-0.211544	0.057858
778	424884													9.598957	0.322859	1.935721	0.205108	-0.968233	0.143020	0.025779	0.151420	0.988133	-0.978400	-0.198988	0.056018
779	425051													9.673556	0.249578	1.783539	0.192652	-0.970548	0.144643	0.025608	0.152327	0.987998	-0.980933	-0.186636	0.054200
780	425217													9.676807	0.198827	1.629569	0.180395	-0.972666	0.146211	0.025345	0.153197	0.987871	-0.983268	-0.174502	0.052288
781	425384													9.749351	0.159126	1.545974	0.168429	-0.974594	0.147641	0.024944	0.153947	0.987764	-0.985398	-0.162685	0.050239
782	425551													9.779933	0.182607	1.433183	0.156929	-0.976316	0.148932	0.024480	0.154600	0.987674	-0.987306	-0.151349	0.048161
783	425717													9.784426	0.163765	1.351060	0.145840	-0.977844	0.150170	0.024083	0.155257	0.987581	-0.989015	-0.140412	0.046192
784	425884													9.825578	0.147099	1.278013	0.135069	-0.979220	0.151273	0.023805	0.155835	0.987496	-0.990550	-0.129779	0.044359
785	426051													9.773335	0.140581	1.188438	0.124475	-0.980475	0.152234	0.023635	0.156313	0.987425	-0.991941	-0.119311	0.042630
786	426217													9.798059	0.146537	1.069947	0.113980	-0.981614	0.153111	0.023483	0.156735	0.987362	-0.993205	-0.108944	0.040916
787	426384													9.798283	0.142096	0.960797	0.103615	-0.982644	0.153868	0.023385	0.157064	0.987311	-0.994343	-0.098702	0.039253
788	426551													9.747583	0.124633	0.852123	0.093319	-0.983590	0.154412	0.023348	0.157208	0.987289	-0.995362	-0.088527	0.037636
789	426718													9.775608	0.176799	0.787594	0.082985	-0.984447	0.154845	0.023317	0.157257	0.987282	-0.996278	-0.078319	0.036004
790	426884													9.831162	0.167386	0.705994	0.072717	-0.985211	0.155150	0.023276	0.157196	0.987293	-0.997081	-0.068182	0.034363
791	427051													9.837622	0.190355	0.623800	0.062595	-0.985864	0.155418	0.023218	0.157120	0.987307	-0.997769	-0.058192	0.032724
792	427218													9.803238	0.175907	0.521344	0.052650	-0.986422	0.155565	0.023192	0.156946	0.987335	-0.998344	-0.048375	0.031141
793	427384													9.765242	0.155921	0.420640	0.042722	-0.986895	0.155603	0.023161	0.156681	0.987378	-0.998818	-0.038579	0.029552
794	427551													9.775681	0.142958	0.312342	0.032739	-0.987292	0.155508	0.023119	0.156298	0.987439	-0.999197	-0.028732	0.027943
795	427718													9.777411	0.126594	0.240111	0.022684	-0.987611	0.155273	0.023081	0.155789	0.987521	-0.999476	-0.018817	0.026329
796	427884													9.805139	0.165795	0.152869	0.012595	-0.987848	0.154910	0.023065	0.155168	0.987619	-0.999655	-0.008866	0.024739
797	428051													9.807461	0.182025	0.054246	0.002533	-0.987949	0.154759	0.023111	0.154776	0.987679	-0.999730	0.001075	0.023224
798	428218													9.739748	0.197801	-0.040754	-0.007574	-0.987951	0.154579	0.023175	0.154368	0.987742	-0.999703	0.011063	0.021726
799	428384													9.774970	0.226423	-0.133422	-0.017797	-0.987840	0.154454	0.023475	0.154023	0.987788	-0.999566	0.021206	0.020449
800	428551													9.776559	0.203413	-0.255437	-0.027940	-0.987611	0.154414	0.023883	0.153771	0.987818	-0.999324	0.031287	0.019290
801	428718													9.794107	0.219277	-0.356830	-0.037984	-0.987280	0.154387	0.024342	0.153538	0.987843	-0.998982	0.041281	0.018200
802	428884													9.831646	0.211346	-0.436211	-0.047948	-0.986861	0.154290	0.024765	0.153246	0.987878	-0.998543	0.051188	0.017092
803	429051													9.842666	0.231664	-0.563318	-0.057624	-0.986363	0.154165	0.025182	0.152936	0.987915	-0.998021	0.060810	0.016026
804	429218													9.842638	0.231145	-0.677943	-0.067049	-0.985772	0.154136	0.025591	0.152734	0.987936	-0.997421	0.070184	0.014986
805	429384													9.864108	0.210700	-0.787509	-0.076153	-0.985123	0.154057	0.025828	0.152505	0.987965	-0.996762	0.079215	0.013830
806	429551													9.758955	0.190478	-0.838913	-0.084943	-0.984458	0.153709	0.025924	0.152030	0.988036	-0.996049	0.087911	0.012607
807	429718													9.773169	0.274226	-0.896921	-0.093658	-0.983721	0.153364	0.026071	0.151565	0.988103	-0.995263	0.096542	0.011451
808	429884													9.783643	0.256614	-0.975693	-0.102298	-0.982908	0.153062	0.026244	0.151149	0.988163	-0.994408	0.105104	0.010333
809	430051													9.781849	0.252424	-1.040016	-0.110855	-0.982036	0.152694	0.026396	0.150677	0.988231	-0.993486	0.113581	0.009218
810	430218													9.765045	0.250366	-1.130272	-0.119198	-0.981117	0.152321	0.026518	0.150214	0.988298	-0.992516	0.121843	0.008112
811	430384													9.780807	0.236649	-1.222738	-0.127254	-0.980171	0.151894	0.026594	0.149712	0.988372	-0.991514	0.129814	0.007015
812	430551													9.657018	0.250356	-1.281211	-0.135082	-0.979190	0.151460	0.026630	0.149218	0.988446	-0.990476	0.137555	0.005920
813	430718													9.645565	0.250169	-1.388946	-0.143047	-0.978124	0.151034	0.026600	0.148749	0.988517	-0.989358	0.145422	0.004740
814	430884													9.760659	0.265467	-1.413223	-0.150970	-0.976999	0.150604	0.026563	0.148285	0.988588	-0.988181	0.153248	0.003566
815	431051													9.876156	0.279745	-1.500152	-0.158593	-0.975854	0.150192	0.026530	0.147851	0.988654	-0.986988	0.160778	0.002441
816	431218													9.843319	0.277702	-1.552352	-0.165747	-0.974712	0.149881	0.026576	0.147513	0.988703	-0.985810	0.167858	0.001454
817	431384													9.756451	0.288580	-1.635774	-0.172609	-0.973558	0.149633	0.026659	0.147240	0.988741	-0.984630	0.174654	0.000539
818	431551													9.644635	0.307779	-1.722412	-0.179279	-0.972373	0.149497	0.026770	0.147081	0.988762	-0.983434	0.181267	-0.000339
819	431718													9.596385	0.266661	-1.884833	-0.185872	-0.971130	0.149526	0.026822	0.147106	0.988757	-0.982208	0.187793	-0.001295
820	431884													9.530625	0.219497	-1.979661	-0.192238	-0.969880	0.149588	0.026787	0.147188	0.988746	-0.980983	0.194082	-0.002315
821	432051													9.464908	0.243336	-2.063518	-0.198471	-0.968617	0.149634	0.026637	0.147284	0.988736	-0.979745	0.200221	-0.003431
822	432218													9.562634	0.263757	-2.074725	-0.204604	-0.967301	0.149883	0.026503	0.147591	0.988693	-0.978486	0.206263	-0.004561
823	432384													9.644206	0.238923	-2.127192	-0.210421	-0.966000	0.150227	0.026471	0.147981	0.988636	-0.977252	0.212006	-0.005568
824	432551													9.578604	0.244375	-2.235037	-0.215822	-0.964744	0.150631	0.026510	0.148420	0.988569	-0.976073	0.217349	-0.006456
825	432718													9.525394	0.242997	-2.284657	-0.221027	-0.963487	0.151130	0.026665	0.148934	0.988487	-0.974903	0.222512	-0.007227
826	432884													9.536245	0.226953	-2.340955	-0.226021	-0.962244	0.151662	0.026870	0.149473	0.988401	-0.973752	0.227475	-0.007929
827	433051													9.486055	0.247590	-2.401393	-0.230778	-0.961013	0.152304	0.027082	0.150124	0.988296	-0.972629	0.232202	-0.008619
828	433218													9.509125	0.212417	-2.488385	-0.235299	-0.959811	0.152962	0.027323	0.150786	0.988189	-0.971539	0.236699	-0.009255
829	433384													9.569214	0.188329	-2.504548	-0.239401	-0.958698	0.153572	0.027509	0.151411	0.988088	-0.970531	0.240774	-0.009875
830	433551													9.582601	0.169561	-2.538071	-0.243022	-0.957711	0.154044	0.027587	0.151917	0.988008	-0.969628	0.244357	-0.010499
831	433718													9.599117	0.189041	-2.542813	-0.246187	-0.956848	0.154384	0.027638	0.152291	0.987949	-0.968828	0.247487	-0.011047
832	433884													9.559321	0.189005	-2.591463	-0.248924	-0.956101	0.154623	0.027705	0.152553	0.987907	-0.968127	0.250198	-0.011486
833	434051													9.495277	0.208449	-2.615398	-0.251264	-0.955470	0.154739	0.027815	0.152674	0.987885	-0.967519	0.252524	-0.011785
834	434218													9.400421	0.224716	-2.650003	-0.253382	-0.954915	0.154710	0.027959	0.152633	0.987887	-0.966962	0.254638	-0.011976
835	434384													9.412118	0.233888	-2.682480	-0.255478	-0.954368	0.154640	0.028119	0.152546	0.987896	-0.966406	0.256734	-0.012136
836	434551													9.420294	0.244241	-2.702143	-0.257376	-0.953880	0.154500	0.028217	0.152399	0.987916	-0.965899	0.258625	-0.012308
837	434718													9.428238	0.231067	-2.728862	-0.259025	-0.953461	0.154332	0.028288	0.152228	0.987941	-0.965456	0.260267	-0.012459
838	434884													9.465355	0.197011	-2.752213	-0.260312	-0.953156	0.154052	0.028279	0.151957	0.987982	-0.965110	0.261540	-0.012602
839	435051													9.563439	0.240784	-2.707478	-0.261237	-0.952968	0.153647	0.028148	0.151586	0.988043	-0.964864	0.262438	-0.012776
840	435218													9.533251	0.241897	-2.673003	-0.261667	-0.952919	0.153218	0.027980	0.151192	0.988108	-0.964752	0.262843	-0.012900
841	435384													9.545247	0.265389	-2.661695	-0.261737	-0.952964	0.152817	0.027851	0.150813	0.988170	-0.964737	0.262897	-0.012932
842	435551													9.548236	0.262874	-2.640675	-0.261432	-0.953099	0.152499	0.027746	0.150508	0.988219	-0.964823	0.262584	-0.012903
843	435718													9.525113	0.275011	-2.647265	-0.260746	-0.953323	0.152271	0.027648	0.150288	0.988256	-0.965011	0.261894	-0.012829
844	435884													9.510870	0.289336	-2.630233	-0.259648	-0.953631	0.152221	0.027582	0.150240	0.988265	-0.965309	0.260800	-0.012707
845	436051													9.420689	0.247369	-2.618206	-0.258189	-0.954010	0.152325	0.027562	0.150333	0.988251	-0.965701	0.259354	-0.012520
846	436218													9.362513	0.214599	-2.571733	-0.256568	-0.954429	0.152439	0.027616	0.150415	0.988237	-0.966132	0.257759	-0.012235
847	436384													9.361732	0.214869	-2.512903	-0.255117	-0.954803	0.152531	0.027683	0.150473	0.988226	-0.966514	0.256336	-0.011956
848	436551													9.382163	0.222965	-2.442549	-0.253887	-0.955125	0.152573	0.027764	0.150480	0.988223	-0.966835	0.255133	-0.011687
849	436718													9.391255	0.227974	-2.402619	-0.252923	-0.955378	0.152587	0.027849	0.150461	0.988224	-0.967085	0.254194	-0.011449
850	436884													9.374857	0.254890	-2.405838	-0.252167	-0.955580	0.152576	0.027870	0.150435	0.988227	-0.967282	0.253450	-0.011303
851	437051													9.388796	0.245337	-2.426377	-0.251620	-0.955718	0.152610	0.027874	0.150462	0.988223	-0.967425	0.252911	-0.011219
852	437218													9.457845	0.245922	-2.442331	-0.251201	-0.955822	0.152652	0.027884	0.150497	0.988217	-0.967533	0.252498	-0.011154
853	437384													9.464762	0.245886	-2.422477	-0.250764	-0.955929	0.152702	0.027927	0.150533	0.988210	-0.967645	0.252072	-0.011052
854	437551													9.497160	0.256972	-2.421837	-0.250153	-0.956080	0.152757	0.028037	0.150554	0.988204	-0.967800	0.251485	-0.010856
855	437718													9.534099	0.232332	-2.391007	-0.249378	-0.956267	0.152853	0.028146	0.150616	0.988192	-0.967997	0.250735	-0.010645
856	437884													9.514395	0.240784	-2.375580	-0.248397	-0.956511	0.152922	0.028204	0.150661	0.988183	-0.968248	0.249775	-0.010446
857	438051													9.470678	0.243980	-2.314832	-0.247318	-0.956785	0.152956	0.028234	0.150677	0.988180	-0.968523	0.248713	-0.010252
858	438218													9.429614	0.268032	-2.261686	-0.246305	-0.957044	0.152970	0.028243	0.150677	0.988179	-0.968781	0.247714	-0.010082
859	438384													9.412777	0.245508	-2.287441	-0.245457	-0.957255	0.153017	0.028255	0.150714	0.988174	-0.968996	0.246877	-0.009946
860	438551													9.409312	0.234253	-2.289871	-0.244834	-0.957421	0.152978	0.028210	0.150679	0.988180	-0.969155	0.246255	-0.009882
861	438718													9.442476	0.205749	-2.308043	-0.244395	-0.957555	0.152838	0.028099	0.150558	0.988202	-0.969269	0.245806	-0.009889
862	438884													9.479825	0.216899	-2.330453	-0.244072	-0.957666	0.152657	0.027969	0.150401	0.988229	-0.969354	0.245469	-0.009924
863	439051													9.499914	0.234485	-2.314790	-0.243780	-0.957770	0.152472	0.027880	0.150229	0.988258	-0.969430	0.245169	-0.009920
864	439218													9.523486	0.244527	-2.323287	-0.243407	-0.957887	0.152337	0.027880	0.150086	0.988280	-0.969523	0.244801	-0.009826
865	439384													9.480967	0.248191	-2.328013	-0.242896	-0.958028	0.152262	0.027993	0.149975	0.988293	-0.969648	0.244315	-0.009610
866	439551													9.432241	0.225235	-2.339499	-0.242463	-0.958140	0.152248	0.028142	0.149919	0.988298	-0.969752	0.243910	-0.009386
867	439718													9.418863	0.226883	-2.344526	-0.242151	-0.958229	0.152188	0.028201	0.149838	0.988308	-0.969829	0.243611	-0.009261
868	439884													9.381479	0.263022	-2.332120	-0.242084	-0.958259	0.152104	0.028342	0.149716	0.988323	-0.969841	0.243568	-0.009085
869	440051													9.450024	0.284809	-2.347193	-0.242197	-0.958220	0.152166	0.028601	0.149716	0.988315	-0.969806	0.243719	-0.008854
870	440218													9.439713	0.259935	-2.354081	-0.242422	-0.958149	0.152258	0.028866	0.149746	0.988303	-0.969741	0.243981	-0.008644
871	440384													9.437332	0.264307	-2.342846	-0.242750	-0.958048	0.152368	0.029066	0.149813	0.988287	-0.969653	0.244335	-0.008521
872	440551													9.466229	0.266885	-2.365769	-0.243081	-0.957947	0.152476	0.029251	0.149880	0.988271	-0.969565	0.244690	-0.008412
873	440718													9.473048	0.264147	-2.354768	-0.243409	-0.957846	0.152586	0.029333	0.149976	0.988254	-0.969480	0.245026	-0.008409
874	440884													9.476226	0.253523	-2.367235	-0.243657	-0.957760	0.152730	0.029434	0.150102	0.988232	-0.969415	0.245286	-0.008383
875	441051													9.448561	0.249640	-2.366906	-0.243853	-0.957695	0.152829	0.029461	0.150198	0.988217	-0.969365	0.245482	-0.008412
876	441218													9.427653	0.256405	-2.357066	-0.244084	-0.957629	0.152870	0.029490	0.150235	0.988210	-0.969306	0.245715	-0.008430
877	441384													9.413631	0.256099	-2.364384	-0.244431	-0.957538	0.152885	0.029506	0.150250	0.988208	-0.969218	0.246060	-0.008473
878	441551													9.401323	0.274632	-2.369523	-0.244913	-0.957415	0.152887	0.029499	0.150258	0.988207	-0.969096	0.246535	-0.008557
879	441718													9.464420	0.281076	-2.366632	-0.245502	-0.957260	0.152909	0.029485	0.150290	0.988202	-0.968948	0.247114	-0.008672
880	441884													9.512856	0.294027	-2.335788	-0.246018	-0.957110	0.153024	0.029492	0.150411	0.988184	-0.968817	0.247624	-0.008777
881	442051													9.543684	0.296494	-2.328903	-0.246438	-0.956976	0.153185	0.029539	0.150570	0.988158	-0.968708	0.248045	-0.008838
882	442218													9.508213	0.254999	-2.356523	-0.246705	-0.956871	0.153412	0.029610	0.150788	0.988123	-0.968638	0.248317	-0.008867
883	442384													9.463007	0.227715	-2.381907	-0.246932	-0.956784	0.153587	0.029663	0.150957	0.988095	-0.968579	0.248548	-0.008895
884	442551													9.472396	0.217840	-2.375696	-0.247145	-0.956713	0.153684	0.029791	0.151027	0.988081	-0.968520	0.248778	-0.008825
885	442718													9.492813	0.216550	-2.395165	-0.247280	-0.956677	0.153693	0.029878	0.151015	0.988080	-0.968483	0.248924	-0.008759
