// Start Time: Unknown
// Update Rate: 60.0Hz
//Filter Profile: human (46.1)
// Option Flags: AHS Disabled ICC Disabled
// Firmware Version: 4.0.2
0	sampleTimeFine	Year	Month	Day	Second	UTC_Nano	UTC_Year	UTC_Month	UTC_Day	UTC_Hour	UTC_Minute	UTC_Second	UTC_Valid	Acc_X	Acc_Y	Acc_Z	Mat[1][1]	Mat[2][1]	Mat[3][1]	Mat[1][2]	Mat[2][2]	Mat[3][2]	Mat[1][3]	Mat[2][3]	Mat[3][3]
0	295048													0.000000	0.000000	0.000000	0.343415	-0.865782	-0.363988	-0.069828	-0.410022	0.909399	-0.936584	-0.286884	-0.201264
1	295215													9.174223	-0.647580	3.390806	0.342319	-0.866972	-0.362185	-0.069501	-0.407783	0.910430	-0.937010	-0.286485	-0.199847
2	295382													9.209453	-0.711469	3.361553	0.342601	-0.866281	-0.363569	-0.068839	-0.409097	0.909891	-0.936956	-0.286701	-0.199791
3	295548													9.196260	-0.707941	3.367423	0.342516	-0.866283	-0.363642	-0.069098	-0.409234	0.909809	-0.936968	-0.286497	-0.200028
4	295715													9.221901	-0.680606	3.353846	0.342521	-0.866600	-0.362882	-0.069498	-0.408558	0.910082	-0.936936	-0.286503	-0.200167
5	295882													9.193249	-0.683903	3.360401	0.342379	-0.866924	-0.362243	-0.069702	-0.407918	0.910354	-0.936973	-0.286437	-0.200089
6	296048													9.198609	-0.717058	3.370161	0.342275	-0.867042	-0.362057	-0.069828	-0.407738	0.910425	-0.937001	-0.286335	-0.200102
7	296215													9.211734	-0.709269	3.360780	0.342207	-0.867185	-0.361780	-0.070036	-0.407495	0.910518	-0.937011	-0.286248	-0.200182
8	296382													9.215467	-0.687880	3.359149	0.342166	-0.867089	-0.362048	-0.070209	-0.407821	0.910359	-0.937013	-0.286075	-0.200420
9	296548													9.208776	-0.673131	3.343425	0.342172	-0.867147	-0.361904	-0.070327	-0.407707	0.910401	-0.937002	-0.286062	-0.200489
10	296715													9.207386	-0.663419	3.358280	0.342158	-0.867076	-0.362087	-0.070418	-0.407924	0.910296	-0.937000	-0.285968	-0.200632
11	296882													9.210493	-0.661863	3.355051	0.342195	-0.867025	-0.362174	-0.070461	-0.408036	0.910243	-0.936983	-0.285961	-0.200719
12	297048													9.204063	-0.667170	3.370157	0.342200	-0.867046	-0.362120	-0.070515	-0.407997	0.910256	-0.936978	-0.285955	-0.200756
13	297215													9.212338	-0.686446	3.363916	0.342217	-0.867079	-0.362024	-0.070578	-0.407919	0.910286	-0.936966	-0.285964	-0.200794
14	297382													9.198603	-0.690609	3.373479	0.342279	-0.867100	-0.361915	-0.070666	-0.407846	0.910312	-0.936937	-0.286006	-0.200872
15	297548													9.189519	-0.694936	3.382080	0.342339	-0.867098	-0.361862	-0.070725	-0.407822	0.910318	-0.936911	-0.286045	-0.200939
16	297715													9.209428	-0.702607	3.367446	0.342404	-0.867056	-0.361903	-0.070812	-0.407906	0.910274	-0.936881	-0.286054	-0.201066
17	297882													9.203262	-0.715034	3.378053	0.342420	-0.867019	-0.361977	-0.070885	-0.408009	0.910222	-0.936869	-0.286020	-0.201170
18	298048													9.198717	-0.705346	3.376329	0.342450	-0.866995	-0.362006	-0.070973	-0.408073	0.910186	-0.936852	-0.286001	-0.201278
19	298215													9.203967	-0.707402	3.392169	0.342500	-0.867016	-0.361907	-0.071058	-0.408007	0.910210	-0.936827	-0.286030	-0.201351
20	298382													9.185034	-0.690433	3.394228	0.342550	-0.866977	-0.361953	-0.071135	-0.408090	0.910166	-0.936803	-0.286030	-0.201464
21	298548													9.201223	-0.695204	3.387101	0.342579	-0.866939	-0.362017	-0.071205	-0.408185	0.910118	-0.936787	-0.286010	-0.201566
22	298715													9.184634	-0.681629	3.394855	0.342571	-0.866882	-0.362160	-0.071241	-0.408345	0.910043	-0.936787	-0.285954	-0.201645
23	298882													9.200377	-0.693187	3.382108	0.342586	-0.866821	-0.362292	-0.071289	-0.408501	0.909970	-0.936778	-0.285916	-0.201742
24	299048													9.199707	-0.682473	3.350066	0.342635	-0.866799	-0.362300	-0.071321	-0.408530	0.909954	-0.936757	-0.285943	-0.201798
25	299215													9.194078	-0.689661	3.382044	0.342669	-0.866796	-0.362275	-0.071342	-0.408518	0.909958	-0.936743	-0.285969	-0.201825
26	299382													9.198452	-0.692944	3.376669	0.342684	-0.866759	-0.362349	-0.071358	-0.408604	0.909918	-0.936737	-0.285958	-0.201873
27	299548													9.189137	-0.704781	3.388700	0.342687	-0.866732	-0.362409	-0.071379	-0.408674	0.909885	-0.936734	-0.285937	-0.201914
28	299715													9.187366	-0.709098	3.374148	0.342668	-0.866772	-0.362333	-0.071361	-0.408584	0.909927	-0.936742	-0.285947	-0.201862
29	300048													9.192327	-0.699985	3.392061	0.342670	-0.866712	-0.362475	-0.071397	-0.408745	0.909852	-0.936739	-0.285900	-0.201945
30	300215													9.194526	-0.709913	3.371773	0.342651	-0.866661	-0.362614	-0.071378	-0.408880	0.909792	-0.936747	-0.285858	-0.201964
31	300382													9.192609	-0.695390	3.366477	0.342625	-0.866708	-0.362527	-0.071365	-0.408779	0.909839	-0.936758	-0.285862	-0.201911
32	300548													9.199518	-0.668697	3.364253	0.342602	-0.866693	-0.362584	-0.071361	-0.408833	0.909815	-0.936767	-0.285830	-0.201915
33	300715													9.201900	-0.689503	3.382767	0.342546	-0.866682	-0.362663	-0.071395	-0.408914	0.909776	-0.936784	-0.285748	-0.201948
34	300882													9.231894	-0.686725	3.389569	0.342534	-0.866755	-0.362500	-0.071427	-0.408750	0.909847	-0.936786	-0.285762	-0.201921
35	301048													9.202497	-0.691524	3.379133	0.342484	-0.866809	-0.362417	-0.071452	-0.408659	0.909886	-0.936803	-0.285726	-0.201895
36	301215													9.189104	-0.713071	3.355852	0.342471	-0.866842	-0.362352	-0.071505	-0.408604	0.909906	-0.936803	-0.285707	-0.201919
37	301382													9.201764	-0.697493	3.328326	0.342468	-0.866841	-0.362357	-0.071582	-0.408632	0.909888	-0.936799	-0.285669	-0.201993
38	301548													9.320569	-0.712169	3.330955	0.342659	-0.866815	-0.362239	-0.071577	-0.408549	0.909925	-0.936729	-0.285866	-0.202037
39	301715													9.177938	-0.656041	3.400837	0.342637	-0.866867	-0.362136	-0.071393	-0.408380	0.910016	-0.936751	-0.285951	-0.201815
40	301882													9.244800	-0.657740	3.358409	0.342752	-0.866924	-0.361890	-0.071215	-0.408094	0.910158	-0.936723	-0.286187	-0.201613
41	302048													9.208758	-0.702021	3.399150	0.342928	-0.866877	-0.361835	-0.071224	-0.408078	0.910164	-0.936658	-0.286349	-0.201683
42	302215													9.161839	-0.705897	3.409560	0.342990	-0.866899	-0.361724	-0.071212	-0.407972	0.910213	-0.936636	-0.286435	-0.201664
43	302382													9.190173	-0.668933	3.414795	0.343034	-0.866937	-0.361591	-0.071197	-0.407838	0.910274	-0.936621	-0.286511	-0.201625
44	302548													9.198195	-0.654968	3.398287	0.343041	-0.866995	-0.361444	-0.071158	-0.407673	0.910351	-0.936621	-0.286568	-0.201542
45	302715													9.169005	-0.701291	3.370411	0.343016	-0.867073	-0.361281	-0.071114	-0.407483	0.910440	-0.936634	-0.286603	-0.201434
46	302882													9.163158	-0.713997	3.386257	0.343043	-0.867093	-0.361208	-0.071103	-0.407409	0.910474	-0.936625	-0.286648	-0.201412
47	303048													9.196692	-0.699832	3.378397	0.343067	-0.867144	-0.361063	-0.071130	-0.407270	0.910534	-0.936614	-0.286691	-0.201401
48	303215													9.184752	-0.687605	3.369739	0.343123	-0.867207	-0.360858	-0.071184	-0.407084	0.910612	-0.936589	-0.286765	-0.201411
49	303382													9.194687	-0.688577	3.384179	0.343159	-0.867227	-0.360775	-0.071243	-0.407024	0.910635	-0.936571	-0.286790	-0.201458
50	303548													9.207000	-0.673436	3.392480	0.343173	-0.867301	-0.360585	-0.071251	-0.406830	0.910721	-0.936566	-0.286843	-0.201409
51	303715													9.179484	-0.660594	3.423450	0.343142	-0.867302	-0.360611	-0.071267	-0.406855	0.910709	-0.936576	-0.286803	-0.201419
52	303882													9.171143	-0.663104	3.383451	0.342968	-0.867493	-0.360317	-0.071346	-0.406532	0.910847	-0.936634	-0.286684	-0.201320
53	304048													9.278903	-0.687562	3.346872	0.342935	-0.867558	-0.360192	-0.071428	-0.406418	0.910891	-0.936640	-0.286649	-0.201343
54	304215													9.162976	-0.654879	3.414302	0.342817	-0.867631	-0.360130	-0.071402	-0.406318	0.910938	-0.936685	-0.286571	-0.201243
55	304382													9.233863	-0.633527	3.341807	0.342799	-0.867657	-0.360083	-0.071298	-0.406233	0.910984	-0.936699	-0.286612	-0.201118
56	304548													9.186769	-0.632109	3.372982	0.342647	-0.867784	-0.359923	-0.071331	-0.406041	0.911067	-0.936752	-0.286501	-0.201029
57	304715													9.216323	-0.697776	3.363126	0.342551	-0.867859	-0.359832	-0.071387	-0.405941	0.911107	-0.936783	-0.286413	-0.201009
58	304882													9.202944	-0.676604	3.381628	0.342411	-0.867958	-0.359727	-0.071458	-0.405820	0.911155	-0.936829	-0.286285	-0.200980
59	305048													9.202859	-0.663029	3.351106	0.342353	-0.868049	-0.359562	-0.071507	-0.405649	0.911228	-0.936846	-0.286250	-0.200947
60	305215													9.186196	-0.664027	3.368734	0.342267	-0.868201	-0.359278	-0.071543	-0.405343	0.911361	-0.936875	-0.286225	-0.200849
61	305382													9.192455	-0.698480	3.395115	0.342223	-0.868304	-0.359070	-0.071571	-0.405123	0.911456	-0.936889	-0.286222	-0.200788
62	305548													9.212575	-0.686896	3.393291	0.342136	-0.868374	-0.358984	-0.071572	-0.405013	0.911505	-0.936921	-0.286166	-0.200721
63	305715													9.229815	-0.677588	3.379391	0.342106	-0.868435	-0.358865	-0.071556	-0.404877	0.911567	-0.936933	-0.286174	-0.200653
64	305882													9.225152	-0.672263	3.381998	0.342110	-0.868485	-0.358739	-0.071536	-0.404740	0.911630	-0.936933	-0.286215	-0.200593
65	306048													9.217406	-0.663236	3.375593	0.342096	-0.868566	-0.358559	-0.071556	-0.404553	0.911711	-0.936937	-0.286236	-0.200547
66	306215													9.216080	-0.659388	3.368215	0.342096	-0.868644	-0.358368	-0.071598	-0.404366	0.911791	-0.936933	-0.286262	-0.200525
67	306382													9.211267	-0.659996	3.376359	0.342113	-0.868730	-0.358143	-0.071678	-0.404157	0.911877	-0.936921	-0.286294	-0.200536
68	306548													9.216059	-0.668493	3.375972	0.342118	-0.868848	-0.357852	-0.071793	-0.403889	0.911986	-0.936910	-0.286316	-0.200555
69	306715													9.190073	-0.677874	3.364700	0.342159	-0.868972	-0.357512	-0.071893	-0.403572	0.912119	-0.936888	-0.286387	-0.200559
70	306882													9.197140	-0.672391	3.399850	0.342212	-0.869070	-0.357223	-0.071985	-0.403308	0.912228	-0.936861	-0.286461	-0.200577
71	307048													9.189044	-0.687819	3.397479	0.342224	-0.869181	-0.356941	-0.072109	-0.403053	0.912331	-0.936847	-0.286483	-0.200610
72	307215													9.196721	-0.715431	3.403172	0.342216	-0.869300	-0.356660	-0.072212	-0.402788	0.912440	-0.936842	-0.286496	-0.200614
73	307382													9.197956	-0.712803	3.388157	0.342234	-0.869393	-0.356416	-0.072303	-0.402564	0.912532	-0.936829	-0.286529	-0.200630
74	307548													9.198907	-0.689566	3.373483	0.342253	-0.869349	-0.356504	-0.072388	-0.402685	0.912472	-0.936815	-0.286490	-0.200750
75	307715													9.186652	-0.684156	3.386591	0.342258	-0.869310	-0.356593	-0.072480	-0.402809	0.912410	-0.936806	-0.286434	-0.200872
76	307882													9.205069	-0.684434	3.379330	0.342230	-0.869279	-0.356696	-0.072547	-0.402931	0.912350	-0.936811	-0.286357	-0.200959
77	308048													9.198670	-0.683656	3.382180	0.342238	-0.869254	-0.356750	-0.072601	-0.403006	0.912313	-0.936804	-0.286328	-0.201032
78	308215													9.195895	-0.679022	3.396095	0.342246	-0.869225	-0.356813	-0.072637	-0.403085	0.912275	-0.936798	-0.286305	-0.201092
79	308382													9.205387	-0.669480	3.393771	0.342262	-0.869217	-0.356816	-0.072688	-0.403107	0.912261	-0.936789	-0.286296	-0.201150
80	308548													9.202053	-0.680298	3.363580	0.342272	-0.869212	-0.356821	-0.072700	-0.403118	0.912256	-0.936784	-0.286299	-0.201168
81	308715													9.201786	-0.667710	3.383293	0.342294	-0.869198	-0.356834	-0.072727	-0.403145	0.912242	-0.936774	-0.286304	-0.201208
82	308882													9.190788	-0.677634	3.399249	0.342319	-0.869177	-0.356861	-0.072739	-0.403183	0.912224	-0.936764	-0.286314	-0.201240
83	309048													9.185503	-0.683181	3.388703	0.342340	-0.869166	-0.356867	-0.072742	-0.403195	0.912218	-0.936756	-0.286329	-0.201255
84	309215													9.197988	-0.682580	3.388767	0.342343	-0.869130	-0.356952	-0.072715	-0.403276	0.912185	-0.936757	-0.286325	-0.201257
85	309382													9.198313	-0.684279	3.367525	0.342361	-0.869077	-0.357063	-0.072685	-0.403388	0.912138	-0.936753	-0.286327	-0.201273
86	309548													9.191085	-0.686989	3.358388	0.342366	-0.869042	-0.357143	-0.072717	-0.403483	0.912093	-0.936749	-0.286299	-0.201333
87	309715													9.222301	-0.692665	3.377545	0.342402	-0.868990	-0.357235	-0.072694	-0.403581	0.912052	-0.936737	-0.286320	-0.201357
88	309882													9.202790	-0.664023	3.406792	0.342428	-0.868934	-0.357348	-0.072655	-0.403693	0.912005	-0.936731	-0.286333	-0.201369
89	310049													9.196549	-0.659760	3.382809	0.342459	-0.868903	-0.357393	-0.072669	-0.403751	0.911978	-0.936718	-0.286344	-0.201410
90	310215													9.195102	-0.675531	3.360798	0.342476	-0.868883	-0.357424	-0.072699	-0.403797	0.911955	-0.936710	-0.286339	-0.201458
91	310382													9.220975	-0.669530	3.390727	0.342478	-0.868893	-0.357399	-0.072763	-0.403790	0.911953	-0.936704	-0.286319	-0.201513
92	310549													9.219556	-0.652458	3.395208	0.342482	-0.868899	-0.357380	-0.072784	-0.403778	0.911957	-0.936701	-0.286318	-0.201529
93	310715													9.185142	-0.687633	3.382098	0.342425	-0.868943	-0.357327	-0.072894	-0.403744	0.911964	-0.936713	-0.286232	-0.201593
94	310882													9.177504	-0.678034	3.309661	0.342392	-0.868960	-0.357317	-0.072985	-0.403753	0.911952	-0.936718	-0.286166	-0.201663
95	311049													9.305542	-0.692457	3.314536	0.342535	-0.868927	-0.357261	-0.073015	-0.403736	0.911957	-0.936663	-0.286292	-0.201739
96	311215													9.193375	-0.659170	3.436163	0.342697	-0.868874	-0.357236	-0.072897	-0.403710	0.911978	-0.936614	-0.286491	-0.201688
97	311382													9.178829	-0.646954	3.405622	0.342699	-0.868854	-0.357281	-0.072744	-0.403711	0.911990	-0.936625	-0.286548	-0.201555
98	311549													9.219898	-0.689691	3.403956	0.342931	-0.868778	-0.357243	-0.072770	-0.403731	0.911979	-0.936538	-0.286750	-0.201673
99	311715													9.164317	-0.696552	3.438731	0.343043	-0.868740	-0.357230	-0.072868	-0.403773	0.911953	-0.936489	-0.286808	-0.201814
100	311882													9.169174	-0.666115	3.419340	0.343043	-0.868731	-0.357250	-0.072907	-0.403806	0.911935	-0.936486	-0.286787	-0.201859
101	312049													9.185403	-0.646807	3.428174	0.343019	-0.868754	-0.357219	-0.072958	-0.403783	0.911941	-0.936491	-0.286751	-0.201888
102	312215													9.175937	-0.660675	3.394579	0.342970	-0.868799	-0.357155	-0.072961	-0.403707	0.911975	-0.936508	-0.286722	-0.201848
103	312382													9.151908	-0.709062	3.374484	0.342867	-0.868833	-0.357171	-0.072989	-0.403709	0.911971	-0.936544	-0.286615	-0.201834
104	312549													9.180006	-0.687977	3.410629	0.342778	-0.868836	-0.357250	-0.073036	-0.403786	0.911934	-0.936573	-0.286499	-0.201865
105	312715													9.171651	-0.690261	3.387046	0.342643	-0.868868	-0.357302	-0.073072	-0.403821	0.911915	-0.936620	-0.286352	-0.201856
106	312882													9.201366	-0.688788	3.402178	0.342557	-0.868910	-0.357281	-0.073131	-0.403797	0.911921	-0.936646	-0.286257	-0.201868
107	313049													9.212667	-0.676815	3.401960	0.342445	-0.868935	-0.357328	-0.073158	-0.403829	0.911905	-0.936685	-0.286136	-0.201859
108	313215													9.193220	-0.671304	3.416813	0.342271	-0.868947	-0.357465	-0.073139	-0.403928	0.911862	-0.936750	-0.285960	-0.201807
109	313382													9.166142	-0.668347	3.389594	0.341998	-0.868993	-0.357614	-0.073170	-0.404032	0.911814	-0.936848	-0.285672	-0.201762
110	313549													9.270952	-0.698309	3.325643	0.341681	-0.869080	-0.357706	-0.073247	-0.404081	0.911786	-0.936957	-0.285339	-0.201724
111	313715													9.192270	-0.690186	3.398846	0.341406	-0.869151	-0.357797	-0.073266	-0.404120	0.911767	-0.937056	-0.285068	-0.201648
112	313882													9.239521	-0.653935	3.312665	0.340952	-0.869285	-0.357905	-0.073153	-0.404096	0.911787	-0.937230	-0.284694	-0.201368
113	314049													9.195276	-0.625883	3.364272	0.340663	-0.869360	-0.357999	-0.073109	-0.404116	0.911781	-0.937339	-0.284437	-0.201225
114	314215													9.232374	-0.678646	3.341425	0.340229	-0.869526	-0.358007	-0.073177	-0.404048	0.911806	-0.937491	-0.284025	-0.201098
115	314382													9.215802	-0.696942	3.333611	0.339849	-0.869627	-0.358122	-0.073195	-0.404088	0.911787	-0.937627	-0.283657	-0.200982
116	314549													9.215544	-0.673207	3.324436	0.339474	-0.869736	-0.358212	-0.073195	-0.404098	0.911782	-0.937763	-0.283308	-0.200841
117	314715													9.193049	-0.656568	3.332272	0.339082	-0.869905	-0.358175	-0.073148	-0.403957	0.911849	-0.937909	-0.282991	-0.200607
118	314882													9.204493	-0.665426	3.337386	0.338688	-0.870051	-0.358192	-0.073084	-0.403867	0.911894	-0.938056	-0.282669	-0.200371
119	315049													9.218010	-0.661903	3.303909	0.338318	-0.870134	-0.358340	-0.073018	-0.403920	0.911876	-0.938195	-0.282339	-0.200189
120	315215													9.235268	-0.660197	3.327815	0.337982	-0.870198	-0.358501	-0.072939	-0.403990	0.911851	-0.938322	-0.282041	-0.200013
121	315382													9.235466	-0.648373	3.338056	0.337689	-0.870259	-0.358631	-0.072855	-0.404036	0.911837	-0.938434	-0.281789	-0.199841
122	315549													9.257094	-0.676162	3.359829	0.337467	-0.870336	-0.358651	-0.072794	-0.403988	0.911863	-0.938519	-0.281616	-0.199688
123	315715													9.250793	-0.659349	3.360776	0.337297	-0.870402	-0.358651	-0.072725	-0.403931	0.911894	-0.938585	-0.281496	-0.199545
124	315882													9.278406	-0.653870	3.368766	0.337143	-0.870496	-0.358569	-0.072729	-0.403811	0.911947	-0.938640	-0.281378	-0.199452
125	316049													9.270174	-0.702689	3.337899	0.337052	-0.870574	-0.358465	-0.072788	-0.403700	0.911992	-0.938668	-0.281297	-0.199435
126	316215													9.257821	-0.677305	3.363147	0.336898	-0.870643	-0.358442	-0.072860	-0.403663	0.912002	-0.938718	-0.281136	-0.199428
127	316382													9.199221	-0.669316	3.313442	0.336773	-0.870722	-0.358366	-0.072915	-0.403572	0.912038	-0.938758	-0.281020	-0.199401
128	316549													9.158010	-0.674314	3.293949	0.336573	-0.870798	-0.358370	-0.072976	-0.403550	0.912043	-0.938825	-0.280817	-0.199372
129	316715													9.223626	-0.704761	3.293518	0.336347	-0.870887	-0.358366	-0.073087	-0.403529	0.912043	-0.938898	-0.280571	-0.199376
130	316882													9.245267	-0.691665	3.290871	0.336207	-0.870904	-0.358458	-0.073182	-0.403622	0.911994	-0.938941	-0.280386	-0.199435
131	317049													9.283159	-0.659698	3.298774	0.335983	-0.870914	-0.358642	-0.073261	-0.403789	0.911914	-0.939014	-0.280113	-0.199471
132	317215													9.288025	-0.647059	3.230625	0.335748	-0.870904	-0.358886	-0.073247	-0.403987	0.911827	-0.939100	-0.279857	-0.199429
133	317382													9.214504	-0.669060	3.297724	0.335605	-0.870843	-0.359169	-0.073254	-0.404254	0.911708	-0.939150	-0.279663	-0.199462
134	317549													9.209517	-0.668959	3.279601	0.335443	-0.870764	-0.359511	-0.073282	-0.404585	0.911560	-0.939206	-0.279431	-0.199527
135	317715													9.259564	-0.658709	3.303863	0.335337	-0.870685	-0.359801	-0.073397	-0.404899	0.911411	-0.939235	-0.279222	-0.199683
136	317882													9.217279	-0.617965	3.298234	0.335353	-0.870651	-0.359869	-0.073570	-0.405025	0.911341	-0.939216	-0.279145	-0.199880
137	318049													9.163610	-0.628582	3.320982	0.335329	-0.870698	-0.359776	-0.073773	-0.404983	0.911343	-0.939208	-0.279058	-0.200036
138	318215													9.171096	-0.668455	3.326760	0.335311	-0.870740	-0.359692	-0.073969	-0.404948	0.911343	-0.939199	-0.278977	-0.200191
139	318382													9.189293	-0.688977	3.334011	0.335347	-0.870804	-0.359504	-0.074178	-0.404822	0.911382	-0.939170	-0.278962	-0.200350
140	318549													9.180972	-0.699769	3.364906	0.335465	-0.870836	-0.359315	-0.074361	-0.404705	0.911419	-0.939113	-0.279030	-0.200521
141	318715													9.206342	-0.689915	3.384054	0.335519	-0.870865	-0.359195	-0.074496	-0.404631	0.911441	-0.939083	-0.279047	-0.200637
142	318882													9.221626	-0.702063	3.350684	0.335546	-0.870874	-0.359147	-0.074562	-0.404608	0.911446	-0.939068	-0.279053	-0.200699
143	319049													9.232126	-0.720791	3.308678	0.335501	-0.870856	-0.359232	-0.074594	-0.404696	0.911404	-0.939082	-0.278981	-0.200737
144	319215													9.250794	-0.728126	3.301006	0.335446	-0.870775	-0.359481	-0.074531	-0.404925	0.911307	-0.939106	-0.278902	-0.200730
145	319382													9.246833	-0.710313	3.329253	0.335452	-0.870616	-0.359861	-0.074337	-0.405266	0.911171	-0.939120	-0.278904	-0.200666
146	319549													9.225226	-0.687284	3.249935	0.335321	-0.870451	-0.360382	-0.074093	-0.405710	0.910994	-0.939186	-0.278774	-0.200537
147	319715													9.160563	-0.669023	3.282764	0.335311	-0.870204	-0.360987	-0.073823	-0.406261	0.910770	-0.939211	-0.278742	-0.200464
148	319882													9.185093	-0.637485	3.260009	0.335181	-0.869981	-0.361644	-0.073453	-0.406809	0.910555	-0.939286	-0.278637	-0.200257
149	320049													9.297218	-0.647398	3.283457	0.335174	-0.869806	-0.362073	-0.072945	-0.407106	0.910463	-0.939328	-0.278752	-0.199899
150	320215													9.200638	-0.643958	3.351024	0.334953	-0.869676	-0.362589	-0.072391	-0.407433	0.910361	-0.939450	-0.278680	-0.199428
151	320382													9.349473	-0.651251	3.265645	0.334718	-0.869496	-0.363236	-0.071887	-0.407908	0.910189	-0.939572	-0.278544	-0.199039
152	320549													9.375781	-0.640455	3.276140	0.334771	-0.869283	-0.363698	-0.071523	-0.408296	0.910043	-0.939581	-0.278643	-0.198859
153	320715													9.307858	-0.598070	3.288427	0.334769	-0.869144	-0.364032	-0.071264	-0.408569	0.909941	-0.939602	-0.278677	-0.198715
154	320882													9.290568	-0.533861	3.303366	0.334712	-0.869071	-0.364258	-0.071041	-0.408726	0.909888	-0.939639	-0.278673	-0.198545
155	321049													9.205858	-0.497819	3.326692	0.334674	-0.869120	-0.364176	-0.070968	-0.408610	0.909946	-0.939658	-0.278691	-0.198431
156	321215													9.155974	-0.553552	3.344011	0.334615	-0.869291	-0.363823	-0.071053	-0.408253	0.910100	-0.939673	-0.278682	-0.198373
157	321382													9.115963	-0.634872	3.367345	0.334593	-0.869509	-0.363321	-0.071339	-0.407808	0.910277	-0.939659	-0.278653	-0.198479
158	321549													9.109611	-0.680923	3.352010	0.334576	-0.869816	-0.362600	-0.071875	-0.407208	0.910503	-0.939624	-0.278571	-0.198760
159	321715													9.117535	-0.729742	3.317884	0.334667	-0.870149	-0.361716	-0.072594	-0.406516	0.910755	-0.939536	-0.278541	-0.199215
160	321882													9.114928	-0.760974	3.361593	0.334820	-0.870468	-0.360806	-0.073366	-0.405826	0.911001	-0.939422	-0.278550	-0.199741
161	322049													9.145658	-0.794315	3.358134	0.335015	-0.870740	-0.359967	-0.074146	-0.405223	0.911206	-0.939291	-0.278577	-0.200318
162	322215													9.141838	-0.804468	3.340001	0.335133	-0.870909	-0.359449	-0.074932	-0.404941	0.911267	-0.939186	-0.278462	-0.200968
163	322382													9.273059	-0.804203	3.305301	0.335375	-0.870957	-0.359107	-0.075583	-0.404830	0.911263	-0.939048	-0.278472	-0.201600
164	322549													9.236670	-0.777278	3.369698	0.335717	-0.870790	-0.359191	-0.075970	-0.405109	0.911107	-0.938894	-0.278587	-0.202156
165	322715													9.282019	-0.710116	3.279208	0.335858	-0.870596	-0.359530	-0.076049	-0.405520	0.910917	-0.938838	-0.278597	-0.202405
166	322882													9.194264	-0.649702	3.307397	0.336095	-0.870334	-0.359942	-0.076002	-0.405990	0.910712	-0.938757	-0.278729	-0.202598
167	323049													9.231647	-0.665974	3.333537	0.336269	-0.870037	-0.360498	-0.075940	-0.406593	0.910448	-0.938699	-0.278779	-0.202795
168	323215													9.229248	-0.660538	3.347338	0.336445	-0.869768	-0.360982	-0.075784	-0.407093	0.910237	-0.938649	-0.278888	-0.202879
169	323382													9.256164	-0.596535	3.344438	0.336690	-0.869482	-0.361442	-0.075565	-0.407565	0.910044	-0.938579	-0.279090	-0.202925
170	323549													9.242178	-0.601540	3.329163	0.336997	-0.869295	-0.361607	-0.075336	-0.407739	0.909986	-0.938487	-0.279420	-0.202896
171	323715													9.248720	-0.676758	3.320433	0.337350	-0.869090	-0.361770	-0.075116	-0.407924	0.909921	-0.938378	-0.279787	-0.202895
172	323882													9.226720	-0.666896	3.337451	0.337757	-0.868831	-0.362011	-0.074962	-0.408223	0.909799	-0.938243	-0.280154	-0.203010
173	324049													9.240244	-0.668646	3.321375	0.338257	-0.868579	-0.362149	-0.074881	-0.408456	0.909701	-0.938070	-0.280595	-0.203203
174	324215													9.249513	-0.668570	3.343539	0.338834	-0.868371	-0.362111	-0.074814	-0.408527	0.909675	-0.937867	-0.281138	-0.203389
175	324382													9.218952	-0.659739	3.310843	0.339498	-0.868135	-0.362053	-0.074768	-0.408603	0.909645	-0.937631	-0.281752	-0.203629
176	324549													9.224039	-0.655998	3.292492	0.340228	-0.868031	-0.361618	-0.074803	-0.408324	0.909767	-0.937363	-0.282479	-0.203854
177	324715													9.262295	-0.678915	3.266357	0.340909	-0.867922	-0.361239	-0.074970	-0.408133	0.909839	-0.937102	-0.283090	-0.204204
178	324882													9.249742	-0.682154	3.279140	0.341703	-0.867787	-0.360811	-0.075222	-0.407942	0.909904	-0.936793	-0.283776	-0.204672
179	325049													9.272902	-0.701542	3.316838	0.342545	-0.867643	-0.360359	-0.075551	-0.407761	0.909958	-0.936459	-0.284476	-0.205228
180	325215													9.274823	-0.719419	3.327981	0.343466	-0.867515	-0.359791	-0.075968	-0.407504	0.910038	-0.936088	-0.285234	-0.205867
181	325382													9.261271	-0.734703	3.344034	0.344412	-0.867385	-0.359199	-0.076486	-0.407260	0.910104	-0.935698	-0.285977	-0.206608
182	325549													9.262801	-0.754274	3.350343	0.345345	-0.867262	-0.358599	-0.077065	-0.407024	0.910161	-0.935306	-0.286684	-0.207399
183	325715													9.209056	-0.758615	3.377402	0.346373	-0.867063	-0.358088	-0.077667	-0.406912	0.910160	-0.934876	-0.287443	-0.208285
184	325882													9.172258	-0.762230	3.399079	0.347356	-0.866837	-0.357684	-0.078239	-0.406895	0.910118	-0.934464	-0.288150	-0.209158
185	326049													9.151632	-0.747648	3.429719	0.348298	-0.866636	-0.357254	-0.078792	-0.406836	0.910097	-0.934067	-0.288836	-0.209984
186	326215													9.153675	-0.761572	3.434454	0.349261	-0.866432	-0.356810	-0.079289	-0.406751	0.910092	-0.933665	-0.289568	-0.210761
187	326382													9.133828	-0.760067	3.430755	0.350297	-0.866117	-0.356557	-0.079715	-0.406865	0.910004	-0.933240	-0.290349	-0.211566
188	326549													9.149980	-0.768368	3.475681	0.351404	-0.865715	-0.356445	-0.080037	-0.407111	0.909865	-0.932796	-0.291202	-0.212350
189	326716													9.155845	-0.756210	3.498789	0.352537	-0.865270	-0.356407	-0.080251	-0.407410	0.909713	-0.932351	-0.292105	-0.213066
190	326882													9.134252	-0.758770	3.486233	0.353650	-0.864758	-0.356547	-0.080456	-0.407889	0.909480	-0.931911	-0.292951	-0.213825
191	327049													9.132749	-0.749825	3.468869	0.354900	-0.864202	-0.356653	-0.080638	-0.408361	0.909252	-0.931420	-0.293934	-0.214615
192	327216													9.254610	-0.717674	3.496337	0.356273	-0.863605	-0.356730	-0.080682	-0.408789	0.909056	-0.930892	-0.295090	-0.215318
193	327382													9.216485	-0.703509	3.572887	0.357859	-0.863048	-0.356490	-0.080592	-0.408895	0.909016	-0.930291	-0.296569	-0.215882
194	327549													9.089676	-0.665504	3.623207	0.359231	-0.862462	-0.356529	-0.080492	-0.409240	0.908870	-0.929771	-0.297796	-0.216433
195	327716													9.113593	-0.678539	3.580467	0.360795	-0.861908	-0.356288	-0.080454	-0.409358	0.908820	-0.929168	-0.299233	-0.217038
196	327882													9.094235	-0.692634	3.619710	0.362422	-0.861372	-0.355934	-0.080610	-0.409436	0.908771	-0.928522	-0.300666	-0.217824
197	328049													9.092401	-0.710726	3.635882	0.363887	-0.860787	-0.355855	-0.080872	-0.409801	0.908583	-0.927926	-0.301843	-0.218735
198	328216													9.060496	-0.711350	3.617451	0.365142	-0.860510	-0.355237	-0.081186	-0.409565	0.908661	-0.927405	-0.302950	-0.219411
199	328382													9.098931	-0.746396	3.586160	0.366360	-0.860161	-0.354830	-0.081530	-0.409552	0.908636	-0.926894	-0.303959	-0.220173
200	328549													9.110914	-0.799865	3.601158	0.367723	-0.859771	-0.354365	-0.081922	-0.409532	0.908610	-0.926320	-0.305086	-0.221028
201	328716													9.102023	-0.815582	3.594255	0.369202	-0.859382	-0.353768	-0.082314	-0.409405	0.908632	-0.925697	-0.306348	-0.221892
202	328882													9.105342	-0.824219	3.631371	0.370782	-0.858864	-0.353374	-0.082762	-0.409538	0.908531	-0.925025	-0.307622	-0.222931
203	329049													9.090981	-0.805518	3.669076	0.372309	-0.858336	-0.353052	-0.083285	-0.409762	0.908382	-0.924364	-0.308795	-0.224045
204	329216													9.129309	-0.825062	3.656297	0.373882	-0.857912	-0.352419	-0.083783	-0.409664	0.908381	-0.923684	-0.310101	-0.225044
205	329382													9.117198	-0.817138	3.677908	0.375433	-0.857397	-0.352024	-0.084251	-0.409805	0.908274	-0.923012	-0.311337	-0.226091
206	329549													9.067308	-0.801967	3.637587	0.376953	-0.856832	-0.351774	-0.084853	-0.410139	0.908067	-0.922337	-0.312449	-0.227308
207	329716													9.187721	-0.812316	3.655808	0.378717	-0.856156	-0.351527	-0.085461	-0.410545	0.907826	-0.921559	-0.313767	-0.228648
208	329882													9.067690	-0.781143	3.719579	0.380330	-0.855628	-0.351070	-0.085897	-0.410635	0.907745	-0.920853	-0.315087	-0.229673
209	330049													9.127615	-0.797264	3.674713	0.382171	-0.855122	-0.350303	-0.086118	-0.410386	0.907836	-0.920070	-0.316781	-0.230479
210	330216													9.057289	-0.765309	3.742833	0.384033	-0.854496	-0.349792	-0.086425	-0.410446	0.907780	-0.919265	-0.318387	-0.231475
211	330382													9.052512	-0.807400	3.743943	0.385871	-0.853813	-0.349437	-0.086784	-0.410687	0.907637	-0.918462	-0.319905	-0.232570
212	330549													9.011368	-0.840189	3.778459	0.387646	-0.853162	-0.349064	-0.087097	-0.410878	0.907521	-0.917684	-0.321394	-0.233583
213	330716													9.002144	-0.810664	3.826815	0.389549	-0.852558	-0.348419	-0.087300	-0.410780	0.907545	-0.916859	-0.323117	-0.234448
214	330882													8.989472	-0.763390	3.883855	0.391423	-0.851810	-0.348150	-0.087441	-0.411054	0.907407	-0.916047	-0.324738	-0.235379
215	331049													8.960173	-0.790207	3.877230	0.393358	-0.851111	-0.347678	-0.087633	-0.411151	0.907345	-0.915199	-0.326443	-0.236315
216	331216													8.983737	-0.818261	3.901704	0.395353	-0.850312	-0.347370	-0.087739	-0.411411	0.907217	-0.914329	-0.328193	-0.237258
217	331382													9.000154	-0.823427	3.933705	0.397371	-0.849600	-0.346809	-0.087875	-0.411422	0.907199	-0.913441	-0.330019	-0.238146
218	331549													9.003559	-0.822402	3.954879	0.399463	-0.848596	-0.346864	-0.088049	-0.412128	0.906862	-0.912511	-0.331717	-0.239348
219	331716													8.953093	-0.825340	3.971727	0.401643	-0.847756	-0.346399	-0.088306	-0.412337	0.906741	-0.911529	-0.333597	-0.240475
220	331882													8.953806	-0.825381	4.021445	0.403841	-0.846822	-0.346129	-0.088570	-0.412767	0.906520	-0.910532	-0.335433	-0.241695
221	332049													8.950954	-0.837344	3.988649	0.406062	-0.845924	-0.345727	-0.088885	-0.413087	0.906343	-0.909513	-0.337302	-0.242929
222	332216													8.933084	-0.827717	3.994228	0.408283	-0.845048	-0.345253	-0.089297	-0.413370	0.906174	-0.908477	-0.339145	-0.244232
223	332382													8.899435	-0.851772	4.031830	0.410556	-0.844248	-0.344513	-0.089695	-0.413383	0.906129	-0.907413	-0.341116	-0.245442
224	332549													8.902033	-0.864378	4.100515	0.412828	-0.843279	-0.344171	-0.090077	-0.413822	0.905890	-0.906344	-0.342975	-0.246797
225	332716													8.884192	-0.875684	4.119532	0.415147	-0.842440	-0.343437	-0.090413	-0.413841	0.905848	-0.905251	-0.345009	-0.247972
226	332882													8.886568	-0.875225	4.101792	0.417516	-0.841453	-0.342983	-0.090759	-0.414186	0.905656	-0.904126	-0.346997	-0.249299
227	333049													8.917968	-0.879427	4.068678	0.419976	-0.840393	-0.342579	-0.091036	-0.414590	0.905443	-0.902958	-0.349077	-0.250624
228	333216													8.919969	-0.867739	4.098655	0.422702	-0.839297	-0.341912	-0.091246	-0.414771	0.905339	-0.901664	-0.351491	-0.251907
229	333382													8.853964	-0.868659	4.186755	0.425422	-0.838085	-0.341511	-0.091539	-0.415276	0.905078	-0.900354	-0.353778	-0.253385
230	333549													8.830813	-0.861816	4.212488	0.427984	-0.836902	-0.341210	-0.091776	-0.415826	0.904801	-0.899114	-0.355926	-0.254775
231	333716													8.833995	-0.851207	4.196644	0.430584	-0.835803	-0.340632	-0.092070	-0.416117	0.904638	-0.897842	-0.358161	-0.256126
232	333882													8.811919	-0.870588	4.237228	0.433215	-0.834711	-0.339974	-0.092373	-0.416342	0.904504	-0.896545	-0.360440	-0.257470
233	334049													8.842507	-0.859417	4.282595	0.435871	-0.833509	-0.339528	-0.092639	-0.416796	0.904267	-0.895229	-0.362690	-0.258884
234	334216													8.785010	-0.878689	4.298244	0.438459	-0.832326	-0.339098	-0.092957	-0.417273	0.904014	-0.893931	-0.364852	-0.260328
235	334382													8.801638	-0.875340	4.283710	0.440989	-0.831110	-0.338799	-0.093284	-0.417886	0.903698	-0.892651	-0.366916	-0.261812
236	334549													8.813804	-0.865282	4.304899	0.443800	-0.829934	-0.338011	-0.093577	-0.418050	0.903592	-0.891226	-0.369384	-0.263193
237	334716													8.737028	-0.880124	4.420285	0.446619	-0.828558	-0.337673	-0.093739	-0.418659	0.903293	-0.889800	-0.371775	-0.264649
238	334882													8.764891	-0.860366	4.416367	0.449210	-0.827366	-0.337159	-0.093817	-0.418973	0.903139	-0.888487	-0.374068	-0.265828
239	335049													8.707312	-0.877790	4.444313	0.452106	-0.826088	-0.336420	-0.093971	-0.419181	0.903026	-0.887000	-0.376650	-0.267142
240	335216													8.645629	-0.879153	4.482437	0.454725	-0.824938	-0.335713	-0.094298	-0.419413	0.902885	-0.885626	-0.378907	-0.268507
241	335382													8.667857	-0.890877	4.552982	0.457199	-0.823685	-0.335427	-0.094629	-0.420066	0.902546	-0.884316	-0.380902	-0.269998
242	335549													8.665862	-0.861013	4.576078	0.459549	-0.822582	-0.334923	-0.094969	-0.420450	0.902332	-0.883061	-0.382858	-0.271337
243	335716													8.594088	-0.886874	4.594234	0.461904	-0.821459	-0.334440	-0.095324	-0.420871	0.902098	-0.881792	-0.384802	-0.272707
244	335882													8.608502	-0.908951	4.602053	0.464347	-0.820321	-0.333850	-0.095691	-0.421216	0.901898	-0.880469	-0.386847	-0.274088
245	336049													8.634595	-0.922634	4.545341	0.467004	-0.819007	-0.333368	-0.096148	-0.421801	0.901576	-0.879012	-0.388987	-0.275729
246	336216													8.756604	-0.948064	4.581311	0.469797	-0.817651	-0.332772	-0.096653	-0.422338	0.901271	-0.877467	-0.391251	-0.277441
247	336382													8.737075	-0.924964	4.613020	0.472986	-0.816247	-0.331701	-0.097272	-0.422551	0.901104	-0.875684	-0.393944	-0.279259
248	336549													8.676262	-0.946816	4.622318	0.476527	-0.814689	-0.330460	-0.098050	-0.422785	0.900910	-0.873675	-0.396907	-0.281348
249	336716													8.594100	-0.957846	4.719314	0.480167	-0.813027	-0.329281	-0.098813	-0.423132	0.900664	-0.871593	-0.399932	-0.283512
250	336882													8.586297	-0.959008	4.707410	0.483502	-0.811484	-0.328207	-0.099577	-0.423502	0.900406	-0.869661	-0.402666	-0.285569
251	337049													8.706841	-0.983826	4.699241	0.487028	-0.809804	-0.327140	-0.100446	-0.424014	0.900068	-0.867591	-0.405498	-0.287848
252	337216													8.678368	-0.985106	4.683569	0.490733	-0.807947	-0.326194	-0.101149	-0.424666	0.899682	-0.865419	-0.408509	-0.290120
253	337382													8.690109	-0.934743	4.742970	0.494990	-0.805866	-0.324907	-0.101669	-0.425078	0.899429	-0.862930	-0.412175	-0.292341
254	337549													8.555190	-0.935378	4.845668	0.499292	-0.803869	-0.323269	-0.102001	-0.425043	0.899408	-0.860409	-0.416093	-0.294216
255	337716													8.422014	-0.986974	4.922080	0.503520	-0.801807	-0.321828	-0.102256	-0.425180	0.899314	-0.857911	-0.419914	-0.296076
256	337882													8.379174	-0.978332	4.967011	0.507440	-0.799895	-0.320425	-0.102229	-0.425116	0.899347	-0.855602	-0.423608	-0.297493
257	338049													8.385738	-0.961858	4.966814	0.511262	-0.797984	-0.319112	-0.102135	-0.425093	0.899369	-0.853334	-0.427221	-0.298836
258	338216													8.362577	-0.958944	4.980279	0.515210	-0.795932	-0.317887	-0.101944	-0.425180	0.899350	-0.850980	-0.430947	-0.300197
259	338382													8.366230	-0.940344	5.028690	0.519142	-0.793788	-0.316848	-0.101730	-0.425470	0.899236	-0.848612	-0.434598	-0.301631
260	338549													8.351538	-0.961941	5.112742	0.523123	-0.791588	-0.315803	-0.101537	-0.425797	0.899103	-0.846187	-0.438276	-0.303119
261	338716													8.294952	-0.965350	5.189026	0.527042	-0.789422	-0.314706	-0.101371	-0.426065	0.898995	-0.843772	-0.441906	-0.304578
262	338882													8.243000	-0.961007	5.251880	0.531008	-0.787304	-0.313341	-0.101267	-0.426093	0.898994	-0.841294	-0.445642	-0.305986
263	339049													8.189335	-0.950447	5.291232	0.534913	-0.785266	-0.311811	-0.101324	-0.426005	0.899029	-0.838810	-0.449308	-0.307442
264	339216													8.196728	-0.940231	5.325675	0.538657	-0.783212	-0.310527	-0.101389	-0.426147	0.898954	-0.836402	-0.452744	-0.308956
265	339382													8.199975	-0.967776	5.363868	0.542550	-0.781084	-0.309109	-0.101460	-0.426215	0.898914	-0.833874	-0.456343	-0.310492
266	339549													8.147893	-0.952033	5.422379	0.546426	-0.778914	-0.307752	-0.101539	-0.426366	0.898834	-0.831329	-0.459897	-0.312068
267	339716													8.111477	-0.974283	5.425640	0.550269	-0.776696	-0.306508	-0.101656	-0.426666	0.898678	-0.828776	-0.463356	-0.313737
268	339882													8.144114	-0.936406	5.476125	0.554146	-0.774530	-0.304999	-0.101935	-0.426783	0.898591	-0.826154	-0.466861	-0.315453
269	340049													8.089061	-0.975841	5.523350	0.558276	-0.772274	-0.303183	-0.102384	-0.426769	0.898546	-0.823314	-0.470596	-0.317324
270	340216													8.037750	-0.976679	5.568061	0.562475	-0.770034	-0.301114	-0.102941	-0.426572	0.898576	-0.820381	-0.474430	-0.319205
271	340382													8.037542	-0.977445	5.609292	0.566754	-0.767734	-0.298955	-0.103521	-0.426341	0.898619	-0.817358	-0.478348	-0.321107
272	340549													8.050048	-0.981261	5.627990	0.571208	-0.765317	-0.296666	-0.104191	-0.426115	0.898649	-0.814165	-0.482406	-0.323140
273	340716													7.997068	-0.995103	5.648376	0.575822	-0.762792	-0.294241	-0.104937	-0.425874	0.898677	-0.810813	-0.486601	-0.325273
274	340882													7.896984	-0.933641	5.696111	0.580408	-0.760168	-0.292013	-0.105575	-0.425812	0.898631	-0.807453	-0.490743	-0.327399
275	341049													7.875486	-0.960538	5.731244	0.584794	-0.757594	-0.289943	-0.106183	-0.425849	0.898542	-0.804202	-0.494675	-0.329478
276	341216													7.812783	-0.976565	5.780760	0.589102	-0.755105	-0.287706	-0.106754	-0.425652	0.898568	-0.800976	-0.498634	-0.331363
277	341382													7.789227	-1.034990	5.787667	0.593193	-0.752656	-0.285710	-0.107292	-0.425637	0.898511	-0.797879	-0.502336	-0.333239
278	341549													7.741449	-1.044282	5.812123	0.597100	-0.750299	-0.283766	-0.107683	-0.425519	0.898520	-0.794907	-0.505949	-0.334872
279	341716													7.757221	-1.044084	5.866788	0.600724	-0.748097	-0.281926	-0.107950	-0.425321	0.898581	-0.792135	-0.509365	-0.336258
280	341882													7.662731	-1.032640	5.915437	0.603974	-0.746075	-0.280334	-0.108145	-0.425198	0.898616	-0.789633	-0.512424	-0.337493
281	342049													7.657333	-1.035863	5.937203	0.606663	-0.744351	-0.279110	-0.108298	-0.425211	0.898592	-0.787548	-0.514915	-0.338571
282	342216													7.686560	-1.033984	5.943986	0.609275	-0.742747	-0.277689	-0.108486	-0.424979	0.898679	-0.785503	-0.517417	-0.339506
283	342382													7.594602	-1.036896	6.033577	0.611744	-0.741189	-0.276422	-0.108453	-0.424716	0.898807	-0.783586	-0.519861	-0.340201
284	342549													7.562454	-0.982346	6.078745	0.613712	-0.739859	-0.275619	-0.108202	-0.424615	0.898885	-0.782080	-0.521835	-0.340645
285	342716													7.498797	-0.983558	6.066292	0.615256	-0.738778	-0.275075	-0.107889	-0.424562	0.898948	-0.780909	-0.523406	-0.340920
286	342882													7.533087	-0.988312	6.097535	0.616241	-0.738016	-0.274918	-0.107618	-0.424712	0.898909	-0.780170	-0.524359	-0.341149
287	343049													7.516979	-1.015210	6.096852	0.616590	-0.737826	-0.274644	-0.107586	-0.424544	0.898993	-0.779899	-0.524762	-0.341149
288	343216													7.466080	-0.978779	6.176682	0.616645	-0.737759	-0.274701	-0.107404	-0.424520	0.899026	-0.779881	-0.524875	-0.341016
289	343383													7.462482	-0.993230	6.142530	0.616215	-0.738044	-0.274900	-0.107192	-0.424391	0.899112	-0.780249	-0.524580	-0.340629
290	343549													7.458228	-1.000010	6.146451	0.615412	-0.738549	-0.275343	-0.106925	-0.424325	0.899175	-0.780919	-0.523922	-0.340104
291	343716													7.474714	-1.007009	6.110247	0.614291	-0.739248	-0.275968	-0.106583	-0.424263	0.899245	-0.781849	-0.522984	-0.339412
292	343883													7.482643	-1.057571	6.110043	0.612888	-0.740111	-0.276772	-0.106103	-0.424182	0.899340	-0.783013	-0.521829	-0.338504
293	344049													7.494945	-1.053213	6.069618	0.611122	-0.741125	-0.277964	-0.105396	-0.424234	0.899398	-0.784488	-0.520345	-0.337370
294	344216													7.570733	-1.038653	6.024075	0.609116	-0.742196	-0.279505	-0.104377	-0.424386	0.899445	-0.786183	-0.518693	-0.335968
295	344383													7.585788	-1.020817	6.009218	0.606728	-0.743411	-0.281462	-0.103117	-0.424696	0.899444	-0.788193	-0.516694	-0.334333
296	344549													7.624900	-1.013867	6.035306	0.603948	-0.744773	-0.283830	-0.101682	-0.425201	0.899369	-0.790511	-0.514312	-0.332529
297	344716													7.732382	-0.988179	5.961040	0.600659	-0.746580	-0.286056	-0.100431	-0.425415	0.899409	-0.793173	-0.511509	-0.330509
298	344883													7.738793	-0.978898	5.947602	0.597085	-0.748483	-0.288553	-0.099101	-0.425783	0.899382	-0.796033	-0.508411	-0.328404
299	345049													7.813268	-0.899169	5.925512	0.593161	-0.750541	-0.291288	-0.097653	-0.426212	0.899337	-0.799140	-0.505006	-0.326104
300	345216													7.776389	-0.877295	5.931506	0.589005	-0.752759	-0.293983	-0.096416	-0.426641	0.899267	-0.802357	-0.501329	-0.323872
301	345383													7.825515	-0.857017	5.832407	0.584386	-0.755329	-0.296599	-0.095452	-0.426952	0.899222	-0.805842	-0.497182	-0.321602
302	345549													7.884078	-0.869952	5.763143	0.579488	-0.758141	-0.299025	-0.094715	-0.427074	0.899242	-0.809458	-0.492778	-0.319292
303	345716													7.907748	-0.883672	5.707067	0.574407	-0.761112	-0.301272	-0.094164	-0.427042	0.899316	-0.813136	-0.488204	-0.316965
304	345883													7.968892	-0.869142	5.629230	0.569134	-0.764194	-0.303470	-0.093695	-0.426945	0.899410	-0.816889	-0.483451	-0.314590
305	346049													7.990417	-0.864923	5.611242	0.563770	-0.767292	-0.305658	-0.093219	-0.426824	0.899517	-0.820654	-0.478628	-0.312157
306	346216													8.050124	-0.863890	5.556746	0.558361	-0.770408	-0.307740	-0.092808	-0.426631	0.899652	-0.824390	-0.473769	-0.309714
307	346383													8.073990	-0.869920	5.537820	0.552931	-0.773495	-0.309794	-0.092436	-0.426448	0.899776	-0.828084	-0.468878	-0.307295
308	346549													8.147389	-0.907516	5.482934	0.547617	-0.776458	-0.311815	-0.092029	-0.426290	0.899893	-0.831653	-0.464101	-0.304901
309	346716													8.205497	-0.876166	5.388863	0.542427	-0.779279	-0.313843	-0.091625	-0.426224	0.899966	-0.835092	-0.459410	-0.302597
310	346883													8.263742	-0.858009	5.264734	0.537433	-0.781949	-0.315788	-0.091284	-0.426206	0.900009	-0.838352	-0.454868	-0.300436
311	347049													8.269769	-0.866491	5.199540	0.532687	-0.784474	-0.317560	-0.090932	-0.426108	0.900091	-0.841413	-0.450591	-0.298316
312	347216													8.359156	-0.879727	5.163148	0.528063	-0.786897	-0.319285	-0.090568	-0.426022	0.900168	-0.844362	-0.446428	-0.296234
313	347383													8.351598	-0.852207	5.171154	0.523487	-0.789198	-0.321135	-0.090145	-0.426089	0.900179	-0.847252	-0.442283	-0.294194
314	347549													8.345029	-0.842715	5.108766	0.518852	-0.791521	-0.322937	-0.089732	-0.426103	0.900213	-0.850142	-0.438100	-0.292109
315	347716													8.386337	-0.849514	5.031614	0.514228	-0.793823	-0.324674	-0.089334	-0.426078	0.900265	-0.852988	-0.433937	-0.290017
316	347883													8.451606	-0.845076	4.987194	0.509685	-0.796089	-0.326287	-0.088953	-0.425972	0.900353	-0.855750	-0.429872	-0.287927
317	348049													8.485990	-0.816092	4.949906	0.505241	-0.798235	-0.327952	-0.088560	-0.425976	0.900390	-0.858422	-0.425870	-0.285913
318	348216													8.498216	-0.822557	4.873491	0.500793	-0.800477	-0.329306	-0.088258	-0.425692	0.900554	-0.861056	-0.421927	-0.283832
319	348383													8.539938	-0.819382	4.861433	0.496463	-0.802625	-0.330632	-0.087961	-0.425441	0.900701	-0.863590	-0.418082	-0.281816
320	348549													8.515384	-0.827525	4.834494	0.492133	-0.804765	-0.331900	-0.087705	-0.425164	0.900857	-0.866091	-0.414232	-0.279819
321	348716													8.537519	-0.829159	4.796630	0.487780	-0.806941	-0.333043	-0.087441	-0.424751	0.901077	-0.868577	-0.410405	-0.277745
322	348883													8.569389	-0.839036	4.747241	0.483491	-0.809037	-0.334210	-0.087178	-0.424408	0.901265	-0.870998	-0.406617	-0.275727
323	349049													8.593012	-0.827104	4.730518	0.479187	-0.811150	-0.335283	-0.086934	-0.423980	0.901490	-0.873397	-0.402835	-0.273683
324	349216													8.602527	-0.821373	4.664057	0.474856	-0.813245	-0.336369	-0.086668	-0.423565	0.901710	-0.875785	-0.399030	-0.271615
325	349383													8.629086	-0.818461	4.644994	0.470648	-0.815221	-0.337499	-0.086383	-0.423249	0.901886	-0.878082	-0.395317	-0.269622
326	349549													8.637002	-0.806838	4.595658	0.466573	-0.817145	-0.338502	-0.086155	-0.422879	0.902081	-0.880277	-0.391723	-0.267706
327	349716													8.654852	-0.795320	4.610818	0.462585	-0.819020	-0.339442	-0.085956	-0.422497	0.902279	-0.882398	-0.388203	-0.265841
328	349883													8.671496	-0.806955	4.561480	0.458478	-0.820962	-0.340321	-0.085756	-0.422022	0.902520	-0.884558	-0.384601	-0.263890
329	350049													8.684534	-0.814443	4.502038	0.454368	-0.822947	-0.341040	-0.085581	-0.421396	0.902830	-0.886694	-0.381030	-0.261898
330	350216													8.716096	-0.794260	4.362374	0.450415	-0.824792	-0.341824	-0.085395	-0.420902	0.903077	-0.888726	-0.377569	-0.260014
331	350383													8.857094	-0.808670	4.374399	0.446782	-0.826558	-0.342328	-0.085225	-0.420224	0.903409	-0.890575	-0.374452	-0.258192
332	350549													8.766566	-0.807248	4.454700	0.443111	-0.828397	-0.342653	-0.084895	-0.419285	0.903876	-0.892438	-0.371428	-0.256117
333	350716													8.780793	-0.785368	4.379556	0.439209	-0.830184	-0.343352	-0.084498	-0.418668	0.904200	-0.894402	-0.368120	-0.254032
334	350883													8.773171	-0.835490	4.298819	0.435591	-0.831773	-0.344113	-0.084183	-0.418254	0.904421	-0.896199	-0.364989	-0.252209
335	351049													8.767864	-0.805983	4.272569	0.431939	-0.833396	-0.344789	-0.084010	-0.417807	0.904643	-0.897982	-0.361785	-0.250481
336	351216													8.817472	-0.821176	4.233770	0.428334	-0.834959	-0.345505	-0.083823	-0.417422	0.904839	-0.899724	-0.358612	-0.248784
337	351383													8.857110	-0.782490	4.206873	0.424670	-0.836524	-0.346241	-0.083578	-0.417031	0.905042	-0.901482	-0.355406	-0.247016
338	351549													8.837454	-0.769206	4.166427	0.420888	-0.838149	-0.346927	-0.083342	-0.416565	0.905278	-0.903276	-0.352107	-0.245180
339	351716													8.824356	-0.781986	4.143455	0.417108	-0.839781	-0.347548	-0.083107	-0.416041	0.905540	-0.905049	-0.348824	-0.243325
340	351883													8.848463	-0.811807	4.038634	0.413280	-0.841354	-0.348315	-0.082924	-0.415694	0.905716	-0.906821	-0.345430	-0.241566
341	352049													8.948498	-0.832847	4.051372	0.409644	-0.842898	-0.348876	-0.082711	-0.415179	0.905972	-0.908488	-0.342270	-0.239792
342	352216													8.961085	-0.778994	4.021858	0.406078	-0.844356	-0.349519	-0.082484	-0.414778	0.906176	-0.910108	-0.339149	-0.238078
343	352383													8.930585	-0.771795	3.982669	0.402496	-0.845782	-0.350215	-0.082232	-0.414431	0.906358	-0.911721	-0.336007	-0.236357
344	352549													8.933816	-0.789885	3.968667	0.398841	-0.847181	-0.351014	-0.081972	-0.414181	0.906496	-0.913349	-0.332774	-0.234637
345	352716													8.987636	-0.800196	3.868381	0.395277	-0.848576	-0.351674	-0.081823	-0.413858	0.906657	-0.914911	-0.329605	-0.233021
346	352883													9.082033	-0.830829	3.851334	0.391965	-0.849884	-0.352221	-0.081607	-0.413469	0.906854	-0.916354	-0.326711	-0.231422
347	353049													9.002503	-0.742654	3.799785	0.388390	-0.851145	-0.353136	-0.081235	-0.413354	0.906939	-0.917907	-0.323559	-0.229686
348	353216													9.050978	-0.756148	3.734212	0.385167	-0.852299	-0.353882	-0.080864	-0.413163	0.907060	-0.919297	-0.320754	-0.228057
349	353383													9.087402	-0.758602	3.743561	0.382028	-0.853462	-0.354481	-0.080635	-0.412896	0.907202	-0.920626	-0.317993	-0.226557
350	353549													9.074735	-0.780075	3.725226	0.378976	-0.854649	-0.354897	-0.080492	-0.412493	0.907398	-0.921899	-0.315315	-0.225117
351	353716													9.083610	-0.797145	3.686324	0.375901	-0.855782	-0.355437	-0.080324	-0.412216	0.907539	-0.923172	-0.312595	-0.223692
352	353883													9.103508	-0.781967	3.665927	0.372946	-0.856819	-0.356052	-0.080057	-0.412022	0.907650	-0.924393	-0.310000	-0.222256
353	354049													9.082641	-0.739021	3.618938	0.370082	-0.857825	-0.356617	-0.079769	-0.411797	0.907777	-0.925568	-0.307505	-0.220827
354	354216													9.103720	-0.742943	3.580744	0.367248	-0.858815	-0.357163	-0.079490	-0.411570	0.907905	-0.926720	-0.305035	-0.219415
355	354383													9.121417	-0.773797	3.593061	0.364400	-0.859737	-0.357862	-0.079155	-0.411489	0.907971	-0.927872	-0.302538	-0.217999
356	354549													9.163318	-0.765374	3.525757	0.361435	-0.860653	-0.358665	-0.078815	-0.411494	0.907998	-0.929060	-0.299915	-0.216561
357	354716													9.190945	-0.741933	3.505345	0.358780	-0.861499	-0.359300	-0.078468	-0.411402	0.908070	-0.930118	-0.297604	-0.215203
358	354883													9.197251	-0.724926	3.498538	0.356323	-0.862274	-0.359885	-0.078193	-0.411334	0.908125	-0.931085	-0.295445	-0.213991
359	355049													9.164964	-0.732916	3.469696	0.353917	-0.862989	-0.360546	-0.077929	-0.411366	0.908133	-0.932025	-0.293306	-0.212841
360	355216													9.150904	-0.714101	3.448428	0.351408	-0.863821	-0.361007	-0.077754	-0.411196	0.908225	-0.932988	-0.291088	-0.211663
361	355383													9.183389	-0.735261	3.397066	0.348922	-0.864561	-0.361646	-0.077465	-0.411186	0.908254	-0.933945	-0.288895	-0.210444
362	355549													9.204839	-0.721550	3.400723	0.346504	-0.865245	-0.362335	-0.077207	-0.411260	0.908242	-0.934866	-0.286735	-0.209306
363	355716													9.209026	-0.710937	3.362860	0.344225	-0.865859	-0.363039	-0.076960	-0.411390	0.908205	-0.935728	-0.284688	-0.208247
364	355883													9.206954	-0.741600	3.404413	0.342123	-0.866531	-0.363421	-0.076760	-0.411240	0.908289	-0.936515	-0.282851	-0.207209
365	356049													9.172971	-0.729623	3.373333	0.339823	-0.867212	-0.363955	-0.076585	-0.411215	0.908315	-0.937366	-0.280793	-0.206156
366	356216													9.208685	-0.721133	3.317189	0.337653	-0.867882	-0.364379	-0.076412	-0.411110	0.908378	-0.938164	-0.278873	-0.205129
367	356383													9.217157	-0.728454	3.307268	0.335549	-0.868503	-0.364843	-0.076257	-0.411069	0.908409	-0.938931	-0.276994	-0.204163
368	356549													9.237572	-0.718582	3.266434	0.333439	-0.869153	-0.365227	-0.076170	-0.410967	0.908462	-0.939689	-0.275098	-0.203236
369	356716													9.216507	-0.745060	3.287208	0.331372	-0.869653	-0.365917	-0.075987	-0.411168	0.908387	-0.940435	-0.273210	-0.202332
370	356883													9.257281	-0.718280	3.210542	0.329183	-0.870212	-0.366564	-0.075854	-0.411315	0.908332	-0.941215	-0.271202	-0.201407
371	357049													9.291316	-0.711783	3.172505	0.327175	-0.870712	-0.367174	-0.075704	-0.411461	0.908278	-0.941926	-0.269370	-0.200537
372	357216													9.314386	-0.722506	3.185612	0.325430	-0.871144	-0.367700	-0.075513	-0.411569	0.908245	-0.942546	-0.267804	-0.199719
373	357383													9.259324	-0.718327	3.206937	0.323689	-0.871531	-0.368320	-0.075344	-0.411783	0.908162	-0.943159	-0.266212	-0.198954
374	357549													9.261701	-0.698333	3.194324	0.321833	-0.871977	-0.368891	-0.075218	-0.411936	0.908103	-0.943804	-0.264510	-0.198163
375	357716													9.231334	-0.695484	3.159262	0.319738	-0.872514	-0.369442	-0.075125	-0.412027	0.908070	-0.944523	-0.262590	-0.197288
376	357883													9.337800	-0.685541	3.063195	0.317864	-0.873023	-0.369856	-0.075050	-0.412031	0.908074	-0.945161	-0.260887	-0.196490
377	358049													9.354908	-0.703829	3.134109	0.316245	-0.873426	-0.370292	-0.074931	-0.412102	0.908052	-0.945714	-0.259420	-0.195771
378	358216													9.292664	-0.730386	3.024673	0.314602	-0.873814	-0.370777	-0.074882	-0.412240	0.907993	-0.946265	-0.257892	-0.195124
379	358383													9.261290	-0.699458	3.013714	0.313245	-0.874105	-0.371239	-0.074877	-0.412428	0.907908	-0.946716	-0.256600	-0.194642
380	358549													9.336555	-0.703752	3.027719	0.311868	-0.874412	-0.371676	-0.074780	-0.412562	0.907855	-0.947178	-0.255336	-0.194054
381	358716													9.432212	-0.723273	3.044281	0.310633	-0.874758	-0.371895	-0.074624	-0.412486	0.907902	-0.947596	-0.254273	-0.193409
382	358883													9.337330	-0.670841	3.153561	0.309406	-0.875128	-0.372047	-0.074350	-0.412310	0.908005	-0.948019	-0.253280	-0.192637
383	359049													9.316620	-0.684910	3.039074	0.308226	-0.875510	-0.372127	-0.074226	-0.412113	0.908104	-0.948413	-0.252280	-0.192009
384	359216													9.310101	-0.707892	3.021147	0.307404	-0.875803	-0.372118	-0.074204	-0.411925	0.908191	-0.948681	-0.251569	-0.191616
385	359383													9.329649	-0.703301	3.047994	0.306719	-0.876001	-0.372218	-0.074224	-0.411890	0.908206	-0.948901	-0.250937	-0.191355
386	359549													9.326316	-0.686964	3.067813	0.306024	-0.876196	-0.372330	-0.074225	-0.411861	0.908218	-0.949126	-0.250300	-0.191076
387	359716													9.306615	-0.677510	3.013575	0.305358	-0.876339	-0.372540	-0.074170	-0.411926	0.908194	-0.949345	-0.249693	-0.190783
388	359883													9.318182	-0.700995	3.004866	0.304897	-0.876439	-0.372683	-0.074140	-0.411971	0.908176	-0.949495	-0.249269	-0.190588
389	360050													9.318086	-0.738819	3.000245	0.304506	-0.876554	-0.372731	-0.074173	-0.411948	0.908184	-0.949618	-0.248901	-0.190457
390	360216													9.335911	-0.750569	3.005947	0.304274	-0.876634	-0.372733	-0.074166	-0.411900	0.908206	-0.949693	-0.248699	-0.190347
391	360383													9.338635	-0.724709	2.981186	0.304066	-0.876712	-0.372720	-0.074111	-0.411829	0.908243	-0.949764	-0.248543	-0.190197
392	360550													9.375999	-0.709566	2.987747	0.303802	-0.876743	-0.372862	-0.074031	-0.411899	0.908217	-0.949855	-0.248315	-0.190041
393	360716													9.378958	-0.713537	2.987800	0.303635	-0.876758	-0.372963	-0.073970	-0.411954	0.908197	-0.949913	-0.248172	-0.189938
394	360883													9.332006	-0.696578	2.931850	0.303416	-0.876766	-0.373122	-0.073930	-0.412063	0.908151	-0.949986	-0.247962	-0.189846
395	361050													9.472882	-0.758954	2.842288	0.303273	-0.876821	-0.373108	-0.073940	-0.412022	0.908169	-0.950031	-0.247835	-0.189787
396	361216													9.372106	-0.696173	2.932139	0.303235	-0.876813	-0.373158	-0.073838	-0.412039	0.908170	-0.950051	-0.247836	-0.189686
397	361383													9.427895	-0.678553	2.884097	0.303370	-0.876751	-0.373195	-0.073650	-0.412056	0.908177	-0.950022	-0.248028	-0.189578
398	361550													9.377792	-0.686449	2.928396	0.303554	-0.876724	-0.373108	-0.073568	-0.411982	0.908217	-0.949970	-0.248245	-0.189557
399	361716													9.423823	-0.724796	2.894456	0.303895	-0.876664	-0.372970	-0.073589	-0.411916	0.908246	-0.949859	-0.248565	-0.189692
400	361883													9.375615	-0.755639	2.904966	0.304292	-0.876520	-0.372986	-0.073598	-0.412017	0.908199	-0.949731	-0.248907	-0.189884
401	362050													9.349924	-0.697105	2.936911	0.304814	-0.876330	-0.373007	-0.073537	-0.412130	0.908152	-0.949569	-0.249388	-0.190065
402	362216													9.329496	-0.683230	2.971488	0.305338	-0.876150	-0.373002	-0.073512	-0.412228	0.908110	-0.949402	-0.249860	-0.190276
403	362383													9.357422	-0.694516	2.945935	0.305853	-0.875971	-0.373000	-0.073485	-0.412326	0.908068	-0.949239	-0.250326	-0.190482
404	362550													9.353739	-0.702236	2.971384	0.306476	-0.875769	-0.372961	-0.073481	-0.412414	0.908028	-0.949038	-0.250883	-0.190748
405	362716													9.345003	-0.698745	3.010494	0.307220	-0.875518	-0.372939	-0.073466	-0.412542	0.907971	-0.948799	-0.251548	-0.191062
406	362883													9.359621	-0.679211	3.012210	0.308113	-0.875246	-0.372843	-0.073465	-0.412629	0.907932	-0.948509	-0.252354	-0.191436
407	363050													9.325665	-0.681213	3.060796	0.309070	-0.874973	-0.372691	-0.073467	-0.412672	0.907912	-0.948198	-0.253227	-0.191826
408	363216													9.315167	-0.676212	3.053450	0.310051	-0.874663	-0.372604	-0.073483	-0.412792	0.907856	-0.947876	-0.254101	-0.192260
409	363383													9.302514	-0.696512	3.075727	0.311004	-0.874347	-0.372549	-0.073529	-0.412949	0.907781	-0.947560	-0.254930	-0.192719
410	363550													9.325770	-0.672843	3.063793	0.311956	-0.874036	-0.372484	-0.073617	-0.413107	0.907702	-0.947240	-0.255742	-0.193215
411	363716													9.315182	-0.678196	3.097702	0.313018	-0.873717	-0.372341	-0.073742	-0.413217	0.907642	-0.946880	-0.256651	-0.193774
412	363883													9.318925	-0.696059	3.095367	0.314213	-0.873397	-0.372087	-0.073885	-0.413246	0.907617	-0.946473	-0.257693	-0.194378
413	364050													9.300837	-0.685471	3.158418	0.315511	-0.873054	-0.371793	-0.074067	-0.413268	0.907592	-0.946027	-0.258817	-0.195055
414	364216													9.279441	-0.691951	3.152330	0.316898	-0.872768	-0.371283	-0.074275	-0.413093	0.907655	-0.945547	-0.260056	-0.195733
415	364383													9.270600	-0.709710	3.163335	0.318293	-0.872522	-0.370668	-0.074526	-0.412824	0.907757	-0.945058	-0.261308	-0.196424
416	364550													9.281834	-0.721591	3.149513	0.319737	-0.872228	-0.370116	-0.074776	-0.412632	0.907824	-0.944551	-0.262589	-0.197156
417	364716													9.292768	-0.705374	3.154558	0.321355	-0.871855	-0.369594	-0.075084	-0.412526	0.907846	-0.943977	-0.263991	-0.198030
418	364883													9.296598	-0.703580	3.164290	0.323151	-0.871417	-0.369061	-0.075388	-0.412450	0.907855	-0.943340	-0.265552	-0.198978
419	365050													9.265477	-0.707378	3.194319	0.324977	-0.870889	-0.368705	-0.075739	-0.412580	0.907767	-0.942684	-0.267078	-0.200039
420	365216													9.259000	-0.707546	3.213845	0.326515	-0.870498	-0.368269	-0.076155	-0.412585	0.907730	-0.942119	-0.268342	-0.201008
421	365383													9.274819	-0.733775	3.214424	0.327852	-0.870149	-0.367905	-0.076508	-0.412604	0.907692	-0.941626	-0.269441	-0.201847
422	365550													9.286388	-0.752501	3.200415	0.329199	-0.869769	-0.367600	-0.076891	-0.412699	0.907616	-0.941125	-0.270521	-0.202737
423	365716													9.278490	-0.758413	3.200417	0.330596	-0.869463	-0.367069	-0.077307	-0.412579	0.907635	-0.940601	-0.271683	-0.203613
424	365883													9.263009	-0.746526	3.210339	0.331926	-0.869171	-0.366560	-0.077674	-0.412455	0.907661	-0.940102	-0.272804	-0.204416
425	366050													9.261072	-0.733084	3.195426	0.333156	-0.868913	-0.366056	-0.078068	-0.412323	0.907687	-0.939634	-0.273824	-0.205203
426	366216													9.285395	-0.745061	3.201601	0.334475	-0.868585	-0.365631	-0.078492	-0.412304	0.907659	-0.939130	-0.274890	-0.206082
427	366383													9.296331	-0.730012	3.231823	0.336080	-0.868231	-0.365000	-0.078988	-0.412160	0.907681	-0.938515	-0.276223	-0.207099
428	366550													9.266020	-0.756410	3.262383	0.337982	-0.867699	-0.364510	-0.079445	-0.412222	0.907613	-0.937794	-0.277798	-0.208258
429	366716													9.236736	-0.756743	3.327866	0.339970	-0.867108	-0.364067	-0.079856	-0.412344	0.907521	-0.937040	-0.279458	-0.209428
430	366883													9.202535	-0.715140	3.349167	0.341934	-0.866600	-0.363436	-0.080260	-0.412265	0.907522	-0.936290	-0.281143	-0.210521
431	367050													9.209970	-0.756210	3.374011	0.343914	-0.866092	-0.362777	-0.080747	-0.412190	0.907513	-0.935523	-0.282813	-0.211692
432	367216													9.193460	-0.754559	3.412995	0.345861	-0.865539	-0.362246	-0.081200	-0.412234	0.907452	-0.934765	-0.284438	-0.212858
433	367383													9.199985	-0.790880	3.458783	0.347744	-0.865099	-0.361494	-0.081628	-0.412027	0.907508	-0.934029	-0.286073	-0.213896
434	367550													9.147711	-0.843545	3.441980	0.349494	-0.864622	-0.360948	-0.081983	-0.411985	0.907495	-0.933345	-0.287572	-0.214871
435	367716													9.106773	-0.834500	3.394519	0.351285	-0.863992	-0.360718	-0.082247	-0.412259	0.907347	-0.932649	-0.289070	-0.215882
436	367883													9.183100	-0.786541	3.394921	0.353335	-0.863281	-0.360417	-0.082502	-0.412523	0.907204	-0.931852	-0.290812	-0.216981
437	368050													9.272517	-0.821910	3.469950	0.355688	-0.862565	-0.359816	-0.082681	-0.412525	0.907186	-0.930940	-0.292925	-0.218048
438	368216													9.164985	-0.763263	3.548289	0.357931	-0.861843	-0.359322	-0.082725	-0.412573	0.907161	-0.930076	-0.294976	-0.218968
439	368383													9.147816	-0.747642	3.543067	0.360315	-0.861089	-0.358747	-0.082861	-0.412603	0.907134	-0.929143	-0.297128	-0.220017
440	368550													9.065223	-0.811926	3.559604	0.362692	-0.860335	-0.358160	-0.083136	-0.412667	0.907080	-0.928194	-0.299214	-0.221195
441	368716													9.124508	-0.812123	3.527418	0.365072	-0.859450	-0.357865	-0.083394	-0.413041	0.906886	-0.927237	-0.301235	-0.222463
442	368883													9.139410	-0.807070	3.605282	0.367512	-0.858502	-0.357645	-0.083645	-0.413510	0.906649	-0.926249	-0.303290	-0.223780
443	369050													9.131286	-0.785920	3.572509	0.370092	-0.857392	-0.357647	-0.083781	-0.414218	0.906313	-0.925210	-0.305455	-0.225132
444	369216													9.074031	-0.774222	3.629876	0.372857	-0.856374	-0.357212	-0.083976	-0.414537	0.906150	-0.924081	-0.307867	-0.226478
445	369383													9.070220	-0.797617	3.659683	0.375662	-0.855358	-0.356709	-0.084202	-0.414810	0.906004	-0.922924	-0.310315	-0.227851
446	369550													9.062910	-0.841598	3.718500	0.378498	-0.854353	-0.356118	-0.084444	-0.415010	0.905889	-0.921742	-0.312805	-0.229226
447	369716													9.036592	-0.838302	3.765898	0.381351	-0.853325	-0.355540	-0.084687	-0.415235	0.905764	-0.920543	-0.315304	-0.230615
448	369883													9.024913	-0.805045	3.813287	0.384199	-0.852267	-0.355009	-0.084938	-0.415519	0.905610	-0.919335	-0.317781	-0.232032
449	370050													9.024388	-0.811259	3.781501	0.387088	-0.851208	-0.354410	-0.085156	-0.415736	0.905490	-0.918102	-0.320325	-0.233412
450	370216													9.039787	-0.805015	3.749969	0.390144	-0.850018	-0.353918	-0.085333	-0.416103	0.905305	-0.916791	-0.322998	-0.234874
451	370383													9.012839	-0.793544	3.792981	0.393194	-0.848892	-0.353244	-0.085576	-0.416308	0.905188	-0.915465	-0.325685	-0.236334
452	370550													9.081186	-0.867985	3.866900	0.396491	-0.847589	-0.352687	-0.085868	-0.416729	0.904966	-0.914014	-0.328526	-0.238010
453	370716													8.962675	-0.829861	3.919088	0.399741	-0.846231	-0.352278	-0.085976	-0.417240	0.904720	-0.912587	-0.331367	-0.239544
454	370883													8.995282	-0.811542	3.894440	0.403206	-0.844766	-0.351844	-0.086051	-0.417781	0.904464	-0.911054	-0.334409	-0.241145
455	371050													8.938559	-0.815374	3.906335	0.406661	-0.843410	-0.351122	-0.086195	-0.418044	0.904328	-0.909504	-0.337490	-0.242700
456	371216													8.997691	-0.868120	3.923537	0.410273	-0.841952	-0.350418	-0.086413	-0.418408	0.904139	-0.907859	-0.340663	-0.244418
457	371383													8.936058	-0.873258	4.014078	0.413773	-0.840457	-0.349892	-0.086576	-0.418922	0.903886	-0.906254	-0.343711	-0.246102
458	371550													8.922167	-0.858480	4.117171	0.417272	-0.838883	-0.349514	-0.086661	-0.419573	0.903575	-0.904640	-0.346747	-0.247775
459	371716													8.846710	-0.829508	4.191016	0.420781	-0.837370	-0.348934	-0.086707	-0.420006	0.903370	-0.903009	-0.349866	-0.249337
460	371883													8.834967	-0.827731	4.173442	0.424288	-0.835688	-0.348719	-0.086743	-0.420838	0.902979	-0.901363	-0.352874	-0.251047
461	372050													8.865249	-0.826378	4.150632	0.427881	-0.834028	-0.348302	-0.086813	-0.421502	0.902663	-0.899656	-0.355996	-0.252757
462	372216													8.878447	-0.820789	4.137373	0.431587	-0.832302	-0.347859	-0.086899	-0.422189	0.902333	-0.897876	-0.359207	-0.254537
463	372383													8.848535	-0.811373	4.242266	0.435339	-0.830601	-0.347248	-0.087026	-0.422737	0.902064	-0.896050	-0.362484	-0.256318
464	372550													8.780512	-0.823084	4.313380	0.438952	-0.828989	-0.346553	-0.087122	-0.423148	0.901862	-0.894277	-0.365681	-0.257965
465	372716													8.768132	-0.840387	4.350621	0.442577	-0.827092	-0.346475	-0.087204	-0.424241	0.901341	-0.892480	-0.368699	-0.259885
466	372883													8.745617	-0.834224	4.418912	0.446227	-0.825441	-0.345728	-0.087318	-0.424638	0.901143	-0.890650	-0.371926	-0.261561
467	373050													8.695949	-0.833978	4.444004	0.449822	-0.823797	-0.344991	-0.087467	-0.425054	0.900932	-0.888825	-0.375083	-0.263254
468	373216													8.699409	-0.834366	4.448274	0.453418	-0.822005	-0.344558	-0.087565	-0.425792	0.900574	-0.886986	-0.378165	-0.265040
469	373383													8.707502	-0.843632	4.419655	0.457129	-0.820235	-0.343871	-0.087671	-0.426306	0.900320	-0.885069	-0.381416	-0.266788
470	373550													8.706842	-0.868931	4.494271	0.460918	-0.818400	-0.343186	-0.087846	-0.426890	0.900027	-0.883084	-0.384691	-0.268655
471	373716													8.687747	-0.878064	4.598689	0.464890	-0.816529	-0.342283	-0.088033	-0.427314	0.899807	-0.880981	-0.388179	-0.270535
472	373883													8.592412	-0.853630	4.653140	0.468825	-0.814643	-0.341409	-0.088220	-0.427772	0.899571	-0.878874	-0.391623	-0.272418
473	374050													8.564212	-0.857158	4.671281	0.472661	-0.812697	-0.340756	-0.088400	-0.428451	0.899230	-0.876799	-0.394909	-0.274354
474	374216													8.600852	-0.869376	4.681740	0.476524	-0.810784	-0.339932	-0.088561	-0.428957	0.898973	-0.874689	-0.398278	-0.276212
475	374383													8.576065	-0.848530	4.688154	0.480350	-0.808815	-0.339238	-0.088722	-0.429607	0.898647	-0.872578	-0.401567	-0.278121
476	374550													8.599943	-0.842672	4.725585	0.484153	-0.806857	-0.338495	-0.088912	-0.430222	0.898334	-0.870454	-0.404834	-0.280032
477	374716													8.596933	-0.865475	4.706869	0.488087	-0.804894	-0.337515	-0.089118	-0.430645	0.898111	-0.868233	-0.408278	-0.281923
478	374883													8.554929	-0.864510	4.809776	0.491972	-0.802916	-0.336583	-0.089275	-0.431094	0.897880	-0.866021	-0.411684	-0.283766
479	375050													8.533931	-0.843656	4.872882	0.495817	-0.800895	-0.335755	-0.089468	-0.431676	0.897581	-0.863806	-0.414997	-0.285687
480	375216													8.461063	-0.852625	4.905153	0.499567	-0.799011	-0.334685	-0.089696	-0.431983	0.897410	-0.861619	-0.418297	-0.287472
481	375383													8.416963	-0.862117	4.973402	0.503270	-0.797094	-0.333709	-0.089898	-0.432378	0.897200	-0.859441	-0.421534	-0.289260
482	375550													8.423864	-0.859058	4.968940	0.506901	-0.795254	-0.332599	-0.090129	-0.432626	0.897057	-0.857279	-0.424743	-0.290974
483	375716													8.400070	-0.823712	5.011194	0.510462	-0.793377	-0.331636	-0.090380	-0.433033	0.896836	-0.855137	-0.427827	-0.292752
484	375883													8.401471	-0.842151	5.068445	0.513986	-0.791541	-0.330578	-0.090746	-0.433391	0.896626	-0.852985	-0.430854	-0.294586
485	376050													8.377567	-0.858514	5.089392	0.517532	-0.789736	-0.329358	-0.091185	-0.433626	0.896467	-0.850791	-0.433918	-0.296428
486	376216													8.367520	-0.889699	5.066634	0.521087	-0.787916	-0.328110	-0.091629	-0.433849	0.896314	-0.848571	-0.436993	-0.298269
487	376383													8.361061	-0.851257	5.150348	0.524675	-0.786122	-0.326693	-0.092129	-0.433935	0.896221	-0.846303	-0.440127	-0.300099
488	376550													8.343657	-0.872892	5.179350	0.528317	-0.784283	-0.325240	-0.092703	-0.434059	0.896102	-0.843971	-0.443276	-0.302026
489	376717													8.279314	-0.897656	5.236926	0.531994	-0.782465	-0.323622	-0.093392	-0.434084	0.896018	-0.841582	-0.446453	-0.304006
490	376883													8.276276	-0.898463	5.273767	0.535781	-0.780611	-0.321848	-0.094180	-0.434046	0.895954	-0.839088	-0.449723	-0.306071
491	377050													8.208861	-0.904558	5.294174	0.539647	-0.778726	-0.319947	-0.094995	-0.433929	0.895925	-0.836515	-0.453090	-0.308143
492	377217													8.190042	-0.876538	5.372249	0.543496	-0.776861	-0.317962	-0.095854	-0.433752	0.895919	-0.833921	-0.456450	-0.310208
493	377383													8.173074	-0.931797	5.393254	0.547465	-0.774942	-0.315826	-0.096770	-0.433503	0.895941	-0.831214	-0.459934	-0.312319
494	377550													8.146860	-0.940517	5.428409	0.551435	-0.772955	-0.313783	-0.097633	-0.433353	0.895920	-0.828485	-0.463407	-0.314432
495	377717													8.116015	-0.972552	5.439481	0.555346	-0.770974	-0.311753	-0.098523	-0.433229	0.895883	-0.825763	-0.466810	-0.316551
496	377883													8.181693	-1.010284	5.398381	0.559621	-0.768782	-0.309513	-0.099347	-0.433008	0.895898	-0.822772	-0.470614	-0.318697
497	378050													8.137795	-1.029167	5.515589	0.564597	-0.766151	-0.306990	-0.099915	-0.432653	0.896007	-0.819297	-0.475210	-0.320824
498	378217													7.967497	-0.949902	5.627948	0.569255	-0.763774	-0.304299	-0.100289	-0.431865	0.896345	-0.816022	-0.479731	-0.322439
499	378383													8.008852	-0.990911	5.623431	0.573945	-0.761206	-0.301915	-0.100842	-0.431579	0.896421	-0.812661	-0.484051	-0.324464
500	378550													8.018903	-1.033556	5.656225	0.578637	-0.758790	-0.299027	-0.101539	-0.430811	0.896711	-0.809240	-0.488507	-0.326330
501	378717													8.003495	-1.013821	5.691782	0.583485	-0.756223	-0.296094	-0.102240	-0.430092	0.896977	-0.805662	-0.493100	-0.328269
502	378883													7.891111	-0.975086	5.792217	0.588241	-0.753669	-0.293181	-0.103066	-0.429454	0.897188	-0.802091	-0.497546	-0.330301
503	379050													7.836210	-0.989488	5.795282	0.592875	-0.751137	-0.290331	-0.103935	-0.428885	0.897360	-0.798559	-0.501847	-0.332344
504	379217													7.843982	-1.033496	5.822196	0.597561	-0.748535	-0.287430	-0.104714	-0.428253	0.897571	-0.794956	-0.506256	-0.334289
505	379383													7.800585	-1.028723	5.898365	0.602457	-0.745726	-0.284498	-0.105588	-0.427778	0.897696	-0.791137	-0.510783	-0.336457
506	379550													7.757216	-1.041452	5.949893	0.607378	-0.742844	-0.281558	-0.106480	-0.427351	0.897793	-0.787244	-0.515320	-0.338662
507	379717													7.703089	-1.043495	6.011570	0.612420	-0.739890	-0.278397	-0.107510	-0.426844	0.897912	-0.783188	-0.519969	-0.340953
508	379883													7.702322	-1.031792	5.982182	0.617360	-0.736969	-0.275217	-0.108684	-0.426392	0.897985	-0.779137	-0.524468	-0.343334
509	380050													7.759850	-0.945839	6.038025	0.622274	-0.734004	-0.272053	-0.110178	-0.426203	0.897893	-0.775007	-0.528761	-0.346086
510	380217													7.677267	-0.960897	6.159413	0.627233	-0.731033	-0.268646	-0.112053	-0.426049	0.897734	-0.770729	-0.532985	-0.349146
511	380383													7.549658	-1.032111	6.230287	0.632206	-0.728070	-0.265010	-0.114026	-0.425741	0.897632	-0.766364	-0.537270	-0.352175
512	380550													7.476642	-1.177142	6.257888	0.637244	-0.725144	-0.260935	-0.115957	-0.424950	0.897759	-0.761889	-0.541834	-0.354882
513	380717													7.333191	-1.204655	6.303148	0.642071	-0.722183	-0.257286	-0.117575	-0.424389	0.897814	-0.757576	-0.546210	-0.357398
514	380883													7.265247	-1.162126	6.281271	0.646706	-0.719153	-0.254146	-0.118754	-0.424073	0.897808	-0.753438	-0.550437	-0.359653
515	381050													7.215834	-1.132503	6.304829	0.650873	-0.716304	-0.251541	-0.119699	-0.424010	0.897713	-0.749691	-0.554188	-0.361717
516	381217													7.251299	-1.185590	6.366474	0.654586	-0.713676	-0.249368	-0.120444	-0.424096	0.897572	-0.746331	-0.557503	-0.363566
517	381383													7.206743	-1.241023	6.459410	0.657841	-0.711353	-0.247431	-0.121058	-0.424122	0.897477	-0.743364	-0.560444	-0.365119
518	381550													7.068604	-1.244340	6.501552	0.660535	-0.709357	-0.245979	-0.121378	-0.424207	0.897394	-0.740919	-0.562904	-0.366304
519	381717													7.048743	-1.179695	6.503092	0.662635	-0.707779	-0.244877	-0.121631	-0.424322	0.897305	-0.739000	-0.564801	-0.367259
520	381883													7.132048	-1.173997	6.522671	0.664199	-0.706560	-0.244156	-0.121786	-0.424515	0.897193	-0.737568	-0.566180	-0.368012
521	382050													7.063520	-1.151364	6.559173	0.665322	-0.705663	-0.243692	-0.121853	-0.424690	0.897101	-0.736545	-0.567167	-0.368543
522	382217													7.112009	-1.184918	6.580813	0.665931	-0.705154	-0.243503	-0.121845	-0.424831	0.897036	-0.735996	-0.567694	-0.368827
523	382383													7.101493	-1.154271	6.621917	0.666192	-0.704833	-0.243718	-0.121656	-0.425125	0.896922	-0.735791	-0.567872	-0.368962
524	382550													7.116764	-1.145774	6.614320	0.666128	-0.704700	-0.244279	-0.121332	-0.425548	0.896765	-0.735902	-0.567721	-0.368972
525	382717													7.085507	-1.150480	6.624885	0.665729	-0.704874	-0.244861	-0.121029	-0.425801	0.896686	-0.736313	-0.567315	-0.368778
526	382883													7.083439	-1.158552	6.646335	0.665007	-0.705265	-0.245696	-0.120661	-0.426120	0.896584	-0.737025	-0.566589	-0.368471
527	383050													7.042308	-1.146719	6.594691	0.663970	-0.705840	-0.246848	-0.120164	-0.426544	0.896449	-0.738041	-0.565553	-0.368029
528	383217													7.072673	-1.172708	6.559568	0.662626	-0.706764	-0.247814	-0.119697	-0.426563	0.896502	-0.739324	-0.564383	-0.367249
529	383383													7.203675	-1.197163	6.511770	0.661094	-0.707802	-0.248938	-0.119156	-0.426614	0.896550	-0.740781	-0.563042	-0.366371
530	383550													7.118409	-1.144598	6.551854	0.659384	-0.708801	-0.250628	-0.118296	-0.427033	0.896465	-0.742442	-0.561466	-0.365427
531	383717													7.104531	-1.145133	6.503581	0.657301	-0.710088	-0.252451	-0.117276	-0.427276	0.896483	-0.744447	-0.559653	-0.364125
532	383883													7.138847	-1.213871	6.448570	0.654946	-0.711569	-0.254392	-0.116045	-0.427355	0.896605	-0.746712	-0.557707	-0.362469
533	384050													7.272675	-1.180807	6.394534	0.652248	-0.713220	-0.256692	-0.114681	-0.427593	0.896668	-0.749280	-0.555412	-0.360689
534	384217													7.323813	-1.132665	6.438340	0.649205	-0.715090	-0.259188	-0.113387	-0.427942	0.896666	-0.752114	-0.552731	-0.358904
535	384383													7.377660	-1.094863	6.461017	0.645868	-0.717183	-0.261731	-0.112308	-0.428350	0.896606	-0.755144	-0.549695	-0.357203
536	384550													7.330784	-1.034845	6.422563	0.642148	-0.719577	-0.264303	-0.111347	-0.428678	0.896569	-0.758451	-0.546301	-0.355397
537	384717													7.376648	-1.012071	6.372818	0.638103	-0.722224	-0.266865	-0.110526	-0.428932	0.896550	-0.761977	-0.542596	-0.353527
538	384883													7.387706	-1.039988	6.300075	0.633791	-0.725067	-0.269422	-0.109662	-0.429023	0.896612	-0.765692	-0.538719	-0.351423
539	385050													7.526304	-1.086806	6.170724	0.629416	-0.727940	-0.271915	-0.108775	-0.429015	0.896724	-0.769417	-0.534835	-0.349211
540	385217													7.583969	-1.041680	6.163453	0.624966	-0.730727	-0.274692	-0.107799	-0.429285	0.896713	-0.773173	-0.530804	-0.347060
541	385383													7.634152	-0.966688	6.161024	0.620352	-0.733649	-0.277349	-0.107021	-0.429486	0.896710	-0.776988	-0.526593	-0.344948
542	385550													7.611670	-0.983250	6.170795	0.615522	-0.736792	-0.279767	-0.106448	-0.429449	0.896796	-0.780898	-0.522217	-0.342765
543	385717													7.644262	-1.000032	6.071183	0.610568	-0.740017	-0.282102	-0.105880	-0.429282	0.896943	-0.784854	-0.517776	-0.340459
544	385883													7.667748	-1.010936	6.018107	0.605555	-0.743216	-0.284488	-0.105205	-0.429112	0.897104	-0.788819	-0.513316	-0.338041
545	386050													7.713581	-1.030262	5.956721	0.600366	-0.746465	-0.286968	-0.104440	-0.428943	0.897274	-0.792876	-0.508722	-0.335484
546	386217													7.838637	-1.052682	5.881444	0.595033	-0.749731	-0.289551	-0.103657	-0.428853	0.897407	-0.796989	-0.503973	-0.332896
547	386383													7.889629	-1.040669	5.827030	0.589588	-0.752996	-0.292204	-0.102903	-0.428850	0.897496	-0.801123	-0.499084	-0.330330
548	386550													7.883486	-1.025679	5.797245	0.584165	-0.756240	-0.294708	-0.102254	-0.428784	0.897602	-0.805168	-0.494212	-0.327809
549	386717													7.887794	-1.022793	5.746698	0.578633	-0.759563	-0.297067	-0.101765	-0.428629	0.897731	-0.809214	-0.489226	-0.325316
550	386883													7.889556	-1.030136	5.678433	0.573023	-0.762847	-0.299515	-0.101320	-0.428606	0.897792	-0.813252	-0.484109	-0.322893
551	387050													7.966349	-0.990908	5.598966	0.567308	-0.766166	-0.301911	-0.100913	-0.428532	0.897873	-0.817299	-0.478904	-0.320426
552	387217													8.103693	-1.022787	5.539600	0.561720	-0.769437	-0.304034	-0.100427	-0.428187	0.898093	-0.821209	-0.473944	-0.317794
553	387383													8.078184	-1.008999	5.558424	0.556149	-0.772583	-0.306291	-0.099694	-0.427901	0.898310	-0.825082	-0.469059	-0.314999
554	387550													8.052031	-0.978353	5.492623	0.550513	-0.775594	-0.308853	-0.098877	-0.427932	0.898386	-0.828951	-0.464035	-0.312270
555	387717													8.073802	-0.994111	5.412615	0.544691	-0.778622	-0.311543	-0.098133	-0.428111	0.898382	-0.832875	-0.458769	-0.309597
556	387883													8.209627	-0.969178	5.301003	0.538825	-0.781613	-0.314243	-0.097350	-0.428298	0.898378	-0.836774	-0.453478	-0.306868
557	388050													8.279479	-0.941407	5.291383	0.532945	-0.784588	-0.316845	-0.096693	-0.428473	0.898366	-0.840607	-0.448143	-0.304217
558	388217													8.272606	-0.907810	5.230004	0.526956	-0.787551	-0.319502	-0.095981	-0.428672	0.898347	-0.844456	-0.442723	-0.301481
559	388383													8.282688	-0.921910	5.179648	0.521091	-0.790464	-0.321918	-0.095339	-0.428722	0.898392	-0.848160	-0.437452	-0.298765
560	388550													8.321916	-0.902574	5.120684	0.515330	-0.793350	-0.324085	-0.094787	-0.428611	0.898503	-0.851733	-0.432307	-0.296076
561	388717													8.373636	-0.907004	5.042228	0.509665	-0.796214	-0.326013	-0.094370	-0.428369	0.898663	-0.855181	-0.427251	-0.293464
562	388883													8.420354	-0.909845	4.987010	0.504069	-0.798994	-0.327907	-0.093941	-0.428140	0.898817	-0.858539	-0.422262	-0.290870
563	389050													8.493594	-0.880081	4.913308	0.498494	-0.801706	-0.329806	-0.093473	-0.427937	0.898962	-0.861839	-0.417299	-0.288262
564	389217													8.522410	-0.882798	4.901165	0.493025	-0.804319	-0.331658	-0.093018	-0.427756	0.899095	-0.865028	-0.412427	-0.285711
565	389383													8.505756	-0.878915	4.865971	0.487434	-0.807039	-0.333311	-0.092674	-0.427390	0.899305	-0.868228	-0.407462	-0.283117
566	389550													8.527845	-0.859589	4.685963	0.481707	-0.809870	-0.334768	-0.092461	-0.426847	0.899585	-0.871441	-0.402383	-0.280496
567	389717													8.689612	-0.938314	4.656908	0.476365	-0.812514	-0.336003	-0.092242	-0.426222	0.899904	-0.874396	-0.397689	-0.277985
568	389883													8.606350	-0.873305	4.636202	0.471033	-0.815056	-0.337361	-0.091861	-0.425689	0.900195	-0.877319	-0.393031	-0.275385
569	390050													8.659284	-0.861837	4.556769	0.465782	-0.817518	-0.338690	-0.091467	-0.425173	0.900478	-0.880159	-0.388448	-0.272814
570	390217													8.692601	-0.881017	4.508901	0.460431	-0.820004	-0.339996	-0.091182	-0.424671	0.900744	-0.883000	-0.383729	-0.270302
571	390383													8.742436	-0.914445	4.421862	0.455347	-0.822425	-0.340994	-0.091029	-0.424003	0.901075	-0.885648	-0.379262	-0.267933
572	390550													8.723754	-0.933281	4.432338	0.450320	-0.824730	-0.342100	-0.090805	-0.423464	0.901350	-0.888238	-0.374831	-0.265584
573	390717													8.730152	-0.890250	4.409933	0.445358	-0.826941	-0.343256	-0.090506	-0.422991	0.901603	-0.890767	-0.370469	-0.263226
574	390883													8.787210	-0.869160	4.333457	0.440442	-0.829059	-0.344487	-0.090177	-0.422622	0.901808	-0.893241	-0.366130	-0.260903
575	391050													8.800675	-0.864051	4.259480	0.435773	-0.831091	-0.345530	-0.089897	-0.422168	0.902049	-0.895556	-0.362026	-0.258682
576	391217													8.838823	-0.885416	4.230473	0.431195	-0.833100	-0.346431	-0.089653	-0.421622	0.902329	-0.897793	-0.358021	-0.256491
577	391383													8.883662	-0.869071	4.145699	0.426660	-0.835070	-0.347302	-0.089386	-0.421064	0.902616	-0.899984	-0.354066	-0.254294
578	391550													8.902879	-0.888561	4.157699	0.422249	-0.836926	-0.348224	-0.089079	-0.420601	0.902862	-0.902092	-0.350213	-0.252151
579	391717													8.911634	-0.867124	4.142246	0.417968	-0.838718	-0.349076	-0.088798	-0.420128	0.903110	-0.904111	-0.346474	-0.250076
580	391883													8.891063	-0.860801	4.114592	0.413799	-0.840400	-0.349998	-0.088467	-0.419759	0.903314	-0.906060	-0.342827	-0.248043
581	392050													8.913964	-0.881268	4.043854	0.409729	-0.841950	-0.351058	-0.088151	-0.419588	0.903424	-0.907938	-0.339213	-0.246136
582	392217													8.955480	-0.890286	3.995602	0.405872	-0.843347	-0.352185	-0.087802	-0.419551	0.903476	-0.909703	-0.335773	-0.244331
583	392383													8.951017	-0.888035	3.956288	0.402199	-0.844692	-0.353174	-0.087459	-0.419432	0.903564	-0.911365	-0.332525	-0.242571
584	392550													8.981900	-0.846123	3.895778	0.398508	-0.846127	-0.353921	-0.087181	-0.419085	0.903752	-0.913012	-0.329297	-0.240775
585	392717													8.990503	-0.847260	3.911234	0.394706	-0.847715	-0.354382	-0.087040	-0.418461	0.904054	-0.914676	-0.325990	-0.238954
586	392883													9.027935	-0.848795	3.809071	0.391059	-0.849195	-0.354883	-0.086899	-0.417934	0.904312	-0.916254	-0.322800	-0.237231
587	393050													9.058700	-0.848544	3.806068	0.387616	-0.850629	-0.355224	-0.086810	-0.417322	0.904603	-0.917724	-0.319802	-0.235603
588	393217													9.063818	-0.832553	3.757204	0.384349	-0.851892	-0.355747	-0.086642	-0.416931	0.904799	-0.919113	-0.316936	-0.234056
589	393384													9.031410	-0.829818	3.720917	0.381067	-0.853025	-0.356561	-0.086422	-0.416837	0.904864	-0.920500	-0.313998	-0.232563
590	393550													9.093100	-0.828321	3.682083	0.377811	-0.854135	-0.357370	-0.086227	-0.416758	0.904918	-0.921859	-0.311073	-0.231105
591	393717													9.108840	-0.827378	3.643169	0.374563	-0.855211	-0.358212	-0.085997	-0.416715	0.904960	-0.923205	-0.308159	-0.229632
592	393884													9.133814	-0.830417	3.577552	0.371374	-0.856312	-0.358902	-0.085774	-0.416535	0.905064	-0.924513	-0.305333	-0.228140
593	394050													9.148744	-0.846437	3.576580	0.368330	-0.857397	-0.359449	-0.085561	-0.416252	0.905215	-0.925750	-0.302663	-0.226678
594	394217													9.144147	-0.832449	3.547702	0.365328	-0.858457	-0.359983	-0.085310	-0.415961	0.905372	-0.926962	-0.300047	-0.225197
595	394384													9.136784	-0.810585	3.592511	0.362510	-0.859431	-0.360505	-0.085065	-0.415713	0.905509	-0.928089	-0.297590	-0.223808
596	394550													9.110987	-0.800426	3.549380	0.359500	-0.860383	-0.361250	-0.084712	-0.415624	0.905583	-0.929292	-0.294954	-0.222302
597	394717													9.166249	-0.823522	3.478570	0.356607	-0.861289	-0.361957	-0.084406	-0.415546	0.905647	-0.930434	-0.292408	-0.220885
598	394884													9.113449	-0.811924	3.493474	0.353912	-0.862080	-0.362718	-0.084071	-0.415571	0.905667	-0.931492	-0.290033	-0.219552
599	395050													9.161228	-0.824566	3.474459	0.350985	-0.863011	-0.363348	-0.083733	-0.415406	0.905774	-0.932630	-0.287489	-0.218064
600	395217													9.172044	-0.809395	3.407398	0.347966	-0.864017	-0.363860	-0.083474	-0.415126	0.905926	-0.933784	-0.284859	-0.216573
601	395384													9.154584	-0.828196	3.364246	0.344977	-0.864966	-0.364451	-0.083249	-0.414954	0.906026	-0.934912	-0.282218	-0.215157
602	395550													9.203997	-0.826554	3.320935	0.342060	-0.865910	-0.364959	-0.083028	-0.414720	0.906153	-0.936003	-0.279657	-0.213754
603	395717													9.310781	-0.832121	3.355544	0.339363	-0.866746	-0.365492	-0.082658	-0.414525	0.906276	-0.937017	-0.277346	-0.212317
604	395884													9.270769	-0.815729	3.384506	0.336581	-0.867498	-0.366279	-0.082150	-0.414542	0.906315	-0.938064	-0.274958	-0.210792
605	396050													9.237339	-0.805373	3.301440	0.333895	-0.868249	-0.366957	-0.081717	-0.414496	0.906375	-0.939061	-0.272648	-0.209349
606	396217													9.194338	-0.817312	3.273080	0.331489	-0.868916	-0.367561	-0.081379	-0.414470	0.906417	-0.939943	-0.270555	-0.208104
607	396384													9.186060	-0.808817	3.289299	0.328953	-0.869606	-0.368206	-0.081119	-0.414485	0.906434	-0.940856	-0.268306	-0.206888
608	396550													9.251980	-0.783276	3.212194	0.326317	-0.870270	-0.368982	-0.080883	-0.414624	0.906391	-0.941794	-0.265926	-0.205689
609	396717													9.283084	-0.741784	3.183874	0.323928	-0.870881	-0.369644	-0.080672	-0.414713	0.906369	-0.942636	-0.263779	-0.204593
610	396884													9.236442	-0.788958	3.211950	0.321692	-0.871370	-0.370444	-0.080420	-0.414972	0.906273	-0.943423	-0.261750	-0.203568
611	397050													9.214793	-0.761667	3.181882	0.319318	-0.871841	-0.371389	-0.080215	-0.415367	0.906110	-0.944247	-0.259546	-0.202568
612	397217													9.293745	-0.787820	3.093675	0.317264	-0.872236	-0.372221	-0.080074	-0.415736	0.905954	-0.944951	-0.257621	-0.201741
613	397384													9.337329	-0.787829	3.116447	0.315659	-0.872633	-0.372654	-0.079930	-0.415791	0.905941	-0.945500	-0.256182	-0.200998
614	397550													9.307266	-0.783503	3.120206	0.314039	-0.873117	-0.372889	-0.079776	-0.415638	0.906025	-0.946052	-0.254779	-0.200181
615	397717													9.270968	-0.728265	3.124333	0.312298	-0.873641	-0.373124	-0.079655	-0.415467	0.906114	-0.946639	-0.253256	-0.199339
616	397884													9.266056	-0.747108	3.074754	0.309884	-0.874409	-0.373339	-0.079591	-0.415147	0.906266	-0.947437	-0.251123	-0.198242
617	398050													9.381715	-0.775465	2.906779	0.308028	-0.875025	-0.373429	-0.079547	-0.414828	0.906416	-0.948046	-0.249496	-0.197384
618	398217													9.478474	-0.810031	2.949734	0.306557	-0.875527	-0.373464	-0.079472	-0.414527	0.906560	-0.948529	-0.248233	-0.196656
619	398384													9.373296	-0.723407	2.957890	0.305240	-0.875854	-0.373776	-0.079242	-0.414508	0.906589	-0.948973	-0.247109	-0.195929
620	398550													9.393780	-0.718913	2.959635	0.304317	-0.875999	-0.374189	-0.078916	-0.414654	0.906551	-0.949296	-0.246349	-0.195317
621	398717													9.349508	-0.741291	2.966048	0.303439	-0.876124	-0.374609	-0.078705	-0.414848	0.906481	-0.949595	-0.245578	-0.194836
622	398884													9.396679	-0.767261	2.940107	0.302876	-0.876129	-0.375052	-0.078545	-0.415145	0.906358	-0.949788	-0.245056	-0.194553
623	399050													9.352038	-0.796198	2.975487	0.302308	-0.876094	-0.375591	-0.078404	-0.415547	0.906186	-0.949980	-0.244500	-0.194313
624	399217													9.362912	-0.773492	2.934697	0.301774	-0.876078	-0.376058	-0.078189	-0.415861	0.906061	-0.950168	-0.244022	-0.193995
625	399384													9.325899	-0.747012	2.958067	0.301220	-0.876041	-0.376588	-0.077891	-0.416216	0.905923	-0.950368	-0.243549	-0.193609
626	399550													9.341647	-0.750887	2.941635	0.300388	-0.876150	-0.376998	-0.077658	-0.416406	0.905856	-0.950650	-0.242831	-0.193123
627	399717													9.381130	-0.768991	2.900883	0.299626	-0.876304	-0.377247	-0.077407	-0.416439	0.905863	-0.950911	-0.242218	-0.192608
628	399884													9.468169	-0.768198	2.901623	0.299112	-0.876424	-0.377376	-0.077189	-0.416409	0.905895	-0.951091	-0.241835	-0.192203
629	400050													9.427347	-0.753199	2.883832	0.298942	-0.876496	-0.377344	-0.077017	-0.416296	0.905961	-0.951158	-0.241768	-0.191953
630	400217													9.416132	-0.733201	2.860415	0.298929	-0.876571	-0.377181	-0.076837	-0.416080	0.906076	-0.951177	-0.241871	-0.191731
631	400384													9.385404	-0.733090	2.942618	0.298788	-0.876541	-0.377362	-0.076655	-0.416192	0.906040	-0.951236	-0.241787	-0.191545
632	400550													9.398262	-0.751034	2.840842	0.298331	-0.876553	-0.377695	-0.076577	-0.416421	0.905941	-0.951385	-0.241348	-0.191355
633	400717													9.456471	-0.754542	2.804133	0.298380	-0.876478	-0.377830	-0.076523	-0.416556	0.905884	-0.951375	-0.241385	-0.191363
634	400884													9.418466	-0.739921	2.845447	0.298802	-0.876322	-0.377859	-0.076512	-0.416671	0.905832	-0.951243	-0.241753	-0.191552
635	401050													9.381261	-0.756392	2.874604	0.299472	-0.876111	-0.377816	-0.076526	-0.416771	0.905785	-0.951031	-0.242344	-0.191857
636	401217													9.382094	-0.758155	2.904875	0.300348	-0.875860	-0.377703	-0.076547	-0.416842	0.905750	-0.950753	-0.243128	-0.192242
637	401384													9.375284	-0.759073	2.933704	0.301387	-0.875564	-0.377564	-0.076594	-0.416927	0.905707	-0.950421	-0.244049	-0.192719
638	401550													9.389278	-0.761226	2.912239	0.302585	-0.875202	-0.377443	-0.076663	-0.417072	0.905634	-0.950034	-0.245096	-0.193296
639	401717													9.394176	-0.749648	2.960591	0.304055	-0.874753	-0.377303	-0.076719	-0.417252	0.905547	-0.949560	-0.246390	-0.193978
640	401884													9.420564	-0.758110	2.955745	0.306015	-0.874172	-0.377065	-0.076789	-0.417440	0.905454	-0.948925	-0.248128	-0.194870
641	402050													9.393733	-0.752478	3.007082	0.308412	-0.873449	-0.376787	-0.076881	-0.417687	0.905332	-0.948141	-0.250248	-0.195972
642	402217													9.362925	-0.747906	3.030688	0.311149	-0.872629	-0.376438	-0.077048	-0.417958	0.905193	-0.947233	-0.252646	-0.197282
643	402384													9.320398	-0.735648	3.115227	0.313929	-0.871967	-0.375661	-0.077335	-0.417833	0.905227	-0.946292	-0.255125	-0.198603
644	402550													9.301466	-0.719769	3.127707	0.316474	-0.871469	-0.374681	-0.077700	-0.417469	0.905363	-0.945414	-0.257411	-0.199831
645	402717													9.308726	-0.739575	3.162528	0.318795	-0.871082	-0.373612	-0.078131	-0.416989	0.905547	-0.944598	-0.259493	-0.200992
646	402884													9.246612	-0.733196	3.150937	0.320469	-0.871031	-0.372296	-0.078715	-0.416152	0.905882	-0.943983	-0.261002	-0.201927
647	403050													9.225614	-0.768730	3.043118	0.321086	-0.871484	-0.370701	-0.079483	-0.414844	0.906414	-0.943709	-0.261573	-0.202469
648	403217													9.324360	-0.793753	3.018849	0.321674	-0.871827	-0.369381	-0.080099	-0.413774	0.906849	-0.943456	-0.262123	-0.202933
649	403384													9.407293	-0.776778	2.982208	0.322557	-0.871954	-0.368312	-0.080473	-0.412963	0.907186	-0.943123	-0.262980	-0.203373
650	403550													9.390977	-0.766310	3.045320	0.323948	-0.871792	-0.367474	-0.080723	-0.412474	0.907386	-0.942625	-0.264282	-0.203993
651	403717													9.292126	-0.766845	3.112667	0.325654	-0.871431	-0.366820	-0.081008	-0.412258	0.907458	-0.942012	-0.265802	-0.204847
652	403884													9.299327	-0.769116	3.200311	0.327687	-0.870846	-0.366400	-0.081224	-0.412343	0.907400	-0.941289	-0.267582	-0.205853
653	404050													9.288856	-0.782706	3.232920	0.330016	-0.870196	-0.365854	-0.081454	-0.412372	0.907367	-0.940455	-0.269645	-0.206971
654	404217													9.229523	-0.746442	3.217159	0.332377	-0.869703	-0.364887	-0.081796	-0.412006	0.907502	-0.939593	-0.271787	-0.208079
655	404384													9.216544	-0.743515	3.138499	0.334496	-0.869368	-0.363747	-0.082281	-0.411448	0.907711	-0.938798	-0.273696	-0.209160
656	404550													9.332616	-0.830369	3.243241	0.336630	-0.869091	-0.362439	-0.082668	-0.410693	0.908018	-0.938001	-0.275704	-0.210097
657	404717													9.327415	-0.810908	3.347988	0.338817	-0.868670	-0.361406	-0.082802	-0.410167	0.908244	-0.937201	-0.277804	-0.210900
658	404884													9.267425	-0.797489	3.357825	0.341407	-0.867923	-0.360763	-0.082888	-0.410131	0.908252	-0.936254	-0.280181	-0.211962
659	405050													9.094860	-0.834265	3.434193	0.344471	-0.866979	-0.360122	-0.083209	-0.410286	0.908153	-0.935102	-0.282867	-0.213472
660	405217													9.094906	-0.812853	3.470036	0.347405	-0.866072	-0.359484	-0.083745	-0.410485	0.908014	-0.933968	-0.285344	-0.215134
661	405384													9.147438	-0.799039	3.451720	0.350342	-0.865223	-0.358678	-0.084409	-0.410557	0.907920	-0.932811	-0.287807	-0.216868
662	405550													9.155297	-0.808647	3.495155	0.353232	-0.864448	-0.357711	-0.085058	-0.410451	0.907907	-0.931661	-0.290275	-0.218513
663	405717													9.095434	-0.809756	3.505455	0.356103	-0.863637	-0.356821	-0.085651	-0.410412	0.907869	-0.930513	-0.292733	-0.220120
664	405884													9.079211	-0.824825	3.556344	0.358959	-0.862763	-0.356074	-0.086127	-0.410491	0.907788	-0.929371	-0.295191	-0.221656
665	406050													9.082156	-0.852154	3.634341	0.361990	-0.861769	-0.355411	-0.086610	-0.410711	0.907642	-0.928150	-0.297776	-0.223311
666	406217													9.059742	-0.870976	3.636649	0.365004	-0.860772	-0.354745	-0.087129	-0.410944	0.907487	-0.926920	-0.300328	-0.224995
667	406384													9.064961	-0.864421	3.621031	0.367910	-0.859837	-0.354010	-0.087642	-0.411083	0.907375	-0.925722	-0.302806	-0.226599
668	406550													9.101418	-0.858217	3.610103	0.370645	-0.859005	-0.353175	-0.088144	-0.411076	0.907330	-0.924583	-0.305167	-0.228079
669	406717													9.073852	-0.863357	3.689470	0.373344	-0.858144	-0.352426	-0.088541	-0.411122	0.907270	-0.923458	-0.307519	-0.229471
670	406884													9.017992	-0.847441	3.724268	0.375777	-0.857336	-0.351804	-0.088964	-0.411247	0.907172	-0.922430	-0.309596	-0.230810
671	407050													9.100005	-0.885152	3.650214	0.378255	-0.856544	-0.351079	-0.089382	-0.411279	0.907116	-0.921376	-0.311741	-0.232128
672	407217													9.052958	-0.903230	3.756726	0.380991	-0.855584	-0.350459	-0.089683	-0.411458	0.907006	-0.920219	-0.314130	-0.233493
673	407384													9.077227	-0.834765	3.717904	0.383563	-0.854675	-0.349872	-0.089855	-0.411589	0.906929	-0.919133	-0.316426	-0.234667
674	407550													8.996552	-0.856704	3.789539	0.386226	-0.853768	-0.349155	-0.090118	-0.411642	0.906879	-0.917991	-0.318796	-0.235927
675	407717													9.040366	-0.881927	3.749123	0.388722	-0.853002	-0.348257	-0.090503	-0.411507	0.906902	-0.916899	-0.321015	-0.237161
676	407884													9.039010	-0.914956	3.830427	0.391306	-0.852148	-0.347454	-0.090883	-0.411499	0.906867	-0.915762	-0.323285	-0.238468
677	408050													9.004445	-0.915868	3.889743	0.393875	-0.851253	-0.346745	-0.091201	-0.411571	0.906803	-0.914628	-0.325543	-0.239743
678	408217													8.959954	-0.902139	3.890234	0.396591	-0.850202	-0.346225	-0.091478	-0.411877	0.906636	-0.913426	-0.327892	-0.241122
679	408384													8.933026	-0.902883	3.831602	0.399404	-0.849101	-0.345694	-0.091776	-0.412214	0.906453	-0.912170	-0.330314	-0.242567
680	408550													9.012963	-0.924639	3.778449	0.402339	-0.848024	-0.344934	-0.092074	-0.412347	0.906362	-0.910849	-0.332905	-0.243984
681	408717													9.040080	-0.933058	3.927825	0.405354	-0.846901	-0.344161	-0.092316	-0.412477	0.906279	-0.909487	-0.335592	-0.245381
682	408884													8.979071	-0.951656	3.953152	0.408384	-0.845715	-0.343496	-0.092395	-0.412671	0.906182	-0.908122	-0.338333	-0.246668
683	409050													8.916505	-0.941445	4.048268	0.411519	-0.844449	-0.342868	-0.092423	-0.412925	0.906063	-0.906703	-0.341173	-0.247973
684	409217													8.881400	-0.940165	4.080868	0.414559	-0.843166	-0.342362	-0.092423	-0.413277	0.905903	-0.905317	-0.343908	-0.249255
685	409384													8.857381	-0.924537	4.102179	0.417492	-0.841872	-0.341982	-0.092410	-0.413734	0.905696	-0.903970	-0.346518	-0.250528
686	409550													8.870042	-0.882921	4.077063	0.420364	-0.840630	-0.341518	-0.092458	-0.414114	0.905517	-0.902633	-0.349070	-0.251801
687	409717													8.891176	-0.888501	4.152265	0.423329	-0.839382	-0.340926	-0.092609	-0.414429	0.905357	-0.901230	-0.351692	-0.253175
688	409884													8.836311	-0.889393	4.202649	0.426346	-0.838072	-0.340389	-0.092750	-0.414822	0.905163	-0.899793	-0.354342	-0.254589
689	410051													8.822890	-0.894461	4.250923	0.429354	-0.836761	-0.339833	-0.092939	-0.415219	0.904962	-0.898342	-0.356965	-0.256044
690	410217													8.814272	-0.899771	4.256811	0.432506	-0.835387	-0.339214	-0.093069	-0.415578	0.904784	-0.896815	-0.359754	-0.257488
691	410384													8.800922	-0.913125	4.230860	0.435877	-0.833898	-0.338564	-0.093182	-0.415971	0.904591	-0.895169	-0.362743	-0.259016
692	410551													8.812691	-0.904346	4.254591	0.439404	-0.832325	-0.337874	-0.093275	-0.416373	0.904396	-0.893434	-0.365880	-0.260592
693	410717													8.829214	-0.914869	4.337633	0.443136	-0.830625	-0.337183	-0.093325	-0.416831	0.904180	-0.891583	-0.369207	-0.262231
694	410884													8.794702	-0.919358	4.425994	0.447051	-0.828822	-0.336451	-0.093342	-0.417300	0.903962	-0.889625	-0.372713	-0.263919
695	411051													8.737634	-0.909321	4.437480	0.451229	-0.826813	-0.335817	-0.093319	-0.417958	0.903661	-0.887516	-0.376420	-0.265752
696	411217													8.705535	-0.923696	4.467819	0.455493	-0.824692	-0.335275	-0.093280	-0.418752	0.903297	-0.885339	-0.380172	-0.267666
697	411384													8.712991	-0.927734	4.470264	0.459898	-0.822293	-0.335153	-0.093068	-0.419994	0.902742	-0.883081	-0.383977	-0.269684
698	411551													8.777355	-0.891063	4.496828	0.464454	-0.819717	-0.335181	-0.092798	-0.421445	0.902094	-0.880722	-0.387877	-0.271810
699	411717													8.780943	-0.871393	4.541192	0.469216	-0.817120	-0.334890	-0.092654	-0.422688	0.901526	-0.878209	-0.391982	-0.274042
700	411884													8.722669	-0.854502	4.606730	0.474118	-0.814609	-0.334102	-0.092769	-0.423570	0.901101	-0.875560	-0.396234	-0.276393
701	412051													8.715624	-0.867193	4.656642	0.479229	-0.812124	-0.332858	-0.093162	-0.424169	0.900778	-0.872731	-0.400670	-0.278933
702	412217													8.633564	-0.860438	4.705611	0.484491	-0.809647	-0.331269	-0.093689	-0.424527	0.900555	-0.869765	-0.405275	-0.281535
703	412384													8.598256	-0.851632	4.690306	0.489810	-0.807134	-0.329577	-0.094350	-0.424883	0.900318	-0.866709	-0.409889	-0.284265
704	412551													8.629781	-0.872162	4.746877	0.495342	-0.804505	-0.327733	-0.095142	-0.425241	0.900066	-0.863473	-0.414659	-0.287181
705	412717													8.666517	-0.884309	4.769126	0.501456	-0.801471	-0.325861	-0.095883	-0.425799	0.899723	-0.859853	-0.419927	-0.290367
706	412884													8.601261	-0.883170	4.904640	0.507951	-0.798238	-0.323731	-0.096709	-0.426297	0.899399	-0.855940	-0.425542	-0.293735
707	413051													8.536109	-0.923243	4.947935	0.514580	-0.794970	-0.321294	-0.097698	-0.426631	0.899134	-0.851858	-0.431287	-0.297202
708	413217													8.457229	-0.943918	4.984366	0.521470	-0.791567	-0.318575	-0.098851	-0.426888	0.898886	-0.847524	-0.437251	-0.300857
709	413384													8.524678	-0.930832	5.008255	0.528736	-0.788048	-0.315307	-0.100124	-0.426793	0.898789	-0.842860	-0.443653	-0.304564
710	413551													8.413770	-0.949348	5.124014	0.536575	-0.784355	-0.311248	-0.101493	-0.426150	0.898941	-0.837727	-0.450760	-0.308268
711	413717													8.269418	-0.950583	5.233792	0.544494	-0.780541	-0.307054	-0.102740	-0.425387	0.899161	-0.832449	-0.458041	-0.311813
712	413884													8.271131	-0.991755	5.274990	0.552856	-0.776218	-0.303043	-0.103949	-0.425081	0.899167	-0.826768	-0.465608	-0.315696
713	414051													8.126009	-1.058923	5.445798	0.561277	-0.771837	-0.298722	-0.105405	-0.424663	0.899195	-0.820888	-0.473211	-0.319709
714	414217													8.120235	-1.091585	5.515563	0.569623	-0.767250	-0.294715	-0.106753	-0.424603	0.899064	-0.814944	-0.480666	-0.323770
715	414384													8.021601	-1.023636	5.641323	0.577955	-0.762479	-0.290851	-0.108066	-0.424774	0.898826	-0.808882	-0.488050	-0.327898
716	414551													7.916873	-1.060986	5.723548	0.586053	-0.757841	-0.286739	-0.109512	-0.424715	0.898679	-0.802838	-0.495272	-0.331898
717	414717													7.795043	-1.093424	5.773917	0.594113	-0.753039	-0.282777	-0.110803	-0.424809	0.898476	-0.796714	-0.502464	-0.335823
718	414884													7.648121	-1.115133	5.835465	0.601923	-0.748217	-0.279036	-0.111911	-0.425015	0.898242	-0.790674	-0.509445	-0.339560
719	415051													7.647159	-1.159171	5.948225	0.609557	-0.743327	-0.275509	-0.112805	-0.425334	0.897979	-0.784675	-0.516291	-0.343116
720	415217													7.528998	-1.193064	6.109666	0.616965	-0.738473	-0.272052	-0.113675	-0.425683	0.897704	-0.778738	-0.522926	-0.346577
721	415384													7.500810	-1.095554	6.190784	0.623864	-0.733869	-0.268755	-0.114529	-0.426017	0.897436	-0.773095	-0.529098	-0.349827
722	415551													7.558607	-1.044421	6.272746	0.630643	-0.729352	-0.265205	-0.115616	-0.426209	0.897206	-0.767412	-0.535155	-0.353111
723	415717													7.457280	-1.018258	6.310753	0.637278	-0.724965	-0.261347	-0.117000	-0.426221	0.897021	-0.761700	-0.541075	-0.356442
724	415884													7.343372	-1.056002	6.280354	0.643746	-0.720773	-0.257054	-0.118965	-0.426092	0.896824	-0.755935	-0.546747	-0.360042
725	416051													7.274714	-1.184171	6.323470	0.650128	-0.716567	-0.252714	-0.121054	-0.426028	0.896575	-0.750119	-0.552296	-0.363717
726	416217													7.138719	-1.288983	6.396961	0.656164	-0.712459	-0.248699	-0.122798	-0.425987	0.896357	-0.744560	-0.557618	-0.367006
727	416384													7.043874	-1.308025	6.481236	0.661769	-0.708502	-0.245127	-0.124042	-0.425930	0.896213	-0.739375	-0.562680	-0.369751
728	416551													7.029794	-1.334945	6.477204	0.666794	-0.704682	-0.242507	-0.124677	-0.426302	0.895948	-0.734739	-0.567177	-0.372113
729	416717													7.112863	-1.301704	6.551887	0.671373	-0.700950	-0.240680	-0.124760	-0.427011	0.895599	-0.730543	-0.571254	-0.374134
730	416884													7.002247	-1.295815	6.659276	0.675362	-0.697567	-0.239345	-0.124530	-0.427748	0.895278	-0.726896	-0.574831	-0.375753
731	417051													6.963833	-1.243037	6.693606	0.678759	-0.694592	-0.238387	-0.124152	-0.428482	0.894980	-0.723790	-0.577880	-0.377071
732	417217													6.976031	-1.179042	6.718939	0.681644	-0.692005	-0.237677	-0.123869	-0.429286	0.894634	-0.721123	-0.580381	-0.378338
733	417384													6.961267	-1.112676	6.767593	0.684119	-0.689763	-0.237084	-0.123825	-0.430170	0.894215	-0.718783	-0.582392	-0.379697
734	417551													6.971840	-1.115383	6.796761	0.686140	-0.687975	-0.236436	-0.124001	-0.430862	0.893858	-0.716823	-0.583994	-0.380941
735	417717													6.929227	-1.144831	6.828596	0.687755	-0.686648	-0.235599	-0.124313	-0.431147	0.893677	-0.715220	-0.585343	-0.381883
736	417884													6.871840	-1.208070	6.820538	0.688900	-0.685745	-0.234885	-0.124586	-0.431238	0.893595	-0.714070	-0.586334	-0.382514
737	418051													6.869566	-1.171221	6.789308	0.689661	-0.685106	-0.234516	-0.124756	-0.431428	0.893479	-0.713305	-0.586941	-0.383010
738	418217													6.937963	-1.160464	6.816915	0.690015	-0.684870	-0.234163	-0.124980	-0.431401	0.893461	-0.712923	-0.587236	-0.383268
739	418384													6.890010	-1.214952	6.867852	0.689993	-0.684958	-0.233970	-0.125149	-0.431274	0.893499	-0.712915	-0.587227	-0.383298
740	418551													6.794969	-1.227668	6.870618	0.689628	-0.685331	-0.233954	-0.125234	-0.431066	0.893587	-0.713253	-0.586944	-0.383102
741	418717													6.849353	-1.264679	6.808107	0.688889	-0.686080	-0.233937	-0.125415	-0.430676	0.893750	-0.713935	-0.586355	-0.382733
742	418884													6.850189	-1.272878	6.799103	0.687818	-0.687025	-0.234313	-0.125470	-0.430464	0.893844	-0.714957	-0.585403	-0.382282
743	419051													6.802879	-1.272086	6.791287	0.686415	-0.688141	-0.235152	-0.125330	-0.430467	0.893863	-0.716329	-0.584090	-0.381724
744	419217													6.786993	-1.275569	6.755616	0.684582	-0.689547	-0.236376	-0.125111	-0.430612	0.893824	-0.718119	-0.582322	-0.381059
745	419384													6.798982	-1.306617	6.755810	0.682216	-0.691312	-0.238053	-0.124582	-0.430736	0.893838	-0.720459	-0.580133	-0.379980
746	419551													6.774737	-1.284496	6.728481	0.679297	-0.693437	-0.240212	-0.123680	-0.430820	0.893923	-0.723367	-0.577529	-0.378419
747	419717													6.882281	-1.315116	6.661907	0.675821	-0.695928	-0.242798	-0.122474	-0.430861	0.894069	-0.726819	-0.574494	-0.376418
748	419884													7.086713	-1.315470	6.680666	0.671951	-0.698569	-0.245933	-0.120882	-0.431075	0.894182	-0.730664	-0.571117	-0.374106
749	420051													7.125401	-1.182747	6.671009	0.667655	-0.701396	-0.249560	-0.119035	-0.431482	0.894234	-0.734893	-0.567333	-0.371572
750	420217													7.211887	-1.110268	6.606789	0.663015	-0.704518	-0.253113	-0.117412	-0.431791	0.894299	-0.739342	-0.563215	-0.369002
751	420384													7.162692	-1.118973	6.580914	0.658075	-0.707934	-0.256451	-0.116054	-0.431890	0.894429	-0.743955	-0.558839	-0.366374
752	420551													7.243759	-1.127824	6.525053	0.652906	-0.711505	-0.259758	-0.114779	-0.431921	0.894578	-0.748692	-0.554261	-0.363670
753	420717													7.326550	-1.135561	6.426538	0.647443	-0.715299	-0.262991	-0.113655	-0.431845	0.894758	-0.753591	-0.549415	-0.360892
754	420884													7.453444	-1.098140	6.374112	0.641764	-0.719196	-0.266265	-0.112583	-0.431786	0.894922	-0.758594	-0.544352	-0.358074
755	421051													7.467653	-1.068787	6.323344	0.635956	-0.723173	-0.269409	-0.111641	-0.431639	0.895111	-0.763608	-0.539174	-0.355239
756	421217													7.456976	-1.057884	6.258688	0.629962	-0.727222	-0.272573	-0.110839	-0.431566	0.895246	-0.768676	-0.533760	-0.352475
757	421384													7.519583	-1.029126	6.220431	0.623817	-0.731367	-0.275597	-0.110131	-0.431357	0.895434	-0.773772	-0.528236	-0.349634
758	421551													7.612657	-1.027498	6.109724	0.617658	-0.735520	-0.278406	-0.109534	-0.431009	0.895675	-0.778782	-0.522726	-0.346780
759	421717													7.615366	-1.049598	6.054236	0.611416	-0.739690	-0.281122	-0.108970	-0.430581	0.895949	-0.783770	-0.517164	-0.343868
760	421884													7.680115	-1.046980	5.912095	0.605067	-0.743808	-0.283980	-0.108331	-0.430276	0.896173	-0.788771	-0.511481	-0.340923
761	422051													7.862459	-1.045710	5.820974	0.598791	-0.747848	-0.286657	-0.107724	-0.429868	0.896442	-0.793627	-0.505902	-0.337962
762	422217													7.920833	-1.055729	5.867494	0.592685	-0.751744	-0.289147	-0.107140	-0.429389	0.896742	-0.798277	-0.500506	-0.335034
763	422384													7.876699	-0.970024	5.862918	0.586520	-0.755589	-0.291684	-0.106541	-0.428979	0.897010	-0.802897	-0.495038	-0.332106
764	422551													7.836092	-0.974370	5.818359	0.580244	-0.759515	-0.294031	-0.106119	-0.428448	0.897313	-0.807500	-0.489458	-0.329203
765	422717													7.892965	-1.036011	5.699645	0.573874	-0.763469	-0.296282	-0.105883	-0.427920	0.897593	-0.812070	-0.483734	-0.326411
766	422884													7.976963	-1.063843	5.649226	0.567454	-0.767377	-0.298543	-0.105614	-0.427408	0.897868	-0.816604	-0.477969	-0.323581
767	423051													8.055089	-1.022822	5.535173	0.560925	-0.771316	-0.300723	-0.105337	-0.426794	0.898193	-0.821138	-0.472142	-0.320647
768	423217													8.099570	-1.015440	5.462188	0.554282	-0.775310	-0.302763	-0.105087	-0.426031	0.898585	-0.825668	-0.466253	-0.317616
769	423384													8.111490	-1.024947	5.418906	0.547677	-0.779178	-0.304848	-0.104743	-0.425333	0.898955	-0.830108	-0.460406	-0.314559
770	423551													8.154879	-1.018447	5.362734	0.541197	-0.782889	-0.306905	-0.104318	-0.424662	0.899322	-0.834400	-0.454695	-0.311495
771	423717													8.221048	-1.030342	5.309362	0.534981	-0.786283	-0.309119	-0.103737	-0.424245	0.899586	-0.838472	-0.449194	-0.308529
772	423884													8.287529	-0.995716	5.228102	0.528791	-0.789636	-0.311215	-0.103171	-0.423756	0.899882	-0.842458	-0.443741	-0.305546
773	424051													8.338614	-0.985270	5.128380	0.522674	-0.792868	-0.313325	-0.102656	-0.423380	0.900117	-0.846330	-0.438303	-0.302682
774	424217													8.376664	-0.987909	5.084477	0.516567	-0.796107	-0.315234	-0.102241	-0.422872	0.900403	-0.850121	-0.432888	-0.299837
775	424384													8.420040	-0.968781	5.005001	0.510350	-0.799304	-0.317263	-0.101907	-0.422535	0.900599	-0.853908	-0.427289	-0.297095
776	424551													8.537456	-1.010103	4.910926	0.504139	-0.802536	-0.319031	-0.101669	-0.421992	0.900881	-0.857617	-0.421734	-0.294335
777	424717													8.483819	-0.999935	4.908183	0.498176	-0.805569	-0.320749	-0.101331	-0.421474	0.901161	-0.861135	-0.416435	-0.291597
778	424884													8.551647	-0.949254	4.802432	0.492226	-0.808509	-0.322532	-0.100859	-0.421005	0.901434	-0.864604	-0.411179	-0.288775
779	425051													8.502414	-0.955849	4.775937	0.486511	-0.811321	-0.324138	-0.100447	-0.420488	0.901721	-0.867881	-0.406139	-0.286066
780	425217													8.530705	-0.960463	4.733781	0.480815	-0.814149	-0.325543	-0.100201	-0.419862	0.902039	-0.871078	-0.401095	-0.283455
781	425384													8.596795	-1.019109	4.667539	0.475280	-0.816841	-0.326926	-0.099928	-0.419287	0.902337	-0.874142	-0.396194	-0.280904
782	425551													8.639456	-1.013976	4.651680	0.469914	-0.819391	-0.328298	-0.099608	-0.418767	0.902614	-0.877074	-0.391450	-0.278402
783	425717													8.623193	-0.965207	4.559861	0.464713	-0.821822	-0.329623	-0.099226	-0.418250	0.902896	-0.879884	-0.386880	-0.275912
784	425884													8.694236	-0.943050	4.511342	0.459688	-0.824183	-0.330771	-0.098907	-0.417652	0.903208	-0.882556	-0.382478	-0.273507
785	426051													8.702012	-0.970697	4.432764	0.454784	-0.826520	-0.331718	-0.098632	-0.416916	0.903578	-0.885123	-0.378214	-0.271128
786	426217													8.742246	-0.990501	4.417001	0.449950	-0.828763	-0.332711	-0.098302	-0.416253	0.903919	-0.887627	-0.374012	-0.268763
787	426384													8.788680	-1.009630	4.377307	0.445167	-0.830936	-0.333723	-0.097895	-0.415616	0.904256	-0.890080	-0.369876	-0.266363
788	426551													8.808023	-0.980210	4.367843	0.440488	-0.832984	-0.334824	-0.097425	-0.415106	0.904542	-0.892456	-0.365820	-0.264003
789	426718													8.805666	-0.955216	4.262300	0.435908	-0.834940	-0.335945	-0.096976	-0.414678	0.904786	-0.894751	-0.361825	-0.261731
790	426884													8.827576	-0.966465	4.227289	0.431496	-0.836818	-0.336968	-0.096549	-0.414224	0.905040	-0.896933	-0.357987	-0.259530
791	427051													8.842759	-0.994617	4.185205	0.427205	-0.838585	-0.338040	-0.096080	-0.413862	0.905255	-0.899035	-0.354250	-0.257375
792	427218													8.831138	-0.968385	4.184658	0.422942	-0.840353	-0.339009	-0.095616	-0.413416	0.905508	-0.901098	-0.350562	-0.255202
793	427384													8.840934	-0.959441	4.140779	0.418612	-0.842054	-0.340160	-0.095119	-0.413150	0.905682	-0.903170	-0.346773	-0.253045
794	427551													8.893152	-0.947379	4.045784	0.414349	-0.843716	-0.341259	-0.094628	-0.412868	0.905862	-0.905185	-0.343051	-0.250910
795	427718													8.947505	-0.956998	4.005311	0.410273	-0.845276	-0.342322	-0.094128	-0.412613	0.906030	-0.907092	-0.339498	-0.248849
796	427884													8.927288	-0.927347	3.984822	0.406286	-0.846808	-0.343291	-0.093617	-0.412296	0.906227	-0.908938	-0.336049	-0.246785
797	428051													8.959949	-0.907651	3.969806	0.402172	-0.848374	-0.344267	-0.093100	-0.411961	0.906433	-0.910818	-0.332491	-0.244662
798	428218													8.966316	-0.903519	3.892134	0.398140	-0.849857	-0.345294	-0.092512	-0.411694	0.906614	-0.912648	-0.329015	-0.242534
799	428384													9.003554	-0.903223	3.878643	0.394061	-0.851398	-0.346176	-0.092004	-0.411303	0.906843	-0.914468	-0.325502	-0.240411
800	428551													8.972888	-0.875413	3.857413	0.390183	-0.852739	-0.347266	-0.091449	-0.411188	0.906952	-0.916185	-0.322120	-0.238421
801	428718													9.016434	-0.872132	3.852898	0.386219	-0.854019	-0.348549	-0.090882	-0.411262	0.906975	-0.917919	-0.318614	-0.236452
802	428884													9.055658	-0.890033	3.722735	0.382178	-0.855327	-0.349795	-0.090350	-0.411302	0.907010	-0.919661	-0.315036	-0.234470
803	429051													9.027118	-0.874032	3.667571	0.378307	-0.856615	-0.350848	-0.089842	-0.411204	0.907105	-0.921310	-0.311644	-0.232521
804	429218													9.052330	-0.857610	3.653403	0.374451	-0.857860	-0.351941	-0.089351	-0.411172	0.907168	-0.922932	-0.308244	-0.230614
805	429384													9.136275	-0.870278	3.618705	0.370645	-0.859116	-0.352905	-0.088760	-0.410994	0.907307	-0.924524	-0.304965	-0.228588
806	429551													9.127794	-0.867106	3.718728	0.366823	-0.860463	-0.353617	-0.088138	-0.410549	0.907569	-0.926106	-0.301750	-0.226438
807	429718													9.099887	-0.833228	3.611186	0.362727	-0.861829	-0.354513	-0.087423	-0.410213	0.907790	-0.927786	-0.298288	-0.224139
808	429884													9.109468	-0.863764	3.532612	0.358959	-0.863012	-0.355469	-0.086789	-0.410064	0.907918	-0.929310	-0.295054	-0.222096
809	430051													9.127348	-0.840080	3.491099	0.355282	-0.864174	-0.356339	-0.086367	-0.409927	0.908020	-0.930761	-0.291827	-0.220276
810	430218													9.201630	-0.833346	3.469453	0.351815	-0.865250	-0.357167	-0.085971	-0.409815	0.908108	-0.932113	-0.288780	-0.218565
811	430384													9.174795	-0.825557	3.452439	0.348310	-0.866352	-0.357931	-0.085557	-0.409630	0.908231	-0.933467	-0.285722	-0.216801
812	430551													9.142133	-0.810677	3.421375	0.344677	-0.867514	-0.358633	-0.085147	-0.409362	0.908390	-0.934852	-0.282565	-0.214964
813	430718													9.173169	-0.815284	3.350536	0.340921	-0.868713	-0.359318	-0.084778	-0.409069	0.908557	-0.936261	-0.279284	-0.213108
814	430884													9.214046	-0.847098	3.306500	0.337424	-0.869782	-0.360035	-0.084447	-0.408892	0.908667	-0.937557	-0.276202	-0.211421
815	431051													9.248730	-0.845621	3.319697	0.334251	-0.870782	-0.360577	-0.084099	-0.408612	0.908826	-0.938724	-0.273451	-0.209811
816	431218													9.184185	-0.817134	3.361131	0.330850	-0.871799	-0.361255	-0.083715	-0.408418	0.908948	-0.939963	-0.270483	-0.208107
817	431384													9.220452	-0.843072	3.282138	0.327210	-0.872860	-0.362006	-0.083208	-0.408221	0.909083	-0.941281	-0.267339	-0.206203
818	431551													9.232254	-0.840551	3.266541	0.323524	-0.873748	-0.363177	-0.082639	-0.408443	0.909035	-0.942604	-0.264082	-0.204347
819	431718													9.270550	-0.812124	3.155347	0.319979	-0.874568	-0.364341	-0.082223	-0.408743	0.908938	-0.943850	-0.260884	-0.202699
820	431884													9.397335	-0.820197	3.122782	0.316939	-0.875323	-0.365184	-0.081860	-0.408843	0.908926	-0.944907	-0.258180	-0.201232
821	432051													9.290379	-0.711798	3.102247	0.313841	-0.876080	-0.366044	-0.081383	-0.408925	0.908932	-0.945981	-0.255471	-0.199636
822	432218													9.303413	-0.730812	3.027306	0.310950	-0.876817	-0.366745	-0.080897	-0.408891	0.908991	-0.946977	-0.252982	-0.198077
823	432384													9.359998	-0.761416	2.961228	0.308126	-0.877688	-0.367045	-0.080563	-0.408503	0.909195	-0.947928	-0.250577	-0.196580
824	432551													9.375669	-0.751424	2.942815	0.305577	-0.878456	-0.367339	-0.080321	-0.408199	0.909353	-0.948774	-0.248372	-0.195295
825	432718													9.396516	-0.786078	2.936718	0.303049	-0.879194	-0.367666	-0.080128	-0.407951	0.909481	-0.949600	-0.246157	-0.194078
826	432884													9.399078	-0.772057	2.905996	0.300815	-0.879832	-0.367975	-0.079895	-0.407739	0.909596	-0.950330	-0.244221	-0.192949
827	433051													9.402966	-0.750840	2.894783	0.298908	-0.880268	-0.368487	-0.079627	-0.407801	0.909592	-0.950954	-0.242543	-0.191988
828	433218													9.414739	-0.769987	2.854645	0.297240	-0.880594	-0.369056	-0.079396	-0.407983	0.909531	-0.951496	-0.241047	-0.191184
829	433384													9.425808	-0.779871	2.827454	0.295916	-0.880756	-0.369733	-0.079118	-0.408338	0.909396	-0.951932	-0.239852	-0.190517
830	433551													9.420032	-0.756283	2.864910	0.294622	-0.880967	-0.370264	-0.078842	-0.408550	0.909325	-0.952356	-0.238715	-0.189825
831	433718													9.408401	-0.766178	2.825688	0.293234	-0.881259	-0.370670	-0.078572	-0.408616	0.909318	-0.952807	-0.237519	-0.189062
832	433884													9.429860	-0.764799	2.794839	0.291904	-0.881645	-0.370803	-0.078362	-0.408430	0.909420	-0.953232	-0.236406	-0.188310
833	434051													9.449580	-0.764551	2.810165	0.290678	-0.882009	-0.370900	-0.078202	-0.408241	0.909518	-0.953620	-0.235371	-0.187642
834	434218													9.455675	-0.768886	2.756500	0.289443	-0.882414	-0.370902	-0.078115	-0.407971	0.909647	-0.954003	-0.234318	-0.187014
835	434384													9.466629	-0.760931	2.710381	0.288509	-0.882636	-0.371103	-0.078011	-0.407965	0.909659	-0.954294	-0.233494	-0.186557
836	434551													9.465037	-0.774399	2.728985	0.287975	-0.882757	-0.371227	-0.077969	-0.407975	0.909658	-0.954459	-0.233015	-0.186314
837	434718													9.441730	-0.764926	2.770799	0.287687	-0.882802	-0.371344	-0.077917	-0.408025	0.909640	-0.954550	-0.232758	-0.186169
838	434884													9.419387	-0.775042	2.774532	0.287413	-0.882869	-0.371396	-0.077909	-0.408022	0.909642	-0.954633	-0.232508	-0.186054
839	435051													9.406927	-0.776294	2.767128	0.287155	-0.882906	-0.371510	-0.077928	-0.408091	0.909609	-0.954709	-0.232248	-0.185989
840	435218													9.422485	-0.785643	2.767653	0.286894	-0.883068	-0.371327	-0.077982	-0.407864	0.909707	-0.954783	-0.232032	-0.185877
841	435384													9.424056	-0.760270	2.760779	0.286588	-0.883273	-0.371074	-0.077997	-0.407546	0.909848	-0.954874	-0.231809	-0.185690
842	435551													9.462213	-0.744912	2.734245	0.286405	-0.883405	-0.370901	-0.078067	-0.407347	0.909931	-0.954923	-0.231654	-0.185631
843	435718													9.448290	-0.761403	2.788565	0.286411	-0.883461	-0.370763	-0.078126	-0.407221	0.909982	-0.954916	-0.231663	-0.185654
844	435884													9.421690	-0.753124	2.835586	0.286541	-0.883477	-0.370626	-0.078158	-0.407114	0.910027	-0.954875	-0.231793	-0.185705
845	436051													9.365049	-0.733666	2.844254	0.286684	-0.883551	-0.370337	-0.078181	-0.406850	0.910143	-0.954830	-0.231970	-0.185714
846	436218													9.343169	-0.736012	2.837043	0.286501	-0.883811	-0.369858	-0.078199	-0.406325	0.910376	-0.954883	-0.231901	-0.185526
847	436384													9.353377	-0.734591	2.767021	0.286153	-0.884073	-0.369502	-0.078258	-0.405902	0.910560	-0.954983	-0.231643	-0.185336
848	436551													9.462734	-0.759722	2.765684	0.285899	-0.884233	-0.369315	-0.078246	-0.405656	0.910670	-0.955060	-0.231462	-0.185164
849	436718													9.459297	-0.759107	2.740970	0.285792	-0.884334	-0.369156	-0.078268	-0.405476	0.910749	-0.955090	-0.231391	-0.185097
850	436884													9.389078	-0.750131	2.756583	0.285925	-0.884382	-0.368939	-0.078303	-0.405288	0.910829	-0.955047	-0.231540	-0.185132
851	437051													9.394168	-0.760879	2.699483	0.286204	-0.884385	-0.368713	-0.078345	-0.405122	0.910900	-0.954960	-0.231816	-0.185234
852	437218													9.450109	-0.785824	2.789950	0.286556	-0.884360	-0.368502	-0.078290	-0.404961	0.910976	-0.954859	-0.232196	-0.185280
853	437384													9.397679	-0.746729	2.886249	0.286890	-0.884277	-0.368440	-0.078143	-0.404928	0.911003	-0.954771	-0.232566	-0.185270
854	437551													9.366314	-0.753170	2.859324	0.287349	-0.884123	-0.368452	-0.077985	-0.404994	0.910988	-0.954646	-0.233037	-0.185322
855	437718													9.312040	-0.771443	2.898180	0.287742	-0.883994	-0.368455	-0.077979	-0.405074	0.910952	-0.954528	-0.233387	-0.185490
856	437884													9.312860	-0.775711	2.919978	0.288007	-0.883896	-0.368484	-0.078060	-0.405177	0.910900	-0.954442	-0.233581	-0.185691
857	438051													9.337878	-0.751669	2.909094	0.288059	-0.883876	-0.368491	-0.078137	-0.405214	0.910877	-0.954420	-0.233593	-0.185789
858	438218													9.378596	-0.727300	2.861645	0.288050	-0.883905	-0.368427	-0.078115	-0.405140	0.910911	-0.954424	-0.233608	-0.185747
859	438384													9.352536	-0.745718	2.832410	0.288191	-0.883920	-0.368282	-0.078124	-0.405021	0.910963	-0.954381	-0.233759	-0.185779
860	438551													9.341043	-0.782299	2.797495	0.288327	-0.883915	-0.368188	-0.078174	-0.404963	0.910985	-0.954336	-0.233879	-0.185861
