// Start Time: Unknown
// Update Rate: 60.0Hz
//Filter Profile: human (46.1)
// Option Flags: AHS Disabled ICC Disabled
// Firmware Version: 4.0.2
0	sampleTimeFine	Year	Month	Day	Second	UTC_Nano	UTC_Year	UTC_Month	UTC_Day	UTC_Hour	UTC_Minute	UTC_Second	UTC_Valid	Acc_X	Acc_Y	Acc_Z	Mat[1][1]	Mat[2][1]	Mat[3][1]	Mat[1][2]	Mat[2][2]	Mat[3][2]	Mat[1][3]	Mat[2][3]	Mat[3][3]
0	6811244													0.200111	-0.085282	0.309485	0.168289	-0.837662	-0.519616	0.012540	-0.525273	0.850842	-0.985658	-0.149704	-0.077893
1	6811411													9.690099	0.143745	1.600614	0.167747	-0.836667	-0.521391	0.012821	-0.526989	0.849775	-0.985747	-0.149232	-0.077674
2	6811577													9.693428	0.152343	1.615004	0.166654	-0.837392	-0.520577	0.013192	-0.526019	0.850370	-0.985927	-0.148585	-0.076616
3	6811744													9.697630	0.162804	1.639737	0.165825	-0.837318	-0.520962	0.013660	-0.526275	0.850205	-0.986061	-0.148101	-0.075832
4	6812077													9.695660	0.187765	1.609497	0.165257	-0.837111	-0.521474	0.014510	-0.526623	0.849975	-0.986144	-0.148031	-0.074881
5	6812244													9.684845	0.175041	1.621188	0.164993	-0.837145	-0.521504	0.014913	-0.526572	0.849999	-0.986182	-0.148021	-0.074396
6	6812411													9.694029	0.159245	1.580394	0.164766	-0.837149	-0.521569	0.015286	-0.526566	0.849997	-0.986214	-0.148024	-0.073963
7	6812577													9.725065	0.154254	1.585961	0.164524	-0.837004	-0.521877	0.015571	-0.526817	0.849836	-0.986250	-0.147945	-0.073641
8	6812744													9.730931	0.127063	1.606675	0.164293	-0.837024	-0.521919	0.015692	-0.526824	0.849830	-0.986287	-0.147811	-0.073419
9	6812911													9.659586	0.079027	1.510690	0.164113	-0.836831	-0.522284	0.015583	-0.527198	0.849600	-0.986318	-0.147569	-0.073479
10	6813077													9.770869	0.103518	1.567926	0.163980	-0.836846	-0.522302	0.015363	-0.527239	0.849578	-0.986344	-0.147338	-0.073600
11	6813244													9.741263	0.193378	1.589958	0.164127	-0.836568	-0.522700	0.015223	-0.527675	0.849310	-0.986322	-0.147351	-0.073870
12	6813411													9.705056	0.164869	1.652070	0.164447	-0.836380	-0.522901	0.015010	-0.527935	0.849152	-0.986272	-0.147489	-0.074263
13	6813577													9.658351	0.101606	1.702474	0.164613	-0.836157	-0.523205	0.014656	-0.528309	0.848926	-0.986249	-0.147412	-0.074712
14	6813744													9.663343	0.098017	1.662666	0.164691	-0.836021	-0.523399	0.014445	-0.528543	0.848784	-0.986240	-0.147347	-0.074970
15	6813911													9.693535	0.128110	1.669057	0.164837	-0.835837	-0.523646	0.014235	-0.528837	0.848604	-0.986218	-0.147336	-0.075274
16	6814077													9.668029	0.118381	1.690185	0.164896	-0.835690	-0.523862	0.013986	-0.529099	0.848445	-0.986212	-0.147232	-0.075558
17	6814244													9.652501	0.129130	1.669557	0.164970	-0.835409	-0.524287	0.013817	-0.529561	0.848159	-0.986202	-0.147165	-0.075818
18	6814411													9.693378	0.147213	1.661672	0.165022	-0.835551	-0.524044	0.013611	-0.529349	0.848295	-0.986196	-0.147120	-0.075981
19	6814578													9.660143	0.135680	1.650527	0.165173	-0.835449	-0.524159	0.013395	-0.529510	0.848198	-0.986174	-0.147120	-0.076269
20	6814744													9.663509	0.139794	1.658591	0.165293	-0.835321	-0.524325	0.013258	-0.529708	0.848076	-0.986155	-0.147133	-0.076483
21	6814911													9.708134	0.164599	1.676161	0.165392	-0.835297	-0.524332	0.013098	-0.529747	0.848055	-0.986141	-0.147129	-0.076675
22	6815078													9.698921	0.153773	1.664177	0.165515	-0.835269	-0.524338	0.012961	-0.529783	0.848034	-0.986122	-0.147158	-0.076861
23	6815244													9.669106	0.153788	1.674138	0.165647	-0.835262	-0.524307	0.012861	-0.529777	0.848039	-0.986101	-0.147218	-0.077014
24	6815411													9.690985	0.164463	1.709846	0.165721	-0.835156	-0.524453	0.012829	-0.529936	0.847941	-0.986089	-0.147250	-0.077108
25	6815578													9.639791	0.166651	1.685316	0.165641	-0.835387	-0.524111	0.012822	-0.529583	0.848161	-0.986103	-0.147210	-0.077010
26	6815744													9.684890	0.089371	1.622483	0.165470	-0.835433	-0.524090	0.012758	-0.529558	0.848178	-0.986132	-0.147035	-0.076968
27	6815911													9.697801	0.137337	1.626119	0.165340	-0.835306	-0.524334	0.012839	-0.529784	0.848036	-0.986153	-0.146946	-0.076870
28	6816078													9.720142	0.182290	1.630804	0.165327	-0.835246	-0.524435	0.012944	-0.529869	0.847981	-0.986154	-0.146982	-0.076790
29	6816244													9.662089	0.152479	1.645610	0.165358	-0.835177	-0.524534	0.012838	-0.529988	0.847908	-0.986150	-0.146942	-0.076915
30	6816411													9.663630	0.086061	1.637388	0.165215	-0.835328	-0.524338	0.012759	-0.529789	0.848033	-0.986175	-0.146798	-0.076871
31	6816578													9.691031	0.147662	1.666906	0.165099	-0.835354	-0.524334	0.012733	-0.529780	0.848039	-0.986195	-0.146687	-0.076830
32	6816744													9.657154	0.144776	1.634069	0.165020	-0.835438	-0.524224	0.012734	-0.529662	0.848113	-0.986208	-0.146631	-0.076766
33	6816911													9.674132	0.099390	1.642645	0.164829	-0.835441	-0.524280	0.012718	-0.529706	0.848086	-0.986240	-0.146457	-0.076686
34	6817078													9.693331	0.131158	1.652545	0.164615	-0.835369	-0.524462	0.012703	-0.529876	0.847980	-0.986276	-0.146253	-0.076614
35	6817244													9.702657	0.164466	1.634060	0.164443	-0.835364	-0.524524	0.012623	-0.529937	0.847943	-0.986306	-0.146059	-0.076600
36	6817411													9.667529	0.144425	1.670568	0.164292	-0.835434	-0.524459	0.012572	-0.529867	0.847987	-0.986332	-0.145911	-0.076550
37	6817578													9.692430	0.137920	1.660969	0.164037	-0.835472	-0.524479	0.012527	-0.529873	0.847984	-0.986375	-0.145671	-0.076453
38	6817744													9.720649	0.140335	1.624352	0.163810	-0.835569	-0.524396	0.012467	-0.529780	0.848043	-0.986413	-0.145455	-0.076366
39	6817911													9.703616	0.161462	1.631863	0.163687	-0.835586	-0.524408	0.012373	-0.529797	0.848034	-0.986435	-0.145301	-0.076382
40	6818078													9.695942	0.144693	1.643625	0.163585	-0.835603	-0.524411	0.012280	-0.529806	0.848030	-0.986453	-0.145165	-0.076407
41	6818244													9.664813	0.150522	1.638700	0.163466	-0.835595	-0.524461	0.012219	-0.529856	0.848000	-0.986473	-0.145028	-0.076404
42	6818411													9.693271	0.136440	1.613864	0.163353	-0.835741	-0.524265	0.012166	-0.529656	0.848125	-0.986493	-0.144922	-0.076353
43	6818578													9.718393	0.156806	1.627117	0.163283	-0.835811	-0.524174	0.012076	-0.529572	0.848179	-0.986505	-0.144823	-0.076377
44	6818744													9.682746	0.139157	1.626652	0.163260	-0.835922	-0.524004	0.011979	-0.529412	0.848281	-0.986510	-0.144767	-0.076418
45	6818911													9.675864	0.132674	1.623054	0.163242	-0.835982	-0.523915	0.011906	-0.529330	0.848332	-0.986514	-0.144721	-0.076456
46	6819078													9.669335	0.135374	1.605202	0.163219	-0.836017	-0.523866	0.011799	-0.529294	0.848356	-0.986519	-0.144649	-0.076527
47	6819244													9.679795	0.136568	1.613996	0.163155	-0.836111	-0.523735	0.011649	-0.529179	0.848430	-0.986532	-0.144527	-0.076598
48	6819411													9.676233	0.129648	1.614586	0.163101	-0.836192	-0.523622	0.011550	-0.529074	0.848497	-0.986542	-0.144439	-0.076635
49	6819578													9.723282	0.140970	1.619110	0.163015	-0.836224	-0.523599	0.011494	-0.529052	0.848512	-0.986557	-0.144339	-0.076632
50	6819744													9.731196	0.098646	1.595418	0.162946	-0.836251	-0.523576	0.011351	-0.529045	0.848518	-0.986570	-0.144206	-0.076714
51	6819911													9.671046	0.075017	1.525071	0.162974	-0.836161	-0.523711	0.011121	-0.529217	0.848413	-0.986568	-0.144093	-0.076950
52	6820078													9.758327	0.137660	1.598531	0.163085	-0.836082	-0.523804	0.010988	-0.529340	0.848339	-0.986551	-0.144107	-0.077141
53	6820244													9.738749	0.190733	1.610171	0.163471	-0.835906	-0.523964	0.010983	-0.529534	0.848218	-0.986487	-0.144413	-0.077382
54	6820411													9.722394	0.154656	1.641625	0.163950	-0.835677	-0.524180	0.010795	-0.529819	0.848042	-0.986410	-0.144695	-0.077843
55	6820578													9.639780	0.119574	1.689150	0.164233	-0.835393	-0.524543	0.010519	-0.530250	0.847776	-0.986365	-0.144751	-0.078298
56	6820744													9.651114	0.129947	1.693359	0.164390	-0.835284	-0.524668	0.010437	-0.530401	0.847683	-0.986340	-0.144827	-0.078474
57	6820911													9.691293	0.166086	1.690967	0.164531	-0.835268	-0.524650	0.010400	-0.530400	0.847684	-0.986317	-0.144926	-0.078581
58	6821078													9.667765	0.133063	1.667782	0.164624	-0.835199	-0.524730	0.010379	-0.530492	0.847626	-0.986302	-0.144985	-0.078664
59	6821244													9.667983	0.125121	1.669702	0.164704	-0.835187	-0.524724	0.010381	-0.530492	0.847626	-0.986288	-0.145055	-0.078704
60	6821411													9.670122	0.132316	1.695276	0.164790	-0.835225	-0.524636	0.010374	-0.530410	0.847678	-0.986274	-0.145132	-0.078742
61	6821578													9.662887	0.140109	1.667639	0.164879	-0.835405	-0.524323	0.010348	-0.530104	0.847870	-0.986260	-0.145221	-0.078758
62	6821744													9.686719	0.108960	1.656503	0.165000	-0.835470	-0.524181	0.010360	-0.529968	0.847954	-0.986239	-0.145343	-0.078789
63	6821911													9.703148	0.105019	1.661674	0.165135	-0.835580	-0.523962	0.010325	-0.529762	0.848084	-0.986217	-0.145458	-0.078855
64	6822078													9.702211	0.064955	1.631648	0.165250	-0.835566	-0.523949	0.010245	-0.529770	0.848080	-0.986198	-0.145513	-0.078984
65	6822244													9.696925	0.088703	1.665376	0.165340	-0.835480	-0.524057	0.010170	-0.529897	0.848001	-0.986184	-0.145538	-0.079116
66	6822411													9.699894	0.147501	1.688034	0.165385	-0.835509	-0.523997	0.010109	-0.529849	0.848032	-0.986177	-0.145548	-0.079183
67	6822578													9.636093	0.105659	1.643346	0.165259	-0.835632	-0.523840	0.010079	-0.529684	0.848135	-0.986199	-0.145442	-0.079113
68	6822744													9.685728	0.105545	1.622522	0.165113	-0.835703	-0.523773	0.010011	-0.529615	0.848179	-0.986224	-0.145289	-0.079080
69	6822911													9.708982	0.167702	1.600977	0.165023	-0.835713	-0.523786	0.010106	-0.529606	0.848184	-0.986238	-0.145263	-0.078951
70	6823078													9.707636	0.159649	1.634665	0.165089	-0.835700	-0.523786	0.010156	-0.529604	0.848184	-0.986226	-0.145345	-0.078944
71	6823244													9.645863	0.147720	1.698518	0.165061	-0.835701	-0.523793	0.010028	-0.529628	0.848171	-0.986232	-0.145253	-0.079041
72	6823411													9.699517	0.106559	1.650945	0.164932	-0.835760	-0.523739	0.010003	-0.529567	0.848209	-0.986254	-0.145135	-0.078983
73	6823578													9.700681	0.162571	1.638139	0.164895	-0.835831	-0.523638	0.010039	-0.529456	0.848278	-0.986260	-0.145133	-0.078914
74	6823744													9.643719	0.148942	1.673340	0.164855	-0.835977	-0.523417	0.010116	-0.529217	0.848426	-0.986266	-0.145162	-0.078787
75	6823911													9.677247	0.156140	1.645125	0.164674	-0.836065	-0.523334	0.010214	-0.529104	0.848496	-0.986295	-0.145070	-0.078590
76	6824078													9.710476	0.179690	1.622794	0.164546	-0.836139	-0.523255	0.010314	-0.528999	0.848560	-0.986316	-0.145024	-0.078421
77	6824244													9.666646	0.170621	1.693742	0.164472	-0.836247	-0.523106	0.010431	-0.528824	0.848667	-0.986327	-0.145038	-0.078254
78	6824411													9.677217	0.150040	1.684336	0.164349	-0.836271	-0.523106	0.010530	-0.528800	0.848681	-0.986346	-0.144988	-0.078102
79	6824578													9.704731	0.162957	1.646389	0.164245	-0.836436	-0.522875	0.010629	-0.528542	0.848841	-0.986362	-0.144975	-0.077920
80	6824744													9.697436	0.150669	1.653324	0.164203	-0.836615	-0.522602	0.010749	-0.528244	0.849025	-0.986368	-0.145030	-0.077746
81	6824911													9.681516	0.150995	1.668240	0.164140	-0.836674	-0.522527	0.010826	-0.528152	0.849081	-0.986378	-0.145025	-0.077633
82	6825078													9.694150	0.125264	1.683424	0.164088	-0.836738	-0.522441	0.010899	-0.528050	0.849143	-0.986386	-0.145028	-0.077527
83	6825244													9.688575	0.148913	1.668819	0.164065	-0.836746	-0.522436	0.010959	-0.528034	0.849153	-0.986389	-0.145041	-0.077461
84	6825411													9.688364	0.158015	1.655770	0.163979	-0.836953	-0.522130	0.011000	-0.527711	0.849353	-0.986402	-0.145020	-0.077328
85	6825578													9.683711	0.148377	1.644658	0.163896	-0.837090	-0.521937	0.010991	-0.527509	0.849478	-0.986416	-0.144963	-0.077256
86	6825744													9.684559	0.146374	1.620151	0.163855	-0.837103	-0.521929	0.010958	-0.527503	0.849482	-0.986424	-0.144912	-0.077261
87	6825911													9.682899	0.159878	1.644240	0.163770	-0.837192	-0.521813	0.010923	-0.527384	0.849557	-0.986438	-0.144831	-0.077225
88	6826078													9.703650	0.185866	1.649579	0.163697	-0.837231	-0.521774	0.010873	-0.527345	0.849582	-0.986451	-0.144748	-0.077221
89	6826244													9.696221	0.183964	1.654100	0.163673	-0.837355	-0.521582	0.010825	-0.527156	0.849700	-0.986455	-0.144719	-0.077217
90	6826411													9.662099	0.164173	1.647494	0.163633	-0.837332	-0.521632	0.010710	-0.527220	0.849661	-0.986463	-0.144619	-0.077303
91	6826578													9.673122	0.159123	1.647405	0.163465	-0.837556	-0.521325	0.010644	-0.526905	0.849858	-0.986492	-0.144471	-0.077215
92	6826744													9.719192	0.178935	1.649207	0.163390	-0.837598	-0.521280	0.010613	-0.526858	0.849887	-0.986504	-0.144396	-0.077194
93	6826911													9.708005	0.146539	1.629034	0.163364	-0.837743	-0.521056	0.010554	-0.526637	0.850025	-0.986509	-0.144362	-0.077192
94	6827078													9.671382	0.095856	1.563260	0.163322	-0.837796	-0.520984	0.010391	-0.526584	0.850059	-0.986518	-0.144246	-0.077297
95	6827244													9.763010	0.150149	1.581576	0.163399	-0.837630	-0.521226	0.010267	-0.526854	0.849894	-0.986507	-0.144223	-0.077487
96	6827411													9.745977	0.228753	1.638155	0.163807	-0.837492	-0.521320	0.010297	-0.526978	0.849816	-0.986439	-0.144574	-0.077699
97	6827578													9.702281	0.149280	1.686075	0.164231	-0.837366	-0.521389	0.010174	-0.527100	0.849742	-0.986369	-0.144859	-0.078047
98	6827744													9.673437	0.119382	1.680928	0.164458	-0.837287	-0.521444	0.009920	-0.527212	0.849676	-0.986334	-0.144909	-0.078399
99	6827911													9.658094	0.118398	1.697320	0.164603	-0.837235	-0.521482	0.009860	-0.527270	0.849641	-0.986311	-0.144996	-0.078535
100	6828078													9.672957	0.176586	1.691478	0.164706	-0.837102	-0.521663	0.009819	-0.527469	0.849518	-0.986294	-0.145043	-0.078658
101	6828244													9.662300	0.133843	1.700254	0.164763	-0.837181	-0.521518	0.009795	-0.527329	0.849604	-0.986285	-0.145092	-0.078684
102	6828411													9.660162	0.103481	1.675217	0.164806	-0.837165	-0.521531	0.009762	-0.527351	0.849592	-0.986278	-0.145109	-0.078738
103	6828578													9.679231	0.134780	1.676447	0.164843	-0.837121	-0.521588	0.009709	-0.527420	0.849549	-0.986272	-0.145106	-0.078814
104	6828744													9.690413	0.155714	1.660210	0.164903	-0.837104	-0.521597	0.009628	-0.527446	0.849534	-0.986263	-0.145112	-0.078918
105	6829078													9.695614	0.149284	1.658818	0.164978	-0.837135	-0.521524	0.009539	-0.527391	0.849569	-0.986251	-0.145135	-0.079022
106	6829244													9.703819	0.136368	1.610210	0.164997	-0.836962	-0.521795	0.009479	-0.527676	0.849393	-0.986249	-0.145093	-0.079131
107	6829411													9.707045	0.166751	1.646589	0.165011	-0.836786	-0.522073	0.009420	-0.527968	0.849212	-0.986247	-0.145047	-0.079238
108	6829578													9.686862	0.163115	1.692608	0.165031	-0.836806	-0.522035	0.009392	-0.527935	0.849233	-0.986244	-0.145053	-0.079266
109	6829744													9.645417	0.134847	1.643257	0.164846	-0.837070	-0.521669	0.009388	-0.527549	0.849472	-0.986275	-0.144930	-0.079106
110	6829911													9.691567	0.107095	1.633136	0.164632	-0.837191	-0.521544	0.009322	-0.527414	0.849557	-0.986311	-0.144726	-0.079025
111	6830078													9.710711	0.169723	1.640750	0.164483	-0.837182	-0.521606	0.009431	-0.527449	0.849534	-0.986335	-0.144653	-0.078861
112	6830244													9.705956	0.176914	1.647514	0.164448	-0.837118	-0.521719	0.009463	-0.527557	0.849467	-0.986340	-0.144630	-0.078834
113	6830411													9.639371	0.157915	1.691350	0.164377	-0.837179	-0.521643	0.009292	-0.527499	0.849505	-0.986354	-0.144487	-0.078930
114	6830578													9.675397	0.094471	1.656899	0.164219	-0.837239	-0.521596	0.009200	-0.527452	0.849535	-0.986381	-0.144308	-0.078915
115	6830744													9.692165	0.160429	1.670321	0.164093	-0.837401	-0.521377	0.009114	-0.527232	0.849673	-0.986403	-0.144177	-0.078883
116	6830911													9.664078	0.140034	1.669098	0.163987	-0.837520	-0.521219	0.009097	-0.527065	0.849776	-0.986421	-0.144094	-0.078813
117	6831078													9.668013	0.133811	1.654411	0.163851	-0.837652	-0.521050	0.009111	-0.526880	0.849891	-0.986443	-0.144002	-0.078698
118	6831245													9.714067	0.148072	1.666095	0.163674	-0.837810	-0.520850	0.009098	-0.526666	0.850024	-0.986472	-0.143866	-0.078579
119	6831411													9.705794	0.155072	1.643523	0.163555	-0.837852	-0.520820	0.009037	-0.526634	0.850044	-0.986493	-0.143736	-0.078562
120	6831578													9.665619	0.155418	1.672567	0.163490	-0.838025	-0.520562	0.009003	-0.526373	0.850206	-0.986504	-0.143687	-0.078512
121	6831745													9.683973	0.147619	1.653041	0.163350	-0.838182	-0.520354	0.009031	-0.526146	0.850346	-0.986527	-0.143604	-0.078376
122	6831911													9.729870	0.160500	1.636058	0.163179	-0.838235	-0.520321	0.009029	-0.526099	0.850375	-0.986555	-0.143462	-0.078280
123	6832078													9.705379	0.154299	1.635192	0.163092	-0.838329	-0.520197	0.008998	-0.525971	0.850455	-0.986570	-0.143383	-0.078239
124	6832245													9.681244	0.149471	1.646328	0.162991	-0.838341	-0.520210	0.008948	-0.525983	0.850448	-0.986587	-0.143270	-0.078230
125	6832411													9.679194	0.152647	1.640739	0.162896	-0.838446	-0.520071	0.008900	-0.525841	0.850536	-0.986603	-0.143178	-0.078195
126	6832578													9.689196	0.158358	1.621188	0.162807	-0.838467	-0.520064	0.008857	-0.525834	0.850541	-0.986618	-0.143080	-0.078183
127	6832745													9.691698	0.134369	1.641879	0.162687	-0.838536	-0.519990	0.008800	-0.525757	0.850589	-0.986638	-0.142956	-0.078155
128	6832911													9.692780	0.146739	1.645810	0.162579	-0.838574	-0.519964	0.008742	-0.525730	0.850607	-0.986657	-0.142837	-0.078142
129	6833078													9.683081	0.142187	1.619185	0.162442	-0.838723	-0.519766	0.008684	-0.525526	0.850733	-0.986680	-0.142708	-0.078084
130	6833245													9.681769	0.123633	1.655308	0.162345	-0.838799	-0.519674	0.008652	-0.525430	0.850793	-0.986696	-0.142618	-0.078044
131	6833411													9.693011	0.138998	1.617617	0.162211	-0.838787	-0.519735	0.008594	-0.525490	0.850756	-0.986719	-0.142469	-0.078032
132	6833578													9.703158	0.154120	1.609665	0.162108	-0.838837	-0.519686	0.008543	-0.525439	0.850788	-0.986736	-0.142359	-0.078011
133	6833745													9.683392	0.134786	1.626554	0.161946	-0.838891	-0.519650	0.008477	-0.525399	0.850814	-0.986763	-0.142190	-0.077975
134	6833911													9.713545	0.147025	1.620222	0.161785	-0.838912	-0.519665	0.008472	-0.525403	0.850812	-0.986790	-0.142051	-0.077895
135	6834078													9.752916	0.123666	1.614539	0.161641	-0.838924	-0.519690	0.008428	-0.525423	0.850800	-0.986814	-0.141904	-0.077860
136	6834245													9.659151	0.112750	1.568541	0.161582	-0.838924	-0.519709	0.008253	-0.525462	0.850777	-0.986825	-0.141760	-0.077982
137	6834411													9.711090	0.084142	1.546444	0.161549	-0.838771	-0.519966	0.008105	-0.525741	0.850606	-0.986831	-0.141629	-0.078134
138	6834578													9.762295	0.185759	1.610708	0.161753	-0.838654	-0.520092	0.008098	-0.525887	0.850516	-0.986798	-0.141785	-0.078273
139	6834745													9.738292	0.188797	1.665446	0.162267	-0.838454	-0.520255	0.008067	-0.526097	0.850386	-0.986714	-0.142186	-0.078604
140	6834911													9.659286	0.139994	1.710441	0.162612	-0.838339	-0.520332	0.007829	-0.526239	0.850301	-0.986659	-0.142343	-0.079009
141	6835078													9.635841	0.121708	1.683824	0.162733	-0.838286	-0.520379	0.007724	-0.526311	0.850257	-0.986640	-0.142384	-0.079173
142	6835245													9.675626	0.152471	1.679691	0.162748	-0.838253	-0.520427	0.007766	-0.526355	0.850230	-0.986637	-0.142415	-0.079153
143	6835411													9.692547	0.163976	1.681719	0.162793	-0.838318	-0.520309	0.007792	-0.526235	0.850304	-0.986630	-0.142478	-0.079135
144	6835578													9.646647	0.102373	1.651807	0.162826	-0.838349	-0.520248	0.007832	-0.526170	0.850343	-0.986624	-0.142533	-0.079108
145	6835745													9.659411	0.139783	1.647008	0.162853	-0.838305	-0.520311	0.007885	-0.526228	0.850307	-0.986619	-0.142578	-0.079088
146	6835911													9.679191	0.154173	1.615988	0.162819	-0.838256	-0.520400	0.007924	-0.526311	0.850255	-0.986624	-0.142561	-0.079051
147	6836078													9.686966	0.107254	1.632746	0.162849	-0.838267	-0.520374	0.007997	-0.526275	0.850277	-0.986619	-0.142628	-0.079000
148	6836245													9.683003	0.123115	1.649075	0.162858	-0.838229	-0.520431	0.008045	-0.526328	0.850244	-0.986617	-0.142656	-0.078974
149	6836411													9.686596	0.124813	1.625536	0.162786	-0.838233	-0.520448	0.008098	-0.526331	0.850241	-0.986628	-0.142622	-0.078891
150	6836578													9.722238	0.114971	1.630836	0.162755	-0.838205	-0.520502	0.008121	-0.526380	0.850211	-0.986633	-0.142603	-0.078864
151	6836745													9.689051	0.125216	1.675691	0.162798	-0.838205	-0.520490	0.008140	-0.526369	0.850218	-0.986626	-0.142651	-0.078869
152	6836911													9.627999	0.135285	1.695047	0.162657	-0.838299	-0.520382	0.008132	-0.526249	0.850292	-0.986649	-0.142538	-0.078781
153	6837078													9.684194	0.076075	1.588214	0.162383	-0.838326	-0.520424	0.008060	-0.526279	0.850274	-0.986695	-0.142264	-0.078702
154	6837245													9.723506	0.141480	1.637805	0.162187	-0.838478	-0.520240	0.008126	-0.526068	0.850404	-0.986727	-0.142151	-0.078508
155	6837411													9.726854	0.200107	1.626906	0.162119	-0.838514	-0.520203	0.008287	-0.526001	0.850443	-0.986736	-0.142184	-0.078326
156	6837578													9.691475	0.161580	1.685824	0.162132	-0.838593	-0.520073	0.008175	-0.525886	0.850516	-0.986735	-0.142147	-0.078407
157	6837745													9.669535	0.093744	1.659592	0.161939	-0.838765	-0.519854	0.008057	-0.525666	0.850653	-0.986768	-0.141942	-0.078368
158	6837911													9.713662	0.148648	1.619601	0.161753	-0.838857	-0.519763	0.008032	-0.525563	0.850717	-0.986799	-0.141781	-0.078274
159	6838078													9.692230	0.175799	1.637209	0.161618	-0.838965	-0.519632	0.008047	-0.525416	0.850807	-0.986821	-0.141688	-0.078166
160	6838245													9.669299	0.134698	1.615995	0.161424	-0.839128	-0.519428	0.008071	-0.525191	0.850946	-0.986852	-0.141555	-0.078006
161	6838411													9.702335	0.129590	1.609688	0.161166	-0.839314	-0.519208	0.008116	-0.524940	0.851100	-0.986894	-0.141382	-0.077791
162	6838578													9.718318	0.154760	1.616592	0.161042	-0.839359	-0.519175	0.008154	-0.524891	0.851130	-0.986914	-0.141301	-0.077685
163	6838745													9.670666	0.167349	1.619829	0.160937	-0.839408	-0.519128	0.008222	-0.524826	0.851170	-0.986930	-0.141253	-0.077562
164	6838911													9.704171	0.161015	1.602041	0.160788	-0.839475	-0.519065	0.008323	-0.524736	0.851224	-0.986954	-0.141187	-0.077385
165	6839078													9.697091	0.174954	1.618650	0.160627	-0.839452	-0.519153	0.008468	-0.524791	0.851189	-0.986979	-0.141120	-0.077187
166	6839245													9.707261	0.179139	1.619611	0.160553	-0.839454	-0.519172	0.008601	-0.524786	0.851191	-0.986990	-0.141126	-0.077036
167	6839411													9.689280	0.164592	1.630772	0.160538	-0.839414	-0.519242	0.008724	-0.524838	0.851158	-0.986991	-0.141173	-0.076933
168	6839578													9.700377	0.152082	1.630439	0.160471	-0.839482	-0.519152	0.008896	-0.524717	0.851230	-0.987000	-0.141216	-0.076734
169	6839745													9.712654	0.154857	1.611435	0.160441	-0.839526	-0.519090	0.009054	-0.524629	0.851283	-0.987004	-0.141281	-0.076571
170	6839911													9.706738	0.172877	1.624607	0.160477	-0.839524	-0.519082	0.009217	-0.524601	0.851298	-0.986996	-0.141398	-0.076449
171	6840078													9.686912	0.148062	1.645177	0.160525	-0.839514	-0.519084	0.009340	-0.524588	0.851305	-0.986988	-0.141504	-0.076369
172	6840245													9.699657	0.156399	1.628505	0.160564	-0.839593	-0.518943	0.009431	-0.524436	0.851398	-0.986980	-0.141598	-0.076287
173	6840411													9.685736	0.146428	1.636948	0.160592	-0.839662	-0.518824	0.009473	-0.524311	0.851474	-0.986975	-0.141655	-0.076246
174	6840578													9.667515	0.152464	1.625275	0.160619	-0.839743	-0.518684	0.009423	-0.524178	0.851557	-0.986971	-0.141664	-0.076281
175	6840745													9.686029	0.153562	1.615523	0.160615	-0.839803	-0.518588	0.009383	-0.524087	0.851613	-0.986972	-0.141648	-0.076297
176	6840911													9.714102	0.152858	1.601250	0.160616	-0.839907	-0.518419	0.009415	-0.523911	0.851721	-0.986972	-0.141681	-0.076240
177	6841078													9.757710	0.119427	1.583623	0.160569	-0.840036	-0.518226	0.009382	-0.523716	0.851842	-0.986980	-0.141641	-0.076211
178	6841245													9.671575	0.075120	1.503122	0.160647	-0.839981	-0.518291	0.009199	-0.523814	0.851783	-0.986969	-0.141604	-0.076422
179	6841411													9.725142	0.113975	1.554586	0.160847	-0.839832	-0.518469	0.009055	-0.524031	0.851651	-0.986938	-0.141681	-0.076684
180	6841578													9.781595	0.214371	1.594874	0.161178	-0.839711	-0.518562	0.009015	-0.524157	0.851574	-0.986884	-0.141930	-0.076913
181	6841745													9.749442	0.157686	1.650520	0.161737	-0.839495	-0.518738	0.008872	-0.524401	0.851425	-0.986794	-0.142309	-0.077367
182	6841911													9.645952	0.102770	1.676820	0.162166	-0.839269	-0.518969	0.008590	-0.524710	0.851238	-0.986726	-0.142500	-0.077881
183	6842078													9.641559	0.126922	1.688528	0.162373	-0.839096	-0.519185	0.008514	-0.524956	0.851087	-0.986693	-0.142613	-0.078095
184	6842245													9.676124	0.171607	1.658050	0.162503	-0.838980	-0.519331	0.008537	-0.525112	0.850990	-0.986671	-0.142722	-0.078170
185	6842411													9.676301	0.162750	1.668612	0.162681	-0.838968	-0.519295	0.008554	-0.525087	0.851005	-0.986642	-0.142884	-0.078245
186	6842578													9.635593	0.135344	1.675027	0.162894	-0.838880	-0.519371	0.008594	-0.525176	0.850950	-0.986606	-0.143078	-0.078339
187	6842745													9.691901	0.155848	1.668469	0.163039	-0.838831	-0.519404	0.008644	-0.525213	0.850927	-0.986582	-0.143224	-0.078379
188	6842911													9.699901	0.171325	1.612401	0.163208	-0.838830	-0.519352	0.008685	-0.525169	0.850954	-0.986553	-0.143393	-0.078426
189	6843078													9.691346	0.150880	1.629324	0.163448	-0.838837	-0.519267	0.008770	-0.525089	0.851002	-0.986513	-0.143648	-0.078468
190	6843245													9.688965	0.156924	1.637917	0.163684	-0.838868	-0.519142	0.008852	-0.524969	0.851075	-0.986473	-0.143903	-0.078503
191	6843411													9.707911	0.123740	1.648195	0.163889	-0.838891	-0.519040	0.008888	-0.524877	0.851132	-0.986439	-0.144104	-0.078565
192	6843578													9.700237	0.122102	1.657980	0.164118	-0.838900	-0.518952	0.008929	-0.524801	0.851178	-0.986400	-0.144327	-0.078638
193	6843745													9.669303	0.151803	1.703966	0.164258	-0.838999	-0.518748	0.008987	-0.524596	0.851304	-0.986377	-0.144495	-0.078629
194	6843911													9.670537	0.075876	1.601390	0.164158	-0.839159	-0.518522	0.008973	-0.524361	0.851449	-0.986393	-0.144425	-0.078549
195	6844078													9.700119	0.112221	1.651632	0.164077	-0.839272	-0.518364	0.008970	-0.524195	0.851551	-0.986407	-0.144369	-0.078480
196	6844245													9.718855	0.160257	1.612608	0.164097	-0.839256	-0.518384	0.009139	-0.524191	0.851551	-0.986402	-0.144474	-0.078348
197	6844411													9.697307	0.142562	1.637542	0.164175	-0.839192	-0.518463	0.009103	-0.524284	0.851495	-0.986389	-0.144514	-0.078436
198	6844578													9.667143	0.122427	1.654174	0.164127	-0.839181	-0.518496	0.009004	-0.524327	0.851469	-0.986398	-0.144418	-0.078500
199	6844745													9.698213	0.129434	1.674934	0.164145	-0.839129	-0.518574	0.008984	-0.524411	0.851418	-0.986395	-0.144415	-0.078541
200	6844911													9.667132	0.161730	1.670246	0.164103	-0.839147	-0.518558	0.008987	-0.524391	0.851430	-0.986402	-0.144382	-0.078513
201	6845078													9.661217	0.153090	1.635428	0.163963	-0.839186	-0.518539	0.009016	-0.524356	0.851451	-0.986425	-0.144282	-0.078409
202	6845245													9.712399	0.169884	1.651743	0.163886	-0.839173	-0.518585	0.009071	-0.524389	0.851431	-0.986438	-0.144241	-0.078328
203	6845411													9.682495	0.163215	1.679845	0.163841	-0.839178	-0.518590	0.009122	-0.524383	0.851434	-0.986445	-0.144231	-0.078260
204	6845578													9.666134	0.148119	1.652547	0.163773	-0.839238	-0.518515	0.009174	-0.524294	0.851488	-0.986455	-0.144207	-0.078166
205	6845745													9.694125	0.169105	1.658008	0.163680	-0.839274	-0.518486	0.009273	-0.524242	0.851519	-0.986470	-0.144184	-0.078026
206	6845911													9.690517	0.164030	1.672775	0.163635	-0.839354	-0.518370	0.009332	-0.524112	0.851598	-0.986477	-0.144189	-0.077930
207	6846078													9.686562	0.148441	1.641404	0.163552	-0.839473	-0.518205	0.009400	-0.523928	0.851711	-0.986490	-0.144170	-0.077799
208	6846245													9.718773	0.134433	1.651028	0.163502	-0.839551	-0.518093	0.009491	-0.523797	0.851790	-0.986497	-0.144187	-0.077674
209	6846411													9.685274	0.141886	1.659850	0.163533	-0.839552	-0.518083	0.009550	-0.523781	0.851800	-0.986492	-0.144245	-0.077638
210	6846578													9.669671	0.128847	1.643257	0.163506	-0.839603	-0.518008	0.009638	-0.523690	0.851855	-0.986495	-0.144276	-0.077534
211	6846745													9.690402	0.151889	1.645438	0.163471	-0.839706	-0.517852	0.009735	-0.523514	0.851961	-0.986500	-0.144313	-0.077405
212	6846911													9.681877	0.117149	1.642173	0.163485	-0.839745	-0.517786	0.009818	-0.523436	0.852008	-0.986497	-0.144374	-0.077329
213	6847078													9.680099	0.137970	1.625758	0.163494	-0.839768	-0.517744	0.009879	-0.523386	0.852039	-0.986495	-0.144418	-0.077274
214	6847245													9.688411	0.150076	1.626202	0.163471	-0.839774	-0.517742	0.009926	-0.523374	0.852045	-0.986498	-0.144424	-0.077221
215	6847411													9.695506	0.146213	1.645750	0.163518	-0.839735	-0.517790	0.009941	-0.523425	0.852014	-0.986490	-0.144467	-0.077242
216	6847578													9.679774	0.174301	1.648714	0.163565	-0.839685	-0.517856	0.009963	-0.523493	0.851972	-0.986482	-0.144512	-0.077260
217	6847745													9.699636	0.137037	1.619342	0.163609	-0.839642	-0.517912	0.009980	-0.523551	0.851936	-0.986475	-0.144553	-0.077278
218	6847912													9.671704	0.137594	1.626628	0.163654	-0.839698	-0.517807	0.009931	-0.523455	0.851995	-0.986468	-0.144575	-0.077326
219	6848078													9.681681	0.159588	1.635460	0.163636	-0.839751	-0.517727	0.009931	-0.523372	0.852046	-0.986471	-0.144567	-0.077303
220	6848245													9.740884	0.158612	1.648961	0.163586	-0.839840	-0.517599	0.009957	-0.523235	0.852130	-0.986479	-0.144551	-0.077232
221	6848412													9.704083	0.119074	1.611923	0.163578	-0.839838	-0.517605	0.009837	-0.523258	0.852118	-0.986481	-0.144479	-0.077332
222	6848578													9.669832	0.069412	1.535491	0.163596	-0.839803	-0.517655	0.009668	-0.523334	0.852073	-0.986480	-0.144401	-0.077496
223	6848745													9.747018	0.157270	1.605946	0.163816	-0.839691	-0.517768	0.009639	-0.523470	0.851989	-0.986444	-0.144560	-0.077659
224	6848912													9.734799	0.203385	1.623641	0.164332	-0.839518	-0.517884	0.009644	-0.523630	0.851891	-0.986358	-0.144988	-0.077953
225	6849078													9.690851	0.113955	1.687181	0.164858	-0.839269	-0.518121	0.009386	-0.523950	0.851697	-0.986273	-0.145272	-0.078500
226	6849245													9.624229	0.105063	1.684823	0.165152	-0.839041	-0.518397	0.009187	-0.524283	0.851495	-0.986225	-0.145389	-0.078878
227	6849412													9.656342	0.156523	1.683495	0.165331	-0.838837	-0.518670	0.009200	-0.524573	0.851316	-0.986195	-0.145521	-0.079011
228	6849578													9.673757	0.163545	1.672892	0.165486	-0.838677	-0.518879	0.009242	-0.524791	0.851181	-0.986169	-0.145654	-0.079095
229	6849745													9.648794	0.120559	1.684693	0.165643	-0.838509	-0.519100	0.009320	-0.525017	0.851041	-0.986142	-0.145807	-0.079150
230	6849912													9.671111	0.151478	1.710886	0.165739	-0.838349	-0.519327	0.009413	-0.525242	0.850901	-0.986125	-0.145916	-0.079162
231	6850078													9.677106	0.169759	1.692372	0.165827	-0.838282	-0.519408	0.009506	-0.525317	0.850854	-0.986109	-0.146032	-0.079143
232	6850245													9.684953	0.152175	1.663838	0.165938	-0.838214	-0.519481	0.009566	-0.525392	0.850807	-0.986090	-0.146151	-0.079164
233	6850412													9.674950	0.152357	1.652251	0.166065	-0.838180	-0.519497	0.009646	-0.525406	0.850797	-0.986068	-0.146299	-0.079167
234	6850578													9.696557	0.147007	1.648217	0.166171	-0.838198	-0.519433	0.009673	-0.525346	0.850834	-0.986050	-0.146408	-0.079189
235	6850745													9.700315	0.122181	1.649973	0.166294	-0.838234	-0.519337	0.009664	-0.525259	0.850887	-0.986029	-0.146517	-0.079247
236	6850912													9.681520	0.129001	1.661828	0.166397	-0.838245	-0.519286	0.009652	-0.525218	0.850913	-0.986012	-0.146601	-0.079303
237	6851078													9.668838	0.141346	1.691664	0.166441	-0.838270	-0.519230	0.009667	-0.525163	0.850947	-0.986004	-0.146652	-0.079306
238	6851245													9.637120	0.101315	1.629402	0.166262	-0.838390	-0.519094	0.009630	-0.525015	0.851038	-0.986035	-0.146494	-0.079216
239	6851412													9.672215	0.109324	1.654840	0.166106	-0.838423	-0.519091	0.009621	-0.525000	0.851048	-0.986061	-0.146358	-0.079139
240	6851578													9.703987	0.178932	1.617676	0.165984	-0.838456	-0.519077	0.009781	-0.524953	0.851075	-0.986080	-0.146342	-0.078933
241	6851745													9.716069	0.144236	1.631155	0.165991	-0.838451	-0.519082	0.009860	-0.524947	0.851078	-0.986078	-0.146389	-0.078870
242	6851912													9.641050	0.146070	1.708476	0.166000	-0.838454	-0.519074	0.009772	-0.524953	0.851075	-0.986077	-0.146351	-0.078948
243	6852078													9.676591	0.121251	1.660887	0.165858	-0.838446	-0.519133	0.009831	-0.524993	0.851050	-0.986101	-0.146258	-0.078831
244	6852245													9.727238	0.169223	1.652129	0.165766	-0.838480	-0.519107	0.009925	-0.524945	0.851078	-0.986115	-0.146231	-0.078696
245	6852412													9.675142	0.155951	1.674899	0.165734	-0.838495	-0.519094	0.010057	-0.524909	0.851099	-0.986119	-0.146277	-0.078563
246	6852578													9.682273	0.159126	1.688811	0.165629	-0.838475	-0.519160	0.010210	-0.524945	0.851075	-0.986135	-0.146263	-0.078385
247	6852745													9.707364	0.178138	1.668816	0.165509	-0.838455	-0.519231	0.010336	-0.524988	0.851047	-0.986154	-0.146222	-0.078224
248	6852912													9.703188	0.159881	1.691103	0.165465	-0.838501	-0.519170	0.010424	-0.524910	0.851094	-0.986161	-0.146238	-0.078114
249	6853078													9.670451	0.178599	1.681175	0.165458	-0.838574	-0.519054	0.010542	-0.524775	0.851176	-0.986160	-0.146306	-0.077988
250	6853245													9.671238	0.178367	1.680170	0.165449	-0.838696	-0.518860	0.010640	-0.524562	0.851306	-0.986161	-0.146369	-0.077865
251	6853412													9.700162	0.154499	1.670836	0.165398	-0.838782	-0.518738	0.010713	-0.524423	0.851390	-0.986169	-0.146375	-0.077752
252	6853578													9.695681	0.128189	1.630007	0.165399	-0.838834	-0.518653	0.010741	-0.524333	0.851445	-0.986168	-0.146399	-0.077715
253	6853745													9.679176	0.132853	1.664220	0.165423	-0.838821	-0.518666	0.010758	-0.524345	0.851438	-0.986164	-0.146427	-0.077715
254	6853912													9.679720	0.138027	1.660490	0.165429	-0.838861	-0.518600	0.010810	-0.524272	0.851483	-0.986162	-0.146466	-0.077662
255	6854078													9.692241	0.128361	1.658448	0.165431	-0.838916	-0.518510	0.010808	-0.524180	0.851539	-0.986162	-0.146475	-0.077649
256	6854245													9.683997	0.129366	1.640238	0.165415	-0.838989	-0.518397	0.010796	-0.524066	0.851609	-0.986165	-0.146466	-0.077631
257	6854412													9.715586	0.136472	1.632911	0.165423	-0.839013	-0.518356	0.010760	-0.524030	0.851632	-0.986164	-0.146457	-0.077659
258	6854578													9.686050	0.139143	1.640265	0.165486	-0.838985	-0.518381	0.010686	-0.524072	0.851607	-0.986154	-0.146469	-0.077762
259	6854745													9.689221	0.131929	1.629611	0.165462	-0.838956	-0.518436	0.010600	-0.524139	0.851567	-0.986159	-0.146398	-0.077832
260	6854912													9.721001	0.152693	1.644026	0.165480	-0.838926	-0.518479	0.010540	-0.524192	0.851535	-0.986157	-0.146377	-0.077901
261	6855078													9.681959	0.159749	1.673157	0.165564	-0.838843	-0.518586	0.010491	-0.524316	0.851459	-0.986143	-0.146411	-0.078008
262	6855245													9.673988	0.165629	1.672513	0.165575	-0.838794	-0.518661	0.010431	-0.524401	0.851407	-0.986142	-0.146382	-0.078078
263	6855412													9.672486	0.164731	1.654100	0.165566	-0.838769	-0.518705	0.010391	-0.524451	0.851377	-0.986144	-0.146349	-0.078116
264	6855578													9.699024	0.181621	1.658670	0.165546	-0.838775	-0.518700	0.010432	-0.524439	0.851384	-0.986147	-0.146355	-0.078069
265	6855745													9.710282	0.164817	1.672320	0.165555	-0.838743	-0.518750	0.010390	-0.524496	0.851349	-0.986146	-0.146335	-0.078119
266	6855912													9.654294	0.113004	1.547916	0.165550	-0.838702	-0.518819	0.010259	-0.524585	0.851296	-0.986148	-0.146255	-0.078241
267	6856078													9.762058	0.159172	1.632453	0.165689	-0.838582	-0.518967	0.010198	-0.524756	0.851192	-0.986125	-0.146325	-0.078394
268	6856245													9.711488	0.207828	1.635757	0.166108	-0.838399	-0.519129	0.010256	-0.524945	0.851074	-0.986054	-0.146694	-0.078599
269	6856412													9.697698	0.138024	1.715917	0.166601	-0.838148	-0.519376	0.010146	-0.525252	0.850886	-0.985972	-0.147028	-0.079003
270	6856578													9.658474	0.123641	1.699458	0.166859	-0.838007	-0.519521	0.009981	-0.525446	0.850769	-0.985930	-0.147144	-0.079311
271	6856745													9.665805	0.133557	1.696070	0.167036	-0.837948	-0.519560	0.009992	-0.525497	0.850737	-0.985900	-0.147295	-0.079404
272	6856912													9.667497	0.133482	1.695601	0.167114	-0.837918	-0.519583	0.010025	-0.525523	0.850720	-0.985887	-0.147376	-0.079422
273	6857078													9.661008	0.106668	1.697663	0.167146	-0.837859	-0.519668	0.010020	-0.525612	0.850665	-0.985881	-0.147393	-0.079459
274	6857245													9.644792	0.125451	1.693668	0.167184	-0.837759	-0.519817	0.010084	-0.525757	0.850575	-0.985874	-0.147444	-0.079451
275	6857412													9.672325	0.146628	1.687430	0.167214	-0.837703	-0.519898	0.010136	-0.525834	0.850527	-0.985869	-0.147489	-0.079436
276	6857578													9.685775	0.141704	1.669473	0.167267	-0.837639	-0.519983	0.010166	-0.525920	0.850473	-0.985859	-0.147543	-0.079454
277	6857745													9.666846	0.142776	1.650659	0.167356	-0.837576	-0.520055	0.010216	-0.525993	0.850427	-0.985844	-0.147638	-0.079471
278	6857912													9.686726	0.130228	1.671755	0.167420	-0.837519	-0.520127	0.010247	-0.526067	0.850382	-0.985832	-0.147700	-0.079492
279	6858078													9.688700	0.129523	1.662382	0.167479	-0.837516	-0.520113	0.010255	-0.526056	0.850388	-0.985822	-0.147756	-0.079515
280	6858245													9.700659	0.122864	1.665808	0.167526	-0.837466	-0.520179	0.010260	-0.526126	0.850345	-0.985814	-0.147792	-0.079547
281	6858412													9.708291	0.114685	1.695841	0.167579	-0.837435	-0.520211	0.010254	-0.526164	0.850321	-0.985805	-0.147830	-0.079587
282	6858578													9.653845	0.133396	1.707464	0.167495	-0.837489	-0.520151	0.010255	-0.526096	0.850363	-0.985820	-0.147765	-0.079530
283	6858745													9.694685	0.069524	1.583668	0.167280	-0.837485	-0.520227	0.010226	-0.526159	0.850324	-0.985856	-0.147562	-0.079451
284	6858912													9.703468	0.161072	1.628229	0.167169	-0.837510	-0.520222	0.010350	-0.526127	0.850343	-0.985874	-0.147535	-0.079284
285	6859078													9.712538	0.181977	1.654728	0.167146	-0.837434	-0.520353	0.010545	-0.526229	0.850278	-0.985876	-0.147607	-0.079126
286	6859245													9.668602	0.155801	1.667435	0.167182	-0.837366	-0.520450	0.010512	-0.526335	0.850212	-0.985870	-0.147611	-0.079191
287	6859412													9.674044	0.113684	1.679961	0.167087	-0.837363	-0.520485	0.010508	-0.526364	0.850194	-0.985886	-0.147526	-0.079150
288	6859578													9.715071	0.141840	1.633623	0.167065	-0.837318	-0.520564	0.010602	-0.526429	0.850153	-0.985889	-0.147550	-0.079071
289	6859745													9.660791	0.163164	1.658978	0.167058	-0.837374	-0.520477	0.010712	-0.526323	0.850217	-0.985889	-0.147610	-0.078957
290	6859912													9.663530	0.155601	1.669302	0.166936	-0.837430	-0.520426	0.010854	-0.526239	0.850267	-0.985908	-0.147589	-0.078758
291	6860078													9.726196	0.170235	1.633272	0.166856	-0.837471	-0.520386	0.011011	-0.526170	0.850308	-0.985920	-0.147609	-0.078573
292	6860245													9.706685	0.147036	1.666781	0.166904	-0.837470	-0.520373	0.011106	-0.526145	0.850322	-0.985911	-0.147701	-0.078515
293	6860412													9.674435	0.159395	1.681854	0.166952	-0.837536	-0.520250	0.011210	-0.526009	0.850405	-0.985901	-0.147809	-0.078429
294	6860578													9.664017	0.182537	1.681465	0.166940	-0.837632	-0.520099	0.011339	-0.525836	0.850510	-0.985902	-0.147882	-0.078285
295	6860745													9.708838	0.161126	1.644855	0.166964	-0.837758	-0.519890	0.011475	-0.525605	0.850652	-0.985896	-0.147994	-0.078144
296	6860912													9.696132	0.144175	1.670207	0.167043	-0.837845	-0.519723	0.011558	-0.525429	0.850759	-0.985882	-0.148120	-0.078085
297	6861078													9.691987	0.136718	1.663608	0.167123	-0.837850	-0.519690	0.011622	-0.525392	0.850781	-0.985868	-0.148225	-0.078068
298	6861245													9.697040	0.152261	1.645345	0.167223	-0.837880	-0.519609	0.011691	-0.525308	0.850832	-0.985850	-0.148353	-0.078048
299	6861412													9.687130	0.158483	1.661592	0.167349	-0.837890	-0.519553	0.011741	-0.525253	0.850865	-0.985828	-0.148491	-0.078063
300	6861578													9.676448	0.138889	1.678039	0.167441	-0.837931	-0.519457	0.011776	-0.525158	0.850923	-0.985812	-0.148597	-0.078065
301	6861745													9.698223	0.149253	1.658334	0.167520	-0.837950	-0.519400	0.011838	-0.525098	0.850960	-0.985798	-0.148702	-0.078045
302	6861912													9.679434	0.166315	1.682634	0.167615	-0.837950	-0.519370	0.011880	-0.525068	0.850977	-0.985781	-0.148807	-0.078054
303	6862078													9.665784	0.168969	1.653560	0.167657	-0.837987	-0.519297	0.011953	-0.524987	0.851027	-0.985773	-0.148887	-0.078001
304	6862245													9.683629	0.164191	1.667929	0.167709	-0.838047	-0.519182	0.012000	-0.524867	0.851100	-0.985764	-0.148967	-0.077968
305	6862412													9.684262	0.165911	1.694407	0.167807	-0.838059	-0.519132	0.012052	-0.524815	0.851131	-0.985746	-0.149082	-0.077968
306	6862578													9.676418	0.152068	1.686947	0.167897	-0.838100	-0.519036	0.012048	-0.524727	0.851186	-0.985731	-0.149165	-0.078002
307	6862745													9.659478	0.149421	1.698448	0.167898	-0.838160	-0.518939	0.012019	-0.524632	0.851244	-0.985731	-0.149159	-0.078011
308	6862912													9.699596	0.163386	1.667682	0.167917	-0.838214	-0.518846	0.012063	-0.524533	0.851305	-0.985727	-0.149207	-0.077967
309	6863078													9.730867	0.162785	1.689994	0.167968	-0.838264	-0.518748	0.012039	-0.524441	0.851362	-0.985719	-0.149247	-0.077998
310	6863245													9.648898	0.121052	1.614086	0.167959	-0.838315	-0.518670	0.011909	-0.524381	0.851401	-0.985722	-0.149177	-0.078091
311	6863412													9.719474	0.097250	1.606983	0.168087	-0.838223	-0.518776	0.011753	-0.524522	0.851316	-0.985702	-0.149192	-0.078314
312	6863578													9.698372	0.207577	1.672313	0.168456	-0.838063	-0.518915	0.011741	-0.524695	0.851209	-0.985639	-0.149484	-0.078548
313	6863745													9.698834	0.161513	1.691130	0.168940	-0.837817	-0.519154	0.011687	-0.524986	0.851031	-0.985557	-0.149841	-0.078899
314	6863912													9.659199	0.132586	1.708883	0.169212	-0.837599	-0.519418	0.011406	-0.525318	0.850830	-0.985514	-0.149895	-0.079337
315	6864078													9.648011	0.126923	1.705466	0.169390	-0.837434	-0.519626	0.011317	-0.525558	0.850683	-0.985484	-0.149978	-0.079547
316	6864245													9.668339	0.176609	1.727417	0.169477	-0.837319	-0.519784	0.011317	-0.525725	0.850579	-0.985469	-0.150037	-0.079622
317	6864412													9.655799	0.143181	1.722380	0.169497	-0.837253	-0.519883	0.011294	-0.525831	0.850514	-0.985466	-0.150031	-0.079671
318	6864579													9.656909	0.126010	1.694693	0.169528	-0.837164	-0.520016	0.011293	-0.525969	0.850429	-0.985461	-0.150044	-0.079712
319	6864745													9.679218	0.167740	1.717106	0.169524	-0.837134	-0.520065	0.011282	-0.526020	0.850397	-0.985461	-0.150030	-0.079728
320	6864912													9.683343	0.151420	1.680274	0.169551	-0.837098	-0.520114	0.011244	-0.526078	0.850362	-0.985457	-0.150028	-0.079785
321	6865079													9.677258	0.151860	1.679008	0.169614	-0.837141	-0.520025	0.011249	-0.525992	0.850415	-0.985446	-0.150092	-0.079798
322	6865245													9.677500	0.145323	1.657436	0.169682	-0.837151	-0.519986	0.011214	-0.525963	0.850433	-0.985435	-0.150135	-0.079859
323	6865412													9.697898	0.126916	1.681132	0.169707	-0.837160	-0.519964	0.011141	-0.525954	0.850440	-0.985432	-0.150119	-0.079931
324	6865579													9.688464	0.120398	1.662778	0.169788	-0.837118	-0.520005	0.011062	-0.526014	0.850404	-0.985419	-0.150140	-0.080051
325	6865745													9.694898	0.138510	1.688707	0.169821	-0.837079	-0.520057	0.011022	-0.526076	0.850366	-0.985413	-0.150142	-0.080112
326	6865912													9.663795	0.157181	1.729336	0.169816	-0.837149	-0.519947	0.010999	-0.525967	0.850434	-0.985414	-0.150136	-0.080110
327	6866079													9.670000	0.069323	1.608893	0.169683	-0.837206	-0.519897	0.010950	-0.525913	0.850468	-0.985438	-0.150003	-0.080071
328	6866245													9.679292	0.127617	1.704663	0.169623	-0.837224	-0.519889	0.010949	-0.525900	0.850476	-0.985448	-0.149953	-0.080038
329	6866412													9.700723	0.187098	1.636306	0.169599	-0.837172	-0.519979	0.011093	-0.525968	0.850432	-0.985451	-0.150000	-0.079917
330	6866579													9.708043	0.167205	1.680861	0.169745	-0.837113	-0.520027	0.011054	-0.526034	0.850392	-0.985426	-0.150098	-0.080038
331	6866745													9.649601	0.133221	1.696006	0.169734	-0.837134	-0.519997	0.010978	-0.526014	0.850405	-0.985429	-0.150051	-0.080092
332	6866912													9.717893	0.111696	1.652369	0.169714	-0.837102	-0.520054	0.010996	-0.526068	0.850371	-0.985432	-0.150039	-0.080077
333	6867079													9.712185	0.151849	1.664585	0.169796	-0.837086	-0.520055	0.011065	-0.526065	0.850372	-0.985417	-0.150144	-0.080062
334	6867245													9.653220	0.125160	1.680067	0.169888	-0.837075	-0.520042	0.011184	-0.526041	0.850386	-0.985400	-0.150287	-0.080006
335	6867412													9.695323	0.138825	1.661867	0.169926	-0.837037	-0.520090	0.011279	-0.526079	0.850361	-0.985392	-0.150365	-0.079953
336	6867579													9.719033	0.157707	1.692522	0.170044	-0.836999	-0.520113	0.011372	-0.526098	0.850348	-0.985371	-0.150512	-0.079941
337	6867745													9.680199	0.142265	1.697904	0.170235	-0.836970	-0.520097	0.011431	-0.526089	0.850353	-0.985337	-0.150705	-0.079992
338	6867912													9.669875	0.147994	1.704367	0.170420	-0.836955	-0.520061	0.011510	-0.526055	0.850373	-0.985304	-0.150906	-0.080016
339	6868079													9.692752	0.153730	1.686797	0.170603	-0.836936	-0.520032	0.011640	-0.526021	0.850392	-0.985271	-0.151133	-0.079999
340	6868245													9.707047	0.145570	1.675013	0.170834	-0.836929	-0.519967	0.011717	-0.525962	0.850428	-0.985230	-0.151374	-0.080046
341	6868412													9.708201	0.109711	1.680685	0.171090	-0.836889	-0.519947	0.011764	-0.525956	0.850431	-0.985185	-0.151617	-0.080140
342	6868579													9.692101	0.129245	1.691232	0.171421	-0.836845	-0.519909	0.011837	-0.525933	0.850444	-0.985127	-0.151938	-0.080251
343	6868745													9.675566	0.140562	1.708021	0.171772	-0.836805	-0.519858	0.011951	-0.525892	0.850467	-0.985064	-0.152299	-0.080333
344	6868912													9.685404	0.139780	1.716829	0.172104	-0.836790	-0.519772	0.012021	-0.525822	0.850510	-0.985005	-0.152624	-0.080437
345	6869079													9.687745	0.143889	1.684658	0.172497	-0.836727	-0.519742	0.012065	-0.525817	0.850512	-0.984936	-0.152982	-0.080607
346	6869245													9.682362	0.146092	1.702923	0.172919	-0.836649	-0.519728	0.012121	-0.525830	0.850503	-0.984861	-0.153368	-0.080785
347	6869412													9.686660	0.165526	1.715280	0.173352	-0.836564	-0.519721	0.012175	-0.525850	0.850490	-0.984785	-0.153761	-0.080972
348	6869579													9.677927	0.159376	1.694580	0.173778	-0.836451	-0.519761	0.012220	-0.525919	0.850447	-0.984709	-0.154140	-0.081171
349	6869745													9.692006	0.175407	1.690773	0.174268	-0.836398	-0.519682	0.012294	-0.525868	0.850477	-0.984622	-0.154600	-0.081359
350	6869912													9.689019	0.169126	1.712356	0.174842	-0.836292	-0.519659	0.012396	-0.525877	0.850470	-0.984518	-0.155140	-0.081579
351	6870079													9.653730	0.155790	1.739946	0.175404	-0.836244	-0.519547	0.012458	-0.525801	0.850517	-0.984418	-0.155657	-0.081809
352	6870245													9.655680	0.148804	1.727539	0.175913	-0.836238	-0.519385	0.012514	-0.525671	0.850596	-0.984326	-0.156131	-0.082008
353	6870412													9.712461	0.168213	1.733340	0.176436	-0.836245	-0.519196	0.012602	-0.525509	0.850695	-0.984231	-0.156636	-0.082180
354	6870579													9.706277	0.150244	1.756188	0.177002	-0.836222	-0.519040	0.012616	-0.525396	0.850765	-0.984130	-0.157135	-0.082446
355	6870745													9.645783	0.093271	1.675745	0.177602	-0.836172	-0.518916	0.012496	-0.525340	0.850801	-0.984023	-0.157589	-0.082853
356	6870912													9.724563	0.132893	1.737000	0.178321	-0.835979	-0.518981	0.012433	-0.525479	0.850716	-0.983894	-0.158152	-0.083310
357	6871079													9.702194	0.210288	1.756864	0.179290	-0.835763	-0.518995	0.012519	-0.525562	0.850663	-0.983717	-0.159013	-0.083765
358	6871245													9.696456	0.163758	1.802605	0.180390	-0.835474	-0.519078	0.012467	-0.525751	0.850547	-0.983516	-0.159902	-0.084424
359	6871412													9.631050	0.149625	1.828511	0.181324	-0.835280	-0.519065	0.012238	-0.525857	0.850485	-0.983347	-0.160566	-0.085128
360	6871579													9.607080	0.130074	1.854027	0.182143	-0.835091	-0.519082	0.012164	-0.525959	0.850423	-0.983197	-0.161212	-0.085642
361	6871745													9.638592	0.177587	1.855682	0.182834	-0.834983	-0.519013	0.012152	-0.525952	0.850427	-0.983069	-0.161794	-0.086015
362	6871912													9.644526	0.148522	1.865317	0.183448	-0.834935	-0.518875	0.012136	-0.525869	0.850479	-0.982955	-0.162316	-0.086336
363	6872079													9.605633	0.143301	1.890347	0.184082	-0.834827	-0.518823	0.012109	-0.525877	0.850474	-0.982836	-0.162839	-0.086696
364	6872245													9.611020	0.164926	1.887529	0.184651	-0.834797	-0.518669	0.012107	-0.525772	0.850539	-0.982730	-0.163332	-0.086977
365	6872412													9.645160	0.166656	1.892987	0.185183	-0.834822	-0.518440	0.012083	-0.525591	0.850652	-0.982630	-0.163790	-0.087244
366	6872579													9.640753	0.143301	1.864781	0.185807	-0.834773	-0.518295	0.012061	-0.525503	0.850706	-0.982512	-0.164319	-0.087574
367	6872745													9.640862	0.148061	1.880916	0.186428	-0.834758	-0.518097	0.012077	-0.525355	0.850798	-0.982394	-0.164870	-0.087860
368	6872912													9.657167	0.141591	1.831414	0.187012	-0.834787	-0.517839	0.012059	-0.525149	0.850925	-0.982284	-0.165378	-0.088143
369	6873079													9.669794	0.131156	1.850960	0.187630	-0.834823	-0.517557	0.012034	-0.524922	0.851065	-0.982166	-0.165913	-0.088445
370	6873245													9.653587	0.159691	1.903266	0.188240	-0.834852	-0.517289	0.012052	-0.524701	0.851201	-0.982049	-0.166464	-0.088708
371	6873412													9.624633	0.146158	1.879507	0.188740	-0.835008	-0.516855	0.012080	-0.524300	0.851448	-0.981953	-0.166946	-0.088869
372	6873579													9.648635	0.084426	1.796459	0.189142	-0.835099	-0.516560	0.012049	-0.524042	0.851607	-0.981876	-0.167298	-0.089056
373	6873745													9.657382	0.123788	1.862591	0.189587	-0.835164	-0.516292	0.012128	-0.523796	0.851757	-0.981789	-0.167743	-0.089176
374	6873912													9.702300	0.184043	1.853309	0.190135	-0.835097	-0.516200	0.012275	-0.523728	0.851797	-0.981681	-0.168292	-0.089329
375	6874079													9.665027	0.166739	1.871989	0.190919	-0.835031	-0.516017	0.012191	-0.523629	0.851859	-0.981530	-0.168926	-0.089791
376	6874245													9.617862	0.111920	1.883840	0.191523	-0.835057	-0.515750	0.012099	-0.523429	0.851983	-0.981413	-0.169415	-0.090146
377	6874412													9.670231	0.115007	1.867414	0.192103	-0.835019	-0.515596	0.012093	-0.523328	0.852046	-0.981300	-0.169916	-0.090435
378	6874579													9.657407	0.163887	1.849694	0.192807	-0.834999	-0.515365	0.012165	-0.523146	0.852156	-0.981161	-0.170571	-0.090708
379	6874745													9.645421	0.160081	1.893228	0.193539	-0.834913	-0.515231	0.012243	-0.523065	0.852205	-0.981016	-0.171243	-0.091012
380	6874912													9.653624	0.145071	1.903640	0.194240	-0.834852	-0.515066	0.012292	-0.522954	0.852272	-0.980877	-0.171877	-0.091317
381	6875079													9.688107	0.144249	1.905713	0.195021	-0.834777	-0.514892	0.012343	-0.522841	0.852341	-0.980721	-0.172580	-0.091661
382	6875245													9.651141	0.171128	1.922180	0.195942	-0.834709	-0.514653	0.012353	-0.522684	0.852437	-0.980538	-0.173386	-0.092104
383	6875412													9.638296	0.157740	1.937880	0.196884	-0.834689	-0.514326	0.012352	-0.522441	0.852586	-0.980349	-0.174213	-0.092550
384	6875579													9.669271	0.160524	1.936905	0.197904	-0.834688	-0.513937	0.012359	-0.522140	0.852770	-0.980144	-0.175118	-0.093018
385	6875745													9.665632	0.152200	1.932045	0.199028	-0.834665	-0.513539	0.012340	-0.521847	0.852950	-0.979916	-0.176098	-0.093562
386	6875912													9.649364	0.136160	1.967101	0.200279	-0.834609	-0.513144	0.012259	-0.521580	0.853115	-0.979662	-0.177152	-0.094230
387	6876079													9.640306	0.133338	1.984643	0.201649	-0.834546	-0.512710	0.012144	-0.521292	0.853292	-0.979383	-0.178291	-0.094983
388	6876245													9.641301	0.141712	2.006480	0.203151	-0.834489	-0.512208	0.012052	-0.520946	0.853505	-0.979073	-0.179563	-0.095774
389	6876412													9.641137	0.122361	1.987226	0.204798	-0.834402	-0.511695	0.011940	-0.520607	0.853713	-0.978731	-0.180948	-0.096656
390	6876579													9.639192	0.128161	2.009782	0.206651	-0.834273	-0.511160	0.011825	-0.520269	0.853921	-0.978343	-0.182508	-0.097649
391	6876745													9.626519	0.128897	2.072019	0.208547	-0.834150	-0.510589	0.011649	-0.519913	0.854140	-0.977943	-0.184076	-0.098709
392	6876912													9.634394	0.137151	2.026185	0.210431	-0.834037	-0.510001	0.011463	-0.519542	0.854368	-0.977542	-0.185631	-0.099767
393	6877079													9.672420	0.158095	2.035180	0.212510	-0.833846	-0.509451	0.011243	-0.519238	0.854556	-0.977094	-0.187329	-0.100968
394	6877245													9.658504	0.146343	2.074280	0.214832	-0.833596	-0.508886	0.011027	-0.518948	0.854735	-0.976589	-0.189236	-0.102294
395	6877412													9.608919	0.152061	2.103303	0.217164	-0.833346	-0.508305	0.010798	-0.518650	0.854918	-0.976075	-0.191146	-0.103634
396	6877579													9.627763	0.162517	2.113831	0.219478	-0.833116	-0.507688	0.010542	-0.518320	0.855122	-0.975561	-0.193032	-0.104977
397	6877745													9.650517	0.153857	2.098292	0.221994	-0.832788	-0.507133	0.010307	-0.518077	0.855272	-0.974994	-0.195092	-0.106426
398	6877912													9.670302	0.128752	2.158545	0.224775	-0.832471	-0.506427	0.010053	-0.517717	0.855493	-0.974359	-0.197385	-0.108001
399	6878079													9.570109	0.074803	2.067050	0.227589	-0.832067	-0.505834	0.009658	-0.517512	0.855622	-0.973709	-0.199615	-0.109744
400	6878245													9.644090	0.099196	2.149893	0.230505	-0.831440	-0.505545	0.009269	-0.517635	0.855551	-0.973027	-0.201895	-0.111610
401	6878412													9.648098	0.194911	2.208504	0.233801	-0.830732	-0.505194	0.009048	-0.517714	0.855506	-0.972242	-0.204590	-0.113526
402	6878579													9.633935	0.142489	2.280706	0.237452	-0.829961	-0.504759	0.008716	-0.517779	0.855470	-0.971360	-0.207532	-0.115714
403	6878745													9.540940	0.060673	2.343541	0.241189	-0.829169	-0.504288	0.008272	-0.517854	0.855429	-0.970443	-0.210492	-0.118042
404	6878912													9.472069	0.063929	2.400968	0.244592	-0.828423	-0.503875	0.007866	-0.517947	0.855377	-0.969594	-0.213182	-0.120170
405	6879079													9.506552	0.102260	2.393042	0.247640	-0.827613	-0.503717	0.007585	-0.518239	0.855202	-0.968822	-0.215603	-0.122059
406	6879245													9.531139	0.157810	2.416800	0.250697	-0.826875	-0.503417	0.007274	-0.518400	0.855107	-0.968038	-0.218034	-0.123947
407	6879412													9.495957	0.110976	2.497184	0.253836	-0.826203	-0.502946	0.006913	-0.518414	0.855102	-0.967222	-0.220533	-0.125881
408	6879579													9.454556	0.065442	2.546386	0.256904	-0.825513	-0.502522	0.006504	-0.518485	0.855062	-0.966415	-0.222937	-0.127832
409	6879745													9.460987	0.082507	2.562799	0.259917	-0.824886	-0.502003	0.006131	-0.518450	0.855086	-0.965612	-0.225329	-0.129697
410	6879912													9.454796	0.078647	2.590641	0.263014	-0.824233	-0.501461	0.005722	-0.518419	0.855107	-0.964775	-0.227775	-0.131635
411	6880079													9.451356	0.080237	2.653171	0.266313	-0.823533	-0.500870	0.005244	-0.518390	0.855128	-0.963872	-0.230358	-0.133736
412	6880245													9.417006	0.055043	2.711305	0.269346	-0.822904	-0.500282	0.004855	-0.518314	0.855177	-0.963031	-0.232767	-0.135610
413	6880412													9.429835	0.074995	2.729865	0.272296	-0.822279	-0.499712	0.004461	-0.518251	0.855217	-0.962203	-0.235101	-0.137449
414	6880579													9.442344	0.099107	2.810165	0.275295	-0.821666	-0.499077	0.004066	-0.518137	0.855288	-0.961351	-0.237486	-0.139299
415	6880745													9.364956	0.073630	2.758474	0.278384	-0.821119	-0.498263	0.003532	-0.517892	0.855439	-0.960463	-0.239900	-0.141272
416	6880912													9.428376	0.003566	2.833090	0.281136	-0.820563	-0.497633	0.003053	-0.517780	0.855508	-0.959663	-0.242033	-0.143062
417	6881079													9.415737	0.058626	2.815867	0.283971	-0.819887	-0.497137	0.002711	-0.517793	0.855502	-0.958829	-0.244286	-0.144816
418	6881246													9.417738	0.074853	2.854155	0.286849	-0.819223	-0.496579	0.002352	-0.517759	0.855523	-0.957973	-0.246574	-0.146591
419	6881412													9.415105	0.055615	2.863773	0.290165	-0.818571	-0.495728	0.001731	-0.517565	0.855642	-0.956975	-0.249136	-0.148762
420	6881579													9.360480	0.007300	2.947439	0.293193	-0.817887	-0.495075	0.001252	-0.517503	0.855680	-0.956052	-0.251499	-0.150705
421	6881746													9.378693	0.037932	2.906193	0.296198	-0.817247	-0.494343	0.000839	-0.517345	0.855777	-0.955126	-0.253894	-0.152551
422	6881912													9.392541	0.061957	2.893755	0.299404	-0.816555	-0.493553	0.000446	-0.517163	0.855887	-0.954126	-0.256476	-0.154476
423	6882079													9.406753	0.076111	2.918426	0.302799	-0.815832	-0.492678	-0.000075	-0.516966	0.856006	-0.953054	-0.259161	-0.156598
424	6882246													9.355528	0.018004	3.044129	0.306325	-0.815046	-0.491798	-0.000518	-0.516777	0.856120	-0.951927	-0.261996	-0.158724
425	6882412													9.351357	0.012755	3.046652	0.309589	-0.814230	-0.491105	-0.000902	-0.516731	0.856147	-0.950870	-0.264611	-0.160709
426	6882579													9.389649	0.042181	3.051329	0.312991	-0.813346	-0.490414	-0.001292	-0.516721	0.856153	-0.949755	-0.267334	-0.162780
427	6882746													9.375423	0.074668	3.069059	0.316735	-0.812350	-0.489660	-0.001814	-0.516757	0.856130	-0.948512	-0.270278	-0.165148
428	6882912													9.321073	0.023366	3.163029	0.320651	-0.811389	-0.488703	-0.002250	-0.516597	0.856226	-0.947195	-0.273450	-0.167473
429	6883079													9.344382	0.001107	3.174671	0.324462	-0.810382	-0.487858	-0.002668	-0.516543	0.856257	-0.945895	-0.276522	-0.169761
430	6883246													9.322845	0.010334	3.186580	0.328413	-0.809309	-0.486994	-0.003116	-0.516517	0.856271	-0.944529	-0.279693	-0.172153
431	6883412													9.302178	0.008512	3.215167	0.332682	-0.808087	-0.486125	-0.003732	-0.516612	0.856212	-0.943032	-0.283032	-0.174883
432	6883579													9.259005	-0.014937	3.262300	0.336928	-0.806896	-0.485178	-0.004303	-0.516622	0.856203	-0.941520	-0.286391	-0.177537
433	6883746													9.276667	-0.026341	3.268038	0.341274	-0.805625	-0.484252	-0.004818	-0.516674	0.856169	-0.939951	-0.289855	-0.180209
434	6883912													9.246300	-0.025830	3.359273	0.345818	-0.804233	-0.483342	-0.005339	-0.516803	0.856088	-0.938286	-0.293470	-0.183013
435	6884079													9.236715	-0.031456	3.428118	0.350306	-0.802816	-0.482465	-0.005971	-0.517008	0.855960	-0.936616	-0.296967	-0.185904
436	6884246													9.241313	-0.045813	3.453624	0.355069	-0.801341	-0.481434	-0.006631	-0.517137	0.855877	-0.934817	-0.300703	-0.188933
437	6884412													9.218674	-0.024578	3.470155	0.359834	-0.799797	-0.480462	-0.007210	-0.517324	0.855759	-0.932989	-0.304467	-0.191917
438	6884579													9.205456	-0.006362	3.513779	0.364714	-0.798175	-0.479480	-0.007893	-0.517582	0.855597	-0.931086	-0.308264	-0.195070
439	6884746													9.159255	-0.077885	3.606916	0.369772	-0.796508	-0.478377	-0.008608	-0.517784	0.855468	-0.929083	-0.312210	-0.198319
440	6884912													9.108187	-0.078846	3.669332	0.374765	-0.794790	-0.477347	-0.009139	-0.518012	0.855324	-0.927075	-0.316183	-0.201397
441	6885079													9.146213	-0.042127	3.703102	0.379660	-0.793040	-0.476388	-0.009673	-0.518319	0.855133	-0.925076	-0.320051	-0.204455
442	6885246													9.089059	-0.088855	3.704617	0.384725	-0.791211	-0.475365	-0.010315	-0.518658	0.854920	-0.922974	-0.324006	-0.207702
443	6885412													9.074790	-0.164681	3.756676	0.389911	-0.789220	-0.474448	-0.011030	-0.519193	0.854586	-0.920787	-0.327979	-0.211144
444	6885579													9.051208	-0.094939	3.864937	0.395225	-0.786961	-0.473804	-0.011395	-0.519958	0.854116	-0.918514	-0.332169	-0.214468
445	6885746													9.035408	-0.016861	3.927721	0.400573	-0.784635	-0.473170	-0.011684	-0.520744	0.853633	-0.916190	-0.336414	-0.217764
446	6885912													8.984529	-0.089115	4.028809	0.406124	-0.782202	-0.472464	-0.012135	-0.521593	0.853108	-0.913737	-0.340735	-0.221324
447	6886079													8.915277	-0.130800	4.084744	0.411420	-0.779916	-0.471662	-0.012639	-0.522320	0.852656	-0.911358	-0.344838	-0.224750
448	6886246													8.906220	-0.128248	4.087004	0.416604	-0.777575	-0.470976	-0.012983	-0.523111	0.852165	-0.908995	-0.348901	-0.228025
449	6886412													8.863861	-0.070094	4.150801	0.421712	-0.775154	-0.470421	-0.013271	-0.524031	0.851596	-0.906633	-0.352885	-0.231278
450	6886579													8.849398	-0.083440	4.190613	0.426693	-0.772870	-0.469686	-0.013630	-0.524773	0.851133	-0.904294	-0.356771	-0.234451
451	6886746													8.855443	-0.126196	4.262265	0.431572	-0.770508	-0.469109	-0.013877	-0.525640	0.850594	-0.901972	-0.360583	-0.237544
452	6886912													8.871480	-0.102695	4.333611	0.436474	-0.768034	-0.468630	-0.014084	-0.526633	0.849976	-0.899607	-0.364392	-0.240679
453	6887079													8.779508	-0.088843	4.349516	0.441484	-0.765397	-0.468251	-0.014282	-0.527790	0.849255	-0.897156	-0.368245	-0.243942
454	6887246													8.759064	-0.147051	4.406301	0.446327	-0.762896	-0.467740	-0.014410	-0.528751	0.848655	-0.894754	-0.372038	-0.246990
455	6887412													8.817373	-0.124086	4.423474	0.451109	-0.760327	-0.467337	-0.014368	-0.529764	0.848023	-0.892353	-0.375837	-0.249906
456	6887579													8.782773	-0.191976	4.511154	0.455779	-0.757751	-0.466988	-0.014467	-0.530889	0.847318	-0.889975	-0.379434	-0.252930
457	6887746													8.799302	-0.221697	4.444606	0.460289	-0.754723	-0.467470	-0.014552	-0.532910	0.846047	-0.887650	-0.382624	-0.256275
458	6887912													8.660689	-0.016215	4.653711	0.465107	-0.751751	-0.467489	-0.014295	-0.534394	0.845115	-0.885139	-0.386386	-0.259297
459	6888079													8.677943	-0.161401	4.558416	0.469707	-0.749067	-0.467199	-0.014367	-0.535626	0.844333	-0.882705	-0.389877	-0.262349
460	6888246													8.671453	-0.178599	4.611041	0.474164	-0.746312	-0.467105	-0.014318	-0.537004	0.843458	-0.880320	-0.393249	-0.265314
461	6888412													8.625040	-0.129531	4.637296	0.478522	-0.743415	-0.467281	-0.013943	-0.538532	0.842490	-0.877965	-0.396634	-0.268065
462	6888579													8.611256	-0.091028	4.726926	0.482813	-0.740467	-0.467547	-0.013536	-0.540144	0.841464	-0.875619	-0.399941	-0.270811
463	6888746													8.572425	-0.109815	4.798499	0.486927	-0.737872	-0.467383	-0.013400	-0.541353	0.840689	-0.873340	-0.403091	-0.273487
464	6888912													8.540117	-0.163796	4.824353	0.491080	-0.735241	-0.467183	-0.013256	-0.542551	0.839919	-0.871013	-0.406275	-0.276182
465	6889079													8.546876	-0.115913	4.824455	0.495198	-0.732531	-0.467094	-0.012914	-0.543791	0.839121	-0.868684	-0.409499	-0.278744
466	6889246													8.553124	-0.095056	4.879590	0.499247	-0.729833	-0.467007	-0.012452	-0.544971	0.838363	-0.866370	-0.412735	-0.281163
467	6889412													8.513371	-0.096713	4.922304	0.503291	-0.727052	-0.467004	-0.011912	-0.546227	0.837552	-0.864035	-0.415969	-0.283572
468	6889579													8.476262	-0.087089	4.960548	0.507391	-0.724238	-0.466942	-0.011366	-0.547452	0.836760	-0.861641	-0.419257	-0.286003
469	6889746													8.441474	-0.092428	5.004885	0.511493	-0.721420	-0.466828	-0.010808	-0.548632	0.835994	-0.859220	-0.422559	-0.288419
470	6889912													8.437335	-0.054748	5.032276	0.515623	-0.718522	-0.466754	-0.010161	-0.549843	0.835206	-0.856756	-0.425908	-0.290813
471	6890079													8.404553	-0.062461	5.083818	0.519793	-0.715641	-0.466554	-0.009523	-0.550950	0.834484	-0.854239	-0.429316	-0.293195
472	6890246													8.393245	-0.054588	5.114015	0.523965	-0.712759	-0.466299	-0.008867	-0.552002	0.833796	-0.851693	-0.432745	-0.295550
473	6890412													8.339561	-0.055152	5.186534	0.528136	-0.709807	-0.466097	-0.008115	-0.553085	0.833085	-0.849121	-0.436200	-0.297864
474	6890579													8.335370	-0.051917	5.185346	0.532240	-0.706954	-0.465765	-0.007328	-0.553990	0.832491	-0.846562	-0.439671	-0.300037
475	6890746													8.313319	-0.061202	5.240915	0.536302	-0.704102	-0.465425	-0.006477	-0.554851	0.831924	-0.844001	-0.443149	-0.302128
476	6890912													8.261250	-0.026344	5.294094	0.540435	-0.701157	-0.465091	-0.005626	-0.555766	0.831319	-0.841367	-0.446657	-0.304300
477	6891079													8.247654	-0.079623	5.328597	0.544548	-0.698253	-0.464661	-0.004804	-0.556593	0.830771	-0.838716	-0.450163	-0.306446
478	6891246													8.205396	-0.067352	5.359480	0.548680	-0.695221	-0.464347	-0.003875	-0.557526	0.830150	-0.836023	-0.453688	-0.308598
479	6891412													8.182669	-0.027838	5.424558	0.552824	-0.692145	-0.464027	-0.002942	-0.558474	0.829517	-0.833293	-0.457212	-0.310774
480	6891579													8.160178	-0.008201	5.454981	0.556898	-0.689193	-0.463550	-0.002068	-0.559252	0.828995	-0.830579	-0.460707	-0.312871
481	6891746													8.133540	-0.018988	5.477961	0.560925	-0.686283	-0.463011	-0.001220	-0.559966	0.828515	-0.827866	-0.464170	-0.314936
482	6891912													8.091084	-0.001581	5.526295	0.564831	-0.683402	-0.462523	-0.000369	-0.560703	0.828017	-0.825207	-0.467519	-0.316955
483	6892079													8.037354	0.047179	5.604060	0.568499	-0.680665	-0.462065	0.000421	-0.561415	0.827534	-0.822684	-0.470646	-0.318877
484	6892246													8.014601	0.032498	5.650632	0.571704	-0.678263	-0.461644	0.001163	-0.561994	0.827140	-0.820459	-0.473416	-0.320506
485	6892412													8.005323	0.040015	5.681040	0.574185	-0.676369	-0.461343	0.001857	-0.562411	0.826856	-0.818724	-0.475625	-0.321672
486	6892579													8.012320	0.051993	5.678927	0.576099	-0.674777	-0.461287	0.002594	-0.562836	0.826565	-0.817376	-0.477380	-0.322499
487	6892746													7.999916	0.065865	5.656504	0.577598	-0.673450	-0.461352	0.003245	-0.563261	0.826273	-0.816315	-0.478751	-0.323153
488	6892912													7.927471	0.081164	5.694707	0.578840	-0.672335	-0.461422	0.003804	-0.563623	0.826024	-0.815432	-0.479891	-0.323689
489	6893079													7.881031	0.161308	5.744362	0.579969	-0.671226	-0.461619	0.004484	-0.564016	0.825751	-0.814626	-0.480980	-0.324103
490	6893246													7.870222	0.111779	5.731114	0.581067	-0.670338	-0.461528	0.004963	-0.564159	0.825651	-0.813841	-0.482049	-0.324487
491	6893412													7.857174	0.101990	5.781406	0.582070	-0.669681	-0.461217	0.005198	-0.564130	0.825669	-0.813122	-0.482995	-0.324882
492	6893579													7.882084	0.085748	5.777657	0.583015	-0.669122	-0.460835	0.005359	-0.564030	0.825737	-0.812443	-0.483887	-0.325252
493	6893746													7.865841	0.102032	5.790562	0.583927	-0.668643	-0.460375	0.005419	-0.563877	0.825841	-0.811788	-0.484726	-0.325640
494	6893912													7.843177	0.067294	5.810583	0.584834	-0.668217	-0.459843	0.005368	-0.563699	0.825963	-0.811135	-0.485519	-0.326083
495	6894079													7.882316	0.062267	5.828793	0.585730	-0.667790	-0.459322	0.005190	-0.563608	0.826026	-0.810490	-0.486212	-0.326656
496	6894246													7.882820	0.047989	5.854559	0.586717	-0.667283	-0.458798	0.004950	-0.563597	0.826035	-0.809777	-0.486920	-0.327370
497	6894412													7.872984	0.053253	5.856437	0.587852	-0.666649	-0.458267	0.004730	-0.563642	0.826006	-0.808954	-0.487737	-0.328185
498	6894579													7.884361	0.050617	5.835346	0.589198	-0.665868	-0.457674	0.004543	-0.563697	0.825969	-0.807976	-0.488739	-0.329104
499	6894746													7.905477	0.050378	5.813642	0.590743	-0.664976	-0.456979	0.004381	-0.563715	0.825958	-0.806848	-0.489931	-0.330097
500	6894912													7.914546	0.020686	5.809860	0.592444	-0.663944	-0.456277	0.004308	-0.563754	0.825931	-0.805600	-0.491284	-0.331133
501	6895079													7.901554	0.047793	5.873572	0.594193	-0.662777	-0.455698	0.004304	-0.563934	0.825809	-0.804311	-0.492651	-0.332233
502	6895246													7.888564	0.071276	5.847944	0.596066	-0.661394	-0.455262	0.004381	-0.564309	0.825552	-0.802923	-0.494078	-0.333468
503	6895412													7.878947	0.082644	5.829440	0.598051	-0.659955	-0.454746	0.004417	-0.564676	0.825301	-0.801446	-0.495581	-0.334790
504	6895579													7.867541	0.046593	5.842910	0.600144	-0.658417	-0.454218	0.004401	-0.565122	0.824995	-0.799880	-0.497115	-0.336257
505	6895746													7.861266	0.062836	5.849719	0.602342	-0.656687	-0.453813	0.004584	-0.565663	0.824624	-0.798225	-0.498786	-0.337712
506	6895912													7.856386	0.094624	5.879583	0.604646	-0.654950	-0.453258	0.004665	-0.566145	0.824292	-0.796481	-0.500519	-0.339262
507	6896079													7.842737	0.083218	5.923301	0.606988	-0.653227	-0.452615	0.004675	-0.566590	0.823987	-0.794697	-0.502266	-0.340859
508	6896246													7.868151	0.049879	5.956414	0.609265	-0.651634	-0.451851	0.004549	-0.566942	0.823745	-0.792954	-0.503935	-0.342454
509	6896412													7.823519	0.059457	6.017622	0.611451	-0.650067	-0.451155	0.004411	-0.567348	0.823467	-0.791270	-0.505499	-0.344037
510	6896579													7.773888	0.046893	5.998034	0.613610	-0.648526	-0.450441	0.004293	-0.567712	0.823216	-0.789598	-0.507067	-0.345570
511	6896746													7.772545	0.065291	6.008595	0.615758	-0.646951	-0.449773	0.004224	-0.568107	0.822944	-0.787924	-0.508634	-0.347084
512	6896912													7.742066	0.040321	6.048458	0.617947	-0.645382	-0.449025	0.004033	-0.568509	0.822667	-0.786209	-0.510176	-0.348706
513	6897079													7.743973	0.047494	6.095692	0.620101	-0.643789	-0.448342	0.003781	-0.569025	0.822311	-0.784513	-0.511611	-0.350419
514	6897246													7.689049	0.096108	6.199738	0.622071	-0.642207	-0.447881	0.003582	-0.569695	0.821848	-0.782952	-0.512852	-0.352091
515	6897412													7.660869	0.113450	6.244702	0.623792	-0.640668	-0.447692	0.003606	-0.570431	0.821337	-0.781582	-0.513958	-0.353520
516	6897579													7.615640	0.065470	6.260248	0.625249	-0.639312	-0.447598	0.003707	-0.571091	0.820878	-0.780416	-0.514913	-0.354704
517	6897746													7.498271	0.076604	6.256432	0.626462	-0.638048	-0.447705	0.003922	-0.571797	0.820386	-0.779442	-0.515697	-0.355707
518	6897913													7.442822	0.088738	6.257343	0.627562	-0.636804	-0.447937	0.004264	-0.572515	0.819883	-0.778555	-0.516437	-0.356573
519	6898079													7.417511	0.063351	6.263652	0.628644	-0.635712	-0.447970	0.004524	-0.573025	0.819525	-0.777680	-0.517216	-0.357353
520	6898246													7.419316	0.032857	6.237787	0.629653	-0.634664	-0.448039	0.004799	-0.573529	0.819171	-0.776862	-0.517944	-0.358078
521	6898413													7.426128	0.043530	6.282055	0.630606	-0.633638	-0.448151	0.005106	-0.574038	0.818813	-0.776086	-0.518636	-0.358756
522	6898579													7.443184	0.045070	6.285492	0.631435	-0.632782	-0.448193	0.005402	-0.574390	0.818564	-0.775410	-0.519291	-0.359272
523	6898746													7.483401	0.028369	6.249453	0.632160	-0.632090	-0.448148	0.005626	-0.574616	0.818404	-0.774818	-0.519883	-0.359693
524	6898913													7.504932	0.020035	6.288651	0.632764	-0.631388	-0.448283	0.005891	-0.574978	0.818148	-0.774322	-0.520336	-0.360106
525	6899079													7.526374	0.034620	6.280351	0.633311	-0.630759	-0.448398	0.006084	-0.575327	0.817901	-0.773874	-0.520714	-0.360523
526	6899246													7.543286	0.078056	6.312642	0.633848	-0.630248	-0.448358	0.006075	-0.575605	0.817705	-0.773434	-0.521025	-0.361017
527	6899413													7.567991	-0.014373	6.243396	0.634354	-0.629717	-0.448387	0.006130	-0.575914	0.817488	-0.773018	-0.521326	-0.361473
528	6899579													7.558364	0.033173	6.284919	0.634887	-0.629175	-0.448395	0.006181	-0.576212	0.817277	-0.772581	-0.521649	-0.361941
529	6899746													7.602038	0.054038	6.273274	0.635430	-0.628610	-0.448417	0.006278	-0.576507	0.817068	-0.772133	-0.522005	-0.362384
530	6899913													7.613544	0.043000	6.255026	0.636065	-0.628071	-0.448273	0.006259	-0.576720	0.816918	-0.771610	-0.522418	-0.362901
531	6900079													7.572614	0.057786	6.248005	0.636757	-0.627453	-0.448155	0.006245	-0.577001	0.816720	-0.771039	-0.522851	-0.363491
532	6900246													7.626031	0.002884	6.207572	0.637464	-0.626920	-0.447896	0.006142	-0.577168	0.816603	-0.770456	-0.523305	-0.364073
533	6900413													7.626491	0.028114	6.231379	0.638273	-0.626315	-0.447589	0.006008	-0.577358	0.816469	-0.769786	-0.523820	-0.364749
534	6900579													7.580308	0.104672	6.232581	0.639144	-0.625555	-0.447410	0.005998	-0.577670	0.816249	-0.769064	-0.524383	-0.365462
535	6900746													7.607806	0.043029	6.236626	0.640092	-0.624807	-0.447100	0.005948	-0.577888	0.816094	-0.768275	-0.525034	-0.366186
536	6900913													7.555418	0.030050	6.282442	0.641090	-0.623848	-0.447009	0.006024	-0.578340	0.815773	-0.767442	-0.525677	-0.367010
537	6901079													7.561262	0.025617	6.311049	0.642158	-0.622865	-0.446847	0.006076	-0.578762	0.815474	-0.766548	-0.526379	-0.367872
538	6901246													7.535021	0.111433	6.285083	0.643239	-0.621821	-0.446745	0.006175	-0.579241	0.815133	-0.765640	-0.527084	-0.368751
539	6901413													7.518892	0.077162	6.310328	0.644393	-0.620813	-0.446485	0.006197	-0.579614	0.814867	-0.764669	-0.527862	-0.369652
540	6901579													7.522866	0.050801	6.301788	0.645665	-0.619740	-0.446138	0.006163	-0.579992	0.814599	-0.763596	-0.528708	-0.370661
541	6901746													7.527401	0.053916	6.311168	0.647026	-0.618500	-0.445887	0.006111	-0.580569	0.814188	-0.762443	-0.529526	-0.371863
542	6901913													7.520696	0.072564	6.333858	0.648462	-0.617202	-0.445599	0.005977	-0.581208	0.813733	-0.761223	-0.530338	-0.373202
543	6902079													7.512592	0.094830	6.375785	0.649995	-0.615879	-0.445196	0.005703	-0.581862	0.813268	-0.759917	-0.531159	-0.374695
544	6902246													7.494766	0.086521	6.393024	0.651556	-0.614499	-0.444821	0.005325	-0.582651	0.812705	-0.758582	-0.531891	-0.376357
545	6902413													7.450961	0.115269	6.413470	0.653171	-0.613136	-0.444334	0.004870	-0.583390	0.812178	-0.757195	-0.532655	-0.378067
546	6902579													7.459527	0.110197	6.429966	0.654814	-0.611900	-0.443619	0.004318	-0.583922	0.811798	-0.755778	-0.533492	-0.379718
547	6902746													7.413036	0.049435	6.430553	0.656522	-0.610655	-0.442809	0.003770	-0.584377	0.811474	-0.754297	-0.534420	-0.381354
548	6902913													7.386965	0.059177	6.417785	0.658198	-0.609443	-0.441989	0.003272	-0.584770	0.811192	-0.752838	-0.535371	-0.382900
549	6903079													7.401004	0.037403	6.431249	0.659861	-0.608284	-0.441106	0.002791	-0.585067	0.810980	-0.751383	-0.536365	-0.384365
550	6903246													7.372348	0.058807	6.431435	0.661492	-0.607036	-0.440382	0.002491	-0.585431	0.810719	-0.749948	-0.537381	-0.385745
551	6903413													7.323216	0.109009	6.518561	0.663048	-0.605738	-0.439828	0.002356	-0.585861	0.810408	-0.748573	-0.538376	-0.387027
552	6903579													7.341223	0.053209	6.529895	0.664504	-0.604633	-0.439151	0.002202	-0.586075	0.810254	-0.747281	-0.539384	-0.388118
553	6903746													7.313816	0.003990	6.542376	0.665846	-0.603540	-0.438620	0.002147	-0.586340	0.810062	-0.746086	-0.540319	-0.389117
554	6903913													7.290822	0.054661	6.580981	0.667090	-0.602501	-0.438158	0.002126	-0.586608	0.809868	-0.744974	-0.541187	-0.390039
555	6904079													7.308556	0.059084	6.575321	0.668191	-0.601645	-0.437658	0.002097	-0.586732	0.809778	-0.743987	-0.542004	-0.390788
556	6904246													7.280420	0.064278	6.569053	0.669198	-0.600845	-0.437218	0.002083	-0.586864	0.809683	-0.743082	-0.542749	-0.391476
557	6904413													7.285414	0.062844	6.616540	0.670124	-0.600106	-0.436814	0.002042	-0.587007	0.809579	-0.742246	-0.543411	-0.392142
558	6904579													7.266688	0.060458	6.633466	0.670972	-0.599417	-0.436458	0.001996	-0.587166	0.809464	-0.741480	-0.543999	-0.392775
559	6904746													7.244018	0.018008	6.653131	0.671707	-0.598803	-0.436170	0.002014	-0.587292	0.809373	-0.740814	-0.544540	-0.393282
560	6904913													7.235587	0.052821	6.636717	0.672400	-0.598192	-0.435941	0.002083	-0.587428	0.809274	-0.740185	-0.545064	-0.393740
561	6905079													7.243046	0.051908	6.626122	0.673124	-0.597558	-0.435692	0.002177	-0.587544	0.809189	-0.739526	-0.545634	-0.394189
562	6905246													7.231886	0.017919	6.654015	0.673838	-0.596940	-0.435438	0.002305	-0.587620	0.809134	-0.738876	-0.546228	-0.394584
563	6905413													7.229396	-0.001326	6.628880	0.674596	-0.596267	-0.435185	0.002445	-0.587723	0.809059	-0.738183	-0.546852	-0.395017
564	6905579													7.227006	0.022214	6.647933	0.675386	-0.595541	-0.434954	0.002586	-0.587880	0.808944	-0.737460	-0.547474	-0.395506
565	6905746													7.199955	0.020612	6.647145	0.676210	-0.594728	-0.434786	0.002852	-0.588056	0.808815	-0.736703	-0.548169	-0.395953
566	6905913													7.232841	0.008307	6.654201	0.677110	-0.593884	-0.434539	0.003153	-0.588154	0.808743	-0.735875	-0.548978	-0.396372
567	6906079													7.230408	0.007055	6.667681	0.678002	-0.593052	-0.434285	0.003433	-0.588254	0.808669	-0.735052	-0.549770	-0.396801
568	6906246													7.197093	0.034697	6.686317	0.678927	-0.592260	-0.433919	0.003684	-0.588249	0.808671	-0.734196	-0.550627	-0.397197
569	6906413													7.213514	0.052095	6.655142	0.679900	-0.591466	-0.433480	0.003914	-0.588196	0.808709	-0.733295	-0.551538	-0.397599
570	6906579													7.219559	0.014195	6.690903	0.680792	-0.590751	-0.433053	0.004099	-0.588136	0.808752	-0.732465	-0.552367	-0.397977
571	6906746													7.183711	0.024608	6.695900	0.681623	-0.590064	-0.432684	0.004287	-0.588107	0.808772	-0.731691	-0.553132	-0.398338
572	6906913													7.190426	0.060367	6.700612	0.682383	-0.589428	-0.432351	0.004499	-0.588058	0.808806	-0.730981	-0.553861	-0.398629
573	6907079													7.168564	0.051609	6.741632	0.683065	-0.588921	-0.431964	0.004708	-0.587880	0.808935	-0.730342	-0.554589	-0.398788
574	6907246													7.162315	0.031615	6.721592	0.683667	-0.588349	-0.431792	0.005035	-0.587846	0.808957	-0.729777	-0.555232	-0.398928
575	6907413													7.167053	0.044800	6.680225	0.684181	-0.587992	-0.431465	0.005188	-0.587667	0.809086	-0.729294	-0.555799	-0.399020
576	6907579													7.152046	0.032082	6.704893	0.684730	-0.587586	-0.431146	0.005356	-0.587513	0.809197	-0.728777	-0.556391	-0.399141
577	6907746													7.165070	0.090976	6.762929	0.685259	-0.587219	-0.430807	0.005533	-0.587310	0.809343	-0.728279	-0.556993	-0.399210
578	6907913													7.151365	0.053979	6.778466	0.685763	-0.586843	-0.430516	0.005738	-0.587133	0.809470	-0.727802	-0.557575	-0.399267
579	6908079													7.109787	0.087886	6.754170	0.686150	-0.586499	-0.430368	0.005964	-0.587049	0.809530	-0.727436	-0.558026	-0.399306
580	6908246													7.092481	0.070316	6.778470	0.686462	-0.586296	-0.430147	0.006133	-0.586851	0.809672	-0.727139	-0.558447	-0.399256
581	6908413													7.063832	0.052425	6.744068	0.686703	-0.586087	-0.430049	0.006382	-0.586705	0.809775	-0.726911	-0.558819	-0.399151
582	6908579													7.072673	0.053488	6.747714	0.686946	-0.585752	-0.430116	0.006802	-0.586660	0.809805	-0.726677	-0.559218	-0.399019
583	6908746													7.058148	0.065571	6.823458	0.687094	-0.585350	-0.430427	0.007403	-0.586739	0.809742	-0.726531	-0.559555	-0.398812
584	6908913													7.077687	0.083890	6.799788	0.687179	-0.584843	-0.430980	0.008232	-0.586931	0.809595	-0.726442	-0.559885	-0.398512
585	6909079													7.058406	0.100508	6.833230	0.687217	-0.584285	-0.431676	0.009146	-0.587219	0.809376	-0.726395	-0.560165	-0.398203
586	6909246													7.078915	0.181067	6.818260	0.687165	-0.583967	-0.432188	0.009907	-0.587303	0.809307	-0.726434	-0.560409	-0.397789
587	6909413													7.097220	0.146986	6.792565	0.687020	-0.584064	-0.432288	0.010266	-0.587054	0.809483	-0.726566	-0.560568	-0.397322
588	6909579													7.105277	0.129791	6.784217	0.686833	-0.584266	-0.432312	0.010484	-0.586776	0.809681	-0.726740	-0.560648	-0.396892
589	6909746													7.106313	0.146240	6.804349	0.686503	-0.584539	-0.432467	0.010652	-0.586612	0.809798	-0.727049	-0.560536	-0.396484
590	6909913													7.105573	0.106754	6.793059	0.686025	-0.585054	-0.432529	0.010705	-0.586296	0.810026	-0.727499	-0.560328	-0.395951
591	6910079													7.084943	0.104007	6.745289	0.685455	-0.585581	-0.432720	0.010798	-0.586061	0.810195	-0.728035	-0.560025	-0.395395
592	6910246													7.119858	0.070198	6.756492	0.684744	-0.586276	-0.432904	0.010763	-0.585809	0.810378	-0.728704	-0.559561	-0.394819
593	6910413													7.129572	0.121432	6.721232	0.683887	-0.587001	-0.433277	0.010798	-0.585656	0.810488	-0.729508	-0.558960	-0.394184
594	6910579													7.101929	0.224073	6.767494	0.682915	-0.587779	-0.433755	0.010874	-0.585535	0.810574	-0.730417	-0.558270	-0.393479
595	6910746													7.134514	0.168324	6.743267	0.681883	-0.588861	-0.433910	0.010623	-0.585175	0.810838	-0.731384	-0.557506	-0.392765
596	6910913													7.148498	0.110618	6.694587	0.680711	-0.590227	-0.433895	0.010157	-0.584644	0.811226	-0.732482	-0.556618	-0.391979
597	6911079													7.195236	0.059967	6.628539	0.679518	-0.591657	-0.433817	0.009631	-0.584061	0.811652	-0.733595	-0.555711	-0.391182
598	6911246													7.208107	0.072524	6.689955	0.678148	-0.593018	-0.434101	0.009335	-0.583677	0.811933	-0.734866	-0.554663	-0.390284
599	6911413													7.165719	0.150778	6.658254	0.676658	-0.594434	-0.434490	0.009030	-0.583358	0.812165	-0.736242	-0.553482	-0.389366
600	6911579													7.210989	0.140233	6.604445	0.675168	-0.595839	-0.434883	0.008779	-0.583009	0.812418	-0.737611	-0.552337	-0.388398
601	6911746													7.203188	0.063116	6.570001	0.673608	-0.597208	-0.435425	0.008625	-0.582746	0.812609	-0.739038	-0.551136	-0.387391
602	6911913													7.274843	0.114112	6.571448	0.671948	-0.598520	-0.436187	0.008580	-0.582635	0.812688	-0.740548	-0.549827	-0.386366
603	6912079													7.240606	0.135529	6.646520	0.670128	-0.599953	-0.437017	0.008570	-0.582484	0.812797	-0.742196	-0.548424	-0.385197
604	6912246													7.268689	0.129487	6.609273	0.668215	-0.601527	-0.437784	0.008479	-0.582248	0.812967	-0.743920	-0.546949	-0.383966
605	6912413													7.268985	0.078988	6.556968	0.666281	-0.603260	-0.438346	0.008199	-0.581869	0.813241	-0.745656	-0.545441	-0.382742
606	6912579													7.322315	0.072073	6.522559	0.664362	-0.604984	-0.438882	0.007927	-0.581468	0.813531	-0.747369	-0.543958	-0.381509
607	6912746													7.321449	0.057957	6.529886	0.662309	-0.606800	-0.439477	0.007609	-0.581093	0.813801	-0.749192	-0.542332	-0.380246
608	6912913													7.352898	0.049053	6.544622	0.660220	-0.608601	-0.440130	0.007285	-0.580786	0.814023	-0.751037	-0.540641	-0.379013
609	6913079													7.323422	0.041708	6.523433	0.658109	-0.610343	-0.440878	0.006976	-0.580587	0.814168	-0.752890	-0.538887	-0.377833
610	6913246													7.335553	0.068852	6.428846	0.656107	-0.611900	-0.441702	0.006718	-0.580535	0.814208	-0.754638	-0.537175	-0.376782
611	6913413													7.414464	0.091401	6.417028	0.654294	-0.613374	-0.442347	0.006380	-0.580432	0.814284	-0.756213	-0.535603	-0.375860
612	6913579													7.453894	0.042009	6.411763	0.652406	-0.614963	-0.442930	0.005954	-0.580264	0.814406	-0.757846	-0.533961	-0.374907
613	6913746													7.466547	0.032342	6.461929	0.650416	-0.616557	-0.443639	0.005656	-0.580113	0.814517	-0.759557	-0.532284	-0.373827
614	6913913													7.434528	0.076488	6.419326	0.648439	-0.618122	-0.444356	0.005366	-0.579981	0.814613	-0.761248	-0.530611	-0.372765
615	6914079													7.418352	0.067629	6.333284	0.646563	-0.619669	-0.444934	0.004967	-0.579812	0.814735	-0.762844	-0.528987	-0.371807
616	6914246													7.474669	0.047022	6.258987	0.644859	-0.621088	-0.445429	0.004527	-0.579678	0.814833	-0.764288	-0.527469	-0.370998
617	6914413													7.540689	0.073690	6.306613	0.643255	-0.622420	-0.445890	0.004169	-0.579510	0.814955	-0.765641	-0.526082	-0.370178
618	6914580													7.530621	0.092165	6.325680	0.641688	-0.623731	-0.446314	0.003893	-0.579265	0.815130	-0.766956	-0.524797	-0.369279
619	6914746													7.541300	0.073570	6.280366	0.640203	-0.625108	-0.446520	0.003482	-0.578884	0.815403	-0.768198	-0.523578	-0.368427
620	6914913													7.538397	0.048878	6.247572	0.638727	-0.626573	-0.446580	0.002975	-0.578385	0.815759	-0.769427	-0.522376	-0.367566
621	6915080													7.581610	0.028122	6.214486	0.637159	-0.628030	-0.446773	0.002609	-0.577913	0.816094	-0.770728	-0.521147	-0.366584
622	6915246													7.598900	0.036634	6.261647	0.635551	-0.629508	-0.446984	0.002289	-0.577411	0.816450	-0.772055	-0.519919	-0.365534
623	6915413													7.587373	0.064940	6.217371	0.633835	-0.631034	-0.447269	0.001983	-0.576937	0.816787	-0.773466	-0.518594	-0.364431
624	6915580													7.601423	0.046738	6.181681	0.632162	-0.632593	-0.447433	0.001661	-0.576348	0.817203	-0.774834	-0.517348	-0.363295
625	6915746													7.630761	0.041598	6.193820	0.630527	-0.634207	-0.447457	0.001268	-0.575653	0.817693	-0.776166	-0.516145	-0.362160
626	6915913													7.638869	0.027314	6.194281	0.628938	-0.635965	-0.447198	0.000701	-0.574743	0.818334	-0.777455	-0.514995	-0.361032
627	6916080													7.646064	-0.018070	6.155342	0.627385	-0.637692	-0.446919	0.000112	-0.573849	0.818961	-0.778709	-0.513854	-0.359953
628	6916246													7.656283	-0.013591	6.160470	0.625871	-0.639338	-0.446690	-0.000514	-0.573072	0.819505	-0.779927	-0.512675	-0.358997
629	6916413													7.651583	-0.018178	6.127666	0.624377	-0.640975	-0.446435	-0.001189	-0.572309	0.820038	-0.781122	-0.511482	-0.358098
630	6916580													7.703891	-0.046176	6.126276	0.622889	-0.642385	-0.446487	-0.001650	-0.571806	0.820387	-0.782308	-0.510274	-0.357231
631	6916746													7.685266	-0.001767	6.155125	0.621311	-0.643914	-0.446484	-0.002187	-0.571234	0.820784	-0.783561	-0.508985	-0.356323
632	6916913													7.697562	-0.083608	6.124888	0.619600	-0.645594	-0.446435	-0.002804	-0.570584	0.821234	-0.784913	-0.507585	-0.355344
633	6917080													7.720098	-0.092497	6.062155	0.617804	-0.647190	-0.446612	-0.003327	-0.570116	0.821558	-0.786325	-0.506076	-0.354373
634	6917246													7.688554	-0.009770	6.056072	0.616030	-0.648565	-0.447069	-0.003560	-0.569833	0.821753	-0.787714	-0.504633	-0.353343
635	6917413													7.719144	-0.011678	6.074268	0.614298	-0.650015	-0.447346	-0.004012	-0.569491	0.821988	-0.789064	-0.503151	-0.352445
636	6917580													7.741509	-0.056334	6.027776	0.612472	-0.651552	-0.447613	-0.004587	-0.569166	0.822210	-0.790479	-0.501527	-0.351587
637	6917746													7.774164	-0.071060	6.062094	0.610557	-0.653194	-0.447837	-0.005220	-0.568777	0.822475	-0.791955	-0.499830	-0.350681
638	6917913													7.764876	-0.061460	6.057702	0.608524	-0.654976	-0.448001	-0.005743	-0.568183	0.822882	-0.793515	-0.498170	-0.349515
639	6918080													7.773537	-0.041835	5.986017	0.606350	-0.656916	-0.448108	-0.006268	-0.567448	0.823385	-0.795173	-0.496451	-0.348189
640	6918246													7.813746	-0.046774	5.959390	0.604137	-0.658878	-0.448217	-0.006811	-0.566713	0.823887	-0.796852	-0.494688	-0.346859
641	6918413													7.832089	-0.056824	5.931822	0.601913	-0.660775	-0.448416	-0.007300	-0.566060	0.824332	-0.798528	-0.492903	-0.345543
642	6918580													7.820414	-0.050963	5.889557	0.599679	-0.662714	-0.448549	-0.007875	-0.565377	0.824795	-0.800202	-0.491079	-0.344264
643	6918746													7.848176	-0.039093	5.896316	0.597420	-0.664668	-0.448671	-0.008419	-0.564657	0.825283	-0.801884	-0.489263	-0.342934
644	6918913													7.883583	-0.000445	5.848940	0.595189	-0.666686	-0.448642	-0.008989	-0.563789	0.825870	-0.803535	-0.487516	-0.341554
645	6919080													7.935511	-0.014276	5.809886	0.592914	-0.668741	-0.448596	-0.009601	-0.562909	0.826463	-0.805208	-0.485715	-0.340178
646	6919246													7.929426	-0.060873	5.802909	0.590511	-0.671028	-0.448350	-0.010301	-0.561778	0.827224	-0.806964	-0.483866	-0.338648
647	6919413													7.927953	-0.136194	5.794482	0.588072	-0.673272	-0.448193	-0.010979	-0.560733	0.827924	-0.808734	-0.481958	-0.337143
648	6919580													7.928269	-0.118265	5.788372	0.585544	-0.675424	-0.448263	-0.011465	-0.559819	0.828536	-0.810559	-0.480005	-0.335542
649	6919746													7.946826	-0.098574	5.736506	0.582910	-0.677619	-0.448384	-0.011983	-0.558942	0.829120	-0.812448	-0.477930	-0.333933
650	6919913													7.967022	-0.115809	5.706448	0.580205	-0.679865	-0.448494	-0.012609	-0.558089	0.829685	-0.814373	-0.475732	-0.332378
651	6920080													7.992429	-0.167659	5.712149	0.577363	-0.682090	-0.448782	-0.013087	-0.557310	0.830201	-0.816383	-0.473454	-0.330697
652	6920246													8.028662	-0.129143	5.686476	0.574535	-0.684136	-0.449297	-0.013440	-0.556752	0.830570	-0.818369	-0.471153	-0.329068
653	6920413													8.021293	-0.135430	5.632878	0.571678	-0.686197	-0.449798	-0.013723	-0.556134	0.830979	-0.820363	-0.468880	-0.327347
654	6920580													8.016912	-0.119267	5.637771	0.568850	-0.688226	-0.450283	-0.014166	-0.555613	0.831320	-0.822319	-0.466517	-0.325810
655	6920746													8.083529	-0.144436	5.596798	0.565861	-0.690328	-0.450832	-0.014481	-0.555030	0.831704	-0.824374	-0.464100	-0.324067
656	6920913													8.100313	-0.117718	5.592285	0.562889	-0.692482	-0.451247	-0.014784	-0.554300	0.832186	-0.826400	-0.461757	-0.322247
657	6921080													8.125349	-0.163381	5.504865	0.559973	-0.694555	-0.451690	-0.015338	-0.553780	0.832522	-0.828369	-0.459262	-0.320755
658	6921246													8.142781	-0.258299	5.470580	0.556873	-0.696660	-0.452280	-0.015746	-0.553280	0.832846	-0.830448	-0.456668	-0.319077
659	6921413													8.140169	-0.131967	5.503111	0.553660	-0.698556	-0.453299	-0.015660	-0.552982	0.833046	-0.832595	-0.454126	-0.317104
660	6921580													8.176014	-0.081351	5.477019	0.550456	-0.700533	-0.454149	-0.015707	-0.552573	0.833317	-0.834716	-0.451571	-0.315170
661	6921746													8.204409	-0.138692	5.415345	0.547219	-0.702657	-0.454779	-0.016196	-0.552138	0.833595	-0.836833	-0.448794	-0.313520
662	6921913													8.123757	-0.187294	5.427290	0.543786	-0.704957	-0.455337	-0.016619	-0.551508	0.834004	-0.839059	-0.445952	-0.311618
663	6922080													8.204591	-0.197564	5.331300	0.540131	-0.707307	-0.456042	-0.016815	-0.550849	0.834435	-0.841413	-0.443036	-0.309424
664	6922246													8.198884	-0.148060	5.331639	0.536339	-0.709689	-0.456816	-0.016881	-0.550162	0.834887	-0.843834	-0.440071	-0.307054
665	6922413													8.247149	-0.125639	5.282127	0.532372	-0.712048	-0.457785	-0.016894	-0.549620	0.835244	-0.846342	-0.436927	-0.304632
666	6922580													8.235968	-0.152005	5.235271	0.528555	-0.714438	-0.458485	-0.017158	-0.548974	0.835663	-0.848726	-0.433827	-0.302421
667	6922746													8.280601	-0.184141	5.204858	0.524277	-0.717250	-0.459005	-0.017324	-0.547897	0.836367	-0.851371	-0.430536	-0.299675
668	6922913													8.295517	-0.178379	5.179025	0.519819	-0.720099	-0.459615	-0.017414	-0.546837	0.837058	-0.854099	-0.427114	-0.296796
669	6923080													8.241666	0.010245	5.099027	0.515615	-0.722773	-0.460153	-0.016762	-0.545453	0.837974	-0.856657	-0.424358	-0.293359
670	6923246													8.488380	-0.287248	5.139369	0.510110	-0.727299	-0.459156	-0.017602	-0.542550	0.839839	-0.859929	-0.420328	-0.289562
671	6923413													8.526563	-0.290460	4.957796	0.505065	-0.729806	-0.460752	-0.017554	-0.542421	0.839923	-0.862903	-0.416128	-0.286769
672	6923580													8.372096	-0.132526	5.041958	0.499663	-0.732572	-0.462250	-0.017389	-0.542016	0.840188	-0.866045	-0.411773	-0.283564
673	6923746													8.481816	-0.162806	4.929156	0.493871	-0.735587	-0.463685	-0.017358	-0.541490	0.840528	-0.869362	-0.407064	-0.280194
674	6923913													8.504296	-0.233021	4.847959	0.487432	-0.738720	-0.465513	-0.017354	-0.541227	0.840698	-0.872988	-0.401705	-0.276631
675	6924080													8.540217	-0.214340	4.804748	0.480429	-0.741755	-0.467961	-0.017093	-0.541390	0.840598	-0.876867	-0.395849	-0.272779
676	6924246													8.673385	-0.128125	4.597289	0.473741	-0.744597	-0.470260	-0.016671	-0.541470	0.840555	-0.880506	-0.390366	-0.268930
677	6924413													8.729611	-0.142758	4.578746	0.468218	-0.747051	-0.471897	-0.016478	-0.541343	0.840640	-0.883459	-0.385828	-0.265776
678	6924580													8.600801	-0.133683	4.645909	0.462714	-0.749536	-0.473383	-0.016410	-0.541136	0.840775	-0.886356	-0.381270	-0.262691
679	6924746													8.734504	-0.177569	4.504192	0.456772	-0.752280	-0.474798	-0.016315	-0.540725	0.841041	-0.889434	-0.376418	-0.259262
680	6924913													8.812576	-0.141568	4.401096	0.451120	-0.754688	-0.476379	-0.016068	-0.540562	0.841151	-0.892319	-0.371805	-0.255984
681	6925080													8.769551	-0.125201	4.381030	0.445699	-0.756988	-0.477830	-0.015787	-0.540343	0.841297	-0.895044	-0.367422	-0.252781
682	6925246													8.823541	-0.153707	4.312346	0.440231	-0.759275	-0.479269	-0.015458	-0.540106	0.841455	-0.897752	-0.363026	-0.249508
683	6925413													8.894404	-0.162725	4.285510	0.434972	-0.761348	-0.480779	-0.015143	-0.540045	0.841500	-0.900317	-0.358748	-0.246434
684	6925580													8.854367	-0.085253	4.248407	0.429761	-0.763340	-0.482304	-0.014847	-0.540048	0.841503	-0.902821	-0.354484	-0.243425
685	6925746													8.862718	-0.113643	4.195058	0.424478	-0.765505	-0.483550	-0.014651	-0.539787	0.841674	-0.905320	-0.350188	-0.240343
686	6925913													8.933859	-0.123528	4.130581	0.419147	-0.767707	-0.484708	-0.014393	-0.539418	0.841915	-0.907804	-0.345910	-0.237145
687	6926080													8.962127	-0.088921	4.070284	0.413920	-0.769893	-0.485732	-0.014158	-0.538967	0.842208	-0.910203	-0.341729	-0.233990
688	6926246													8.972753	-0.128561	4.045151	0.408779	-0.772090	-0.486597	-0.014001	-0.538422	0.842559	-0.912526	-0.337608	-0.230906
689	6926413													8.968185	-0.143065	3.972763	0.403592	-0.774268	-0.487465	-0.013786	-0.537870	0.842915	-0.914835	-0.333474	-0.227754
690	6926580													9.008404	-0.127025	3.927507	0.398387	-0.776386	-0.488377	-0.013477	-0.537353	0.843250	-0.917118	-0.329358	-0.224537
691	6926746													9.064291	-0.145093	3.856642	0.393129	-0.778454	-0.489346	-0.013139	-0.536898	0.843545	-0.919389	-0.325193	-0.221298
692	6926913													9.064546	-0.135510	3.798102	0.387960	-0.780412	-0.490351	-0.012751	-0.536515	0.843795	-0.921588	-0.321107	-0.218097
693	6927080													9.044837	-0.100163	3.755986	0.382822	-0.782275	-0.491419	-0.012344	-0.536225	0.843985	-0.923739	-0.317030	-0.214935
694	6927246													9.069915	-0.126243	3.729187	0.377557	-0.784161	-0.492486	-0.011882	-0.535909	0.844192	-0.925910	-0.312879	-0.211654
695	6927413													9.117523	-0.134642	3.675780	0.372208	-0.786008	-0.493612	-0.011305	-0.535624	0.844381	-0.928080	-0.308706	-0.208249
696	6927580													9.142797	-0.080597	3.590392	0.366951	-0.787749	-0.494771	-0.010710	-0.535417	0.844520	-0.930179	-0.304598	-0.204908
697	6927746													9.128490	-0.098261	3.566036	0.361755	-0.789556	-0.495716	-0.010217	-0.535054	0.844756	-0.932217	-0.300530	-0.201625
698	6927913													9.150084	-0.132254	3.511853	0.356517	-0.791345	-0.496657	-0.009689	-0.534692	0.844992	-0.934238	-0.296442	-0.198295
699	6928080													9.222913	-0.098323	3.437842	0.351333	-0.793025	-0.497671	-0.009051	-0.534410	0.845177	-0.936207	-0.292434	-0.194934
700	6928246													9.196602	-0.099520	3.409415	0.346239	-0.794654	-0.498642	-0.008486	-0.534149	0.845348	-0.938108	-0.288460	-0.191687
701	6928413													9.226727	-0.132468	3.331705	0.340990	-0.796264	-0.499690	-0.008079	-0.534010	0.845440	-0.940032	-0.284249	-0.188525
702	6928580													9.244813	-0.149933	3.283344	0.335760	-0.797683	-0.500967	-0.007612	-0.534122	0.845373	-0.941917	-0.280029	-0.185409
703	6928746													9.283591	-0.066401	3.245518	0.330501	-0.798837	-0.502621	-0.006830	-0.534557	0.845105	-0.943781	-0.275875	-0.182128
704	6928913													9.318043	-0.022758	3.229653	0.325351	-0.799877	-0.504324	-0.006057	-0.535094	0.844771	-0.945574	-0.271792	-0.178938
705	6929080													9.293324	-0.026484	3.197783	0.320067	-0.800984	-0.505946	-0.005545	-0.535614	0.844445	-0.947379	-0.267473	-0.175874
706	6929246													9.308460	-0.065115	3.147200	0.314793	-0.802128	-0.507441	-0.005124	-0.536049	0.844171	-0.949147	-0.263139	-0.172854
707	6929413													9.336074	-0.054341	3.110130	0.309677	-0.803124	-0.509011	-0.004683	-0.536608	0.843819	-0.950830	-0.258928	-0.169936
708	6929580													9.346161	0.023980	3.036748	0.304591	-0.804073	-0.510580	-0.004271	-0.537198	0.843445	-0.952474	-0.254725	-0.167059
709	6929746													9.352839	0.029233	2.944045	0.299361	-0.805090	-0.512067	-0.004000	-0.537734	0.843105	-0.954132	-0.250344	-0.164197
710	6929913													9.403965	-0.034674	2.857832	0.294175	-0.806212	-0.513307	-0.003777	-0.538048	0.842906	-0.955744	-0.246023	-0.161326
711	6930080													9.433477	-0.037350	2.803983	0.289393	-0.807270	-0.514360	-0.003548	-0.538254	0.842775	-0.957204	-0.242068	-0.158631
712	6930246													9.464275	0.019905	2.788220	0.284779	-0.808324	-0.515280	-0.003272	-0.538355	0.842712	-0.958587	-0.238301	-0.155957
713	6930413													9.495732	0.031782	2.714214	0.280293	-0.809399	-0.516052	-0.003065	-0.538354	0.842713	-0.959910	-0.234625	-0.153377
714	6930580													9.490685	0.019878	2.639252	0.275795	-0.810315	-0.517035	-0.002918	-0.538600	0.842556	-0.961212	-0.230865	-0.150908
715	6930746													9.503009	-0.014340	2.668086	0.271359	-0.811259	-0.517903	-0.002740	-0.538742	0.842466	-0.962474	-0.227192	-0.148415
716	6930913													9.489824	0.006655	2.627200	0.267103	-0.812216	-0.518614	-0.002464	-0.538741	0.842468	-0.963665	-0.223748	-0.145901
717	6931080													9.470492	0.013813	2.591405	0.262815	-0.813306	-0.519097	-0.002210	-0.538516	0.842613	-0.964844	-0.220304	-0.143328
718	6931247													9.513778	-0.027417	2.471509	0.258472	-0.814390	-0.519578	-0.002023	-0.538311	0.842744	-0.966017	-0.216774	-0.140785
719	6931413													9.560009	-0.013400	2.433916	0.254277	-0.815334	-0.520167	-0.001650	-0.538210	0.842809	-0.967130	-0.213449	-0.138200
720	6931580													9.593975	0.033374	2.459409	0.250351	-0.816127	-0.520827	-0.001155	-0.538210	0.842810	-0.968154	-0.210397	-0.135684
721	6931747													9.518156	0.011276	2.428498	0.246688	-0.816975	-0.521245	-0.000850	-0.538050	0.842912	-0.969094	-0.207494	-0.133425
722	6931913													9.521332	-0.001254	2.375598	0.242886	-0.817907	-0.521570	-0.000683	-0.537815	0.843063	-0.970055	-0.204412	-0.131186
723	6932247													9.611716	-0.012795	2.189480	0.235692	-0.819452	-0.522444	-0.000163	-0.537623	0.843186	-0.971828	-0.198647	-0.126847
724	6932413													9.603051	0.003051	2.237016	0.232577	-0.820011	-0.522963	0.000181	-0.537671	0.843155	-0.972578	-0.196193	-0.124901
725	6932580													9.589931	0.039178	2.224623	0.229659	-0.820473	-0.523527	0.000453	-0.537815	0.843063	-0.973271	-0.193854	-0.123142
726	6932747													9.599951	0.058154	2.223279	0.226834	-0.821006	-0.523922	0.000617	-0.537823	0.843057	-0.973933	-0.191558	-0.121490
727	6932913													9.630066	0.024426	2.154731	0.224132	-0.821524	-0.524274	0.000758	-0.537813	0.843064	-0.974559	-0.189355	-0.119918
728	6933080													9.609661	0.066771	2.110883	0.221553	-0.822061	-0.524528	0.000911	-0.537721	0.843123	-0.975148	-0.187274	-0.118384
729	6933247													9.642122	0.050773	2.072931	0.219020	-0.822564	-0.524804	0.001015	-0.537671	0.843154	-0.975720	-0.185200	-0.116926
730	6933413													9.691919	0.040054	2.039505	0.216614	-0.823049	-0.525042	0.001011	-0.537622	0.843185	-0.976257	-0.183177	-0.115625
731	6933580													9.672671	0.049262	1.973310	0.214484	-0.823356	-0.525434	0.000920	-0.537783	0.843083	-0.976727	-0.181311	-0.114589
732	6933747													9.697566	0.019709	1.953944	0.212676	-0.823539	-0.525882	0.000764	-0.538054	0.842910	-0.977123	-0.179668	-0.113802
733	6933913													9.675137	-0.017056	1.983589	0.211307	-0.823589	-0.526355	0.000582	-0.538409	0.842683	-0.977420	-0.178371	-0.113291
734	6934080													9.644034	-0.013149	2.034880	0.210147	-0.823458	-0.527025	0.000416	-0.538987	0.842314	-0.977670	-0.177229	-0.112924
735	6934247													9.644557	0.020173	2.013235	0.208972	-0.823451	-0.527502	0.000221	-0.539372	0.842068	-0.977922	-0.176085	-0.112532
736	6934413													9.705980	0.022103	1.973403	0.207957	-0.823540	-0.527765	0.000031	-0.539555	0.841950	-0.978138	-0.175106	-0.112178
737	6934580													9.669094	0.007935	1.979416	0.207231	-0.823663	-0.527859	-0.000146	-0.539598	0.841923	-0.978292	-0.174396	-0.111942
738	6934747													9.659687	0.059738	1.983253	0.206523	-0.823845	-0.527851	-0.000394	-0.539552	0.841952	-0.978442	-0.173675	-0.111755
739	6934913													9.674382	0.046726	1.952302	0.205947	-0.824166	-0.527576	-0.000659	-0.539250	0.842145	-0.978563	-0.173090	-0.111600
740	6935080													9.671096	0.068345	2.027669	0.205445	-0.824334	-0.527509	-0.000873	-0.539161	0.842202	-0.978668	-0.172566	-0.111488
741	6935247													9.648191	0.048866	2.047308	0.204753	-0.824533	-0.527466	-0.001109	-0.539078	0.842255	-0.978813	-0.171870	-0.111292
742	6935413													9.612798	-0.006724	1.994352	0.203790	-0.824616	-0.527710	-0.001504	-0.539285	0.842122	-0.979013	-0.170823	-0.111141
743	6935580													9.642627	-0.036891	1.980357	0.203054	-0.824662	-0.527922	-0.001820	-0.539471	0.842002	-0.979166	-0.170011	-0.111043
744	6935747													9.673602	0.031745	2.027789	0.202697	-0.824600	-0.528156	-0.001923	-0.539687	0.841864	-0.979240	-0.169627	-0.110979
745	6935913													9.698081	0.026349	2.051377	0.202856	-0.824524	-0.528213	-0.002129	-0.539799	0.841792	-0.979206	-0.169638	-0.111256
746	6936080													9.590613	-0.046701	2.138309	0.203154	-0.824339	-0.528388	-0.002564	-0.540087	0.841605	-0.979143	-0.169620	-0.111834
747	6936247													9.496105	-0.059557	2.168122	0.203050	-0.824056	-0.528869	-0.002969	-0.540637	0.841251	-0.979164	-0.169246	-0.112223
748	6936413													9.587322	-0.045146	2.090710	0.202557	-0.823804	-0.529450	-0.003211	-0.541213	0.840879	-0.979265	-0.168626	-0.112272
749	6936580													9.633108	-0.041334	1.990673	0.202262	-0.823481	-0.530065	-0.003488	-0.541854	0.840466	-0.979325	-0.168146	-0.112469
750	6936747													9.630052	-0.043913	2.017247	0.202464	-0.823349	-0.530194	-0.003778	-0.542059	0.840332	-0.979282	-0.168134	-0.112858
751	6936913													9.613290	-0.067614	2.069780	0.203054	-0.823217	-0.530172	-0.004074	-0.542157	0.840267	-0.979159	-0.168460	-0.113441
752	6937080													9.585177	-0.086002	2.104580	0.203819	-0.823054	-0.530133	-0.004434	-0.542270	0.840193	-0.978999	-0.168897	-0.114175
753	6937247													9.627875	-0.057568	2.106446	0.204635	-0.822984	-0.529926	-0.004777	-0.542215	0.840226	-0.978827	-0.169409	-0.114888
754	6937413													9.605674	-0.069848	2.119026	0.205450	-0.822810	-0.529882	-0.005088	-0.542322	0.840155	-0.978654	-0.169913	-0.115607
755	6937580													9.531026	-0.066886	2.151418	0.205873	-0.822774	-0.529772	-0.005358	-0.542309	0.840162	-0.978564	-0.170128	-0.116055
756	6937747													9.604715	-0.103824	2.071163	0.205884	-0.822908	-0.529560	-0.005591	-0.542134	0.840274	-0.978560	-0.170038	-0.116217
757	6937913													9.605637	-0.062530	2.074126	0.206007	-0.823043	-0.529302	-0.005802	-0.541922	0.840409	-0.978533	-0.170059	-0.116415
758	6938080													9.583906	-0.078649	1.946318	0.206110	-0.823235	-0.528964	-0.006082	-0.541638	0.840590	-0.978510	-0.170036	-0.116644
759	6938247													9.601274	-0.085528	1.990678	0.206287	-0.823492	-0.528495	-0.006283	-0.541216	0.840860	-0.978471	-0.170138	-0.116820
760	6938413													9.595826	-0.011862	1.988493	0.206308	-0.823579	-0.528351	-0.006331	-0.541079	0.840948	-0.978467	-0.170150	-0.116843
761	6938580													9.604056	-0.027632	1.969565	0.205930	-0.823621	-0.528432	-0.006440	-0.541135	0.840911	-0.978546	-0.169765	-0.116740
762	6938747													9.631300	-0.022611	1.967091	0.205378	-0.823775	-0.528407	-0.006802	-0.541105	0.840928	-0.978659	-0.169114	-0.116734
763	6938913													9.642833	-0.101877	1.911778	0.204990	-0.824077	-0.528087	-0.007046	-0.540773	0.841139	-0.978739	-0.168704	-0.116660
764	6939080													9.644755	-0.074068	1.920122	0.204783	-0.824256	-0.527889	-0.007226	-0.540577	0.841264	-0.978781	-0.168462	-0.116657
765	6939247													9.601370	-0.049423	1.959376	0.204333	-0.824300	-0.527994	-0.007389	-0.540657	0.841211	-0.978873	-0.167986	-0.116565
766	6939413													9.598356	-0.029133	1.958684	0.203594	-0.824513	-0.527947	-0.007586	-0.540554	0.841275	-0.979026	-0.167274	-0.116308
767	6939580													9.631986	-0.063060	1.954409	0.202581	-0.824650	-0.528123	-0.007768	-0.540641	0.841217	-0.979235	-0.166312	-0.115929
768	6939747													9.613297	-0.074776	1.907736	0.201485	-0.824720	-0.528432	-0.007992	-0.540863	0.841073	-0.979459	-0.165240	-0.115566
769	6939913													9.645808	-0.059749	1.876614	0.200543	-0.824889	-0.528527	-0.008138	-0.540870	0.841067	-0.979651	-0.164369	-0.115180
770	6940080													9.634671	-0.062962	1.971827	0.199875	-0.824976	-0.528643	-0.008235	-0.540926	0.841030	-0.979787	-0.163748	-0.114911
771	6940247													9.551544	-0.081433	2.006966	0.199026	-0.825131	-0.528723	-0.008331	-0.540921	0.841032	-0.979959	-0.162982	-0.114531
772	6940413													9.570850	-0.089666	1.989521	0.197802	-0.825398	-0.528766	-0.008400	-0.540831	0.841089	-0.980206	-0.161927	-0.113910
773	6940580													9.618185	-0.121591	1.949219	0.196536	-0.825626	-0.528882	-0.008463	-0.540810	0.841102	-0.980460	-0.160831	-0.113276
774	6940747													9.598968	-0.097495	1.981243	0.195349	-0.825742	-0.529139	-0.008487	-0.540937	0.841020	-0.980697	-0.159802	-0.112680
775	6940913													9.583996	-0.077760	2.000214	0.194013	-0.825902	-0.529382	-0.008462	-0.541025	0.840964	-0.980963	-0.158678	-0.111954
776	6941080													9.594576	-0.071658	1.901564	0.192560	-0.826124	-0.529565	-0.008446	-0.541040	0.840954	-0.981249	-0.157462	-0.111160
777	6941247													9.635626	-0.092182	1.865757	0.191041	-0.826337	-0.529784	-0.008368	-0.541076	0.840932	-0.981546	-0.156219	-0.110283
778	6941413													9.654787	-0.072908	1.889629	0.189594	-0.826465	-0.530103	-0.008304	-0.541226	0.840836	-0.981828	-0.155015	-0.109476
779	6941580													9.650484	-0.063275	1.842596	0.188250	-0.826596	-0.530378	-0.008261	-0.541347	0.840759	-0.982086	-0.153891	-0.108737
780	6941747													9.644742	-0.059573	1.884610	0.186919	-0.826758	-0.530596	-0.008228	-0.541414	0.840716	-0.982341	-0.152780	-0.108003
781	6941913													9.609018	-0.066860	1.826066	0.185440	-0.826993	-0.530749	-0.008203	-0.541401	0.840725	-0.982621	-0.151550	-0.107181
782	6942080													9.675818	-0.066785	1.768700	0.183834	-0.827261	-0.530889	-0.008083	-0.541348	0.840760	-0.982924	-0.150269	-0.106205
783	6942247													9.740676	-0.081039	1.774830	0.182357	-0.827525	-0.530989	-0.007990	-0.541273	0.840809	-0.983200	-0.149084	-0.105317
784	6942413													9.660391	-0.115852	1.734384	0.181027	-0.827714	-0.531149	-0.008010	-0.541295	0.840795	-0.983445	-0.147952	-0.104619
785	6942580													9.631223	-0.162383	1.705093	0.179585	-0.827816	-0.531479	-0.008060	-0.541482	0.840674	-0.983709	-0.146689	-0.103914
786	6942747													9.722054	-0.094248	1.744582	0.178151	-0.827822	-0.531952	-0.007898	-0.541785	0.840480	-0.983972	-0.145531	-0.103057
787	6942913													9.773680	-0.023791	1.709135	0.177078	-0.827830	-0.532297	-0.007683	-0.541990	0.840350	-0.984167	-0.144717	-0.102335
788	6943080													9.740148	-0.031122	1.727031	0.176386	-0.827715	-0.532707	-0.007778	-0.542347	0.840118	-0.984290	-0.144042	-0.102101
789	6943247													9.662800	-0.056014	1.747332	0.175590	-0.827599	-0.533149	-0.007963	-0.542739	0.839864	-0.984431	-0.143227	-0.101890
790	6943413													9.633275	-0.084140	1.741446	0.174666	-0.827595	-0.533459	-0.007985	-0.542960	0.839721	-0.984595	-0.142411	-0.101445
791	6943580													9.675955	-0.054959	1.716396	0.173564	-0.827620	-0.533780	-0.007952	-0.543167	0.839587	-0.984791	-0.141477	-0.100855
792	6943747													9.717774	-0.046268	1.677974	0.172573	-0.827584	-0.534157	-0.007882	-0.543436	0.839413	-0.984965	-0.140650	-0.100306
793	6943913													9.749240	-0.051944	1.703653	0.172034	-0.827455	-0.534531	-0.007752	-0.543741	0.839217	-0.985060	-0.140231	-0.099956
794	6944080													9.746341	-0.059210	1.667306	0.171856	-0.827208	-0.534970	-0.007696	-0.544160	0.838946	-0.985092	-0.140061	-0.099883
795	6944247													9.733309	-0.079378	1.668497	0.171971	-0.826748	-0.535644	-0.007700	-0.544856	0.838494	-0.985072	-0.140072	-0.100065
796	6944413													9.703497	-0.026815	1.692919	0.172243	-0.826395	-0.536100	-0.007649	-0.545339	0.838181	-0.985025	-0.140270	-0.100252
797	6944580													9.702488	-0.075996	1.665596	0.172433	-0.826206	-0.536330	-0.007558	-0.545579	0.838025	-0.984992	-0.140450	-0.100320
798	6944747													9.717843	-0.098606	1.663600	0.172559	-0.826013	-0.536588	-0.007398	-0.545831	0.837863	-0.984971	-0.140611	-0.100298
799	6944913													9.713480	-0.106772	1.653650	0.172731	-0.825862	-0.536765	-0.007174	-0.545996	0.837757	-0.984943	-0.140855	-0.100235
800	6945080													9.701356	-0.092496	1.707862	0.172945	-0.825829	-0.536747	-0.006906	-0.545962	0.837781	-0.984907	-0.141184	-0.100124
801	6945247													9.688525	-0.148570	1.610852	0.173022	-0.825874	-0.536652	-0.006663	-0.545839	0.837864	-0.984895	-0.141393	-0.099945
802	6945413													9.690278	-0.149439	1.617226	0.172948	-0.825890	-0.536652	-0.006411	-0.545795	0.837894	-0.984910	-0.141472	-0.099689
803	6945580													9.750154	-0.078572	1.559310	0.173048	-0.825746	-0.536841	-0.005928	-0.545927	0.837812	-0.984896	-0.141799	-0.099366
804	6945747													9.770372	-0.042180	1.656121	0.173429	-0.825571	-0.536987	-0.005637	-0.546073	0.837719	-0.984830	-0.142258	-0.099359
805	6945913													9.676007	-0.048107	1.668425	0.173810	-0.825501	-0.536971	-0.005541	-0.546081	0.837714	-0.984764	-0.142628	-0.099488
806	6946080													9.694280	-0.105935	1.669283	0.174133	-0.825540	-0.536806	-0.005342	-0.545918	0.837821	-0.984708	-0.143025	-0.099472
807	6946247													9.702636	-0.070936	1.605487	0.174492	-0.825531	-0.536704	-0.005064	-0.545812	0.837893	-0.984646	-0.143487	-0.099420
808	6946413													9.675616	-0.039863	1.666386	0.174963	-0.825471	-0.536644	-0.004780	-0.545757	0.837930	-0.984563	-0.144041	-0.099433
809	6946580													9.678915	-0.033572	1.680052	0.175376	-0.825381	-0.536646	-0.004530	-0.545765	0.837926	-0.984491	-0.144521	-0.099453
810	6946747													9.700322	-0.047806	1.694247	0.175786	-0.825282	-0.536665	-0.004326	-0.545796	0.837907	-0.984419	-0.144971	-0.099513
811	6946913													9.697684	-0.023565	1.702969	0.176342	-0.825158	-0.536672	-0.004148	-0.545834	0.837883	-0.984320	-0.145528	-0.099676
812	6947080													9.668248	0.002990	1.729210	0.176960	-0.825075	-0.536598	-0.003970	-0.545796	0.837909	-0.984210	-0.146145	-0.099860
813	6947247													9.691532	-0.011730	1.703933	0.177579	-0.825061	-0.536414	-0.003792	-0.545647	0.838006	-0.984099	-0.146778	-0.100024
814	6947413													9.698931	-0.020715	1.722021	0.178262	-0.825007	-0.536271	-0.003671	-0.545554	0.838068	-0.983976	-0.147427	-0.100280
815	6947580													9.697070	-0.003625	1.737763	0.179036	-0.824932	-0.536128	-0.003592	-0.545477	0.838118	-0.983836	-0.148128	-0.100623
816	6947747													9.654766	-0.008727	1.764764	0.179854	-0.824882	-0.535931	-0.003510	-0.545350	0.838201	-0.983687	-0.148872	-0.100979
817	6947914													9.654295	-0.021583	1.774490	0.180667	-0.824841	-0.535721	-0.003428	-0.545209	0.838293	-0.983538	-0.149615	-0.101329
818	6948080													9.659346	-0.011954	1.766219	0.181505	-0.824805	-0.535493	-0.003311	-0.545047	0.838399	-0.983384	-0.150400	-0.101660
819	6948247													9.664922	-0.018695	1.780999	0.182463	-0.824761	-0.535236	-0.003220	-0.544872	0.838513	-0.983207	-0.151274	-0.102075
820	6948414													9.663314	-0.019945	1.790271	0.183460	-0.824683	-0.535014	-0.003117	-0.544737	0.838601	-0.983022	-0.152182	-0.102508
821	6948580													9.652446	0.003634	1.789530	0.184491	-0.824562	-0.534846	-0.003040	-0.544663	0.838649	-0.982829	-0.153097	-0.102993
822	6948747													9.662602	-0.005272	1.824030	0.185525	-0.824436	-0.534683	-0.002947	-0.544593	0.838695	-0.982635	-0.154023	-0.103465
823	6948914													9.654078	0.001379	1.847304	0.186631	-0.824299	-0.534510	-0.002885	-0.544526	0.838739	-0.982426	-0.154993	-0.104004
824	6949080													9.639862	0.014345	1.851499	0.187678	-0.824198	-0.534297	-0.002899	-0.544426	0.838804	-0.982226	-0.155876	-0.104566
825	6949247													9.651997	-0.000526	1.839083	0.188647	-0.824157	-0.534021	-0.002936	-0.544256	0.838914	-0.982041	-0.156690	-0.105092
826	6949414													9.697217	-0.005186	1.840598	0.189641	-0.824126	-0.533716	-0.002919	-0.544051	0.839047	-0.981849	-0.157560	-0.105580
827	6949580													9.677783	-0.034796	1.855070	0.190669	-0.824011	-0.533527	-0.003037	-0.543991	0.839086	-0.981650	-0.158367	-0.106225
828	6949747													9.631497	-0.062409	1.780991	0.191691	-0.823817	-0.533460	-0.003259	-0.544072	0.839032	-0.981450	-0.159097	-0.106979
829	6949914													9.723055	-0.031713	1.817055	0.192763	-0.823522	-0.533529	-0.003470	-0.544295	0.838886	-0.981239	-0.159855	-0.107777
830	6950080													9.689277	0.021174	1.863616	0.194182	-0.823241	-0.533448	-0.003507	-0.544378	0.838832	-0.980959	-0.161015	-0.108595
831	6950247													9.666630	0.008879	1.924964	0.195753	-0.822891	-0.533415	-0.003757	-0.544564	0.838711	-0.980646	-0.162176	-0.109692
832	6950414													9.624660	-0.028048	1.961466	0.197155	-0.822580	-0.533378	-0.004207	-0.544761	0.838581	-0.980363	-0.163086	-0.110863
833	6950580													9.580221	-0.057343	1.975155	0.198481	-0.822366	-0.533216	-0.004507	-0.544800	0.838554	-0.980094	-0.164034	-0.111839
834	6950747													9.599034	-0.048623	1.982948	0.199700	-0.822186	-0.533039	-0.004713	-0.544796	0.838555	-0.979846	-0.164947	-0.112670
835	6950914													9.623741	-0.025015	1.981027	0.200946	-0.821986	-0.532879	-0.004933	-0.544817	0.838541	-0.979590	-0.165872	-0.113534
836	6951080													9.588148	-0.034262	2.027996	0.202202	-0.821792	-0.532702	-0.005152	-0.544823	0.838535	-0.979330	-0.166809	-0.114398
837	6951247													9.571323	-0.067973	2.052141	0.203390	-0.821674	-0.532432	-0.005370	-0.544727	0.838596	-0.979083	-0.167703	-0.115204
838	6951414													9.579199	-0.043627	2.046444	0.204484	-0.821573	-0.532170	-0.005559	-0.544623	0.838663	-0.978854	-0.168535	-0.115934
839	6951580													9.607657	-0.052009	2.042262	0.205591	-0.821496	-0.531862	-0.005707	-0.544468	0.838762	-0.978621	-0.169407	-0.116627
840	6951747													9.627842	-0.044713	2.062510	0.206757	-0.821458	-0.531467	-0.005842	-0.544232	0.838915	-0.978375	-0.170347	-0.117323
841	6951914													9.624903	-0.066516	2.062842	0.207931	-0.821446	-0.531028	-0.005966	-0.543949	0.839097	-0.978125	-0.171306	-0.118004
842	6952080													9.615804	-0.069603	2.052819	0.209042	-0.821470	-0.530554	-0.006089	-0.543624	0.839307	-0.977888	-0.172220	-0.118642
843	6952247													9.637536	-0.054897	2.052979	0.210155	-0.821528	-0.530025	-0.006200	-0.543241	0.839554	-0.977648	-0.173150	-0.119258
844	6952414													9.601436	-0.033784	2.089010	0.211286	-0.821763	-0.529211	-0.006376	-0.542581	0.839979	-0.977403	-0.174102	-0.119879
845	6952580													9.623413	-0.109563	1.977559	0.212337	-0.822007	-0.528410	-0.006593	-0.541934	0.840395	-0.977174	-0.174964	-0.120492
846	6952747													9.622855	-0.076553	2.027755	0.213418	-0.822216	-0.527648	-0.006667	-0.541305	0.840800	-0.976938	-0.175924	-0.121006
847	6952914													9.664302	-0.047285	1.977502	0.214595	-0.822285	-0.527064	-0.006633	-0.540850	0.841093	-0.976681	-0.176998	-0.121518
848	6953080													9.643950	-0.055418	2.041652	0.216033	-0.822362	-0.526356	-0.006763	-0.540333	0.841424	-0.976363	-0.178215	-0.122292
849	6953247													9.594798	-0.085174	2.081041	0.217443	-0.822588	-0.525422	-0.006975	-0.539598	0.841894	-0.976048	-0.179399	-0.123069
850	6953414													9.617586	-0.101458	2.085066	0.218818	-0.822838	-0.524458	-0.007125	-0.538817	0.842393	-0.975740	-0.180594	-0.123766
851	6953580													9.613930	-0.084793	2.070817	0.220243	-0.822968	-0.523657	-0.007207	-0.538198	0.842788	-0.975418	-0.181845	-0.124465
852	6953747													9.585332	-0.090992	2.107323	0.221637	-0.822984	-0.523044	-0.007196	-0.537750	0.843074	-0.975103	-0.183092	-0.125107
853	6953914													9.635684	-0.062687	2.072129	0.223057	-0.823009	-0.522400	-0.007207	-0.537279	0.843374	-0.974779	-0.184356	-0.125775
854	6954080													9.635367	-0.067937	2.164001	0.224777	-0.822983	-0.521703	-0.007247	-0.536801	0.843677	-0.974383	-0.185858	-0.126625
855	6954247													9.615538	-0.071742	2.196306	0.226699	-0.822913	-0.520982	-0.007293	-0.536327	0.843979	-0.973938	-0.187530	-0.127586
856	6954414													9.566175	-0.055300	2.239834	0.228717	-0.822908	-0.520107	-0.007294	-0.535702	0.844376	-0.973466	-0.189329	-0.128527
857	6954580													9.590801	-0.048389	2.246456	0.230769	-0.822831	-0.519322	-0.007359	-0.535189	0.844700	-0.972981	-0.191109	-0.129560
858	6954747													9.597332	-0.067227	2.289153	0.232894	-0.822795	-0.518429	-0.007455	-0.534583	0.845083	-0.972474	-0.192950	-0.130635
859	6954914													9.581962	-0.076152	2.272956	0.235117	-0.822679	-0.517608	-0.007548	-0.534066	0.845409	-0.971938	-0.194863	-0.131778
860	6955080													9.548906	-0.091563	2.255929	0.237190	-0.822408	-0.517093	-0.007669	-0.533851	0.845543	-0.971433	-0.196589	-0.132932
861	6955247													9.590779	-0.071871	2.237664	0.239339	-0.822067	-0.516645	-0.007805	-0.533722	0.845624	-0.970905	-0.198358	-0.134157
862	6955414													9.624714	-0.082613	2.246472	0.241968	-0.821782	-0.515874	-0.007974	-0.533339	0.845864	-0.970251	-0.200558	-0.135604
