// Start Time: Unknown
// Update Rate: 20.0Hz
// Filter Profile: human (46.1)
// Option Flags: AHS Disabled ICC Disabled
// Firmware Version: 4.0.2
0	sampleTimeFine	Year	Month	Day	Second	UTC_Nano	UTC_Year	UTC_Month	UTC_Day	UTC_Hour	UTC_Minute	UTC_Second	UTC_Valid	Acc_X	Acc_Y	Acc_Z	Mat[1][1]	Mat[2][1]	Mat[3][1]	Mat[1][2]	Mat[2][2]	Mat[3][2]	Mat[1][3]	Mat[2][3]	Mat[3][3]
0	5841297549.000000													9.495817	-0.030124	2.676583	0.268073	0.152834	0.951199	-0.002591	0.987447	-0.157928	-0.963395	0.039872	0.265104
1	5841347560.000000													9.553784	-0.051358	2.658396	0.268006	0.152344	0.951296	-0.002584	0.987529	-0.157419	-0.963414	0.039731	0.265057
2	5841397572.000000													9.503956	-0.025179	2.674247	0.267896	0.151665	0.951436	-0.002391	0.987633	-0.156762	-0.963445	0.039721	0.264945
3	5841447583.000000													9.478666	-0.000176	2.693028	0.267678	0.151171	0.951575	-0.002238	0.987710	-0.156282	-0.963506	0.039703	0.264727
4	5841497595.000000													9.511988	-0.024677	2.636043	0.267199	0.151005	0.951736	-0.002095	0.987735	-0.156128	-0.963639	0.039724	0.264238
5	5841547606.000000													9.512272	-0.034689	2.618471	0.266604	0.151169	0.951877	-0.002071	0.987711	-0.156280	-0.963804	0.039693	0.263641
6	5841597618.000000													9.511130	-0.030742	2.636949	0.266117	0.151258	0.951999	-0.002125	0.987702	-0.156337	-0.963938	0.039581	0.263166
7	5841647629.000000													9.529599	-0.011689	2.630296	0.265472	0.151426	0.952153	-0.002254	0.987684	-0.156449	-0.964116	0.039386	0.262543
8	5841697641.000000													9.502086	0.003513	2.642822	0.264780	0.151876	0.952274	-0.002108	0.987608	-0.156925	-0.964307	0.039544	0.261819
9	5841747652.000000													9.577682	-0.024221	2.620035	0.264192	0.152472	0.952342	-0.001973	0.987508	-0.157555	-0.964468	0.039746	0.261193
10	5841797663.000000													9.526352	-0.026378	2.580885	0.263859	0.152923	0.952362	-0.002178	0.987444	-0.157952	-0.964559	0.039602	0.260879
11	5841847675.000000													9.495239	-0.018312	2.609001	0.263544	0.153075	0.952425	-0.002140	0.987420	-0.158107	-0.964645	0.039630	0.260556
12	5841897686.000000													9.543813	-0.007103	2.627784	0.263078	0.153350	0.952509	-0.002210	0.987380	-0.158354	-0.964772	0.039555	0.260097
13	5841947698.000000													9.520961	-0.027217	2.608235	0.262401	0.153533	0.952666	-0.002297	0.987358	-0.158491	-0.964956	0.039400	0.259436
14	5841997709.000000													9.536256	-0.007150	2.607453	0.262062	0.153919	0.952697	-0.002514	0.987304	-0.158819	-0.965048	0.039226	0.259122
15	5842047721.000000													9.575796	-0.010630	2.602039	0.262116	0.154423	0.952601	-0.002708	0.987228	-0.159291	-0.965033	0.039173	0.259187
16	5842097732.000000													9.549702	-0.026664	2.607130	0.262555	0.154725	0.952431	-0.003000	0.987186	-0.159544	-0.964912	0.039032	0.259655
17	5842147744.000000													9.531470	-0.012669	2.622582	0.263080	0.154699	0.952290	-0.003253	0.987197	-0.159471	-0.964768	0.038856	0.260216
18	5842197755.000000													9.537568	-0.020739	2.624111	0.263655	0.154795	0.952116	-0.003692	0.987195	-0.159476	-0.964610	0.038532	0.260850
19	5842247767.000000													9.506915	0.001204	2.648430	0.264336	0.155188	0.951863	-0.004071	0.987140	-0.159809	-0.964422	0.038368	0.261568
20	5842297778.000000													9.479395	-0.018621	2.671564	0.265136	0.156079	0.951495	-0.004386	0.986997	-0.160681	-0.964201	0.038429	0.262373
21	5842347790.000000													9.446531	0.003171	2.664363	0.265420	0.157011	0.951262	-0.004352	0.986835	-0.161669	-0.964123	0.038770	0.262609
22	5842397801.000000													9.552894	-0.058253	2.611145	0.265731	0.158140	0.950988	-0.004341	0.986640	-0.162856	-0.964037	0.039148	0.262868
23	5842447813.000000													9.546947	0.003709	2.548650	0.266033	0.159075	0.950748	-0.004434	0.986481	-0.163813	-0.963954	0.039365	0.263142
24	5842497824.000000													9.537730	-0.042243	2.608734	0.266850	0.160427	0.950292	-0.004749	0.986254	-0.165165	-0.963726	0.039562	0.263944
25	5842547836.000000													9.495847	-0.036661	2.688838	0.268213	0.161355	0.949751	-0.004421	0.986069	-0.166277	-0.963350	0.040399	0.265190
26	5842597847.000000													9.504308	-0.035222	2.688677	0.268822	0.162289	0.949419	-0.004510	0.985904	-0.167248	-0.963179	0.040678	0.265765
27	5842647859.000000													9.461712	-0.049038	2.651146	0.268787	0.163150	0.949282	-0.004376	0.985747	-0.168179	-0.963190	0.041050	0.265670
28	5842697870.000000													9.518167	-0.070335	2.612439	0.268105	0.163653	0.949388	-0.004257	0.985658	-0.168703	-0.963380	0.041189	0.264957
29	5842747882.000000													9.524689	-0.042822	2.620911	0.267120	0.163862	0.949630	-0.004524	0.985639	-0.168803	-0.963653	0.040795	0.264025
30	5842797893.000000													9.501879	-0.023472	2.626080	0.266088	0.164024	0.949891	-0.004557	0.985620	-0.168917	-0.963938	0.040618	0.263009
31	5842847905.000000													9.496752	-0.074646	2.550258	0.265079	0.163703	0.950229	-0.004039	0.985662	-0.168681	-0.964218	0.040876	0.261939
32	5842897916.000000													9.605347	-0.000027	2.633034	0.265051	0.163878	0.950206	-0.003393	0.985604	-0.169037	-0.964228	0.041580	0.261791
33	5842947928.000000													9.534742	-0.060443	2.667285	0.264788	0.164080	0.950245	-0.003305	0.985566	-0.169258	-0.964301	0.041677	0.261508
34	5842997939.000000													9.428836	-0.059231	2.652320	0.264016	0.164081	0.950459	-0.003104	0.985563	-0.169279	-0.964513	0.041742	0.260713
35	5843047951.000000													9.512960	-0.078599	2.572016	0.262866	0.163477	0.950882	-0.002753	0.985664	-0.168696	-0.964828	0.041727	0.259547
36	5843097962.000000													9.580091	-0.038436	2.551688	0.261369	0.162457	0.951469	-0.002291	0.985836	-0.167695	-0.965236	0.041650	0.258040
37	5843147974.000000													9.563550	-0.016703	2.508124	0.260366	0.161695	0.951874	-0.002056	0.985968	-0.166924	-0.965508	0.041504	0.257045
38	5843197985.000000													9.527514	-0.071682	2.569434	0.260011	0.160625	0.952152	-0.001420	0.986130	-0.165969	-0.965605	0.041802	0.256633
39	5843247997.000000													9.537250	-0.028062	2.584381	0.259309	0.159213	0.952581	-0.001039	0.986364	-0.164576	-0.965794	0.041687	0.255939
40	5843298008.000000													9.500471	-0.037469	2.637288	0.257758	0.158296	0.953154	-0.000884	0.986527	-0.163599	-0.966209	0.041327	0.254425
41	5843348020.000000													9.618795	-0.040538	2.466466	0.257491	0.157235	0.953402	-0.000700	0.986702	-0.162538	-0.966280	0.041185	0.254177
42	5843398031.000000													9.629959	-0.044842	2.448548	0.258185	0.156359	0.953358	-0.000613	0.986842	-0.161685	-0.966095	0.041160	0.254884
43	5843448043.000000													9.559563	-0.025785	2.494431	0.259725	0.155446	0.953089	-0.000571	0.986984	-0.160819	-0.965682	0.041224	0.256433
44	5843498054.000000													9.502269	-0.021963	2.498084	0.260548	0.154439	0.953028	-0.000413	0.987141	-0.159854	-0.965461	0.041256	0.257262
45	5843548066.000000													9.536431	0.006022	2.489344	0.260824	0.153937	0.953034	-0.000184	0.987213	-0.159408	-0.965386	0.041402	0.257517
46	5843598077.000000													9.610413	-0.016210	2.522706	0.261784	0.153789	0.952795	0.000045	0.987221	-0.159358	-0.965126	0.041760	0.258432
47	5843648088.000000													9.538626	-0.021554	2.588351	0.263597	0.153653	0.952317	0.000434	0.987213	-0.159404	-0.964633	0.042432	0.260160
48	5843698100.000000													9.489368	-0.030699	2.602096	0.264756	0.153120	0.952081	0.000532	0.987290	-0.158930	-0.964315	0.042584	0.261310
49	5843748111.000000													9.562124	-0.023358	2.592077	0.265561	0.152199	0.952005	0.000911	0.987420	-0.158115	-0.964094	0.042856	0.262081
50	5843798123.000000													9.541405	0.045130	2.604309	0.266491	0.151850	0.951800	0.000985	0.987468	-0.157816	-0.963837	0.042994	0.263002
51	5843848134.000000													9.493987	-0.033944	2.605321	0.267634	0.151735	0.951498	0.000740	0.987490	-0.157683	-0.963520	0.042905	0.264173
52	5843898146.000000													9.489650	0.005067	2.670199	0.268242	0.151481	0.951367	0.000292	0.987547	-0.157324	-0.963352	0.042479	0.264857
53	5843948157.000000													9.527728	0.025498	2.677256	0.268617	0.151488	0.951260	-0.000447	0.987575	-0.157145	-0.963247	0.041787	0.265348
54	5843998169.000000													9.478891	0.034613	2.656551	0.269133	0.151960	0.951039	-0.001099	0.987522	-0.157478	-0.963103	0.041337	0.265941
55	5844048180.000000													9.463799	-0.010668	2.677740	0.269818	0.152240	0.950800	-0.001245	0.987477	-0.157760	-0.962911	0.041383	0.266629
56	5844098192.000000													9.515018	0.017754	2.663734	0.270142	0.151784	0.950781	-0.001195	0.987548	-0.157314	-0.962820	0.041361	0.266959
57	5844148203.000000													9.495359	0.023989	2.688303	0.270425	0.151581	0.950733	-0.001351	0.987586	-0.157073	-0.962740	0.041192	0.267272
58	5844198215.000000													9.486762	0.039017	2.684118	0.270482	0.151455	0.950737	-0.001210	0.987600	-0.156983	-0.962724	0.041311	0.267312
59	5844248226.000000													9.495827	-0.020802	2.684630	0.270548	0.151220	0.950756	-0.001094	0.987634	-0.156775	-0.962706	0.041375	0.267368
60	5844298238.000000													9.522385	0.024482	2.680071	0.270556	0.150810	0.950818	-0.000829	0.987690	-0.156422	-0.962704	0.041532	0.267351
61	5844348249.000000													9.510665	0.005070	2.691859	0.270457	0.150378	0.950915	-0.000883	0.987764	-0.155954	-0.962732	0.041340	0.267281
62	5844398261.000000													9.496271	0.031578	2.720299	0.270279	0.150279	0.950981	-0.000685	0.987773	-0.155899	-0.962782	0.041485	0.267077
63	5844448272.000000													9.489449	0.009174	2.691265	0.269883	0.150491	0.951060	-0.000531	0.987734	-0.156143	-0.962893	0.041635	0.266652
64	5844498284.000000													9.541368	-0.029100	2.656725	0.269560	0.150154	0.951205	-0.000145	0.987775	-0.155886	-0.962983	0.041882	0.266287
65	5844548295.000000													9.542609	0.048899	2.667655	0.269639	0.150156	0.951182	-0.000305	0.987781	-0.155847	-0.962962	0.041733	0.266390
66	5844598307.000000													9.468439	-0.002870	2.707755	0.269843	0.150465	0.951076	-0.000359	0.987731	-0.156163	-0.962904	0.041798	0.266586
67	5844648318.000000													9.526117	0.000242	2.679641	0.269675	0.150575	0.951106	-0.000340	0.987714	-0.156274	-0.962951	0.041820	0.266413
68	5844698330.000000													9.537045	-0.010998	2.637849	0.269518	0.150116	0.951223	-0.000620	0.987802	-0.155713	-0.962995	0.041378	0.266324
69	5844748341.000000													9.502897	0.016842	2.659967	0.269506	0.149603	0.951307	-0.000837	0.987895	-0.155120	-0.962998	0.041009	0.266369
70	5844798353.000000													9.514777	0.010744	2.652447	0.269575	0.149358	0.951326	-0.001146	0.987948	-0.154783	-0.962979	0.040636	0.266497
71	5844848364.000000													9.494899	0.024802	2.664474	0.269408	0.149616	0.951333	-0.001422	0.987919	-0.154967	-0.963025	0.040396	0.266366
72	5844898376.000000													9.487141	-0.029423	2.654217	0.269199	0.149834	0.951358	-0.001648	0.987894	-0.155122	-0.963083	0.040191	0.266187
73	5844948387.000000													9.499989	-0.007679	2.637153	0.268801	0.149711	0.951490	-0.001768	0.987922	-0.154944	-0.963194	0.039967	0.265819
74	5844998399.000000													9.537602	-0.009909	2.639439	0.268405	0.149560	0.951625	-0.001885	0.987954	-0.154738	-0.963304	0.039739	0.265454
75	5845048410.000000													9.493028	0.010314	2.673694	0.268126	0.149722	0.951678	-0.002037	0.987936	-0.154852	-0.963382	0.039582	0.265196
76	5845098422.000000													9.510547	0.005824	2.655783	0.267762	0.150177	0.951709	-0.002189	0.987870	-0.155267	-0.963482	0.039491	0.264843
77	5845148433.000000													9.512318	-0.027001	2.648416	0.267370	0.150783	0.951724	-0.002373	0.987781	-0.155829	-0.963591	0.039406	0.264461
78	5845198445.000000													9.546886	-0.039304	2.630563	0.266993	0.151220	0.951760	-0.002319	0.987710	-0.156281	-0.963696	0.039519	0.264063
79	5845248456.000000													9.507846	-0.039089	2.621200	0.266993	0.151554	0.951707	-0.002473	0.987661	-0.156586	-0.963695	0.039454	0.264073
80	5845298468.000000													9.466172	-0.028534	2.662353	0.266731	0.151687	0.951759	-0.002628	0.987647	-0.156671	-0.963768	0.039287	0.263834
81	5845348479.000000													9.531562	-0.020236	2.650535	0.266306	0.151816	0.951858	-0.002649	0.987630	-0.156781	-0.963885	0.039230	0.263414
82	5845398490.000000													9.522534	-0.027201	2.632357	0.265808	0.151928	0.951979	-0.002601	0.987613	-0.156889	-0.964022	0.039227	0.262911
83	5845448502.000000													9.503165	-0.025576	2.624516	0.265372	0.152009	0.952088	-0.002419	0.987595	-0.157004	-0.964143	0.039361	0.262448
84	5845498513.000000													9.535872	-0.052881	2.633572	0.264958	0.151648	0.952260	-0.002251	0.987650	-0.156658	-0.964257	0.039364	0.262028
85	5845548525.000000													9.528000	-0.026636	2.612310	0.264470	0.151297	0.952452	-0.002050	0.987703	-0.156327	-0.964392	0.039391	0.261528
86	5845598536.000000													9.531771	-0.019265	2.591314	0.264318	0.150944	0.952550	-0.001915	0.987757	-0.155991	-0.964434	0.039407	0.261371
87	5845648548.000000													9.532166	0.024187	2.605410	0.264384	0.150963	0.952529	-0.001629	0.987741	-0.156092	-0.964416	0.039717	0.261388
88	5845698559.000000													9.549870	0.024498	2.602365	0.264597	0.151485	0.952387	-0.001225	0.987637	-0.156752	-0.964358	0.040310	0.261511
89	5845748571.000000													9.545815	0.040585	2.652587	0.265532	0.152006	0.952044	-0.000951	0.987533	-0.157407	-0.964102	0.040892	0.262366
90	5845798582.000000													9.515591	0.110708	2.639306	0.266977	0.152259	0.951599	-0.001065	0.987486	-0.157703	-0.963702	0.041090	0.263798
91	5845848594.000000													9.425610	0.278546	2.563884	0.268992	0.154078	0.950738	-0.003790	0.987283	-0.158928	-0.963135	0.039147	0.266155
92	5845898605.000000													9.715623	0.113490	2.623936	0.271283	0.157640	0.949502	-0.006671	0.986781	-0.161923	-0.962476	0.037593	0.268749
93	5845948617.000000													9.615546	0.380479	2.474183	0.271975	0.162320	0.948516	-0.007723	0.986008	-0.166521	-0.962273	0.037964	0.269423
94	5845998628.000000													9.450667	0.137711	2.659166	0.274413	0.167183	0.946967	-0.008838	0.985168	-0.171366	-0.961571	0.038656	0.271820
95	5846048640.000000													9.494579	0.088313	2.691351	0.276458	0.171068	0.945678	-0.010182	0.984496	-0.175113	-0.960972	0.038783	0.273914
96	5846098651.000000													9.489345	0.124888	2.641835	0.277836	0.175176	0.944521	-0.012398	0.983805	-0.178814	-0.960549	0.037971	0.275508
97	5846148663.000000													9.557832	0.079299	2.648163	0.280131	0.180541	0.942832	-0.014465	0.982838	-0.183904	-0.959853	0.037879	0.277935
98	5846198674.000000													9.469471	0.037527	2.686866	0.282789	0.186738	0.940829	-0.016368	0.981663	-0.189923	-0.959042	0.038308	0.280660
99	5846248686.000000													9.464942	-0.082559	2.689532	0.286022	0.191515	0.938889	-0.018225	0.980734	-0.194498	-0.958050	0.038520	0.284002
100	5846298697.000000													9.460675	-0.120340	2.746437	0.289739	0.194696	0.937094	-0.020589	0.980133	-0.197272	-0.956884	0.037864	0.287992
101	5846348709.000000													9.215898	-0.218673	2.780134	0.293135	0.196767	0.935604	-0.023131	0.979766	-0.198808	-0.955791	0.036636	0.291755
102	5846398720.000000													9.056208	-0.194518	2.810693	0.296141	0.200058	0.933958	-0.022709	0.979017	-0.202510	-0.954874	0.038762	0.294470
103	5846448732.000000													9.412750	-0.090751	2.938012	0.300547	0.209531	0.930467	-0.020177	0.976749	-0.213436	-0.953553	0.045373	0.297787
104	5846498743.000000													9.923780	-0.293218	2.929275	0.309319	0.228815	0.923020	-0.020127	0.971978	-0.234207	-0.950745	0.053867	0.305257
105	5846548755.000000													10.002245	-1.387465	1.942008	0.311107	0.242820	0.918831	-0.021590	0.968365	-0.248601	-0.950130	0.057504	0.306508
106	5846598766.000000													10.147991	-0.876984	2.074321	0.314967	0.250428	0.915468	-0.029350	0.966670	-0.254336	-0.948649	0.053238	0.311819
107	5846648778.000000													9.531237	-0.743861	2.259106	0.319061	0.255931	0.912524	-0.040406	0.965646	-0.256702	-0.946872	0.045032	0.318441
108	5846698789.000000													9.234370	-0.552543	2.212178	0.323572	0.264029	0.908620	-0.050637	0.963735	-0.262012	-0.944848	0.038770	0.325207
109	5846748801.000000													9.307230	-0.734258	2.189961	0.330646	0.275134	0.902759	-0.055883	0.960591	-0.272292	-0.942099	0.039583	0.332991
110	5846798812.000000													9.580637	-0.921680	2.154933	0.338284	0.284404	0.897039	-0.056265	0.957645	-0.282401	-0.939360	0.045060	0.339958
111	5846848824.000000													9.263434	-1.545325	1.889854	0.344361	0.283968	0.894862	-0.056066	0.957679	-0.282327	-0.937162	0.047051	0.345708
112	5846898835.000000													9.386702	-1.858380	1.702466	0.340620	0.270997	0.900299	-0.057194	0.961759	-0.267858	-0.938460	0.039746	0.343094
113	5846948847.000000													9.573526	-1.718151	1.891632	0.331272	0.251893	0.909290	-0.063052	0.967461	-0.245036	-0.941426	0.023841	0.336375
114	5846998858.000000													11.188586	-0.607046	3.165541	0.324542	0.238048	0.915426	-0.073840	0.971236	-0.226383	-0.942985	0.005876	0.332785
115	5847048870.000000													10.140767	-1.487763	2.923488	0.309285	0.220191	0.925126	-0.070192	0.975457	-0.208704	-0.948375	-0.000387	0.317149
116	5847098881.000000													8.731062	-1.258476	3.488402	0.295934	0.189919	0.936138	-0.056225	0.981799	-0.181409	-0.953552	0.001051	0.301226
117	5847148893.000000													8.318513	0.384243	3.232383	0.283074	0.158164	0.945967	-0.046499	0.987412	-0.151180	-0.957970	-0.001191	0.286865
118	5847198904.000000													9.640459	1.072676	2.926802	0.279159	0.148879	0.948633	-0.050900	0.988813	-0.140206	-0.958895	-0.009146	0.283614
119	5847248915.000000													9.935478	0.994836	2.931241	0.272623	0.160924	0.948567	-0.045388	0.986966	-0.154394	-0.961050	-0.000962	0.276374
120	5847298927.000000													9.505358	0.453250	2.389749	0.265461	0.176277	0.947870	-0.025705	0.984088	-0.175813	-0.963779	0.022306	0.265768
121	5847348938.000000													9.393777	-0.103835	2.133755	0.262320	0.183438	0.947385	-0.009143	0.982194	-0.187647	-0.964938	0.040562	0.259326
122	5847398950.000000													9.152578	0.137069	2.091845	0.264625	0.184128	0.946610	0.002899	0.981446	-0.191714	-0.964347	0.053477	0.259181
123	5847448961.000000													8.762635	0.413750	1.906725	0.269896	0.181685	0.945593	0.010478	0.981425	-0.191560	-0.962832	0.061609	0.262979
124	5847498973.000000													9.239092	0.551009	1.632643	0.271295	0.180755	0.945371	0.014542	0.981326	-0.191803	-0.962386	0.065783	0.263600
125	5847548984.000000													9.861085	0.935425	1.235377	0.266253	0.186124	0.945763	0.013462	0.980366	-0.196724	-0.963809	0.065110	0.258520
126	5847598996.000000													10.203654	0.984936	1.351473	0.260891	0.191547	0.946174	0.007880	0.979662	-0.200500	-0.965336	0.059764	0.254076
127	5847649007.000000													9.972160	0.183516	0.690618	0.253496	0.197661	0.946927	-0.003673	0.979090	-0.203392	-0.967330	0.048081	0.248921
128	5847699019.000000													11.474525	1.421059	1.184597	0.246958	0.214034	0.945093	-0.007017	0.975672	-0.219125	-0.969001	0.047483	0.242452
129	5847749030.000000													12.221128	-1.306725	3.127254	0.236702	0.212447	0.948071	0.012854	0.975031	-0.221697	-0.971497	0.064663	0.228061
130	5847799042.000000													9.383848	0.950687	4.020283	0.239147	0.218857	0.945997	0.010698	0.973614	-0.227950	-0.970924	0.064634	0.230496
131	5847849053.000000													8.003941	-0.262451	3.565568	0.250239	0.235281	0.939161	0.013807	0.969057	-0.246450	-0.968086	0.074638	0.239248
132	5847899065.000000													9.749860	-0.496246	3.142102	0.258658	0.243090	0.934881	0.018561	0.966388	-0.256418	-0.965791	0.083677	0.245452
133	5847949076.000000													8.935072	-0.598420	2.890494	0.261144	0.249732	0.932437	0.007884	0.965371	-0.260760	-0.965268	0.075447	0.250132
134	5847999088.000000													8.866607	-0.436694	2.447701	0.265620	0.252461	0.930435	-0.004667	0.965429	-0.260624	-0.964067	0.064884	0.257615
135	5848049099.000000													8.842030	-0.655577	2.063674	0.267079	0.253706	0.929679	-0.012485	0.965552	-0.259909	-0.963594	0.057809	0.261046
136	5848099111.000000													8.701228	-0.733594	1.530038	0.270531	0.254066	0.928581	-0.017018	0.965659	-0.259253	-0.962561	0.054334	0.265564
137	5848149122.000000													8.492921	-0.962954	1.476738	0.271144	0.248852	0.929814	-0.012837	0.966850	-0.255021	-0.962453	0.057211	0.265350
138	5848199134.000000													9.923217	-1.209879	1.375414	0.270000	0.233649	0.934082	-0.009659	0.970720	-0.240021	-0.962812	0.055783	0.264351
139	5848249145.000000													10.072830	-0.104593	1.819325	0.266392	0.223219	0.937661	-0.007151	0.973245	-0.229658	-0.963838	0.054474	0.260861
140	5848299157.000000													11.477530	-1.137287	0.005753	0.260104	0.203372	0.943920	-0.001837	0.977670	-0.210138	-0.965579	0.052924	0.254670
141	5848349168.000000													13.341063	0.177572	4.196573	0.261580	0.191769	0.945939	-0.017504	0.980844	-0.194005	-0.965023	0.034190	0.259926
142	5848399180.000000													8.799006	1.180808	4.753930	0.250810	0.202698	0.946577	-0.032501	0.979044	-0.201038	-0.967491	0.019657	0.252142
143	5848449191.000000													6.160394	-0.942962	3.628348	0.252620	0.200732	0.946514	-0.035217	0.979503	-0.198329	-0.966924	0.016768	0.254512
144	5848499203.000000													10.136003	-0.688054	3.430882	0.251869	0.198888	0.947104	-0.043767	0.979994	-0.194155	-0.966771	0.007450	0.255535
145	5848549214.000000													9.315933	0.653567	3.025508	0.242634	0.197277	0.949848	-0.042130	0.980324	-0.192846	-0.969203	0.006774	0.246171
146	5848599226.000000													8.794302	-0.214108	2.491156	0.234922	0.196788	0.951886	-0.029387	0.980282	-0.195406	-0.971570	0.017932	0.236073
147	5848649237.000000													9.532685	0.316721	1.984089	0.233347	0.200878	0.951419	-0.022619	0.979286	-0.201215	-0.972131	0.025433	0.233057
148	5848699249.000000													8.440185	0.611547	1.674436	0.234456	0.210125	0.949146	-0.019833	0.977191	-0.211435	-0.971924	0.030748	0.233275
149	5848749260.000000													8.420246	0.436700	1.220086	0.228783	0.224774	0.947172	-0.025189	0.974019	-0.225061	-0.973152	0.027632	0.228501
150	5848799272.000000													9.527985	0.797337	1.121141	0.226468	0.240017	0.943983	-0.036587	0.970576	-0.238001	-0.973331	0.019362	0.228586
151	5848849283.000000													9.937391	-0.931243	1.662376	0.228153	0.234971	0.944846	-0.041562	0.971907	-0.231665	-0.972738	0.013586	0.231510
152	5848899295.000000													10.975173	0.426934	-0.682587	0.221607	0.240196	0.945091	-0.052536	0.970722	-0.234391	-0.973720	0.002291	0.227738
153	5848949306.000000													12.989054	0.798469	2.256766	0.226724	0.250288	0.941250	-0.035176	0.967890	-0.248899	-0.973324	0.023322	0.228248
154	5848999318.000000													11.333460	-2.476496	4.520288	0.222380	0.231098	0.947175	0.007165	0.971088	-0.238615	-0.974934	0.059850	0.214294
155	5849049329.000000													8.464168	1.583299	4.695670	0.230522	0.231392	0.945155	0.009409	0.970740	-0.239950	-0.973022	0.064206	0.221600
156	5849099340.000000													9.043626	-0.191686	3.812651	0.241881	0.236318	0.941088	0.021544	0.968341	-0.248699	-0.970067	0.080430	0.229132
157	5849149352.000000													9.540728	-1.169541	3.354402	0.246129	0.235497	0.940192	0.019605	0.968625	-0.247751	-0.969039	0.079412	0.233790
158	5849199363.000000													8.785223	-0.067878	2.919920	0.245683	0.232553	0.941041	0.006700	0.970366	-0.241549	-0.969327	0.065649	0.236844
159	5849249375.000000													8.409900	-0.346234	2.524405	0.252949	0.225574	0.940815	-0.004706	0.972715	-0.231957	-0.967468	0.054246	0.247109
160	5849299386.000000													8.431849	-0.897031	2.149204	0.253333	0.211849	0.943897	-0.011878	0.976334	-0.215941	-0.967306	0.043493	0.249854
161	5849349398.000000													8.232679	-0.211183	1.489482	0.243782	0.201112	0.948749	-0.011205	0.978782	-0.204599	-0.969765	0.039247	0.240863
162	5849399409.000000													9.074617	-0.555840	1.799932	0.237135	0.198707	0.950938	-0.003473	0.979025	-0.203710	-0.971471	0.045004	0.232851
163	5849449421.000000													10.304046	-0.399503	1.769180	0.226936	0.195140	0.954160	0.003328	0.979560	-0.201126	-0.973904	0.048818	0.221648
164	5849499432.000000													10.360477	-0.631478	1.136165	0.215364	0.189914	0.957889	0.008880	0.980486	-0.196391	-0.976493	0.050801	0.209475
165	5849549444.000000													12.303839	-1.420168	1.695660	0.219200	0.178755	0.959165	0.009948	0.982613	-0.185398	-0.975629	0.050181	0.213610
166	5849599455.000000													11.238591	1.153932	4.348246	0.213475	0.185885	0.959101	-0.007025	0.981998	-0.188760	-0.976923	0.033558	0.210938
167	5849649467.000000													7.315300	-0.167217	3.992391	0.206776	0.195438	0.958670	-0.013774	0.980330	-0.196882	-0.978291	0.027506	0.205401
168	5849699478.000000													8.281804	-0.436135	3.551849	0.210323	0.190012	0.958989	-0.017209	0.981498	-0.190698	-0.977480	0.023605	0.209702
169	5849749490.000000													10.212168	1.434740	3.285545	0.209143	0.203569	0.956462	-0.030626	0.978976	-0.201664	-0.977405	0.012884	0.210980
170	5849799501.000000													9.300760	0.864115	2.525035	0.198919	0.229839	0.952683	-0.021653	0.972903	-0.230196	-0.979777	0.025161	0.198505
171	5849849513.000000													9.531869	0.091336	2.161517	0.195428	0.260638	0.945450	-0.011921	0.964599	-0.263453	-0.980646	0.040216	0.191617
172	5849899524.000000													9.915890	0.286954	2.294352	0.200968	0.285323	0.937125	-0.000057	0.956646	-0.291254	-0.979598	0.058480	0.192271
173	5849949536.000000													8.855927	1.284278	2.215929	0.205226	0.322059	0.924208	0.001673	0.944191	-0.329394	-0.978713	0.069146	0.193234
174	5849999547.000000													9.287402	0.923147	2.340657	0.215865	0.376112	0.901078	-0.001298	0.922945	-0.384929	-0.976422	0.081923	0.199720
175	5850049559.000000													9.150125	1.221563	1.615520	0.217123	0.454271	0.864000	-0.010144	0.886117	-0.463351	-0.976091	0.091840	0.197005
176	5850099570.000000													10.081494	1.286695	1.642582	0.223244	0.545744	0.807667	-0.020147	0.830985	-0.555931	-0.974554	0.107836	0.196507
177	5850149582.000000													10.195749	0.694189	1.338367	0.228947	0.630508	0.741649	-0.024768	0.765412	-0.643064	-0.973124	0.128858	0.190855
178	5850199593.000000													11.021254	1.498028	0.827083	0.237549	0.719302	0.652820	-0.036359	0.678171	-0.734004	-0.970695	0.150626	0.187252
179	5850249605.000000													11.452855	-2.632304	3.773694	0.259476	0.789977	0.555526	-0.031805	0.581906	-0.812634	-0.965226	0.193191	0.176116
180	5850299616.000000													7.386005	-0.231563	3.990443	0.264839	0.844467	0.465549	-0.020233	0.487548	-0.872862	-0.964080	0.221748	0.146208
181	5850349628.000000													8.203332	-0.164264	2.215189	0.264867	0.890301	0.370418	-0.021628	0.389526	-0.920762	-0.964042	0.235868	0.122428
182	5850399639.000000													10.018529	-1.343497	2.000268	0.265671	0.925150	0.271140	-0.025377	0.287861	-0.957336	-0.963730	0.247455	0.099954
183	5850449651.000000													9.648438	0.093984	2.137569	0.262608	0.951957	0.157526	-0.027035	0.170451	-0.984995	-0.964524	0.254409	0.070498
184	5850499662.000000													9.056197	-0.342092	2.177150	0.259775	0.965357	0.024567	-0.033964	0.034558	-0.998825	-0.965072	0.258636	0.041765
185	5850549674.000000													9.624983	-1.093789	2.187824	0.259650	0.959115	-0.112606	-0.038660	-0.106188	-0.993594	-0.964929	0.262340	0.009508
186	5850599685.000000													9.667067	-0.731243	2.259128	0.259770	0.933118	-0.248619	-0.041789	-0.246353	-0.968279	-0.964766	0.261919	-0.025001
187	5850649697.000000													9.339464	-0.894846	2.124270	0.258651	0.889888	-0.375765	-0.038358	-0.379233	-0.924506	-0.965209	0.253538	-0.063954
188	5850699708.000000													9.320061	-0.716486	2.047527	0.258703	0.832084	-0.490622	-0.032226	-0.500196	-0.865313	-0.965419	0.239669	-0.102587
189	5850749720.000000													9.811111	-1.264793	2.606273	0.260189	0.762168	-0.592791	-0.023053	-0.608858	-0.792944	-0.965282	0.219981	-0.140848
190	5850799731.000000													9.280173	-0.057638	3.201052	0.258260	0.678949	-0.687262	-0.009970	-0.709485	-0.704650	-0.966024	0.188835	-0.176462
191	5850849742.000000													9.307458	-0.359106	2.688853	0.248300	0.592308	-0.766497	0.004112	-0.791915	-0.610617	-0.968675	0.148464	-0.199068
192	5850899754.000000													10.462203	-1.938740	2.507246	0.239340	0.531361	-0.812633	0.009603	-0.838213	-0.545259	-0.970888	0.122698	-0.205720
193	5850949765.000000													11.127133	-0.447529	2.212900	0.235710	0.477657	-0.846336	-0.010013	-0.869634	-0.493595	-0.971772	0.124820	-0.200199
194	5850999777.000000													8.967356	0.328283	1.119840	0.240180	0.418998	-0.875645	-0.017132	-0.900079	-0.435389	-0.970577	0.119573	-0.209003
195	5851049788.000000													9.455382	0.702543	1.023765	0.248866	0.352164	-0.902245	-0.019960	-0.929491	-0.368304	-0.968332	0.109668	-0.224290
196	5851099800.000000													10.455184	0.501827	1.123151	0.251296	0.288692	-0.923854	-0.016556	-0.953062	-0.302322	-0.967769	0.091268	-0.234721
197	5851149811.000000													10.180277	0.856372	0.707306	0.247099	0.223812	-0.942788	-0.009098	-0.972381	-0.233222	-0.968947	0.066206	-0.238239
198	5851199823.000000													9.707471	0.068865	0.880827	0.246832	0.157729	-0.956136	-0.003009	-0.986535	-0.163520	-0.969054	0.043239	-0.243034
199	5851249834.000000													9.687495	0.124236	1.425333	0.253707	0.096593	-0.962446	-0.001960	-0.994948	-0.100372	-0.967279	0.027352	-0.252236
200	5851299846.000000													9.694202	0.163121	1.718431	0.259266	0.040057	-0.964975	-0.005596	-0.999060	-0.042975	-0.965790	0.016542	-0.258798
201	5851349857.000000													9.403177	0.056252	1.697277	0.260998	-0.008448	-0.965302	-0.008715	-0.999942	0.006394	-0.965300	0.006744	-0.261056
202	5851399869.000000													9.729711	0.159389	1.418577	0.262415	-0.051303	-0.963590	-0.013157	-0.998683	0.049589	-0.964865	-0.000335	-0.262745
203	5851449880.000000													10.050448	0.185271	1.636137	0.266408	-0.090687	-0.959585	-0.020044	-0.995870	0.088551	-0.963652	-0.004357	-0.267126
204	5851499892.000000													10.295705	-0.244239	1.864670	0.273500	-0.123771	-0.953876	-0.025661	-0.992272	0.121395	-0.961530	-0.008724	-0.274563
205	5851549903.000000													9.426831	0.297797	2.170585	0.275816	-0.148817	-0.949620	-0.025684	-0.988731	0.147486	-0.960867	-0.016289	-0.276530
206	5851599915.000000													9.015810	-0.189000	2.225817	0.274648	-0.171675	-0.946095	-0.028531	-0.984954	0.170443	-0.961121	-0.019819	-0.275414
207	5851649926.000000													9.425119	-0.491209	2.659435	0.278613	-0.194946	-0.940410	-0.031665	-0.980514	0.193878	-0.959881	-0.024239	-0.279357
208	5851699938.000000													9.228786	-0.627486	3.239933	0.290499	-0.220277	-0.931176	-0.031334	-0.974810	0.220824	-0.956362	-0.034972	-0.290084
209	5851749949.000000													9.244517	-0.830297	3.349953	0.301887	-0.245562	-0.921175	-0.028538	-0.968152	0.248733	-0.952916	-0.048801	-0.299280
210	5851799961.000000													9.957787	-1.163995	2.689216	0.306268	-0.269437	-0.913019	-0.034314	-0.961610	0.272266	-0.951327	-0.052057	-0.303755
211	5851849972.000000													9.721115	-1.317727	2.174597	0.305478	-0.284021	-0.908854	-0.049695	-0.957933	0.282655	-0.950902	-0.041180	-0.306742
212	5851899984.000000													9.346110	-0.972186	1.992226	0.303633	-0.288732	-0.907987	-0.061814	-0.956940	0.283628	-0.950782	-0.029992	-0.308406
213	5851949995.000000													9.480661	-0.474608	1.756082	0.302365	-0.288792	-0.908391	-0.067712	-0.957099	0.281738	-0.950784	-0.023679	-0.308948
214	5852000007.000000													9.632408	-0.810364	1.673107	0.302934	-0.289980	-0.907823	-0.072005	-0.956825	0.281605	-0.950287	-0.019940	-0.310735
215	5852050018.000000													9.477501	-1.181046	1.418761	0.306946	-0.289611	-0.906592	-0.073394	-0.956942	0.280847	-0.948893	-0.019666	-0.314985
216	5852100030.000000													9.326825	-1.930147	1.756179	0.312162	-0.278122	-0.908407	-0.070421	-0.960332	0.269820	-0.947415	-0.020257	-0.319365
217	5852150041.000000													9.222215	-1.585402	1.785627	0.303531	-0.256393	-0.917677	-0.066070	-0.966461	0.248170	-0.950528	-0.014697	-0.310291
218	5852200053.000000													10.288917	-0.941419	1.037945	0.292573	-0.235755	-0.926726	-0.065173	-0.971795	0.226645	-0.954020	-0.005913	-0.299685
219	5852250064.000000													11.963193	-0.929649	2.699634	0.289897	-0.226711	-0.929818	-0.066894	-0.973962	0.216618	-0.954717	-0.000597	-0.297514
220	5852300076.000000													11.102887	0.453216	2.916812	0.279605	-0.230243	-0.932099	-0.069347	-0.973128	0.219575	-0.957607	0.003244	-0.288058
221	5852350087.000000													9.332981	-2.099349	2.665098	0.268211	-0.225129	-0.936685	-0.054303	-0.974298	0.218620	-0.961828	-0.007771	-0.273543
222	5852400099.000000													7.783367	0.549304	3.145144	0.270652	-0.217281	-0.937836	-0.044742	-0.975982	0.213207	-0.961637	-0.015745	-0.273873
223	5852450110.000000													9.074324	-0.331619	3.682687	0.275383	-0.212198	-0.937623	-0.048459	-0.977158	0.206913	-0.960112	-0.011545	-0.279376
224	5852500122.000000													8.718848	0.219229	3.439855	0.265193	-0.208875	-0.941299	-0.036692	-0.977733	0.206622	-0.963497	-0.020256	-0.266952
225	5852550133.000000													9.018868	0.784751	2.360567	0.253073	-0.209980	-0.944385	-0.019623	-0.977075	0.211990	-0.967248	-0.035118	-0.251392
226	5852600145.000000													9.536425	-0.057134	1.883267	0.247929	-0.213167	-0.945035	-0.010761	-0.976037	0.217337	-0.968719	-0.043715	-0.244282
227	5852650156.000000													9.447142	0.467598	1.744984	0.250246	-0.214351	-0.944156	-0.006672	-0.975543	0.219708	-0.968159	-0.048682	-0.245556
228	5852700167.000000													8.968390	0.440211	1.490802	0.255893	-0.216563	-0.942135	-0.011272	-0.975186	0.221098	-0.966639	-0.045958	-0.251985
229	5852750179.000000													9.087735	0.619617	1.343107	0.251546	-0.222979	-0.941809	-0.017782	-0.974000	0.225851	-0.967682	-0.040064	-0.248971
230	5852800190.000000													9.837029	1.200790	0.839384	0.243516	-0.236945	-0.940509	-0.028405	-0.971026	0.237279	-0.969481	-0.031066	-0.243191
231	5852850202.000000													10.368850	0.142137	0.664537	0.235738	-0.248080	-0.939619	-0.034492	-0.968395	0.247024	-0.971204	-0.025824	-0.236844
232	5852900213.000000													11.335517	0.515992	0.431544	0.231292	-0.263645	-0.936480	-0.034587	-0.964201	0.262907	-0.972269	-0.028419	-0.232131
233	5852950225.000000													12.654701	-1.541113	3.514632	0.221095	-0.258232	-0.940443	-0.010112	-0.964863	0.262560	-0.975200	-0.048541	-0.215937
234	5853000236.000000													9.678115	0.332835	4.387098	0.220078	-0.247102	-0.943666	0.007833	-0.966906	0.255014	-0.975451	-0.063515	-0.210859
235	5853050248.000000													8.866160	0.263771	4.008982	0.232945	-0.251011	-0.939537	0.012610	-0.965254	0.261008	-0.972408	-0.072648	-0.221686
236	5853100259.000000													9.794132	-0.605515	3.181314	0.239352	-0.249185	-0.938412	0.019174	-0.965104	0.261163	-0.970743	-0.080503	-0.226222
237	5853150271.000000													8.934190	-0.222204	2.984958	0.242481	-0.247258	-0.938118	0.005365	-0.966620	0.256157	-0.970141	-0.067146	-0.233061
238	5853200282.000000													8.160441	-0.493048	2.443821	0.249069	-0.238958	-0.938543	-0.007639	-0.969538	0.244822	-0.968456	-0.053808	-0.243307
239	5853250294.000000													8.417242	-0.378693	2.034900	0.257767	-0.234568	-0.937302	-0.020200	-0.971180	0.237491	-0.965996	-0.042284	-0.255076
240	5853300305.000000													8.865869	-0.048614	1.308288	0.261942	-0.237763	-0.935337	-0.020694	-0.970338	0.240865	-0.964862	-0.043736	-0.259093
241	5853350317.000000													8.084526	-0.917999	1.093434	0.264023	-0.239364	-0.934343	-0.010315	-0.969362	0.245420	-0.964461	-0.055158	-0.258403
242	5853400328.000000													10.047220	-0.987976	1.762435	0.265663	-0.233945	-0.935250	-0.006163	-0.970502	0.241013	-0.964046	-0.058265	-0.259268
243	5853450340.000000													10.228420	0.449195	1.448505	0.262129	-0.240747	-0.934521	-0.003819	-0.968634	0.248464	-0.965025	-0.061561	-0.254826
244	5853500351.000000													12.541260	-2.722703	0.089314	0.256505	-0.224537	-0.940100	-0.005177	-0.972947	0.230970	-0.966529	-0.054378	-0.250728
245	5853550363.000000													13.036165	1.182842	4.986913	0.255745	-0.217224	-0.942024	-0.027252	-0.975662	0.217582	-0.966360	-0.029974	-0.255440
246	5853600374.000000													8.309741	0.480590	3.988401	0.247393	-0.224127	-0.942637	-0.043235	-0.974463	0.220347	-0.967950	-0.013758	-0.250765
247	5853650386.000000													7.807435	-1.929232	4.280379	0.259097	-0.210851	-0.942556	-0.045560	-0.977462	0.206135	-0.964776	-0.010466	-0.262864
248	5853700397.000000													9.933105	0.590207	3.475753	0.258536	-0.198318	-0.945425	-0.046736	-0.980121	0.192816	-0.964870	-0.005665	-0.262666
249	5853750409.000000													8.550481	0.744063	3.126178	0.253829	-0.188465	-0.948711	-0.034729	-0.981977	0.185781	-0.966625	-0.014209	-0.255799
250	5853800420.000000													7.661253	0.717073	2.931364	0.251396	-0.193065	-0.948434	-0.021646	-0.980780	0.193911	-0.967642	-0.028218	-0.250743
251	5853850432.000000													8.552334	0.249736	2.116586	0.250411	-0.202653	-0.946692	-0.014263	-0.978513	0.205692	-0.968035	-0.038005	-0.247921
252	5853900443.000000													8.304155	0.370147	1.372004	0.245675	-0.209442	-0.946455	-0.015022	-0.977085	0.212321	-0.969236	-0.037944	-0.243192
253	5853950455.000000													9.104839	0.712475	1.052693	0.237504	-0.218364	-0.946525	-0.027313	-0.975522	0.218200	-0.971003	-0.025971	-0.237654
254	5854000466.000000													10.080078	0.568814	1.363371	0.229697	-0.229463	-0.945826	-0.035997	-0.973148	0.227350	-0.972596	-0.018175	-0.231789
255	5854050478.000000													10.165417	-0.528482	0.598406	0.224824	-0.228040	-0.947339	-0.042365	-0.973597	0.224306	-0.973478	-0.010295	-0.228549
256	5854100489.000000													12.550973	1.138232	0.868110	0.225397	-0.245734	-0.942768	-0.043890	-0.969247	0.242143	-0.973278	-0.013200	-0.229250
257	5854150501.000000													13.030476	-1.450498	4.110973	0.216301	-0.239995	-0.946370	-0.001014	-0.969372	0.245596	-0.976326	-0.052163	-0.209919
258	5854200512.000000													9.300694	0.173854	4.921678	0.222428	-0.237593	-0.945555	0.013839	-0.968984	0.246736	-0.974851	-0.067967	-0.212242
259	5854250524.000000													9.146561	0.038903	3.953468	0.237766	-0.245991	-0.939657	0.017332	-0.966171	0.257318	-0.971168	-0.077468	-0.225459
260	5854300535.000000													9.104471	-0.604622	2.932657	0.240082	-0.244179	-0.939541	0.019118	-0.966471	0.256063	-0.970564	-0.079439	-0.227364
261	5854350547.000000													8.207835	-0.232552	2.489546	0.239673	-0.242434	-0.940097	0.003533	-0.968096	0.250555	-0.970847	-0.063372	-0.231170
262	5854400558.000000													8.092327	-0.156460	1.983719	0.246588	-0.235686	-0.940025	-0.004772	-0.970261	0.242015	-0.969109	-0.055193	-0.240379
263	5854450570.000000													8.332985	-0.456389	1.953822	0.259769	-0.227058	-0.938597	-0.011011	-0.972597	0.232235	-0.965608	-0.049993	-0.255151
264	5854500581.000000													7.717440	-0.664251	1.629583	0.249930	-0.218098	-0.943381	-0.007482	-0.974708	0.223358	-0.968235	-0.048766	-0.245241
265	5854550592.000000													9.878752	-0.690344	0.739997	0.250188	-0.208792	-0.945416	-0.007452	-0.976857	0.213763	-0.968169	-0.046436	-0.245954
266	5854600604.000000													11.115582	-0.898420	1.453629	0.252277	-0.197915	-0.947199	-0.008711	-0.979285	0.202299	-0.967616	-0.042784	-0.248775
267	5854650615.000000													11.268522	0.099794	1.188814	0.251376	-0.194150	-0.948217	-0.011995	-0.980225	0.197524	-0.967815	-0.038278	-0.248733
268	5854700627.000000													12.683309	0.617848	3.918303	0.241689	-0.206485	-0.948130	-0.042547	-0.978412	0.202234	-0.969421	-0.008538	-0.245257
269	5854750638.000000													9.374269	-1.885769	3.716969	0.225926	-0.210725	-0.951080	-0.061931	-0.977455	0.201857	-0.972174	0.013296	-0.233883
270	5854800650.000000													8.584105	0.213493	4.272524	0.242447	-0.199212	-0.949491	-0.068021	-0.979773	0.188197	-0.967777	0.018958	-0.251094
271	5854850661.000000													9.497060	-0.586729	3.507230	0.242929	-0.193944	-0.950458	-0.078495	-0.980527	0.180017	-0.966863	0.030875	-0.253422
272	5854900673.000000													8.616131	-0.437382	3.013631	0.237626	-0.179785	-0.954574	-0.059241	-0.983575	0.170500	-0.969549	0.016034	-0.244373
273	5854950684.000000													7.708361	0.186339	2.355976	0.234564	-0.170854	-0.956968	-0.047160	-0.985274	0.164349	-0.970956	0.006580	-0.239167
274	5855000696.000000													8.154269	0.552222	1.918911	0.234337	-0.170820	-0.957030	-0.037948	-0.985298	0.166574	-0.971414	-0.002717	-0.237374
275	5855050707.000000													8.697248	0.989159	1.085784	0.225632	-0.177649	-0.957879	-0.035932	-0.984082	0.174045	-0.973550	-0.004852	-0.228423
276	5855100719.000000													9.233727	0.760531	0.876556	0.218633	-0.190200	-0.957091	-0.040744	-0.981744	0.185792	-0.974956	-0.001624	-0.222392
277	5855150730.000000													10.900142	0.042453	1.534303	0.213411	-0.198287	-0.956628	-0.044590	-0.980143	0.193214	-0.975944	0.001422	-0.218015
278	5855200742.000000													9.912694	0.264983	0.027001	0.204974	-0.204037	-0.957264	-0.052747	-0.978912	0.197357	-0.977345	0.010040	-0.211414
279	5855250753.000000													12.786195	0.186230	2.648581	0.199407	-0.215328	-0.955966	-0.040437	-0.976535	0.211527	-0.979082	-0.003523	-0.203436
280	5855300765.000000													10.737051	-1.805297	4.651320	0.183301	-0.197462	-0.963021	-0.001485	-0.979673	0.200594	-0.983056	-0.035339	-0.179869
281	5855350776.000000													9.925671	1.245708	4.564485	0.190565	-0.198581	-0.961379	0.007531	-0.979002	0.203714	-0.981646	-0.046061	-0.185068
282	5855400788.000000													10.668788	-1.045375	3.602483	0.194842	-0.205727	-0.959017	0.015405	-0.976993	0.212713	-0.980714	-0.056219	-0.187190
283	5855450799.000000													8.746349	-1.205777	2.382420	0.196008	-0.206297	-0.958656	0.006482	-0.977326	0.211640	-0.980581	-0.047698	-0.190227
284	5855500811.000000													8.145893	-0.343921	2.177311	0.205214	-0.202153	-0.957612	-0.007789	-0.978743	0.204945	-0.978686	-0.034599	-0.202426
285	5855550822.000000													7.818300	-0.141905	1.713012	0.222912	-0.197115	-0.954702	-0.012802	-0.979851	0.199319	-0.974755	-0.032208	-0.220944
286	5855600834.000000													8.300272	-1.183279	1.775499	0.235876	-0.188017	-0.953421	-0.011347	-0.981571	0.190761	-0.971717	-0.034177	-0.233662
287	5855650845.000000													7.961876	-1.146497	1.285174	0.240988	-0.173276	-0.954935	-0.002222	-0.984029	0.177994	-0.970525	-0.040773	-0.237524
288	5855700857.000000													10.410027	0.210450	1.449182	0.248857	-0.165919	-0.954223	0.002230	-0.985117	0.171873	-0.968538	-0.044900	-0.244783
289	5855750868.000000													9.851887	-0.153352	1.203472	0.248040	-0.171963	-0.953365	0.006543	-0.983799	0.179154	-0.968728	-0.050675	-0.242897
290	5855800880.000000													12.751655	-2.789411	-0.194401	0.243578	-0.156499	-0.957172	-0.003652	-0.987037	0.160453	-0.969874	-0.035587	-0.240992
291	5855850891.000000													12.289406	1.185513	5.105543	0.236468	-0.153646	-0.959414	-0.028361	-0.988089	0.151248	-0.971225	-0.008555	-0.238009
292	5855900903.000000													8.337465	1.569429	4.735689	0.230206	-0.163821	-0.959254	-0.051187	-0.986402	0.156174	-0.971795	0.013149	-0.235461
293	5855950914.000000													8.867621	-2.462971	4.080376	0.235194	-0.162556	-0.958259	-0.059766	-0.986468	0.152673	-0.970109	0.021364	-0.241726
294	5856000926.000000													10.109248	0.765050	3.439678	0.234443	-0.157041	-0.959362	-0.055907	-0.987410	0.147970	-0.970521	0.018944	-0.240271
295	5856050937.000000													8.357149	0.230458	3.101906	0.227553	-0.157912	-0.960876	-0.047297	-0.987391	0.151068	-0.972616	0.011071	-0.232153
296	5856100949.000000													7.772738	0.082365	2.617260	0.225844	-0.166533	-0.959824	-0.032895	-0.986022	0.163338	-0.973608	-0.005316	-0.228165
297	5856150960.000000													8.730729	0.547513	2.096919	0.227738	-0.180487	-0.956849	-0.026676	-0.983459	0.179157	-0.973357	-0.015276	-0.228786
298	5856200972.000000													7.927309	0.340173	1.153265	0.221580	-0.198522	-0.954720	-0.027844	-0.979947	0.197306	-0.974745	-0.017136	-0.222665
299	5856250983.000000													8.994373	0.551227	0.773538	0.215407	-0.219759	-0.951476	-0.035654	-0.975469	0.217229	-0.975873	-0.012868	-0.217958
300	5856300994.000000													10.446231	-0.293328	1.024404	0.212553	-0.236358	-0.948133	-0.043201	-0.971629	0.232531	-0.976194	-0.008465	-0.216734
301	5856351006.000000													9.898100	-1.136175	0.346097	0.212350	-0.232321	-0.949176	-0.050422	-0.972639	0.226784	-0.975892	-0.000299	-0.218254
302	5856401017.000000													12.560380	1.538320	0.446649	0.217181	-0.247477	-0.944239	-0.049480	-0.968875	0.242553	-0.974877	-0.005957	-0.222666
303	5856451029.000000													12.450040	-2.292938	5.088854	0.212253	-0.235415	-0.948435	-0.002272	-0.970665	0.240424	-0.977212	-0.048876	-0.206561
304	5856501040.000000													9.118732	0.592529	5.151561	0.213894	-0.225585	-0.950453	0.021517	-0.971646	0.235457	-0.976620	-0.070814	-0.202976
305	5856551052.000000													9.923742	0.682955	4.164631	0.223424	-0.229430	-0.947335	0.027480	-0.970034	0.241409	-0.974334	-0.079969	-0.210424
306	5856601063.000000													9.462737	-1.411619	3.017162	0.223920	-0.223016	-0.948748	0.026272	-0.971732	0.234619	-0.974253	-0.077462	-0.211732
307	5856651075.000000													8.287394	0.495245	2.848784	0.226158	-0.221656	-0.948536	0.010864	-0.973131	0.229994	-0.974030	-0.062320	-0.217674
308	5856701086.000000													7.598376	0.095272	2.366607	0.234504	-0.221714	-0.946494	0.005268	-0.973340	0.229308	-0.972101	-0.058759	-0.227084
309	5856751098.000000													8.189492	-0.862247	2.355046	0.242432	-0.213563	-0.946371	0.004172	-0.975232	0.221145	-0.970160	-0.057561	-0.235536
310	5856801109.000000													8.376624	-0.526411	1.460009	0.234865	-0.202542	-0.950692	0.005840	-0.977738	0.209747	-0.972010	-0.054815	-0.228454
311	5856851121.000000													9.349477	-0.205646	0.924522	0.227343	-0.192360	-0.954627	0.013122	-0.979602	0.200518	-0.973726	-0.058113	-0.220182
312	5856901132.000000													10.424293	-0.752818	1.884236	0.231225	-0.182533	-0.955624	0.015491	-0.981427	0.191210	-0.972777	-0.059016	-0.224102
313	5856951144.000000													10.420469	-0.049418	1.105474	0.228971	-0.176411	-0.957315	0.018484	-0.982476	0.185469	-0.973258	-0.060162	-0.221698
314	5857001155.000000													13.379722	0.342895	4.107888	0.226437	-0.176158	-0.957964	-0.001156	-0.983558	0.180591	-0.974025	-0.039785	-0.222918
315	5857051167.000000													9.896541	-0.743600	3.990756	0.199274	-0.185567	-0.962214	-0.020531	-0.982482	0.185224	-0.979729	-0.017155	-0.199593
316	5857101178.000000													7.532487	0.375210	3.505661	0.191932	-0.179328	-0.964885	-0.013225	-0.983547	0.180166	-0.981319	-0.021819	-0.191146
317	5857151190.000000													9.834246	0.525526	3.370746	0.191690	-0.184252	-0.964005	-0.027443	-0.982842	0.182395	-0.981072	-0.008508	-0.193457
318	5857201201.000000													9.642931	0.064526	2.952634	0.186681	-0.191375	-0.963601	-0.035763	-0.981517	0.188004	-0.981770	-0.000635	-0.190074
319	5857251213.000000													9.082375	0.598873	2.637434	0.178391	-0.202028	-0.962996	-0.030379	-0.979359	0.199834	-0.983491	-0.006394	-0.180846
320	5857301224.000000													8.758677	0.607735	2.121783	0.174905	-0.222216	-0.959181	-0.022838	-0.974851	0.221682	-0.984320	-0.016868	-0.175581
321	5857351236.000000													9.252046	0.624703	2.104690	0.173531	-0.253518	-0.951638	-0.015669	-0.966887	0.254723	-0.984704	-0.029292	-0.171757
322	5857401247.000000													8.574820	0.468819	2.202324	0.174847	-0.292725	-0.940075	-0.018528	-0.955592	0.294111	-0.984421	-0.034007	-0.172506
323	5857451259.000000													9.137255	0.614415	2.294360	0.183723	-0.338110	-0.922999	-0.026920	-0.940361	0.339112	-0.982609	-0.037456	-0.181868
324	5857501270.000000													9.553023	0.868235	1.881918	0.183397	-0.400711	-0.897661	-0.039797	-0.915427	0.400511	-0.982233	-0.037728	-0.183833
325	5857551282.000000													10.219662	0.961858	1.942064	0.178757	-0.465821	-0.866635	-0.044443	-0.883746	0.465851	-0.982889	-0.044758	-0.178679
326	5857601293.000000													10.812273	1.060144	0.243831	0.173135	-0.535075	-0.826873	-0.045642	-0.843009	0.535959	-0.983840	-0.055053	-0.170377
327	5857651305.000000													11.351485	-0.493138	1.509781	0.188636	-0.613588	-0.766763	-0.045855	-0.785432	0.617247	-0.980976	-0.081275	-0.176297
328	5857701316.000000													9.176272	-4.411493	4.060986	0.204746	-0.659338	-0.723431	-0.004327	-0.739691	0.672933	-0.978806	-0.134650	-0.154302
329	5857751328.000000													9.804466	1.538370	3.595556	0.205192	-0.703000	-0.680945	0.020879	-0.692447	0.721166	-0.978499	-0.162195	-0.127407
330	5857801339.000000													9.980419	-0.633814	3.485072	0.213560	-0.759298	-0.614703	0.019979	-0.625693	0.779814	-0.976726	-0.178818	-0.118453
331	5857851351.000000													9.116918	0.778272	2.591217	0.223463	-0.823371	-0.521655	0.016096	-0.531999	0.846592	-0.974579	-0.197579	-0.105629
332	5857901362.000000													8.757451	-0.624697	2.175972	0.232144	-0.883824	-0.406159	0.010206	-0.415330	0.909614	-0.972628	-0.215307	-0.087396
333	5857951374.000000													8.840158	-0.635747	2.091880	0.240414	-0.928329	-0.283560	0.013374	-0.288932	0.957256	-0.970578	-0.233930	-0.057048
334	5858001385.000000													9.187007	-0.278415	2.185808	0.249214	-0.956012	-0.154701	0.014540	-0.156030	0.987645	-0.968339	-0.248385	-0.024985
335	5858051397.000000													9.857788	0.020193	2.407831	0.254832	-0.966811	-0.018373	0.015631	-0.014879	0.999767	-0.966859	-0.255060	0.011321
336	5858101408.000000													9.342780	0.543094	2.245056	0.258523	-0.957061	0.131149	0.021125	0.141333	0.989737	-0.965774	-0.253099	0.056756
337	5858151419.000000													9.926501	-0.916568	1.783680	0.257717	-0.925906	0.276188	0.025238	0.292197	0.956025	-0.965891	-0.239414	0.098672
338	5858201431.000000													9.713088	-1.265550	1.803651	0.256930	-0.878517	0.402734	0.031107	0.424026	0.905116	-0.965929	-0.220024	0.136273
339	5858251442.000000													9.407278	-0.703067	2.301476	0.255827	-0.819878	0.512204	0.038249	0.538005	0.842073	-0.965966	-0.195834	0.168996
340	5858301454.000000													9.795298	0.021727	2.353652	0.258024	-0.746621	0.613172	0.042960	0.642902	0.764743	-0.965183	-0.170980	0.197959
341	5858351465.000000													10.264769	-1.563587	2.039015	0.258762	-0.674978	0.690975	0.048208	0.723471	0.688669	-0.964737	-0.144891	0.219746
342	5858401477.000000													10.249469	-1.150199	2.242244	0.257359	-0.609270	0.750037	0.042705	0.782595	0.621065	-0.965372	-0.127807	0.227427
343	5858451488.000000													9.620584	0.497929	1.823090	0.261086	-0.541650	0.799030	0.029664	0.831851	0.554206	-0.964860	-0.120993	0.233252
344	5858501500.000000													9.292800	0.666808	2.361162	0.276716	-0.469731	0.838320	0.024723	0.875577	0.482446	-0.960634	-0.112775	0.253899
345	5858551511.000000													9.704327	0.914424	1.783863	0.289602	-0.402115	0.868582	0.022696	0.910099	0.413768	-0.956878	-0.100115	0.272693
346	5858601523.000000													9.999507	0.862830	1.890397	0.298207	-0.340899	0.891550	0.024054	0.936435	0.350016	-0.954198	-0.082932	0.287452
347	5858651534.000000													9.840392	1.101184	1.758614	0.299921	-0.284175	0.910655	0.026387	0.956707	0.289856	-0.953599	-0.062904	0.294435
348	5858701546.000000													9.290141	1.177582	1.793370	0.303575	-0.224653	0.925945	0.027964	0.973488	0.227020	-0.952397	-0.043025	0.301809
349	5858751557.000000													9.339077	0.718179	1.840140	0.308022	-0.160496	0.937744	0.025603	0.986709	0.160466	-0.951035	-0.025418	0.308038
350	5858801569.000000													9.647005	0.368896	1.840519	0.311374	-0.095624	0.945464	0.017525	0.995333	0.094897	-0.950126	-0.012979	0.311597
351	5858851580.000000													9.541655	0.633506	1.582837	0.312341	-0.031052	0.949462	0.006487	0.999512	0.030555	-0.949948	-0.003385	0.312390
352	5858901592.000000													9.500546	0.610492	1.471604	0.312826	0.030494	0.949321	-0.005483	0.999526	-0.030300	-0.949795	0.004274	0.312845
353	5858951603.000000													10.296325	-0.617471	2.074622	0.308592	0.073276	0.948368	-0.007254	0.997181	-0.074687	-0.951167	0.016169	0.308253
354	5859001615.000000													9.586311	-0.173994	2.065795	0.299647	0.094049	0.949403	0.000843	0.995103	-0.098842	-0.954050	0.030418	0.298100
355	5859051626.000000													9.419165	0.176769	2.903811	0.297616	0.103694	0.949037	0.009053	0.993733	-0.111417	-0.954643	0.041751	0.294812
356	5859101638.000000													9.221167	-0.333928	3.461188	0.299470	0.115557	0.947082	0.010235	0.992192	-0.124298	-0.954051	0.046917	0.295949
357	5859151649.000000													9.964557	-0.215533	3.492645	0.301746	0.137413	0.943434	0.003150	0.989409	-0.145117	-0.953383	0.046760	0.298117
358	5859201661.000000													9.808782	-1.001493	2.063655	0.303163	0.159614	0.939476	-0.006817	0.986211	-0.165354	-0.952914	0.043725	0.300071
359	5859251672.000000													10.372548	-1.373417	1.815410	0.311331	0.174834	0.934080	-0.019520	0.983900	-0.177653	-0.950101	0.037076	0.309731
360	5859301684.000000													9.389895	-0.261474	1.950202	0.316675	0.192033	0.928892	-0.033225	0.980937	-0.191466	-0.947952	0.029769	0.317018
361	5859351695.000000													9.129125	0.294806	1.821063	0.321843	0.225151	0.919633	-0.040272	0.973690	-0.224291	-0.945936	0.035151	0.322442
362	5859401707.000000													9.123297	-1.873680	1.947840	0.331066	0.254151	0.908737	-0.042737	0.966096	-0.254623	-0.942639	0.045460	0.330703
363	5859451718.000000													8.926837	-1.481936	1.825694	0.335815	0.269606	0.902519	-0.044583	0.961637	-0.270677	-0.940872	0.050661	0.334952
364	5859501730.000000													9.569603	-1.399103	1.393572	0.335332	0.268258	0.903100	-0.043046	0.961965	-0.269759	-0.941116	0.051584	0.334125
365	5859551741.000000													9.794689	-1.437382	1.495178	0.332674	0.250192	0.909248	-0.036364	0.966851	-0.252738	-0.942340	0.051016	0.330745
366	5859601753.000000													10.183291	-0.687871	1.192307	0.324683	0.228937	0.917698	-0.031185	0.972327	-0.231532	-0.945309	0.046556	0.322837
367	5859651764.000000													12.267190	-0.283038	2.202049	0.314549	0.220010	0.923393	-0.042332	0.975053	-0.217898	-0.948297	0.029451	0.316015
368	5859701776.000000													10.955120	-0.305300	3.031260	0.299678	0.218337	0.928721	-0.046337	0.975643	-0.214416	-0.952915	0.021222	0.302495
369	5859751787.000000													8.570835	-0.710460	3.903666	0.289791	0.216215	0.932348	-0.040242	0.976040	-0.213840	-0.956244	0.024449	0.291548
370	5859801799.000000													8.141478	0.374646	3.857241	0.291797	0.215225	0.931951	-0.037215	0.976172	-0.213785	-0.955756	0.027699	0.292854
371	5859851810.000000													9.613416	-0.443834	3.247867	0.290027	0.213707	0.932852	-0.036229	0.976502	-0.212443	-0.956333	0.027818	0.290954
372	5859901821.000000													9.165333	0.047793	2.812014	0.284549	0.206011	0.936265	-0.022863	0.977818	-0.208206	-0.958389	0.037839	0.282947
373	5859951833.000000													8.482076	0.564209	2.520006	0.277596	0.206323	0.938281	-0.008338	0.977147	-0.212403	-0.960662	0.051139	0.272972
374	5860001844.000000													8.572906	0.428771	1.710366	0.271965	0.214256	0.938152	0.001342	0.974813	-0.223018	-0.962306	0.061913	0.264828
375	5860051856.000000													9.269175	0.055522	1.207915	0.273366	0.221254	0.936118	-0.001252	0.973268	-0.229669	-0.961909	0.061612	0.266335
376	5860101867.000000													8.579009	0.766909	1.160835	0.272557	0.230809	0.934045	-0.014142	0.971656	-0.235976	-0.962036	0.051107	0.268095
377	5860151879.000000													8.970143	0.511834	1.093963	0.261672	0.242696	0.934145	-0.023108	0.969166	-0.245322	-0.964880	0.042608	0.259212
378	5860201890.000000													10.689438	-0.208742	1.433047	0.252074	0.239910	0.937498	-0.026610	0.970134	-0.241107	-0.967342	0.035830	0.250930
379	5860251902.000000													12.202792	0.891094	0.528518	0.245558	0.249733	0.936661	-0.034454	0.967884	-0.249025	-0.968769	0.028878	0.246276
380	5860301913.000000													13.487454	-1.341920	3.591721	0.234073	0.240726	0.941945	-0.004066	0.969095	-0.246654	-0.972211	0.053905	0.227818
381	5860351925.000000													10.249157	0.707759	4.305284	0.233702	0.225068	0.945900	0.012588	0.972058	-0.234403	-0.972227	0.066688	0.224339
382	5860401936.000000													8.522660	0.134695	4.390929	0.247214	0.223607	0.942807	0.014558	0.972041	-0.234358	-0.968852	0.071662	0.237047
383	5860451948.000000													9.062900	0.334023	3.488908	0.253825	0.221714	0.941497	0.022930	0.971722	-0.235013	-0.966978	0.081241	0.241563
384	5860501959.000000													8.426116	-0.158686	3.046971	0.253937	0.227991	0.939966	0.008646	0.971248	-0.237914	-0.967182	0.068543	0.244665
385	5860551971.000000													7.854511	-0.777594	2.429920	0.256396	0.227255	0.939477	-0.001930	0.972086	-0.234617	-0.966570	0.058342	0.249677
386	5860601982.000000													8.359285	-0.455450	2.115119	0.263226	0.220638	0.939165	-0.008706	0.974000	-0.226382	-0.964695	0.051413	0.258303
387	5860651994.000000													8.328459	-0.542721	1.388896	0.259621	0.214812	0.941516	-0.005157	0.975241	-0.221084	-0.965697	0.052543	0.254301
388	5860702005.000000													8.793785	-0.461151	0.941238	0.251069	0.212854	0.944276	-0.001036	0.975582	-0.219635	-0.967969	0.054165	0.245159
389	5860752017.000000													11.110926	-0.720385	1.349699	0.250827	0.212308	0.944463	-0.001815	0.975755	-0.218860	-0.968030	0.053182	0.245131
390	5860802028.000000													10.535673	-0.555890	0.122107	0.246859	0.205144	0.947088	0.001455	0.977256	-0.212058	-0.969050	0.053727	0.240946
391	5860852040.000000													12.697012	-0.867306	3.740309	0.247327	0.188017	0.950515	-0.011969	0.981510	-0.191034	-0.968858	0.035871	0.245005
392	5860902051.000000													10.119287	1.353991	5.108320	0.226086	0.189165	0.955564	-0.038621	0.981933	-0.185248	-0.973341	0.004977	0.229307
393	5860952063.000000													8.440176	-1.170732	4.339395	0.233451	0.176820	0.956157	-0.047910	0.984225	-0.170313	-0.971188	-0.006050	0.238240
394	5861002074.000000													9.866364	-0.133384	4.071153	0.235565	0.166108	0.957558	-0.056525	0.985959	-0.157129	-0.970213	-0.017112	0.241647
395	5861052086.000000													8.739450	1.229987	3.069632	0.228094	0.164785	0.959593	-0.052015	0.986229	-0.156995	-0.972249	-0.014103	0.233524
396	5861102097.000000													8.030229	0.290882	2.717529	0.221321	0.178411	0.958742	-0.038072	0.983954	-0.174314	-0.974458	0.002078	0.224562
397	5861152109.000000													8.156117	0.147784	1.902236	0.220653	0.200226	0.954579	-0.029341	0.979622	-0.198696	-0.974911	0.015835	0.222032
398	5861202120.000000													9.188175	0.214361	1.363085	0.216602	0.219856	0.951182	-0.026183	0.975270	-0.219461	-0.975909	0.022630	0.217002
399	5861252132.000000													8.568398	-0.021247	0.988557	0.205476	0.236337	0.949697	-0.034530	0.971550	-0.234305	-0.978053	0.015351	0.207791
400	5861302143.000000													9.781875	0.513194	1.006094	0.201691	0.254593	0.945782	-0.045145	0.967016	-0.250682	-0.978408	0.007863	0.206532
401	5861352155.000000													10.343159	-0.666005	1.810077	0.198186	0.257600	0.945708	-0.053565	0.966251	-0.251970	-0.978700	-0.000720	0.205296
402	5861402166.000000													10.858540	-0.150285	0.478798	0.195994	0.267894	0.943302	-0.063012	0.963412	-0.260512	-0.978579	-0.008381	0.205703
403	5861452178.000000													13.573027	-0.698087	3.048262	0.190040	0.261587	0.946286	-0.029756	0.964943	-0.260768	-0.981325	0.021399	0.191162
404	5861502189.000000													9.767204	0.040561	4.492436	0.183522	0.252665	0.949989	-0.004412	0.966605	-0.256232	-0.983006	0.042833	0.178508
405	5861552201.000000													8.721820	-0.222119	4.072659	0.185508	0.253945	0.949262	-0.000862	0.966071	-0.258274	-0.982642	0.047093	0.179432
406	5861602212.000000													9.429981	-0.499085	3.603941	0.187882	0.254804	0.948565	0.006248	0.965434	-0.260573	-0.982172	0.054883	0.179796
407	5861652224.000000													9.070656	-0.296969	3.038980	0.188840	0.256299	0.947972	0.000841	0.965298	-0.261151	-0.982008	0.050113	0.182071
408	5861702235.000000													8.835063	-0.583081	2.770470	0.194750	0.253376	0.947562	-0.003170	0.966216	-0.257713	-0.980848	0.047185	0.188974
409	5861752246.000000													8.635789	-0.536939	2.564090	0.202173	0.245271	0.948139	-0.009070	0.968559	-0.248620	-0.979308	0.041664	0.198041
410	5861802258.000000													8.347363	-0.833485	2.169288	0.200261	0.232278	0.951810	-0.010591	0.971946	-0.234964	-0.979685	0.036973	0.197103
411	5861852269.000000													8.428658	-0.525611	2.030721	0.193809	0.226004	0.954652	-0.005574	0.973341	-0.229297	-0.981024	0.039119	0.189901
412	5861902281.000000													9.483472	-0.725277	1.595227	0.186070	0.218703	0.957887	0.001770	0.974836	-0.222917	-0.982535	0.043174	0.181001
413	5861952292.000000													10.349180	-0.716989	1.555661	0.178304	0.199545	0.963530	0.012611	0.978677	-0.205016	-0.983895	0.048706	0.171986
414	5862002304.000000													10.693943	-0.524235	0.976821	0.176201	0.176528	0.968396	0.023822	0.982735	-0.183477	-0.984066	0.055398	0.168954
415	5862052315.000000													12.504443	-0.324866	2.756970	0.187463	0.152146	0.970417	0.026557	0.986785	-0.159843	-0.981913	0.055736	0.180945
416	5862102327.000000													9.884396	1.289760	3.591144	0.187919	0.141591	0.971925	0.015082	0.989022	-0.146997	-0.982069	0.042282	0.183721
417	5862152338.000000													7.484444	0.114746	2.988329	0.180999	0.142742	0.973069	0.012256	0.989007	-0.147360	-0.983407	0.038598	0.177260
418	5862202350.000000													8.599421	0.839943	3.148485	0.183425	0.138526	0.973225	0.014559	0.989530	-0.143590	-0.982926	0.040507	0.179487
419	5862252361.000000													9.614717	1.395740	3.433278	0.194572	0.137410	0.971216	0.000699	0.990120	-0.140224	-0.980888	0.027963	0.192553
420	5862302373.000000													10.287921	0.590249	3.289733	0.199833	0.139617	0.969832	-0.000835	0.989820	-0.142322	-0.979830	0.027631	0.197915
421	5862352384.000000													9.361672	0.782375	2.873764	0.201159	0.136277	0.970033	0.006222	0.990078	-0.140383	-0.979539	0.034274	0.198315
422	5862402396.000000													9.169193	1.033967	2.673122	0.204710	0.132847	0.969766	0.013488	0.990270	-0.138503	-0.978730	0.041433	0.200926
423	5862452407.000000													9.131710	0.809791	2.772786	0.210736	0.131250	0.968692	0.021106	0.990104	-0.138743	-0.977315	0.049683	0.205880
424	5862502419.000000													9.275438	0.529032	2.751784	0.218475	0.125504	0.967738	0.024020	0.990703	-0.133905	-0.975547	0.052500	0.213430
425	5862552430.000000													9.515466	0.396011	2.579913	0.224183	0.114189	0.967834	0.023103	0.992210	-0.122417	-0.974273	0.049803	0.219798
426	5862602442.000000													9.123572	0.545233	2.424751	0.226320	0.103296	0.968560	0.018789	0.993713	-0.110368	-0.973872	0.043177	0.222956
427	5862652453.000000													9.539074	1.066972	1.984893	0.224234	0.097833	0.969612	0.015273	0.994473	-0.103873	-0.974416	0.038101	0.221500
428	5862702465.000000													9.841216	1.214272	1.776189	0.222513	0.105039	0.969255	0.007254	0.993973	-0.109383	-0.974903	0.031370	0.220410
429	5862752476.000000													9.803627	0.827897	2.008652	0.222917	0.121077	0.967289	0.000235	0.992250	-0.124256	-0.974837	0.027926	0.221161
430	5862802488.000000													10.028441	-0.057330	2.729653	0.222643	0.135256	0.965472	-0.000994	0.990360	-0.138513	-0.974900	0.029880	0.220631
431	5862852499.000000													9.180144	0.218433	2.923987	0.220000	0.145205	0.964632	-0.002877	0.988952	-0.148210	-0.975496	0.029831	0.217988
432	5862902511.000000													9.363135	0.087180	3.050202	0.218265	0.155501	0.963421	-0.006564	0.987435	-0.157890	-0.975867	0.028138	0.216543
433	5862952522.000000													9.477617	-0.320854	3.016546	0.219079	0.162336	0.962108	-0.012559	0.986450	-0.163583	-0.975626	0.023754	0.218150
434	5863002534.000000													9.232394	-0.015347	2.970317	0.219942	0.174195	0.959834	-0.017868	0.984482	-0.174574	-0.975349	0.021246	0.219642
435	5863052545.000000													8.958300	-0.132696	2.959460	0.222777	0.194466	0.955276	-0.017471	0.980541	-0.195535	-0.974713	0.026871	0.221840
436	5863102557.000000													9.748768	-0.739346	2.881565	0.226599	0.214725	0.950024	-0.013640	0.976000	-0.217343	-0.973893	0.036291	0.224090
437	5863152568.000000													9.860002	-0.726431	2.798851	0.233078	0.231357	0.944536	-0.010461	0.971828	-0.235460	-0.972402	0.044999	0.228932
438	5863202580.000000													9.783228	-1.143339	2.485986	0.237489	0.241100	0.940994	-0.009493	0.969238	-0.245941	-0.971344	0.049476	0.232472
439	5863252591.000000													9.729839	-1.312308	2.422651	0.240920	0.242204	0.939838	-0.013243	0.969091	-0.246348	-0.970455	0.046904	0.236681
440	5863302603.000000													9.321139	-1.150125	2.361225	0.240065	0.237494	0.941257	-0.018116	0.970539	-0.240262	-0.970588	0.040627	0.237295
441	5863352614.000000													9.426763	-0.567424	2.726477	0.240549	0.231694	0.942578	-0.019488	0.972050	-0.233965	-0.970441	0.037911	0.238341
442	5863402626.000000													9.768686	-0.083195	2.681709	0.242282	0.223852	0.944028	-0.017186	0.973856	-0.226515	-0.970054	0.038656	0.239795
443	5863452637.000000													9.947429	-0.245430	2.581780	0.244238	0.216334	0.945276	-0.020768	0.975741	-0.217940	-0.969493	0.033598	0.242805
444	5863502649.000000													9.122193	-0.100259	2.683412	0.248801	0.211914	0.945088	-0.021845	0.976751	-0.213263	-0.968308	0.032414	0.247646
445	5863552660.000000													9.141088	-0.251645	2.589468	0.252812	0.202710	0.946042	-0.018680	0.978646	-0.204704	-0.967335	0.034080	0.251200
446	5863602671.000000													9.575083	-0.178427	2.657968	0.252990	0.187833	0.949060	-0.016423	0.981665	-0.189908	-0.967330	0.032459	0.251436
447	5863652683.000000													9.624412	0.278015	2.646194	0.252920	0.174852	0.951556	-0.014975	0.984123	-0.176856	-0.967371	0.030480	0.251522
448	5863702694.000000													9.447785	0.062447	2.545436	0.252410	0.167030	0.953095	-0.014400	0.985528	-0.168900	-0.967513	0.028908	0.251162
449	5863752706.000000													9.553146	0.161344	2.765690	0.254419	0.163321	0.953204	-0.012552	0.986112	-0.165610	-0.967013	0.030170	0.252935
