// Start Time: Unknown
// Update Rate: 60.0Hz
//Filter Profile: human (46.1)
// Option Flags: AHS Disabled ICC Disabled
// Firmware Version: 4.0.2
0	sampleTimeFine	Year	Month	Day	Second	UTC_Nano	UTC_Year	UTC_Month	UTC_Day	UTC_Hour	UTC_Minute	UTC_Second	UTC_Valid	Acc_X	Acc_Y	Acc_Z	Mat[1][1]	Mat[2][1]	Mat[3][1]	Mat[1][2]	Mat[2][2]	Mat[3][2]	Mat[1][3]	Mat[2][3]	Mat[3][3]
0	4066259													-0.208774	0.110325	0.081013	0.315626	-0.835441	-0.449910	0.008318	-0.471692	0.881724	-0.948847	-0.282038	-0.141929
1	4066425													9.313451	0.076344	3.146645	0.315837	-0.835292	-0.450039	0.008029	-0.471948	0.881590	-0.948780	-0.282052	-0.142352
2	4066592													9.298236	0.064228	3.077778	0.316578	-0.835638	-0.448874	0.007688	-0.470937	0.882134	-0.948535	-0.282715	-0.142664
3	4066759													9.327486	0.050267	3.087197	0.316572	-0.835378	-0.449362	0.007227	-0.471588	0.881789	-0.948541	-0.282397	-0.143255
4	4067259													9.309174	0.066500	3.131206	0.316809	-0.836302	-0.447471	0.005874	-0.470034	0.882629	-0.948471	-0.282253	-0.143999
5	4067425													9.315314	0.060619	3.113694	0.316970	-0.836871	-0.446292	0.005534	-0.468916	0.883225	-0.948419	-0.282426	-0.144002
6	4067592													9.329166	0.063425	3.142417	0.317007	-0.837069	-0.445894	0.005228	-0.468593	0.883398	-0.948409	-0.282375	-0.144171
7	4067759													9.319130	0.080036	3.101219	0.317125	-0.837247	-0.445476	0.005034	-0.468228	0.883593	-0.948370	-0.282452	-0.144272
8	4067925													9.309540	0.096955	3.120287	0.317183	-0.837319	-0.445299	0.004938	-0.468080	0.883672	-0.948352	-0.282485	-0.144332
9	4068092													9.315458	0.058389	3.129539	0.317170	-0.837630	-0.444724	0.004922	-0.467476	0.883992	-0.948356	-0.282564	-0.144147
10	4068259													9.319557	0.077529	3.089124	0.317139	-0.837734	-0.444550	0.004914	-0.467290	0.884091	-0.948366	-0.282564	-0.144079
11	4068425													9.334742	0.058664	3.105010	0.317008	-0.837900	-0.444330	0.004920	-0.467035	0.884225	-0.948410	-0.282493	-0.143932
12	4068592													9.313287	0.046973	3.079026	0.316807	-0.838035	-0.444220	0.004830	-0.466912	0.884290	-0.948478	-0.282295	-0.143874
13	4068759													9.320803	0.065604	3.118750	0.316603	-0.838147	-0.444153	0.004760	-0.466831	0.884334	-0.948546	-0.282097	-0.143811
14	4068925													9.323270	0.024183	3.114151	0.316399	-0.838371	-0.443876	0.004710	-0.466520	0.884498	-0.948615	-0.281945	-0.143657
15	4069092													9.281293	0.088324	3.053542	0.316210	-0.838848	-0.443108	0.004538	-0.465731	0.884915	-0.948678	-0.281830	-0.143462
16	4069259													9.327304	0.063613	3.027045	0.315929	-0.839203	-0.442638	0.004385	-0.465236	0.885176	-0.948773	-0.281593	-0.143302
17	4069425													9.371584	0.045407	3.171098	0.315792	-0.839374	-0.442410	0.004382	-0.464974	0.885313	-0.948818	-0.281514	-0.143157
18	4069592													9.313125	0.131214	3.079233	0.315517	-0.839621	-0.442137	0.004514	-0.464604	0.885507	-0.948909	-0.281388	-0.142800
19	4069759													9.313976	0.088851	3.152801	0.315350	-0.839795	-0.441927	0.004758	-0.464284	0.885674	-0.948964	-0.281399	-0.142416
20	4069925													9.320020	0.036616	3.163925	0.315065	-0.839974	-0.441789	0.004797	-0.464081	0.885780	-0.949058	-0.281198	-0.142186
21	4070092													9.305843	0.044839	3.130795	0.314753	-0.840262	-0.441465	0.004805	-0.463688	0.885986	-0.949162	-0.280988	-0.141909
22	4070259													9.299077	0.083292	3.132765	0.314486	-0.840458	-0.441280	0.004826	-0.463445	0.886113	-0.949250	-0.280800	-0.141691
23	4070425													9.286680	0.095203	3.106504	0.314173	-0.840788	-0.440876	0.004758	-0.462989	0.886351	-0.949354	-0.280565	-0.141459
24	4070592													9.311399	0.028868	3.081886	0.313829	-0.841045	-0.440630	0.004734	-0.462683	0.886511	-0.949468	-0.280299	-0.141222
25	4070759													9.316877	0.019811	3.074879	0.313566	-0.841157	-0.440603	0.004666	-0.462633	0.886537	-0.949555	-0.280044	-0.141141
26	4070925													9.301337	0.034829	3.100541	0.313316	-0.841368	-0.440378	0.004556	-0.462390	0.886665	-0.949638	-0.279813	-0.141041
27	4071092													9.305644	0.014581	3.080486	0.313136	-0.841325	-0.440588	0.004417	-0.462624	0.886544	-0.949698	-0.279555	-0.141148
28	4071259													9.327067	0.031027	3.093950	0.313089	-0.841116	-0.441021	0.004324	-0.463101	0.886295	-0.949714	-0.279396	-0.141354
29	4071425													9.289934	0.063341	3.086863	0.312962	-0.841067	-0.441204	0.004166	-0.463320	0.886181	-0.949756	-0.279179	-0.141498
30	4071592													9.323665	-0.014623	3.004615	0.312697	-0.840994	-0.441531	0.003919	-0.463696	0.885986	-0.949845	-0.278776	-0.141700
31	4071759													9.368330	0.053496	3.110014	0.312521	-0.840898	-0.441839	0.003746	-0.464043	0.885805	-0.949904	-0.278487	-0.141873
32	4071925													9.345405	0.115536	2.982834	0.312412	-0.840737	-0.442221	0.003731	-0.464433	0.885600	-0.949939	-0.278322	-0.141958
33	4072092													9.324836	0.101105	3.105380	0.312362	-0.840696	-0.442336	0.003683	-0.464559	0.885534	-0.949956	-0.278236	-0.142014
34	4072259													9.364021	0.077151	3.045857	0.312033	-0.840608	-0.442735	0.003542	-0.464969	0.885320	-0.950065	-0.277817	-0.142108
35	4072425													9.380075	0.078765	3.049033	0.311844	-0.840508	-0.443056	0.003444	-0.465307	0.885143	-0.950127	-0.277553	-0.142208
36	4072592													9.322916	0.096698	3.051178	0.311748	-0.840453	-0.443229	0.003325	-0.465508	0.885037	-0.950159	-0.277382	-0.142326
37	4072759													9.338179	0.072382	3.067424	0.311578	-0.840563	-0.443139	0.003200	-0.465423	0.885082	-0.950215	-0.277191	-0.142326
38	4072925													9.342469	0.049538	3.047454	0.311484	-0.840580	-0.443174	0.003116	-0.465469	0.885059	-0.950246	-0.277062	-0.142367
39	4073092													9.315891	0.026897	3.046449	0.311414	-0.840560	-0.443261	0.003050	-0.465569	0.885006	-0.950269	-0.276955	-0.142421
40	4073259													9.317157	0.029537	3.039084	0.311297	-0.840554	-0.443355	0.003038	-0.465653	0.884962	-0.950308	-0.276833	-0.142403
41	4073425													9.327703	0.038219	3.031265	0.311210	-0.840477	-0.443561	0.003030	-0.465859	0.884854	-0.950336	-0.276719	-0.142434
42	4073592													9.332314	0.027698	3.047494	0.311212	-0.840405	-0.443697	0.003010	-0.466008	0.884776	-0.950336	-0.276688	-0.142497
43	4073759													9.318691	0.030416	3.073636	0.311197	-0.840338	-0.443834	0.002993	-0.466155	0.884698	-0.950341	-0.276644	-0.142551
44	4073925													9.337744	0.045401	3.077940	0.311213	-0.840270	-0.443952	0.002981	-0.466285	0.884629	-0.950335	-0.276632	-0.142609
45	4074092													9.362008	0.052772	3.086058	0.311259	-0.840153	-0.444141	0.002965	-0.466497	0.884518	-0.950321	-0.276631	-0.142710
46	4074259													9.321442	0.069999	3.087427	0.311314	-0.840008	-0.444376	0.002948	-0.466758	0.884380	-0.950303	-0.276630	-0.142832
47	4074425													9.320597	0.052713	3.090298	0.311357	-0.839894	-0.444560	0.002896	-0.466973	0.884267	-0.950289	-0.276610	-0.142963
48	4074592													9.338855	0.060469	3.079131	0.311422	-0.839813	-0.444669	0.002812	-0.467123	0.884188	-0.950267	-0.276606	-0.143111
49	4074759													9.334302	0.057623	3.074966	0.311569	-0.839748	-0.444688	0.002706	-0.467196	0.884150	-0.950220	-0.276677	-0.143292
50	4074925													9.316664	0.062641	3.086746	0.311684	-0.839743	-0.444618	0.002569	-0.467181	0.884158	-0.950182	-0.276720	-0.143455
51	4075092													9.306643	0.057180	3.119082	0.311797	-0.839945	-0.444157	0.002416	-0.466758	0.884382	-0.950146	-0.276820	-0.143504
52	4075259													9.317242	0.068363	3.103311	0.311903	-0.839938	-0.444095	0.002277	-0.466751	0.884386	-0.950111	-0.276853	-0.143669
53	4075425													9.313868	0.060188	3.132883	0.312049	-0.839874	-0.444114	0.002123	-0.466839	0.884340	-0.950064	-0.276900	-0.143893
54	4075592													9.303625	0.058067	3.089117	0.312101	-0.840066	-0.443714	0.001945	-0.466477	0.884531	-0.950047	-0.276926	-0.143954
55	4075759													9.316768	0.053139	3.082419	0.312135	-0.840132	-0.443565	0.001772	-0.466376	0.884585	-0.950036	-0.276896	-0.144084
56	4075925													9.314790	0.039249	3.100590	0.312181	-0.840116	-0.443564	0.001645	-0.466419	0.884562	-0.950021	-0.276873	-0.144226
57	4076092													9.311674	0.047699	3.084250	0.312180	-0.840142	-0.443514	0.001534	-0.466399	0.884573	-0.950022	-0.276826	-0.144311
58	4076259													9.323265	0.058904	3.089804	0.312155	-0.840184	-0.443453	0.001423	-0.466363	0.884592	-0.950030	-0.276761	-0.144382
59	4076425													9.327109	0.040261	3.101526	0.312132	-0.840258	-0.443329	0.001330	-0.466256	0.884649	-0.950038	-0.276717	-0.144415
60	4076592													9.324889	0.046981	3.097821	0.312103	-0.840283	-0.443302	0.001282	-0.466237	0.884659	-0.950047	-0.276673	-0.144437
61	4076759													9.314673	0.046173	3.081557	0.312066	-0.840269	-0.443354	0.001252	-0.466294	0.884629	-0.950060	-0.276618	-0.144463
62	4076926													9.310077	0.054866	3.125122	0.311991	-0.840326	-0.443298	0.001227	-0.466231	0.884662	-0.950084	-0.276550	-0.144429
63	4077092													9.318659	0.058192	3.093999	0.311957	-0.840181	-0.443597	0.001237	-0.466537	0.884501	-0.950095	-0.276475	-0.144500
64	4077259													9.328326	0.043941	3.105257	0.311943	-0.840248	-0.443480	0.001225	-0.466416	0.884565	-0.950100	-0.276477	-0.144466
65	4077426													9.329513	0.058768	3.087601	0.311892	-0.840289	-0.443439	0.001188	-0.466375	0.884587	-0.950117	-0.276423	-0.144460
66	4077592													9.321027	0.053447	3.067159	0.311830	-0.840346	-0.443374	0.001104	-0.466321	0.884615	-0.950137	-0.276339	-0.144485
67	4077759													9.335528	0.055131	3.123770	0.311798	-0.840459	-0.443183	0.001069	-0.466125	0.884718	-0.950148	-0.276327	-0.144439
68	4077926													9.312455	0.004381	3.101505	0.311731	-0.840527	-0.443101	0.001026	-0.466041	0.884763	-0.950170	-0.276262	-0.144417
69	4078092													9.285401	0.068510	3.022649	0.311672	-0.840591	-0.443021	0.000949	-0.465969	0.884801	-0.950189	-0.276188	-0.144432
70	4078259													9.337323	0.008143	3.045412	0.311691	-0.840594	-0.443003	0.000955	-0.465951	0.884810	-0.950183	-0.276210	-0.144430
71	4078426													9.366359	0.042035	3.132645	0.311747	-0.840699	-0.442764	0.001153	-0.465651	0.884968	-0.950164	-0.276397	-0.144196
72	4078592													9.341865	0.125065	3.034989	0.311804	-0.840518	-0.443067	0.001507	-0.465876	0.884849	-0.950145	-0.276567	-0.143995
73	4078759													9.306790	0.060760	3.147723	0.311910	-0.840431	-0.443157	0.001758	-0.465915	0.884828	-0.950110	-0.276766	-0.143846
74	4078926													9.335176	0.040233	3.115474	0.311801	-0.840524	-0.443057	0.001812	-0.465776	0.884901	-0.950146	-0.276716	-0.143706
75	4079092													9.330150	0.065677	3.114111	0.311820	-0.840480	-0.443127	0.001862	-0.465839	0.884867	-0.950139	-0.276745	-0.143693
76	4079259													9.268371	0.107529	3.143558	0.311827	-0.840450	-0.443179	0.001854	-0.465897	0.884837	-0.950137	-0.276738	-0.143722
77	4079426													9.296565	0.099229	3.114776	0.311684	-0.840676	-0.442851	0.001805	-0.465543	0.885023	-0.950184	-0.276647	-0.143584
78	4079592													9.331799	0.047027	3.079933	0.311684	-0.840733	-0.442742	0.001727	-0.465451	0.885072	-0.950184	-0.276627	-0.143621
79	4079759													9.285453	0.061872	3.093359	0.311714	-0.840907	-0.442390	0.001626	-0.465115	0.885249	-0.950175	-0.276664	-0.143615
80	4079926													9.303152	0.039325	3.086911	0.311685	-0.840975	-0.442282	0.001469	-0.465042	0.885287	-0.950184	-0.276580	-0.143711
81	4080092													9.317107	0.047192	3.076740	0.311692	-0.841032	-0.442169	0.001310	-0.464970	0.885325	-0.950182	-0.276528	-0.143825
82	4080259													9.306497	0.068806	3.131856	0.311745	-0.841008	-0.442176	0.001216	-0.465014	0.885302	-0.950165	-0.276527	-0.143943
83	4080426													9.287307	0.075862	3.064892	0.311691	-0.841125	-0.441992	0.001115	-0.464841	0.885394	-0.950183	-0.276463	-0.143949
84	4080592													9.352353	0.015358	3.081363	0.311610	-0.841181	-0.441943	0.001010	-0.464807	0.885411	-0.950210	-0.276349	-0.143989
85	4080759													9.352767	0.062855	3.129121	0.311483	-0.841414	-0.441589	0.000966	-0.464427	0.885611	-0.950251	-0.276280	-0.143848
86	4080926													9.335267	0.126549	3.021879	0.311411	-0.841371	-0.441721	0.001095	-0.464517	0.885563	-0.950275	-0.276258	-0.143735
87	4081092													9.324211	0.097243	3.116513	0.311369	-0.841347	-0.441796	0.001168	-0.464568	0.885537	-0.950288	-0.276245	-0.143670
88	4081259													9.358333	0.047592	3.094725	0.311160	-0.841383	-0.441876	0.001160	-0.464621	0.885509	-0.950357	-0.276047	-0.143596
89	4081426													9.354561	0.045350	3.111962	0.311100	-0.841473	-0.441747	0.001162	-0.464476	0.885585	-0.950377	-0.276018	-0.143520
90	4081592													9.299623	0.073355	3.102599	0.310984	-0.841667	-0.441458	0.001139	-0.464159	0.885751	-0.950414	-0.275958	-0.143387
91	4081759													9.322186	0.065033	3.103594	0.310860	-0.841751	-0.441385	0.001092	-0.464077	0.885794	-0.950455	-0.275840	-0.143344
92	4081926													9.292902	0.054140	3.088495	0.310797	-0.841804	-0.441329	0.001099	-0.464005	0.885832	-0.950476	-0.275799	-0.143287
93	4082092													9.295539	0.061243	3.076940	0.310636	-0.841963	-0.441139	0.001073	-0.463787	0.885946	-0.950528	-0.275680	-0.143165
94	4082259													9.312669	0.059222	3.095626	0.310537	-0.842068	-0.441008	0.001048	-0.463641	0.886023	-0.950561	-0.275605	-0.143095
95	4082426													9.317540	0.057473	3.073003	0.310410	-0.842172	-0.440899	0.001069	-0.463500	0.886096	-0.950602	-0.275524	-0.142974
96	4082592													9.332260	0.052031	3.090669	0.310311	-0.842299	-0.440727	0.001082	-0.463300	0.886201	-0.950634	-0.275475	-0.142856
97	4082759													9.334870	0.062892	3.084500	0.310208	-0.842336	-0.440727	0.001110	-0.463276	0.886213	-0.950668	-0.275399	-0.142777
98	4082926													9.330307	0.065505	3.088538	0.310111	-0.842413	-0.440649	0.001085	-0.463185	0.886261	-0.950700	-0.275318	-0.142725
99	4083092													9.328022	0.082879	3.093902	0.310013	-0.842437	-0.440672	0.001070	-0.463199	0.886254	-0.950732	-0.275222	-0.142696
100	4083259													9.326080	0.081434	3.096820	0.309871	-0.842590	-0.440479	0.001036	-0.462983	0.886367	-0.950778	-0.275116	-0.142592
101	4083426													9.342163	0.071700	3.090011	0.309724	-0.842701	-0.440370	0.000996	-0.462856	0.886433	-0.950826	-0.274988	-0.142519
102	4083592													9.322132	0.060871	3.078052	0.309619	-0.842880	-0.440102	0.000940	-0.462574	0.886580	-0.950860	-0.274916	-0.142429
103	4083759													9.307962	0.046400	3.070718	0.309506	-0.842951	-0.440046	0.000856	-0.462522	0.886608	-0.950897	-0.274787	-0.142431
104	4083926													9.321918	0.072200	3.068253	0.309361	-0.842970	-0.440111	0.000786	-0.462588	0.886573	-0.950944	-0.274617	-0.142444
105	4084092													9.329955	0.047250	3.093236	0.309219	-0.843155	-0.439856	0.000676	-0.462328	0.886708	-0.950991	-0.274484	-0.142391
106	4084259													9.321759	0.063679	3.096735	0.309091	-0.843371	-0.439532	0.000552	-0.462004	0.886878	-0.951032	-0.274369	-0.142336
107	4084426													9.306223	0.053687	3.061761	0.308898	-0.843483	-0.439453	0.000424	-0.461927	0.886918	-0.951095	-0.274154	-0.142330
108	4084592													9.326693	0.060766	3.091193	0.308786	-0.843599	-0.439308	0.000308	-0.461791	0.886989	-0.951131	-0.274025	-0.142335
109	4084759													9.330626	0.058414	3.095780	0.308703	-0.843616	-0.439335	0.000193	-0.461839	0.886964	-0.951158	-0.273894	-0.142408
110	4084926													9.315656	0.057728	3.096096	0.308552	-0.843749	-0.439184	0.000076	-0.461690	0.887041	-0.951207	-0.273732	-0.142392
111	4085092													9.331759	0.076238	3.061769	0.308434	-0.843829	-0.439114	-0.000025	-0.461627	0.887074	-0.951246	-0.273593	-0.142402
112	4085259													9.322783	0.069894	3.078707	0.308322	-0.843979	-0.438905	-0.000120	-0.461417	0.887183	-0.951282	-0.273486	-0.142366
113	4085426													9.317150	0.069239	3.080788	0.308175	-0.844114	-0.438749	-0.000178	-0.461246	0.887272	-0.951330	-0.273357	-0.142295
114	4085592													9.317976	0.074956	3.055802	0.307989	-0.844260	-0.438597	-0.000232	-0.461074	0.887362	-0.951390	-0.273196	-0.142201
115	4085759													9.344028	0.070755	3.052654	0.307834	-0.844311	-0.438608	-0.000231	-0.461060	0.887369	-0.951440	-0.273061	-0.142125
116	4085926													9.337012	0.058317	3.049382	0.307697	-0.844424	-0.438487	-0.000181	-0.460897	0.887454	-0.951484	-0.272988	-0.141970
117	4086092													9.326835	0.062977	3.031257	0.307635	-0.844474	-0.438434	-0.000129	-0.460816	0.887495	-0.951504	-0.272968	-0.141872
118	4086259													9.333876	0.050947	3.049779	0.307615	-0.844596	-0.438212	-0.000045	-0.460556	0.887630	-0.951511	-0.273029	-0.141712
119	4086426													9.333086	0.062169	3.108747	0.307625	-0.844622	-0.438155	0.000017	-0.460480	0.887670	-0.951508	-0.273077	-0.141641
120	4086592													9.329813	0.033291	3.086274	0.307506	-0.844640	-0.438205	0.000051	-0.460504	0.887658	-0.951546	-0.272982	-0.141565
121	4086759													9.330575	0.028181	3.047276	0.307393	-0.844766	-0.438042	0.000080	-0.460307	0.887760	-0.951583	-0.272926	-0.141428
122	4086926													9.348108	0.049158	3.071687	0.307378	-0.844790	-0.438006	0.000069	-0.460270	0.887779	-0.951588	-0.272914	-0.141418
123	4087092													9.315076	0.048218	3.084239	0.307376	-0.844915	-0.437766	0.000077	-0.460015	0.887911	-0.951588	-0.272956	-0.141333
124	4087259													9.285382	0.034028	3.027692	0.307341	-0.844915	-0.437790	0.000060	-0.460040	0.887898	-0.951599	-0.272914	-0.141338
125	4087426													9.322819	0.055714	3.001268	0.307323	-0.844927	-0.437780	-0.000008	-0.460046	0.887895	-0.951605	-0.272867	-0.141390
126	4087592													9.346163	0.016845	3.054597	0.307245	-0.844884	-0.437917	-0.000004	-0.460176	0.887828	-0.951630	-0.272779	-0.141390
127	4087759													9.386274	0.106403	3.104147	0.307157	-0.844879	-0.437989	0.000208	-0.460178	0.887827	-0.951659	-0.272793	-0.141171
128	4087926													9.349338	0.118440	3.052831	0.307234	-0.844857	-0.437977	0.000525	-0.460086	0.887874	-0.951634	-0.273016	-0.140910
129	4088092													9.307208	0.041845	3.146421	0.307214	-0.844749	-0.438199	0.000668	-0.460275	0.887776	-0.951640	-0.273030	-0.140839
130	4088259													9.312964	0.063055	3.091150	0.307076	-0.844835	-0.438130	0.000678	-0.460178	0.887826	-0.951685	-0.272927	-0.140738
131	4088426													9.313527	0.081516	3.082347	0.307081	-0.844794	-0.438205	0.000770	-0.460232	0.887798	-0.951683	-0.272964	-0.140678
132	4088592													9.302256	0.107951	3.130244	0.307067	-0.844904	-0.438005	0.000758	-0.460022	0.887907	-0.951688	-0.272979	-0.140617
133	4088759													9.309610	0.072208	3.077119	0.306960	-0.845151	-0.437603	0.000744	-0.459587	0.888132	-0.951722	-0.272947	-0.140446
134	4088926													9.333318	0.041051	3.068554	0.307017	-0.845227	-0.437414	0.000693	-0.459413	0.888222	-0.951704	-0.273002	-0.140462
135	4089092													9.296047	0.061507	3.051156	0.307036	-0.845319	-0.437224	0.000611	-0.459240	0.888312	-0.951698	-0.273011	-0.140487
136	4089259													9.302957	0.050582	3.084558	0.307049	-0.845448	-0.436965	0.000563	-0.458984	0.888445	-0.951694	-0.273042	-0.140455
137	4089426													9.307459	0.027687	3.095515	0.307108	-0.845482	-0.436858	0.000537	-0.458887	0.888494	-0.951675	-0.273098	-0.140474
138	4089592													9.292231	0.081884	3.094056	0.307093	-0.845544	-0.436750	0.000557	-0.458765	0.888557	-0.951679	-0.273113	-0.140413
139	4089759													9.329885	0.017008	3.013788	0.307029	-0.845601	-0.436682	0.000507	-0.458699	0.888592	-0.951700	-0.273045	-0.140406
140	4089926													9.349157	0.068803	3.139241	0.307023	-0.845560	-0.436767	0.000518	-0.458784	0.888548	-0.951702	-0.273031	-0.140419
141	4090092													9.326910	0.109375	3.004168	0.306943	-0.845595	-0.436755	0.000646	-0.458722	0.888579	-0.951728	-0.273026	-0.140256
142	4090259													9.332077	0.134455	3.069208	0.307011	-0.845514	-0.436865	0.000898	-0.458776	0.888552	-0.951705	-0.273188	-0.140090
143	4090426													9.337374	0.073781	3.064391	0.306907	-0.845516	-0.436933	0.001063	-0.458784	0.888547	-0.951739	-0.273166	-0.139905
144	4090592													9.376970	0.070766	3.037280	0.306744	-0.845568	-0.436947	0.001145	-0.458750	0.888565	-0.951791	-0.273063	-0.139751
145	4090759													9.325208	0.092527	3.050515	0.306689	-0.845512	-0.437094	0.001287	-0.458856	0.888510	-0.951809	-0.273058	-0.139638
146	4090926													9.291902	0.112761	3.092965	0.306585	-0.845644	-0.436912	0.001407	-0.458614	0.888635	-0.951842	-0.273057	-0.139414
147	4091092													9.341772	0.073884	3.069094	0.306517	-0.845768	-0.436718	0.001572	-0.458352	0.888769	-0.951864	-0.273110	-0.139163
148	4091259													9.312916	0.035033	3.070024	0.306466	-0.845765	-0.436761	0.001728	-0.458344	0.888773	-0.951880	-0.273134	-0.139005
149	4091426													9.307455	0.060803	3.049747	0.306387	-0.845819	-0.436712	0.001890	-0.458235	0.888829	-0.951905	-0.273152	-0.138798
150	4091592													9.317432	0.072915	3.073543	0.306365	-0.845821	-0.436723	0.002069	-0.458191	0.888851	-0.951912	-0.273217	-0.138624
151	4091759													9.310409	0.056787	3.060590	0.306316	-0.845726	-0.436941	0.002264	-0.458357	0.888765	-0.951927	-0.273232	-0.138488
152	4091926													9.342898	0.076463	3.064434	0.306303	-0.845769	-0.436867	0.002410	-0.458236	0.888827	-0.951931	-0.273303	-0.138321
153	4092092													9.340836	0.084695	3.044457	0.306259	-0.845810	-0.436819	0.002556	-0.458136	0.888878	-0.951945	-0.273344	-0.138146
154	4092259													9.339005	0.089166	3.071322	0.306234	-0.845828	-0.436801	0.002653	-0.458086	0.888904	-0.951953	-0.273371	-0.138038
155	4092426													9.356024	0.118450	3.060463	0.306195	-0.845805	-0.436873	0.002778	-0.458119	0.888886	-0.951965	-0.273386	-0.137924
156	4092592													9.347004	0.107321	3.041659	0.306157	-0.845813	-0.436885	0.002910	-0.458088	0.888902	-0.951977	-0.273415	-0.137785
157	4092759													9.337378	0.094072	3.072798	0.306168	-0.845795	-0.436912	0.003032	-0.458084	0.888904	-0.951973	-0.273479	-0.137686
158	4092926													9.329038	0.098571	3.045337	0.306170	-0.845704	-0.437085	0.003142	-0.458234	0.888826	-0.951972	-0.273506	-0.137641
159	4093092													9.328469	0.114339	3.041653	0.306185	-0.845733	-0.437021	0.003178	-0.458158	0.888865	-0.951967	-0.273546	-0.137593
160	4093259													9.333989	0.120443	3.072363	0.306221	-0.845782	-0.436899	0.003242	-0.458018	0.888937	-0.951955	-0.273628	-0.137513
161	4093426													9.337687	0.093114	3.065800	0.306294	-0.845808	-0.436799	0.003271	-0.457915	0.888990	-0.951931	-0.273721	-0.137490
162	4093593													9.333032	0.107472	3.060840	0.306355	-0.845899	-0.436580	0.003300	-0.457685	0.889108	-0.951912	-0.273823	-0.137422
163	4093759													9.331822	0.105666	3.052654	0.306443	-0.846010	-0.436302	0.003336	-0.457396	0.889257	-0.951883	-0.273962	-0.137343
164	4093926													9.343950	0.099912	3.026373	0.306591	-0.846009	-0.436202	0.003365	-0.457305	0.889304	-0.951836	-0.274120	-0.137359
165	4094093													9.334047	0.109829	3.042465	0.306774	-0.846020	-0.436051	0.003396	-0.457165	0.889375	-0.951776	-0.274318	-0.137373
166	4094259													9.337149	0.110966	3.050162	0.306952	-0.845953	-0.436054	0.003454	-0.457179	0.889368	-0.951719	-0.274499	-0.137410
167	4094426													9.339594	0.126022	3.041718	0.307117	-0.845884	-0.436072	0.003509	-0.457207	0.889353	-0.951665	-0.274666	-0.137448
168	4094593													9.340503	0.112139	3.081346	0.307385	-0.845831	-0.435987	0.003564	-0.457142	0.889387	-0.951579	-0.274938	-0.137504
169	4094759													9.324510	0.100688	3.109283	0.307620	-0.845766	-0.435948	0.003641	-0.457115	0.889400	-0.951502	-0.275184	-0.137538
170	4094926													9.326731	0.097080	3.059674	0.307737	-0.845821	-0.435757	0.003672	-0.456923	0.889499	-0.951464	-0.275332	-0.137506
171	4095093													9.333830	0.086644	3.061849	0.307898	-0.845894	-0.435502	0.003636	-0.456690	0.889618	-0.951412	-0.275495	-0.137539
172	4095259													9.319467	0.099672	3.076133	0.308172	-0.845867	-0.435360	0.003592	-0.456595	0.889667	-0.951324	-0.275735	-0.137672
173	4095426													9.292342	0.094011	3.090304	0.308368	-0.845898	-0.435162	0.003583	-0.456419	0.889758	-0.951260	-0.275932	-0.137714
174	4095593													9.316181	0.083676	3.087071	0.308472	-0.845869	-0.435144	0.003576	-0.456418	0.889758	-0.951227	-0.276022	-0.137767
175	4095759													9.285000	0.084220	3.072305	0.308616	-0.845832	-0.435114	0.003582	-0.456407	0.889764	-0.951180	-0.276154	-0.137825
176	4095926													9.303402	0.071499	3.063321	0.308708	-0.845755	-0.435199	0.003590	-0.456507	0.889712	-0.951150	-0.276224	-0.137891
177	4096093													9.345197	0.092211	3.107435	0.308662	-0.845587	-0.435557	0.003698	-0.456846	0.889538	-0.951165	-0.276177	-0.137884
178	4096259													9.356551	0.170735	3.127649	0.308641	-0.845580	-0.435586	0.003943	-0.456802	0.889560	-0.951170	-0.276273	-0.137654
179	4096426													9.274551	0.118987	3.142772	0.308729	-0.845425	-0.435824	0.004156	-0.457004	0.889455	-0.951141	-0.276412	-0.137577
180	4096593													9.263471	0.090130	3.129355	0.308691	-0.845320	-0.436056	0.004172	-0.457238	0.889335	-0.951153	-0.276348	-0.137619
181	4096759													9.302548	0.109798	3.121602	0.308582	-0.845290	-0.436191	0.004096	-0.457385	0.889259	-0.951189	-0.276196	-0.137679
182	4096926													9.309693	0.128666	3.096633	0.308498	-0.845221	-0.436383	0.003973	-0.457610	0.889144	-0.951217	-0.276033	-0.137814
183	4097093													9.287951	0.135574	3.124236	0.308411	-0.845289	-0.436314	0.003761	-0.457586	0.889157	-0.951246	-0.275867	-0.137945
184	4097259													9.301204	0.074542	3.072133	0.308307	-0.845396	-0.436178	0.003534	-0.457493	0.889206	-0.951280	-0.275690	-0.138061
185	4097426													9.322084	0.062452	3.083092	0.308284	-0.845376	-0.436234	0.003324	-0.457609	0.889148	-0.951288	-0.275560	-0.138264
186	4097593													9.305691	0.082273	3.090440	0.308254	-0.845405	-0.436199	0.003101	-0.457631	0.889137	-0.951299	-0.275432	-0.138445
187	4097759													9.328973	0.059401	3.075262	0.308190	-0.845374	-0.436305	0.002865	-0.457802	0.889050	-0.951321	-0.275246	-0.138668
188	4097926													9.337556	0.083029	3.115980	0.308171	-0.845336	-0.436391	0.002679	-0.457944	0.888977	-0.951327	-0.275126	-0.138861
189	4098093													9.323271	0.058459	3.018764	0.308156	-0.845356	-0.436364	0.002443	-0.457981	0.888959	-0.951333	-0.275004	-0.139064
190	4098259													9.368136	0.045798	3.088049	0.308156	-0.845269	-0.436532	0.002211	-0.458224	0.888834	-0.951333	-0.274865	-0.139335
191	4098426													9.365597	0.074453	3.064467	0.308093	-0.845283	-0.436549	0.002116	-0.458260	0.888816	-0.951354	-0.274761	-0.139398
192	4098593													9.347139	0.128570	2.993760	0.308138	-0.845249	-0.436584	0.002130	-0.458300	0.888795	-0.951339	-0.274801	-0.139419
193	4098759													9.321272	0.079077	3.037767	0.308219	-0.845081	-0.436852	0.002142	-0.458590	0.888645	-0.951313	-0.274833	-0.139536
194	4098926													9.355472	0.072340	3.034976	0.308127	-0.845031	-0.437013	0.002129	-0.458749	0.888563	-0.951343	-0.274720	-0.139554
195	4099093													9.360104	0.054007	3.064435	0.308188	-0.844869	-0.437284	0.002172	-0.459031	0.888418	-0.951323	-0.274749	-0.139633
196	4099259													9.326553	0.090035	3.064325	0.308199	-0.844802	-0.437406	0.002184	-0.459158	0.888352	-0.951320	-0.274744	-0.139666
197	4099426													9.326599	0.091118	3.043220	0.308197	-0.844926	-0.437166	0.002220	-0.458895	0.888488	-0.951320	-0.274799	-0.139555
198	4099593													9.349751	0.061972	3.078059	0.308197	-0.844948	-0.437125	0.002250	-0.458843	0.888514	-0.951320	-0.274821	-0.139513
199	4099759													9.339694	0.055749	3.040202	0.308217	-0.844953	-0.437100	0.002276	-0.458812	0.888530	-0.951313	-0.274855	-0.139491
200	4099926													9.330969	0.062838	3.047004	0.308235	-0.844955	-0.437084	0.002350	-0.458777	0.888548	-0.951307	-0.274908	-0.139425
201	4100093													9.346045	0.072676	3.061198	0.308286	-0.844906	-0.437143	0.002434	-0.458823	0.888524	-0.951291	-0.274984	-0.139393
202	4100259													9.350137	0.072590	3.057904	0.308433	-0.844777	-0.437289	0.002539	-0.458968	0.888449	-0.951243	-0.275137	-0.139416
203	4100426													9.330525	0.075200	3.090272	0.308567	-0.844692	-0.437358	0.002609	-0.459042	0.888411	-0.951199	-0.275275	-0.139442
204	4100593													9.314328	0.086573	3.077298	0.308623	-0.844674	-0.437353	0.002650	-0.459032	0.888416	-0.951181	-0.275344	-0.139429
205	4100759													9.345521	0.078895	3.063565	0.308695	-0.844569	-0.437504	0.002673	-0.459196	0.888331	-0.951157	-0.275392	-0.139494
206	4100926													9.323397	0.075494	3.080308	0.308811	-0.844581	-0.437400	0.002670	-0.459106	0.888378	-0.951120	-0.275508	-0.139521
207	4101093													9.327260	0.069130	3.069737	0.308944	-0.844521	-0.437423	0.002661	-0.459152	0.888354	-0.951077	-0.275615	-0.139605
208	4101259													9.325661	0.064364	3.069014	0.309055	-0.844502	-0.437380	0.002615	-0.459138	0.888361	-0.951041	-0.275696	-0.139690
209	4101426													9.323056	0.065564	3.086095	0.309169	-0.844358	-0.437577	0.002599	-0.459368	0.888242	-0.951003	-0.275755	-0.139828
210	4101593													9.336164	0.077250	3.078882	0.309269	-0.844346	-0.437529	0.002581	-0.459338	0.888258	-0.950971	-0.275840	-0.139880
211	4101759													9.317338	0.054900	3.068373	0.309426	-0.844222	-0.437658	0.002568	-0.459502	0.888173	-0.950920	-0.275947	-0.140014
212	4101926													9.313869	0.068723	3.067104	0.309557	-0.844133	-0.437738	0.002536	-0.459616	0.888114	-0.950878	-0.276032	-0.140137
213	4102093													9.331773	0.089045	3.076188	0.309744	-0.844130	-0.437610	0.002478	-0.459527	0.888161	-0.950817	-0.276187	-0.140244
214	4102259													9.314309	0.079696	3.089170	0.309962	-0.844028	-0.437653	0.002400	-0.459628	0.888108	-0.950746	-0.276330	-0.140441
215	4102426													9.302263	0.100327	3.110004	0.310158	-0.843950	-0.437665	0.002374	-0.459680	0.888082	-0.950682	-0.276484	-0.140570
216	4102593													9.323766	0.086988	3.120101	0.310310	-0.843881	-0.437690	0.002408	-0.459719	0.888061	-0.950633	-0.276628	-0.140624
217	4102759													9.322550	0.074221	3.105478	0.310465	-0.843779	-0.437777	0.002404	-0.459836	0.888000	-0.950582	-0.276745	-0.140735
218	4102926													9.310823	0.083916	3.123420	0.310573	-0.843759	-0.437739	0.002385	-0.459818	0.888010	-0.950546	-0.276836	-0.140794
219	4103093													9.339691	0.084388	3.140496	0.310592	-0.843753	-0.437737	0.002374	-0.459822	0.888008	-0.950540	-0.276848	-0.140814
220	4103259													9.337796	0.037189	3.120999	0.310621	-0.843861	-0.437507	0.002367	-0.459587	0.888130	-0.950531	-0.276907	-0.140760
221	4103426													9.285480	0.091654	3.057150	0.310668	-0.843850	-0.437495	0.002412	-0.459569	0.888139	-0.950515	-0.276972	-0.140738
222	4103593													9.292142	0.017491	3.063032	0.310680	-0.843833	-0.437519	0.002482	-0.459576	0.888135	-0.950511	-0.277012	-0.140687
223	4103759													9.372269	0.042409	3.114344	0.310628	-0.843756	-0.437706	0.002673	-0.459708	0.888066	-0.950528	-0.277029	-0.140543
224	4103926													9.348468	0.109929	3.084693	0.310713	-0.843555	-0.438033	0.003084	-0.459945	0.887942	-0.950499	-0.277246	-0.140310
225	4104093													9.290246	0.093256	3.123116	0.310833	-0.843359	-0.438324	0.003464	-0.460161	0.887829	-0.950458	-0.277485	-0.140112
226	4104259													9.326563	0.070420	3.107203	0.310748	-0.843334	-0.438433	0.003697	-0.460193	0.887811	-0.950485	-0.277506	-0.139887
227	4104426													9.351512	0.082756	3.111531	0.310709	-0.843284	-0.438556	0.003911	-0.460255	0.887778	-0.950497	-0.277556	-0.139708
228	4104593													9.286571	0.123472	3.155137	0.310725	-0.843232	-0.438646	0.004064	-0.460307	0.887750	-0.950491	-0.277629	-0.139602
229	4104759													9.290535	0.129702	3.133061	0.310622	-0.843335	-0.438519	0.004189	-0.460121	0.887846	-0.950524	-0.277621	-0.139391
230	4104926													9.323795	0.087885	3.084991	0.310577	-0.843427	-0.438376	0.004234	-0.459950	0.887935	-0.950539	-0.277629	-0.139279
231	4105093													9.310120	0.088679	3.101466	0.310600	-0.843357	-0.438494	0.004260	-0.460070	0.887872	-0.950531	-0.277641	-0.139305
232	4105259													9.298086	0.081695	3.114705	0.310651	-0.843291	-0.438584	0.004269	-0.460170	0.887820	-0.950514	-0.277675	-0.139353
233	4105426													9.301558	0.071552	3.103397	0.310611	-0.843304	-0.438589	0.004252	-0.460174	0.887818	-0.950528	-0.277631	-0.139349
234	4105593													9.323408	0.078620	3.139012	0.310610	-0.843204	-0.438781	0.004264	-0.460373	0.887715	-0.950528	-0.277604	-0.139401
235	4105759													9.287086	0.087608	3.073922	0.310531	-0.843264	-0.438721	0.004145	-0.460332	0.887737	-0.950554	-0.277489	-0.139452
236	4105926													9.331648	0.049210	3.057091	0.310388	-0.843224	-0.438898	0.004011	-0.460536	0.887632	-0.950601	-0.277271	-0.139563
237	4106093													9.337522	0.081755	3.105259	0.310246	-0.843247	-0.438956	0.003964	-0.460588	0.887605	-0.950648	-0.277116	-0.139553
238	4106259													9.336211	0.168974	3.019290	0.310145	-0.843217	-0.439085	0.004076	-0.460676	0.887559	-0.950681	-0.277061	-0.139440
239	4106426													9.339502	0.108346	3.093827	0.310095	-0.843150	-0.439249	0.004117	-0.460829	0.887480	-0.950697	-0.277012	-0.139429
240	4106593													9.346552	0.058959	3.045600	0.309823	-0.843155	-0.439432	0.004123	-0.460977	0.887402	-0.950785	-0.276749	-0.139345
241	4106759													9.340146	0.104430	3.063685	0.309713	-0.843105	-0.439604	0.004152	-0.461134	0.887321	-0.950821	-0.276640	-0.139318
242	4106926													9.308571	0.122110	3.064288	0.309516	-0.843143	-0.439671	0.004124	-0.461182	0.887296	-0.950885	-0.276445	-0.139266
243	4107093													9.326990	0.086937	3.049459	0.309338	-0.843229	-0.439631	0.004110	-0.461116	0.887330	-0.950943	-0.276292	-0.139175
244	4107259													9.325669	0.071660	3.064219	0.309266	-0.843246	-0.439648	0.004101	-0.461125	0.887326	-0.950967	-0.276223	-0.139152
245	4107426													9.322783	0.088154	3.063375	0.309145	-0.843273	-0.439682	0.004076	-0.461150	0.887313	-0.951006	-0.276100	-0.139125
246	4107593													9.319000	0.091927	3.084789	0.309072	-0.843272	-0.439734	0.004086	-0.461191	0.887292	-0.951030	-0.276034	-0.139096
247	4107759													9.331367	0.082029	3.055100	0.308946	-0.843308	-0.439754	0.004078	-0.461194	0.887290	-0.951071	-0.275918	-0.139045
248	4107926													9.347487	0.089194	3.056195	0.308948	-0.843335	-0.439701	0.004072	-0.461141	0.887317	-0.951070	-0.275925	-0.139035
249	4108093													9.337120	0.086544	3.079268	0.308974	-0.843367	-0.439622	0.004057	-0.461066	0.887356	-0.951062	-0.275954	-0.139036
250	4108259													9.329538	0.090918	3.066147	0.308994	-0.843328	-0.439682	0.004041	-0.461137	0.887320	-0.951055	-0.275954	-0.139081
251	4108426													9.326391	0.096250	3.078553	0.309053	-0.843311	-0.439675	0.003993	-0.461152	0.887312	-0.951037	-0.275982	-0.139153
252	4108593													9.335936	0.081831	3.077369	0.309115	-0.843339	-0.439577	0.003956	-0.461070	0.887355	-0.951016	-0.276034	-0.139188
253	4108759													9.323813	0.087756	3.056681	0.309162	-0.843323	-0.439573	0.003903	-0.461088	0.887346	-0.951001	-0.276049	-0.139260
254	4108926													9.342200	0.076015	3.071381	0.309158	-0.843342	-0.439540	0.003816	-0.461079	0.887351	-0.951003	-0.276009	-0.139328
255	4109093													9.336780	0.078905	3.062167	0.309240	-0.843320	-0.439524	0.003725	-0.461100	0.887340	-0.950977	-0.276039	-0.139449
256	4109259													9.313317	0.065961	3.040320	0.309324	-0.843309	-0.439487	0.003645	-0.461098	0.887342	-0.950950	-0.276078	-0.139555
257	4109426													9.312696	0.074060	3.081844	0.309411	-0.843304	-0.439436	0.003553	-0.461084	0.887349	-0.950922	-0.276117	-0.139668
258	4109593													9.324731	0.080483	3.048696	0.309433	-0.843291	-0.439445	0.003468	-0.461122	0.887330	-0.950915	-0.276093	-0.139762
259	4109759													9.308331	0.065906	3.082754	0.309452	-0.843305	-0.439404	0.003387	-0.461105	0.887339	-0.950909	-0.276077	-0.139834
260	4109926													9.302155	0.080740	3.089525	0.309496	-0.843315	-0.439355	0.003305	-0.461084	0.887350	-0.950895	-0.276084	-0.139916
261	4110093													9.320620	0.051664	3.081526	0.309508	-0.843289	-0.439395	0.003235	-0.461148	0.887317	-0.950891	-0.276053	-0.140001
262	4110260													9.321219	0.066414	3.084992	0.309497	-0.843300	-0.439383	0.003145	-0.461160	0.887311	-0.950895	-0.276002	-0.140075
263	4110426													9.317153	0.063240	3.102262	0.309485	-0.843338	-0.439318	0.003042	-0.461120	0.887333	-0.950899	-0.275953	-0.140144
264	4110593													9.328255	0.053084	3.065761	0.309432	-0.843281	-0.439465	0.002957	-0.461291	0.887244	-0.950917	-0.275841	-0.140245
265	4110760													9.324605	0.055346	3.053822	0.309387	-0.843289	-0.439481	0.002853	-0.461331	0.887223	-0.950932	-0.275749	-0.140324
266	4110926													9.331442	0.050460	3.084465	0.309375	-0.843263	-0.439539	0.002798	-0.461405	0.887185	-0.950936	-0.275703	-0.140388
267	4111093													9.326896	0.019919	3.094521	0.309391	-0.843270	-0.439514	0.002770	-0.461391	0.887193	-0.950931	-0.275707	-0.140414
268	4111260													9.291770	0.043962	3.024198	0.309366	-0.843145	-0.439772	0.002765	-0.461659	0.887053	-0.950939	-0.275640	-0.140490
269	4111426													9.307070	0.044295	3.007930	0.309320	-0.843165	-0.439765	0.002783	-0.461640	0.887063	-0.950954	-0.275611	-0.140448
270	4111593													9.358722	0.023973	3.093572	0.309248	-0.842996	-0.440141	0.002879	-0.461996	0.886877	-0.950977	-0.275532	-0.140444
271	4111760													9.350400	0.103245	3.060996	0.309198	-0.842967	-0.440231	0.003116	-0.462015	0.886867	-0.950993	-0.275589	-0.140227
272	4111926													9.339499	0.119065	3.074640	0.309232	-0.842829	-0.440471	0.003461	-0.462173	0.886783	-0.950980	-0.275746	-0.140002
273	4112093													9.343020	0.059625	3.102561	0.309122	-0.842802	-0.440601	0.003604	-0.462250	0.886742	-0.951016	-0.275699	-0.139854
274	4112260													9.354422	0.054113	3.058571	0.309019	-0.842752	-0.440768	0.003698	-0.462383	0.886672	-0.951049	-0.275628	-0.139769
275	4112426													9.318477	0.075433	3.076611	0.309046	-0.842717	-0.440816	0.003764	-0.462418	0.886654	-0.951039	-0.275677	-0.139737
276	4112593													9.291350	0.121867	3.111443	0.308997	-0.842874	-0.440550	0.003806	-0.462119	0.886810	-0.951055	-0.275698	-0.139586
277	4112760													9.318137	0.056583	3.048180	0.308961	-0.843015	-0.440305	0.003830	-0.461849	0.886951	-0.951067	-0.275720	-0.139465
278	4112926													9.328625	0.043587	3.053949	0.308992	-0.843066	-0.440186	0.003834	-0.461727	0.887014	-0.951057	-0.275767	-0.139438
279	4113093													9.303156	0.029359	3.050043	0.308940	-0.843086	-0.440183	0.003774	-0.461733	0.887011	-0.951074	-0.275695	-0.139466
280	4113260													9.338154	0.033201	3.041786	0.308913	-0.843103	-0.440171	0.003719	-0.461732	0.887011	-0.951083	-0.275646	-0.139500
281	4113426													9.334970	0.072869	3.109738	0.309032	-0.843090	-0.440112	0.003702	-0.461693	0.887032	-0.951044	-0.275751	-0.139557
282	4113593													9.316296	0.068106	3.048541	0.309066	-0.843130	-0.440011	0.003707	-0.461591	0.887085	-0.951033	-0.275799	-0.139536
283	4113760													9.353184	0.001484	2.956257	0.309005	-0.843124	-0.440066	0.003608	-0.461668	0.887045	-0.951054	-0.275689	-0.139616
284	4113926													9.386406	0.065881	3.117261	0.309132	-0.842999	-0.440216	0.003605	-0.461847	0.886952	-0.951012	-0.275773	-0.139733
285	4114093													9.334533	0.126010	2.971133	0.309100	-0.842924	-0.440381	0.003775	-0.461966	0.886889	-0.951022	-0.275799	-0.139612
286	4114260													9.348231	0.114925	3.079965	0.309215	-0.842858	-0.440427	0.003957	-0.461979	0.886882	-0.950984	-0.275980	-0.139516
287	4114426													9.367718	0.063424	3.056319	0.309143	-0.842818	-0.440554	0.004082	-0.462066	0.886836	-0.951007	-0.275957	-0.139404
288	4114593													9.353030	0.071846	3.049779	0.309178	-0.842744	-0.440671	0.004226	-0.462152	0.886790	-0.950995	-0.276039	-0.139326
289	4114760													9.327796	0.090235	3.068089	0.309244	-0.842711	-0.440688	0.004343	-0.462147	0.886793	-0.950973	-0.276150	-0.139256
290	4114926													9.335510	0.103746	3.101426	0.309237	-0.842775	-0.440571	0.004460	-0.461989	0.886875	-0.950975	-0.276219	-0.139105
291	4115093													9.307551	0.062927	3.092933	0.309289	-0.842827	-0.440435	0.004579	-0.461818	0.886963	-0.950957	-0.276344	-0.138976
292	4115260													9.308570	0.055356	3.055036	0.309235	-0.842863	-0.440403	0.004714	-0.461738	0.887004	-0.950974	-0.276369	-0.138812
293	4115426													9.337614	0.082260	3.061534	0.309214	-0.842835	-0.440472	0.004855	-0.461766	0.886989	-0.950980	-0.276408	-0.138692
294	4115593													9.332774	0.077593	3.068765	0.309225	-0.842847	-0.440442	0.004999	-0.461694	0.887025	-0.950976	-0.276492	-0.138554
295	4115760													9.324617	0.074782	3.061938	0.309240	-0.842863	-0.440401	0.005142	-0.461612	0.887067	-0.950970	-0.276581	-0.138415
296	4115926													9.344300	0.084377	3.079544	0.309258	-0.842919	-0.440282	0.005295	-0.461444	0.887153	-0.950964	-0.276690	-0.138242
297	4116093													9.341496	0.081262	3.064942	0.309265	-0.842930	-0.440255	0.005403	-0.461385	0.887183	-0.950961	-0.276754	-0.138136
298	4116260													9.327993	0.083276	3.061012	0.309225	-0.842916	-0.440310	0.005542	-0.461397	0.887176	-0.950973	-0.276777	-0.138004
299	4116426													9.335735	0.099258	3.084922	0.309175	-0.842894	-0.440386	0.005658	-0.461436	0.887156	-0.950988	-0.276778	-0.137896
300	4116593													9.343807	0.094044	3.072366	0.309110	-0.842916	-0.440390	0.005746	-0.461404	0.887171	-0.951009	-0.276764	-0.137781
301	4116760													9.339548	0.083311	3.052060	0.309110	-0.842887	-0.440446	0.005838	-0.461437	0.887154	-0.951008	-0.276800	-0.137714
302	4116926													9.342508	0.112363	3.056386	0.309155	-0.842819	-0.440544	0.005889	-0.461532	0.887104	-0.950993	-0.276847	-0.137721
303	4117093													9.317808	0.116742	3.079125	0.309182	-0.842801	-0.440560	0.005899	-0.461549	0.887095	-0.950985	-0.276873	-0.137731
304	4117260													9.333564	0.092141	3.060966	0.309175	-0.842796	-0.440574	0.005868	-0.461573	0.887083	-0.950987	-0.276849	-0.137761
305	4117426													9.326519	0.086437	3.060855	0.309211	-0.842781	-0.440577	0.005833	-0.461592	0.887073	-0.950976	-0.276863	-0.137813
306	4117593													9.326855	0.079211	3.070810	0.309248	-0.842699	-0.440709	0.005774	-0.461753	0.886990	-0.950964	-0.276844	-0.137931
307	4117760													9.337427	0.088314	3.039451	0.309329	-0.842666	-0.440715	0.005686	-0.461798	0.886967	-0.950938	-0.276871	-0.138056
308	4117926													9.340469	0.094713	3.072987	0.309457	-0.842580	-0.440789	0.005590	-0.461922	0.886903	-0.950897	-0.276922	-0.138235
309	4118093													9.336568	0.080032	3.079880	0.309581	-0.842516	-0.440825	0.005470	-0.462014	0.886856	-0.950857	-0.276965	-0.138423
310	4118260													9.319092	0.086984	3.089735	0.309689	-0.842414	-0.440944	0.005404	-0.462175	0.886772	-0.950823	-0.277006	-0.138578
311	4118426													9.319373	0.092076	3.064031	0.309738	-0.842352	-0.441028	0.005329	-0.462293	0.886711	-0.950807	-0.276999	-0.138701
312	4118593													9.334741	0.109049	3.106770	0.309785	-0.842323	-0.441051	0.005289	-0.462336	0.886689	-0.950792	-0.277016	-0.138769
313	4118760													9.331939	0.082975	3.085923	0.309743	-0.842377	-0.440976	0.005228	-0.462269	0.886724	-0.950806	-0.276962	-0.138781
314	4118926													9.333603	0.091690	3.060353	0.309649	-0.842442	-0.440918	0.005171	-0.462210	0.886755	-0.950837	-0.276863	-0.138767
315	4119093													9.343565	0.087932	3.040491	0.309568	-0.842556	-0.440758	0.005145	-0.462037	0.886846	-0.950864	-0.276806	-0.138697
316	4119260													9.343070	0.081820	3.046324	0.309594	-0.842573	-0.440706	0.005145	-0.461986	0.886872	-0.950855	-0.276838	-0.138693
317	4119426													9.332134	0.077239	3.084207	0.309613	-0.842549	-0.440740	0.005233	-0.461999	0.886865	-0.950848	-0.276891	-0.138632
318	4119593													9.306045	0.066596	3.033707	0.309613	-0.842599	-0.440644	0.005325	-0.461871	0.886931	-0.950848	-0.276952	-0.138514
319	4119760													9.329964	0.083647	2.997498	0.309591	-0.842676	-0.440512	0.005401	-0.461707	0.887016	-0.950854	-0.276991	-0.138390
320	4119926													9.371931	0.017620	3.044540	0.309575	-0.842609	-0.440652	0.005514	-0.461819	0.886957	-0.950859	-0.277009	-0.138322
321	4120093													9.394478	0.130762	3.082571	0.309692	-0.842431	-0.440909	0.005846	-0.462010	0.886855	-0.950819	-0.277230	-0.138156
322	4120260													9.343292	0.152924	3.083102	0.309853	-0.842326	-0.440996	0.006247	-0.462010	0.886853	-0.950764	-0.277549	-0.137893
323	4120426													9.321074	0.065470	3.099284	0.309800	-0.842279	-0.441123	0.006503	-0.462061	0.886825	-0.950779	-0.277607	-0.137669
324	4120593													9.348195	0.038183	3.085523	0.309732	-0.842310	-0.441112	0.006618	-0.462005	0.886853	-0.950801	-0.277606	-0.137523
325	4120760													9.328437	0.066360	3.088556	0.309792	-0.842276	-0.441134	0.006679	-0.462020	0.886844	-0.950781	-0.277683	-0.137505
326	4120926													9.303690	0.136482	3.063598	0.309747	-0.842417	-0.440897	0.006688	-0.461760	0.886980	-0.950795	-0.277688	-0.137395
327	4121093													9.340838	0.081452	3.044869	0.309742	-0.842604	-0.440542	0.006645	-0.461399	0.887168	-0.950797	-0.277721	-0.137315
328	4121260													9.304812	0.050614	3.058190	0.309786	-0.842668	-0.440391	0.006577	-0.461266	0.887238	-0.950784	-0.277750	-0.137351
329	4121426													9.314366	0.055645	3.060503	0.309811	-0.842643	-0.440420	0.006506	-0.461321	0.887209	-0.950776	-0.277732	-0.137440
330	4121593													9.312861	0.061068	3.103899	0.309855	-0.842608	-0.440456	0.006419	-0.461391	0.887174	-0.950762	-0.277723	-0.137555
331	4121760													9.311760	0.085185	3.130386	0.309895	-0.842536	-0.440566	0.006383	-0.461523	0.887105	-0.950749	-0.277721	-0.137646
332	4121926													9.290160	0.112286	3.085859	0.309861	-0.842569	-0.440527	0.006336	-0.461491	0.887122	-0.950761	-0.277676	-0.137660
333	4122093													9.337899	0.041487	3.016502	0.309801	-0.842568	-0.440571	0.006178	-0.461574	0.887080	-0.950781	-0.277540	-0.137791
334	4122260													9.359157	0.075828	3.121092	0.309790	-0.842550	-0.440612	0.006101	-0.461639	0.887047	-0.950785	-0.277487	-0.137870
335	4122426													9.348442	0.145587	2.977147	0.309700	-0.842461	-0.440846	0.006214	-0.461839	0.886942	-0.950814	-0.277425	-0.137796
336	4122593													9.315128	0.133922	3.125275	0.309716	-0.842407	-0.440938	0.006275	-0.461919	0.886900	-0.950808	-0.277454	-0.137778
337	4122760													9.354073	0.082296	3.047716	0.309485	-0.842530	-0.440865	0.006248	-0.461815	0.886954	-0.950884	-0.277254	-0.137661
338	4122926													9.371366	0.031192	3.054067	0.309465	-0.842535	-0.440870	0.006244	-0.461819	0.886952	-0.950890	-0.277234	-0.137656
339	4123093													9.302520	0.094891	3.081142	0.309458	-0.842496	-0.440950	0.006278	-0.461892	0.886914	-0.950892	-0.277231	-0.137646
340	4123260													9.313602	0.115208	3.079862	0.309377	-0.842622	-0.440766	0.006331	-0.461670	0.887029	-0.950919	-0.277216	-0.137495
341	4123426													9.328519	0.080121	3.081361	0.309323	-0.842743	-0.440572	0.006410	-0.461435	0.887151	-0.950935	-0.277240	-0.137331
342	4123593													9.321334	0.044313	3.062500	0.309200	-0.842801	-0.440546	0.006500	-0.461363	0.887188	-0.950975	-0.277182	-0.137175
343	4123760													9.312861	0.078444	3.065438	0.309061	-0.842820	-0.440609	0.006618	-0.461373	0.887181	-0.951019	-0.277109	-0.137015
344	4123926													9.339621	0.078089	3.039030	0.308898	-0.842916	-0.440538	0.006761	-0.461233	0.887253	-0.951071	-0.277049	-0.136775
345	4124093													9.347108	0.096128	3.047197	0.308782	-0.842988	-0.440483	0.006924	-0.461109	0.887316	-0.951108	-0.277037	-0.136545
346	4124260													9.338582	0.090278	3.044679	0.308700	-0.843061	-0.440400	0.007083	-0.460964	0.887391	-0.951133	-0.277057	-0.136328
347	4124426													9.342262	0.094898	3.083356	0.308570	-0.843099	-0.440418	0.007204	-0.460928	0.887408	-0.951174	-0.277001	-0.136154
348	4124593													9.342200	0.115356	3.061909	0.308427	-0.843116	-0.440486	0.007338	-0.460938	0.887402	-0.951220	-0.276931	-0.135979
349	4124760													9.338934	0.117385	3.043145	0.308296	-0.843118	-0.440574	0.007455	-0.460978	0.887380	-0.951261	-0.276861	-0.135832
350	4124926													9.331789	0.112218	3.067955	0.308147	-0.843164	-0.440591	0.007579	-0.460936	0.887401	-0.951309	-0.276789	-0.135646
351	4125093													9.318603	0.108962	3.069535	0.307996	-0.843241	-0.440550	0.007643	-0.460852	0.887444	-0.951357	-0.276696	-0.135496
352	4125260													9.339381	0.092587	3.030631	0.307875	-0.843268	-0.440581	0.007694	-0.460852	0.887443	-0.951396	-0.276611	-0.135397
353	4125426													9.337521	0.086362	3.056663	0.307796	-0.843289	-0.440597	0.007716	-0.460850	0.887444	-0.951421	-0.276552	-0.135341
354	4125593													9.331772	0.098897	3.029544	0.307735	-0.843288	-0.440640	0.007730	-0.460883	0.887427	-0.951441	-0.276499	-0.135311
355	4125760													9.318445	0.097794	3.053668	0.307721	-0.843225	-0.440771	0.007708	-0.461025	0.887354	-0.951445	-0.276455	-0.135368
356	4125926													9.325033	0.078781	3.019073	0.307765	-0.843221	-0.440748	0.007666	-0.461020	0.887357	-0.951432	-0.276476	-0.135422
357	4126093													9.335420	0.113874	3.027098	0.307828	-0.843166	-0.440810	0.007654	-0.461097	0.887317	-0.951411	-0.276515	-0.135485
358	4126260													9.337731	0.114610	3.049836	0.307873	-0.843116	-0.440873	0.007636	-0.461176	0.887276	-0.951397	-0.276535	-0.135546
359	4126426													9.338239	0.102590	3.043683	0.307991	-0.843062	-0.440894	0.007658	-0.461210	0.887258	-0.951359	-0.276644	-0.135592
360	4126593													9.318709	0.108084	3.078610	0.308107	-0.842974	-0.440981	0.007652	-0.461321	0.887201	-0.951321	-0.276727	-0.135686
361	4126760													9.312862	0.096382	3.083617	0.308099	-0.842954	-0.441026	0.007640	-0.461370	0.887175	-0.951324	-0.276707	-0.135708
362	4126927													9.339748	0.105201	3.064255	0.308079	-0.842946	-0.441056	0.007635	-0.461400	0.887160	-0.951330	-0.276683	-0.135712
363	4127093													9.347176	0.118233	3.068329	0.308065	-0.842970	-0.441019	0.007587	-0.461372	0.887174	-0.951335	-0.276653	-0.135737
364	4127260													9.324842	0.101275	3.027503	0.308040	-0.842993	-0.440992	0.007515	-0.461362	0.887180	-0.951344	-0.276601	-0.135783
365	4127427													9.338675	0.112827	3.038789	0.307930	-0.843066	-0.440929	0.007471	-0.461292	0.887217	-0.951380	-0.276495	-0.135748
366	4127593													9.350209	0.124109	3.053841	0.307981	-0.843071	-0.440885	0.007446	-0.461260	0.887234	-0.951363	-0.276534	-0.135782
367	4127760													9.334008	0.083901	3.055358	0.307928	-0.843136	-0.440798	0.007479	-0.461151	0.887290	-0.951380	-0.276518	-0.135696
368	4127927													9.315817	0.077854	2.980153	0.307905	-0.843157	-0.440774	0.007463	-0.461126	0.887303	-0.951388	-0.276494	-0.135691
369	4128093													9.297037	0.113541	2.991962	0.308037	-0.843110	-0.440771	0.007512	-0.461129	0.887301	-0.951345	-0.276632	-0.135711
370	4128260													9.358055	0.048533	3.038106	0.308056	-0.843054	-0.440865	0.007538	-0.461223	0.887252	-0.951338	-0.276647	-0.135727
371	4128427													9.404066	0.118491	3.092640	0.307948	-0.843041	-0.440965	0.007760	-0.461248	0.887237	-0.951372	-0.276645	-0.135498
372	4128593													9.363840	0.164820	3.053142	0.307982	-0.842963	-0.441090	0.008047	-0.461301	0.887207	-0.951358	-0.276793	-0.135289
373	4128760													9.303177	0.081534	3.116193	0.307962	-0.842894	-0.441235	0.008206	-0.461405	0.887152	-0.951363	-0.276830	-0.135178
374	4128927													9.315049	0.090391	3.060952	0.307741	-0.842982	-0.441222	0.008212	-0.461356	0.887177	-0.951435	-0.276644	-0.135056
375	4129093													9.357035	0.101363	3.025774	0.307568	-0.843033	-0.441245	0.008209	-0.461355	0.887178	-0.951491	-0.276490	-0.134978
376	4129260													9.318335	0.141475	3.071476	0.307527	-0.843127	-0.441094	0.008118	-0.461217	0.887250	-0.951505	-0.276434	-0.134993
377	4129427													9.317323	0.105284	3.032472	0.307399	-0.843279	-0.440893	0.007970	-0.461029	0.887349	-0.951547	-0.276284	-0.134999
378	4129593													9.333335	0.083601	2.993253	0.307357	-0.843321	-0.440841	0.007870	-0.460997	0.887367	-0.951562	-0.276208	-0.135054
379	4129760													9.309447	0.081282	3.040914	0.307327	-0.843375	-0.440760	0.007738	-0.460946	0.887394	-0.951573	-0.276131	-0.135135
380	4129927													9.307222	0.060915	3.007163	0.307263	-0.843423	-0.440713	0.007595	-0.460928	0.887405	-0.951594	-0.276013	-0.135221
381	4130093													9.327715	0.102295	3.095245	0.307331	-0.843396	-0.440717	0.007495	-0.460971	0.887383	-0.951573	-0.276023	-0.135349
382	4130260													9.301276	0.108227	3.037508	0.307295	-0.843402	-0.440730	0.007403	-0.461007	0.887366	-0.951586	-0.275945	-0.135421
383	4130427													9.346117	0.050585	2.962538	0.307203	-0.843362	-0.440871	0.007259	-0.461183	0.887276	-0.951616	-0.275774	-0.135555
384	4130593													9.381858	0.094933	3.093397	0.307143	-0.843276	-0.441076	0.007191	-0.461409	0.887158	-0.951636	-0.275657	-0.135654
385	4130760													9.373142	0.158662	2.942742	0.306987	-0.843235	-0.441263	0.007297	-0.461552	0.887083	-0.951686	-0.275543	-0.135537
386	4130927													9.346713	0.137341	3.038966	0.307051	-0.843069	-0.441536	0.007422	-0.461812	0.886947	-0.951664	-0.275615	-0.135542
387	4131093													9.349113	0.072891	3.030622	0.306969	-0.842977	-0.441769	0.007463	-0.462034	0.886831	-0.951690	-0.275527	-0.135539
388	4131260													9.395335	0.090165	2.999451	0.306915	-0.842892	-0.441969	0.007510	-0.462222	0.886732	-0.951707	-0.275471	-0.135533
389	4131427													9.317475	0.127621	3.061380	0.307032	-0.842864	-0.441942	0.007534	-0.462204	0.886742	-0.951669	-0.275587	-0.135561
390	4131593													9.300357	0.114367	3.034033	0.306997	-0.842956	-0.441789	0.007517	-0.462044	0.886825	-0.951681	-0.275573	-0.135510
391	4131760													9.342030	0.075791	3.000270	0.307003	-0.842981	-0.441738	0.007539	-0.461984	0.886856	-0.951679	-0.275598	-0.135475
392	4131927													9.325071	0.062240	3.023869	0.307153	-0.842906	-0.441777	0.007575	-0.462036	0.886829	-0.951630	-0.275738	-0.135531
393	4132093													9.334415	0.072117	2.985828	0.307365	-0.842754	-0.441919	0.007662	-0.462193	0.886746	-0.951561	-0.275941	-0.135604
394	4132260													9.317727	0.073161	3.035524	0.307579	-0.842572	-0.442116	0.007738	-0.462410	0.886632	-0.951491	-0.276131	-0.135708
395	4132427													9.360179	0.121162	3.028679	0.307654	-0.842517	-0.442169	0.007821	-0.462453	0.886609	-0.951466	-0.276227	-0.135687
396	4132593													9.350083	0.101976	3.059402	0.307772	-0.842484	-0.442150	0.007884	-0.462433	0.886619	-0.951427	-0.276362	-0.135682
397	4132760													9.338937	0.065863	3.028908	0.307818	-0.842447	-0.442190	0.007911	-0.462474	0.886598	-0.951412	-0.276409	-0.135693
398	4132927													9.351964	0.110133	3.049067	0.307810	-0.842445	-0.442199	0.007982	-0.462461	0.886603	-0.951414	-0.276435	-0.135626
399	4133093													9.361274	0.123695	3.040470	0.307732	-0.842410	-0.442319	0.008045	-0.462558	0.886553	-0.951439	-0.276379	-0.135566
400	4133260													9.329739	0.113344	3.049768	0.307659	-0.842440	-0.442312	0.008081	-0.462529	0.886567	-0.951462	-0.276335	-0.135494
401	4133427													9.335365	0.100139	3.038340	0.307493	-0.842487	-0.442340	0.008120	-0.462522	0.886571	-0.951516	-0.276206	-0.135382
402	4133593													9.338950	0.097945	3.031014	0.307360	-0.842532	-0.442345	0.008099	-0.462514	0.886575	-0.951559	-0.276080	-0.135335
403	4133760													9.332614	0.112354	3.015980	0.307302	-0.842608	-0.442242	0.008059	-0.462408	0.886631	-0.951578	-0.276028	-0.135308
404	4133927													9.292978	0.097666	3.073979	0.307281	-0.842700	-0.442081	0.007944	-0.462269	0.886704	-0.951586	-0.275979	-0.135353
405	4134093													9.257441	0.083265	3.107393	0.306911	-0.842878	-0.441997	0.007814	-0.462163	0.886760	-0.951706	-0.275610	-0.135257
406	4134260													9.337497	0.082327	3.022089	0.306334	-0.843179	-0.441824	0.007585	-0.461961	0.886868	-0.951894	-0.275029	-0.135119
407	4134427													9.436193	0.069793	2.905986	0.305755	-0.843288	-0.442017	0.007536	-0.462092	0.886800	-0.952080	-0.274475	-0.134932
408	4134593													9.430265	0.126301	3.020815	0.305870	-0.843204	-0.442098	0.007560	-0.462187	0.886750	-0.952043	-0.274573	-0.134995
409	4134760													9.307040	0.077863	3.022192	0.306083	-0.843095	-0.442158	0.007595	-0.462272	0.886706	-0.951975	-0.274764	-0.135090
410	4134927													9.292887	0.063252	3.002786	0.306132	-0.842965	-0.442373	0.007606	-0.462502	0.886586	-0.951959	-0.274777	-0.135175
411	4135093													9.388083	0.088806	2.927160	0.306299	-0.842763	-0.442642	0.007681	-0.462788	0.886436	-0.951904	-0.274915	-0.135278
412	4135260													9.359884	0.119575	3.017344	0.306696	-0.842572	-0.442731	0.007731	-0.462927	0.886363	-0.951776	-0.275266	-0.135464
413	4135427													9.321176	0.101198	3.023201	0.306912	-0.842345	-0.443012	0.007758	-0.463247	0.886195	-0.951706	-0.275421	-0.135641
414	4135593													9.343612	0.123023	3.011949	0.307091	-0.842286	-0.443000	0.007715	-0.463274	0.886181	-0.951649	-0.275556	-0.135769
415	4135760													9.338748	0.089254	2.986228	0.307535	-0.842157	-0.442938	0.007622	-0.463303	0.886167	-0.951506	-0.275904	-0.136063
416	4135927													9.312963	0.068178	3.083572	0.307810	-0.842095	-0.442865	0.007571	-0.463281	0.886179	-0.951418	-0.276128	-0.136227
417	4136093													9.309250	0.128690	3.115366	0.307798	-0.842190	-0.442693	0.007529	-0.463111	0.886268	-0.951422	-0.276125	-0.136204
418	4136260													9.342672	0.070212	3.002713	0.307953	-0.842318	-0.442342	0.007481	-0.462778	0.886442	-0.951372	-0.276292	-0.136212
419	4136427													9.293239	0.073788	3.005241	0.308047	-0.842336	-0.442241	0.007478	-0.462687	0.886490	-0.951342	-0.276387	-0.136231
420	4136593													9.305409	0.057741	3.057543	0.308005	-0.842414	-0.442122	0.007462	-0.462560	0.886556	-0.951356	-0.276363	-0.136185
421	4136760													9.384040	0.110368	3.091708	0.307819	-0.842447	-0.442189	0.007571	-0.462571	0.886550	-0.951415	-0.276245	-0.136010
422	4136927													9.355533	0.125317	3.025574	0.307745	-0.842443	-0.442248	0.007828	-0.462548	0.886560	-0.951437	-0.276296	-0.135752
423	4137093													9.352068	0.056093	2.990600	0.307779	-0.842411	-0.442285	0.007972	-0.462550	0.886557	-0.951424	-0.276390	-0.135647
424	4137260													9.321423	0.087224	3.127334	0.307746	-0.842297	-0.442524	0.007956	-0.462801	0.886426	-0.951435	-0.276315	-0.135724
425	4137427													9.332764	0.116050	3.084774	0.307522	-0.842445	-0.442398	0.007925	-0.462644	0.886509	-0.951508	-0.276127	-0.135597
426	4137593													9.319763	0.146730	3.112546	0.307350	-0.842560	-0.442300	0.007924	-0.462515	0.886576	-0.951563	-0.275994	-0.135478
427	4137760													9.311880	0.100692	3.055946	0.307073	-0.842744	-0.442140	0.007829	-0.462333	0.886672	-0.951654	-0.275735	-0.135372
428	4137927													9.324453	0.108697	3.015044	0.306897	-0.842849	-0.442064	0.007751	-0.462250	0.886716	-0.951711	-0.275557	-0.135330
429	4138093													9.322456	0.067459	3.038687	0.306803	-0.842952	-0.441933	0.007638	-0.462130	0.886779	-0.951742	-0.275442	-0.135344
430	4138260													9.319347	0.047004	3.024799	0.306584	-0.843040	-0.441917	0.007510	-0.462118	0.886787	-0.951814	-0.275193	-0.135347
431	4138427													9.339862	0.085327	3.069504	0.306519	-0.843055	-0.441933	0.007406	-0.462155	0.886768	-0.951836	-0.275084	-0.135416
432	4138593													9.327559	0.089148	3.100191	0.306325	-0.843256	-0.441684	0.007293	-0.461897	0.886903	-0.951899	-0.274902	-0.135341
433	4138760													9.364513	0.046832	2.905434	0.306130	-0.843385	-0.441572	0.007155	-0.461790	0.886960	-0.951963	-0.274684	-0.135333
434	4138927													9.367645	0.067036	2.988215	0.306217	-0.843368	-0.441544	0.007064	-0.461800	0.886956	-0.951936	-0.274720	-0.135453
435	4139093													9.369095	0.099064	2.945198	0.305902	-0.843439	-0.441628	0.007138	-0.461819	0.886945	-0.952036	-0.274471	-0.135251
436	4139260													9.399349	0.142597	2.939630	0.305866	-0.843387	-0.441752	0.007269	-0.461907	0.886899	-0.952047	-0.274483	-0.135151
437	4139427													9.370814	0.076828	3.005972	0.305834	-0.843302	-0.441936	0.007291	-0.462089	0.886804	-0.952057	-0.274437	-0.135174
438	4139593													9.368313	0.066070	2.979930	0.305797	-0.843220	-0.442118	0.007348	-0.462259	0.886714	-0.952068	-0.274403	-0.135162
439	4139760													9.365226	0.077489	2.988068	0.305850	-0.843124	-0.442264	0.007410	-0.462402	0.886640	-0.952051	-0.274456	-0.135178
440	4139927													9.325855	0.081448	3.011246	0.305912	-0.843136	-0.442197	0.007418	-0.462339	0.886672	-0.952031	-0.274524	-0.135180
441	4140093													9.362057	0.097248	2.977203	0.305921	-0.843095	-0.442271	0.007482	-0.462399	0.886640	-0.952027	-0.274551	-0.135150
442	4140260													9.353679	0.100384	2.976716	0.306221	-0.842925	-0.442387	0.007533	-0.462551	0.886561	-0.951931	-0.274816	-0.135293
443	4140427													9.329202	0.077570	3.007622	0.306483	-0.842713	-0.442610	0.007628	-0.462797	0.886431	-0.951846	-0.275052	-0.135411
444	4140593													9.363490	0.042971	3.003464	0.306680	-0.842478	-0.442920	0.007763	-0.463114	0.886265	-0.951781	-0.275238	-0.135488
445	4140760													9.384583	0.074662	3.023828	0.307054	-0.842171	-0.443245	0.007936	-0.463463	0.886081	-0.951659	-0.275592	-0.135624
446	4140927													9.321788	0.126945	3.057837	0.307412	-0.841885	-0.443539	0.008098	-0.463778	0.885914	-0.951542	-0.275933	-0.135754
447	4141093													9.350431	0.106863	3.056732	0.307729	-0.841766	-0.443547	0.008228	-0.463796	0.885904	-0.951439	-0.276267	-0.135798
448	4141260													9.357072	0.114356	3.043536	0.308083	-0.841654	-0.443512	0.008371	-0.463771	0.885915	-0.951323	-0.276648	-0.135834
449	4141427													9.385717	0.123328	3.069834	0.308582	-0.841500	-0.443458	0.008480	-0.463757	0.885922	-0.951160	-0.277140	-0.135971
450	4141593													9.334416	0.120157	3.090527	0.309052	-0.841295	-0.443520	0.008519	-0.463882	0.885856	-0.951007	-0.277554	-0.136196
451	4141760													9.367704	0.115433	3.034819	0.309583	-0.841103	-0.443513	0.008574	-0.463939	0.885825	-0.950834	-0.278039	-0.136416
452	4141927													9.361631	0.119956	3.053526	0.310350	-0.840857	-0.443444	0.008693	-0.463948	0.885820	-0.950583	-0.278769	-0.136676
453	4142093													9.328714	0.106674	3.094988	0.311373	-0.840787	-0.442858	0.008678	-0.463490	0.886060	-0.950248	-0.279738	-0.137022
454	4142260													9.327620	0.086570	3.031314	0.312358	-0.840749	-0.442237	0.008627	-0.463000	0.886316	-0.949925	-0.280663	-0.137368
455	4142427													9.412515	0.084011	3.089934	0.313534	-0.840600	-0.441688	0.008651	-0.462594	0.886528	-0.949537	-0.281778	-0.137767
456	4142593													9.333662	0.113859	3.097492	0.315035	-0.840392	-0.441016	0.008630	-0.462121	0.886775	-0.949041	-0.283171	-0.138331
457	4142760													9.366645	0.090584	3.081909	0.316453	-0.840189	-0.440385	0.008660	-0.461665	0.887012	-0.948569	-0.284512	-0.138819
458	4142927													9.406139	0.061257	3.072280	0.318381	-0.839762	-0.439810	0.008711	-0.461341	0.887180	-0.947923	-0.286293	-0.139567
459	4143093													9.362862	0.074976	3.108048	0.320644	-0.839160	-0.439314	0.008819	-0.461138	0.887284	-0.947159	-0.288377	-0.140460
460	4143260													9.373746	0.095536	3.097086	0.323071	-0.838425	-0.438940	0.008926	-0.461092	0.887307	-0.946333	-0.290581	-0.141482
461	4143427													9.402506	0.121065	3.180005	0.325817	-0.837506	-0.438664	0.009078	-0.461190	0.887255	-0.945389	-0.293065	-0.142661
462	4143594													9.360612	0.121365	3.256334	0.328879	-0.836761	-0.437801	0.009100	-0.460760	0.887478	-0.944328	-0.295857	-0.143919
463	4143760													9.254941	0.102164	3.256743	0.331908	-0.836272	-0.436448	0.008947	-0.459865	0.887944	-0.943269	-0.298620	-0.145151
464	4143927													9.295678	0.124988	3.162683	0.334933	-0.836191	-0.434287	0.008536	-0.458196	0.888810	-0.942203	-0.301399	-0.146327
465	4144094													9.400505	0.131052	3.165674	0.338118	-0.835772	-0.432621	0.008132	-0.457084	0.889387	-0.941069	-0.304235	-0.147752
466	4144260													9.381248	0.051458	3.186572	0.341789	-0.835008	-0.431209	0.007713	-0.456334	0.889775	-0.939745	-0.307442	-0.149530
467	4144427													9.377728	0.070648	3.215489	0.345942	-0.833932	-0.429978	0.007289	-0.455871	0.890016	-0.938228	-0.311028	-0.151626
468	4144594													9.293923	0.111332	3.392084	0.350713	-0.832484	-0.428918	0.006773	-0.455743	0.890086	-0.936459	-0.315070	-0.154196
469	4144760													9.118780	0.061597	3.478602	0.355142	-0.831814	-0.426566	0.006016	-0.454269	0.890844	-0.934793	-0.318943	-0.156326
470	4144927													9.173286	0.046578	3.213600	0.359393	-0.831033	-0.424525	0.005517	-0.453020	0.891483	-0.933170	-0.322735	-0.158228
471	4145094													9.210913	0.015027	3.236915	0.364398	-0.829530	-0.423195	0.005112	-0.452652	0.891672	-0.931229	-0.327087	-0.160705
472	4145260													9.199842	0.022569	3.453269	0.369924	-0.828008	-0.421377	0.004717	-0.451871	0.892071	-0.929050	-0.331986	-0.163252
473	4145427													9.385333	0.080589	3.693427	0.375536	-0.826372	-0.419620	0.004532	-0.451116	0.892454	-0.926797	-0.337051	-0.165665
474	4145594													9.085149	0.060246	3.590100	0.380818	-0.824968	-0.417618	0.004343	-0.450049	0.892993	-0.924640	-0.341882	-0.167804
475	4145760													9.219398	0.047388	3.693926	0.386292	-0.823133	-0.416210	0.004222	-0.449654	0.893193	-0.922367	-0.346791	-0.170222
476	4145927													9.066085	0.032624	3.844482	0.391854	-0.821181	-0.414864	0.003997	-0.449402	0.893321	-0.920019	-0.351709	-0.172818
477	4146094													8.999742	-0.005215	3.942611	0.397197	-0.819223	-0.413652	0.003939	-0.449206	0.893419	-0.917725	-0.356493	-0.175196
478	4146260													9.005542	0.081987	4.008946	0.402506	-0.817201	-0.412518	0.003882	-0.449106	0.893470	-0.915409	-0.361229	-0.177595
479	4146427													8.922432	0.110189	4.104077	0.407697	-0.815815	-0.410157	0.003353	-0.447843	0.894106	-0.913111	-0.365900	-0.179849
480	4146594													8.905813	0.035694	4.157461	0.412566	-0.814535	-0.407826	0.002874	-0.446538	0.894760	-0.910923	-0.370319	-0.181886
481	4146760													9.001498	-0.042735	4.158665	0.417455	-0.813064	-0.405781	0.002450	-0.445544	0.895257	-0.908695	-0.374723	-0.184002
482	4146927													8.942142	-0.034457	4.304455	0.422558	-0.811449	-0.403726	0.002004	-0.444611	0.895721	-0.906334	-0.379303	-0.186248
483	4147094													8.862367	0.031831	4.362628	0.427513	-0.809789	-0.401840	0.001584	-0.443837	0.896106	-0.904008	-0.383733	-0.188463
484	4147260													8.867075	0.043681	4.302148	0.432464	-0.808367	-0.399396	0.000748	-0.442639	0.896700	-0.901651	-0.388089	-0.190821
485	4147427													8.921790	-0.064180	4.263062	0.438046	-0.806209	-0.397671	0.000218	-0.442276	0.896879	-0.898952	-0.392961	-0.193562
486	4147594													8.864701	0.011327	4.382815	0.443903	-0.803679	-0.396295	-0.000158	-0.442327	0.896854	-0.896075	-0.398053	-0.196477
487	4147760													8.894285	0.034671	4.392550	0.450362	-0.800633	-0.395173	-0.000245	-0.442710	0.896665	-0.892846	-0.403727	-0.199576
488	4147927													8.805825	0.034181	4.317960	0.458435	-0.796723	-0.393789	-0.000411	-0.443283	0.896381	-0.888728	-0.410771	-0.203545
489	4148094													8.514277	0.026342	4.657561	0.465295	-0.793169	-0.392917	0.000027	-0.443883	0.896085	-0.885156	-0.416955	-0.206515
490	4148260													8.815257	-0.039572	4.462893	0.471719	-0.789914	-0.391813	0.000511	-0.444114	0.895970	-0.881749	-0.422847	-0.209093
491	4148427													8.736759	0.047973	4.821893	0.478666	-0.786214	-0.390828	0.001065	-0.444616	0.895721	-0.877997	-0.429167	-0.211985
492	4148594													8.521635	-0.015410	4.864223	0.485266	-0.783085	-0.388965	0.000953	-0.444380	0.895838	-0.874366	-0.435091	-0.214896
493	4148760													8.594100	-0.032427	4.801912	0.491804	-0.779896	-0.387158	0.000969	-0.444158	0.895948	-0.870706	-0.441006	-0.217682
494	4148927													8.584519	0.006828	4.900281	0.498717	-0.776329	-0.385481	0.001058	-0.444189	0.895932	-0.866764	-0.447224	-0.220703
495	4149094													8.474526	-0.038409	4.899549	0.505648	-0.772787	-0.383562	0.001100	-0.444009	0.896022	-0.862739	-0.453493	-0.223662
496	4149260													8.553039	-0.010174	4.943599	0.512133	-0.769302	-0.381962	0.001323	-0.444001	0.896025	-0.858905	-0.459389	-0.226370
497	4149427													8.503535	0.000640	5.121933	0.518800	-0.765655	-0.380288	0.001586	-0.443973	0.896039	-0.854894	-0.465467	-0.229119
498	4149594													8.315713	0.011692	5.158594	0.525508	-0.761804	-0.378809	0.002162	-0.444047	0.896001	-0.850786	-0.471675	-0.231703
499	4149760													8.284108	0.045159	5.165770	0.532152	-0.757884	-0.377393	0.002881	-0.444126	0.895960	-0.846644	-0.477874	-0.234159
500	4149927													8.259182	0.043060	5.161904	0.538862	-0.753763	-0.376123	0.003709	-0.444366	0.895838	-0.842386	-0.484128	-0.236656
501	4150094													8.248819	0.046282	5.182692	0.545202	-0.749866	-0.374774	0.004547	-0.444410	0.895812	-0.838293	-0.490102	-0.238883
502	4150260													8.202396	0.051773	5.329740	0.551594	-0.745709	-0.373714	0.005632	-0.444698	0.895663	-0.834094	-0.496147	-0.241093
503	4150427													8.063273	0.109210	5.433689	0.558010	-0.741284	-0.372992	0.006939	-0.445294	0.895357	-0.829805	-0.502206	-0.243335
504	4150594													7.998649	0.109613	5.463045	0.564401	-0.736732	-0.372394	0.008344	-0.445998	0.894995	-0.825459	-0.508244	-0.245574
505	4150760													8.015769	0.130731	5.555484	0.570835	-0.732032	-0.371856	0.009768	-0.446808	0.894577	-0.821007	-0.514288	-0.247903
506	4150927													8.015382	0.145272	5.513752	0.577287	-0.727308	-0.371164	0.011072	-0.447542	0.894195	-0.816466	-0.520316	-0.250307
507	4151094													8.104521	0.168992	5.710885	0.583217	-0.722915	-0.370476	0.012351	-0.448129	0.893884	-0.812222	-0.525904	-0.252428
508	4151260													7.982952	0.145670	5.827982	0.589408	-0.718168	-0.369909	0.013736	-0.448926	0.893463	-0.807719	-0.531696	-0.254736
509	4151427													7.849825	0.203204	5.957145	0.595595	-0.713431	-0.369165	0.014997	-0.449614	0.893097	-0.803145	-0.537461	-0.257088
510	4151594													7.794097	0.167265	5.922540	0.601977	-0.708399	-0.368503	0.016420	-0.450408	0.892672	-0.798344	-0.543419	-0.259503
511	4151760													7.705064	0.236184	6.044216	0.608811	-0.702977	-0.367657	0.017864	-0.451178	0.892255	-0.793114	-0.549783	-0.262124
512	4151927													7.624136	0.231929	6.008321	0.615846	-0.697341	-0.366672	0.019336	-0.451882	0.891868	-0.787629	-0.556344	-0.264806
513	4152094													7.762604	0.365492	6.077536	0.622256	-0.692040	-0.365894	0.020818	-0.452614	0.891463	-0.782537	-0.562336	-0.267236
514	4152260													7.838912	0.353956	6.202983	0.628124	-0.687341	-0.364722	0.022073	-0.452798	0.891340	-0.777800	-0.567922	-0.269242
515	4152427													7.513857	0.374384	6.303738	0.633994	-0.682812	-0.363070	0.023164	-0.452506	0.891461	-0.772991	-0.573591	-0.271069
516	4152594													7.193163	0.380465	6.295671	0.639777	-0.678468	-0.361064	0.024083	-0.451864	0.891762	-0.768183	-0.579224	-0.272752
517	4152760													7.080283	0.300578	6.286538	0.645353	-0.674380	-0.358790	0.024789	-0.450956	0.892202	-0.763482	-0.584679	-0.274309
518	4152927													7.094590	0.274099	6.276881	0.650447	-0.670467	-0.356922	0.025777	-0.450155	0.892578	-0.759114	-0.589775	-0.275519
519	4153094													7.119428	0.215549	6.348760	0.654757	-0.666940	-0.355647	0.027074	-0.449536	0.892852	-0.755354	-0.594230	-0.276280
520	4153260													7.155089	0.135033	6.471519	0.658209	-0.663745	-0.355251	0.028912	-0.449250	0.892938	-0.752280	-0.598011	-0.276510
521	4153427													7.190587	0.209759	6.617829	0.661430	-0.660489	-0.355337	0.031149	-0.449178	0.892899	-0.749360	-0.601659	-0.276526
522	4153594													7.195716	0.264885	6.658942	0.664310	-0.657436	-0.355626	0.033472	-0.449138	0.892835	-0.746707	-0.605023	-0.276361
523	4153760													7.226793	0.289759	6.673892	0.667031	-0.654476	-0.355993	0.035667	-0.449224	0.892707	-0.744176	-0.608160	-0.276303
524	4153927													7.236865	0.304745	6.714488	0.669418	-0.651718	-0.356573	0.037739	-0.449530	0.892468	-0.741927	-0.610890	-0.276328
525	4154094													7.283760	0.390659	6.717800	0.671373	-0.649458	-0.357018	0.039409	-0.449761	0.892279	-0.740071	-0.613122	-0.276363
526	4154260													7.234374	0.344619	6.675694	0.673224	-0.647597	-0.356914	0.040542	-0.449630	0.892294	-0.738326	-0.615184	-0.276447
527	4154427													7.154066	0.309413	6.741352	0.674875	-0.646119	-0.356474	0.041293	-0.449250	0.892452	-0.736776	-0.617013	-0.276507
528	4154594													7.055920	0.307171	6.659663	0.676221	-0.644877	-0.356173	0.041828	-0.449083	0.892511	-0.735511	-0.618432	-0.276705
529	4154760													7.124812	0.349176	6.690431	0.677350	-0.643826	-0.355928	0.042152	-0.449060	0.892507	-0.734452	-0.619543	-0.277032
530	4154927													7.032052	0.386953	6.637611	0.678331	-0.642911	-0.355715	0.042226	-0.449216	0.892425	-0.733542	-0.620379	-0.277570
531	4155094													7.031659	0.414064	6.669557	0.679128	-0.642155	-0.355559	0.042153	-0.449480	0.892295	-0.732808	-0.620971	-0.278186
532	4155260													7.052080	0.424017	6.650872	0.679569	-0.641792	-0.355372	0.041815	-0.449741	0.892180	-0.732419	-0.621158	-0.278794
533	4155427													7.065337	0.383793	6.727023	0.679483	-0.641722	-0.355663	0.041626	-0.450260	0.891927	-0.732510	-0.620854	-0.279231
534	4155594													7.110188	0.393327	6.710693	0.678990	-0.642083	-0.355951	0.041373	-0.450614	0.891760	-0.732981	-0.620223	-0.279397
535	4155760													7.118740	0.414313	6.712502	0.678072	-0.642812	-0.356385	0.041189	-0.450886	0.891631	-0.733840	-0.619269	-0.279256
536	4155927													7.140014	0.436387	6.665975	0.676892	-0.643933	-0.356605	0.040828	-0.450873	0.891654	-0.734949	-0.618113	-0.278902
537	4156094													7.161077	0.415768	6.656451	0.675425	-0.645296	-0.356924	0.040501	-0.450820	0.891696	-0.736316	-0.616729	-0.278360
538	4156260													7.192875	0.420283	6.672866	0.673639	-0.647042	-0.357138	0.040077	-0.450540	0.891856	-0.737974	-0.615102	-0.277569
539	4156427													7.202168	0.375772	6.566723	0.671701	-0.649060	-0.357127	0.039491	-0.450011	0.892149	-0.739769	-0.613361	-0.276641
540	4156594													7.125979	0.366550	6.616893	0.669609	-0.651223	-0.357116	0.038896	-0.449418	0.892474	-0.741694	-0.611500	-0.275605
541	4156760													7.149818	0.384130	6.579639	0.667380	-0.653559	-0.357021	0.038154	-0.448768	0.892833	-0.743739	-0.609481	-0.274563
542	4156927													7.174943	0.300371	6.516550	0.664818	-0.656174	-0.357005	0.037336	-0.448129	0.893189	-0.746072	-0.607137	-0.273425
543	4157094													7.200875	0.340782	6.508663	0.661869	-0.658996	-0.357285	0.036465	-0.447754	0.893413	-0.748732	-0.604351	-0.272325
544	4157260													7.285660	0.353992	6.487700	0.658665	-0.662036	-0.357587	0.035555	-0.447324	0.893665	-0.751596	-0.601340	-0.271098
545	4157427													7.232100	0.358237	6.523740	0.655172	-0.665377	-0.357804	0.034488	-0.446776	0.893981	-0.754692	-0.598051	-0.269767
546	4157594													7.244622	0.278797	6.412315	0.651436	-0.668826	-0.358195	0.033391	-0.446383	0.894219	-0.757969	-0.594487	-0.268457
547	4157760													7.338386	0.282286	6.453120	0.647360	-0.672425	-0.358846	0.032401	-0.446108	0.894392	-0.761496	-0.590621	-0.267005
548	4157927													7.426618	0.315476	6.418219	0.642923	-0.676246	-0.359640	0.031411	-0.445872	0.894545	-0.765286	-0.586421	-0.265420
549	4158094													7.408989	0.354450	6.383420	0.638407	-0.680264	-0.360108	0.030216	-0.445345	0.894849	-0.769105	-0.582159	-0.263757
550	4158260													7.400793	0.284556	6.282739	0.633751	-0.684478	-0.360345	0.028893	-0.444569	0.895278	-0.772997	-0.577796	-0.261969
551	4158427													7.462258	0.277872	6.273170	0.628938	-0.688695	-0.360744	0.027720	-0.443847	0.895674	-0.776961	-0.573323	-0.260061
552	4158594													7.572124	0.240020	6.193414	0.623928	-0.692791	-0.361600	0.026780	-0.443485	0.895882	-0.781023	-0.568649	-0.258149
553	4158760													7.623515	0.308415	6.148365	0.618734	-0.696874	-0.362677	0.025905	-0.443307	0.895996	-0.785174	-0.563778	-0.256236
554	4158927													7.689717	0.363974	6.071432	0.613509	-0.701114	-0.363381	0.024759	-0.442854	0.896252	-0.789300	-0.558855	-0.254336
555	4159094													7.694319	0.420303	5.983839	0.608232	-0.705400	-0.363957	0.023300	-0.442459	0.896486	-0.793417	-0.553752	-0.252682
556	4159260													7.624497	0.324209	6.016912	0.602949	-0.709580	-0.364623	0.021722	-0.442275	0.896616	-0.797484	-0.548534	-0.251256
557	4159427													7.798697	0.222516	5.931868	0.597040	-0.714146	-0.365430	0.020273	-0.441951	0.896810	-0.801955	-0.542840	-0.249385
558	4159594													7.889420	0.190786	5.942015	0.590871	-0.718752	-0.366425	0.018939	-0.441707	0.896959	-0.806544	-0.536927	-0.247379
559	4159760													7.904387	0.190737	5.869141	0.584458	-0.723524	-0.367317	0.017565	-0.441295	0.897190	-0.811234	-0.530822	-0.245210
560	4159927													7.768169	0.250279	5.652754	0.578074	-0.728475	-0.367633	0.015723	-0.440511	0.897610	-0.815833	-0.524665	-0.243194
561	4160094													7.912851	0.226717	5.672740	0.570895	-0.733525	-0.368809	0.014484	-0.440138	0.897813	-0.820895	-0.517899	-0.240649
562	4160261													8.091872	0.106773	5.678320	0.563647	-0.738300	-0.370424	0.013681	-0.440042	0.897873	-0.825902	-0.511151	-0.237928
563	4160427													8.134648	0.155065	5.599293	0.556258	-0.743100	-0.371995	0.012905	-0.439864	0.897972	-0.830910	-0.504304	-0.235088
564	4160594													8.110043	0.148942	5.443482	0.549018	-0.748029	-0.372869	0.011775	-0.439151	0.898336	-0.835727	-0.497593	-0.232294
565	4160761													8.090693	0.189014	5.288962	0.541728	-0.752725	-0.374081	0.010770	-0.438789	0.898526	-0.840485	-0.490785	-0.229597
566	4160927													8.209203	0.155818	5.158503	0.534150	-0.757610	-0.375115	0.009648	-0.438226	0.898813	-0.845334	-0.483720	-0.226769
567	4161094													8.355811	0.068063	5.259929	0.526170	-0.762407	-0.376669	0.009035	-0.437905	0.898976	-0.850331	-0.476418	-0.223524
568	4161261													8.514883	-0.016541	5.203446	0.518466	-0.766942	-0.378145	0.008540	-0.437558	0.899150	-0.855056	-0.469408	-0.220309
569	4161427													8.461684	0.019250	5.117619	0.511079	-0.771374	-0.379183	0.008006	-0.436858	0.899495	-0.859496	-0.462749	-0.217094
570	4161594													8.381825	0.046643	4.880597	0.504018	-0.776026	-0.379143	0.007187	-0.435195	0.900307	-0.863663	-0.456496	-0.213769
571	4161761													8.405512	0.062494	4.555758	0.497245	-0.779931	-0.380071	0.006874	-0.434511	0.900640	-0.867583	-0.450452	-0.210697
572	4161927													8.708934	0.067963	4.835443	0.490056	-0.783876	-0.381292	0.006878	-0.433926	0.900922	-0.871664	-0.444125	-0.207256
573	4162094													8.976074	-0.083962	4.884449	0.483086	-0.787672	-0.382362	0.007061	-0.433180	0.901280	-0.875545	-0.438095	-0.203701
574	4162261													8.763996	0.012648	4.859778	0.476294	-0.791329	-0.383331	0.007382	-0.432343	0.901679	-0.879255	-0.432294	-0.200081
575	4162427													8.583774	0.124216	4.606360	0.469712	-0.795788	-0.382221	0.006924	-0.429620	0.902983	-0.882793	-0.426788	-0.196288
576	4162594													8.633920	0.026080	4.378859	0.463120	-0.799609	-0.382289	0.006734	-0.428147	0.903684	-0.886270	-0.421089	-0.192899
577	4162761													8.966412	0.048150	4.303193	0.456754	-0.802527	-0.383831	0.006601	-0.428399	0.903566	-0.889568	-0.415241	-0.190376
578	4162927													8.822857	-0.056950	4.554652	0.450991	-0.805303	-0.384830	0.006283	-0.428293	0.903618	-0.892506	-0.409942	-0.188096
579	4163094													8.813360	-0.074104	4.383582	0.444853	-0.808283	-0.385725	0.006103	-0.427942	0.903786	-0.895583	-0.404406	-0.185438
580	4163261													8.888522	0.032309	4.250370	0.438967	-0.811275	-0.386187	0.005882	-0.427207	0.904134	-0.898484	-0.399157	-0.182757
581	4163427													8.849872	0.052457	4.053387	0.433495	-0.813783	-0.387090	0.005790	-0.427024	0.904222	-0.901137	-0.394217	-0.180401
582	4163594													8.871566	0.019443	4.169344	0.428129	-0.815861	-0.388686	0.005872	-0.427576	0.903960	-0.903698	-0.389295	-0.178267
583	4163761													8.958538	-0.088426	4.120326	0.422353	-0.817688	-0.391158	0.006134	-0.428948	0.903308	-0.906411	-0.383914	-0.176152
584	4163927													8.959303	-0.008818	4.220450	0.416501	-0.819450	-0.393736	0.006575	-0.430362	0.902632	-0.909112	-0.378536	-0.173858
585	4164094													8.969054	0.006954	4.080292	0.410989	-0.821837	-0.394553	0.006580	-0.430109	0.902753	-0.911617	-0.373618	-0.171362
586	4164261													8.845522	0.017340	3.993686	0.404871	-0.824994	-0.394291	0.006247	-0.428708	0.903421	-0.914353	-0.368232	-0.168417
587	4164427													9.013532	0.051608	3.711515	0.398450	-0.827544	-0.395485	0.006262	-0.428728	0.903412	-0.917169	-0.362441	-0.165644
588	4164594													9.211270	0.114324	3.770852	0.392630	-0.829696	-0.396796	0.006429	-0.428956	0.903303	-0.919674	-0.357215	-0.163087
589	4164761													9.134357	0.009843	3.848889	0.387043	-0.831992	-0.397477	0.006550	-0.428582	0.903479	-0.922039	-0.352289	-0.160430
590	4164927													8.893848	0.041994	3.972183	0.380711	-0.835721	-0.395765	0.006116	-0.425710	0.904839	-0.924674	-0.346902	-0.156961
591	4165094													8.985296	-0.018937	3.562313	0.373476	-0.839855	-0.393904	0.005924	-0.422462	0.906361	-0.927621	-0.340837	-0.152804
592	4165261													9.310946	0.033193	3.421267	0.366786	-0.843143	-0.393164	0.006033	-0.420454	0.907294	-0.930286	-0.335154	-0.149130
593	4165427													9.284876	-0.082223	3.571993	0.361161	-0.845605	-0.393085	0.006479	-0.419251	0.907847	-0.932481	-0.330426	-0.145938
594	4165594													9.112160	-0.108042	3.600232	0.355490	-0.848311	-0.392421	0.006893	-0.417455	0.908671	-0.934654	-0.325729	-0.142554
595	4165761													9.063375	-0.001761	3.334331	0.349410	-0.850966	-0.392135	0.007488	-0.415965	0.909350	-0.936940	-0.320672	-0.138970
596	4165927													9.242036	0.166286	3.156372	0.343450	-0.852505	-0.394053	0.008619	-0.416696	0.909005	-0.939131	-0.315594	-0.135767
597	4166094													9.417534	0.078622	3.149758	0.338491	-0.853700	-0.395753	0.009635	-0.417414	0.908665	-0.940920	-0.311388	-0.133066
598	4166261													9.310962	0.083969	3.488284	0.333901	-0.855483	-0.395801	0.010349	-0.416548	0.909055	-0.942552	-0.307630	-0.130232
599	4166427													9.176822	0.043078	3.139547	0.328414	-0.857328	-0.396399	0.010951	-0.416193	0.909210	-0.944470	-0.302938	-0.127295
600	4166594													9.453391	0.250588	3.052757	0.323525	-0.858623	-0.397615	0.011638	-0.416572	0.909028	-0.946148	-0.298721	-0.124779
601	4166761													9.663013	0.143351	3.077313	0.320335	-0.859484	-0.398338	0.012203	-0.416718	0.908954	-0.947226	-0.296031	-0.123001
602	4166927													9.378321	0.094396	3.300340	0.317531	-0.860696	-0.397965	0.012511	-0.415845	0.909349	-0.948165	-0.293726	-0.121276
603	4167094													9.265207	0.139680	3.065972	0.313946	-0.861769	-0.398488	0.012875	-0.415805	0.909363	-0.949353	-0.290622	-0.119445
604	4167427													9.532454	0.207398	2.978688	0.307768	-0.863418	-0.399735	0.013329	-0.416174	0.909187	-0.951368	-0.285147	-0.116576
605	4167594													9.451689	0.170715	3.103167	0.305672	-0.864055	-0.399968	0.013509	-0.416096	0.909220	-0.952041	-0.283326	-0.115516
606	4167761													9.378027	0.129212	3.077371	0.303926	-0.864595	-0.400131	0.013689	-0.415993	0.909265	-0.952597	-0.281826	-0.114596
607	4167927													9.306565	0.204436	3.058657	0.302176	-0.865153	-0.400249	0.013774	-0.415871	0.909319	-0.953153	-0.280287	-0.113750
608	4168094													9.309722	0.180815	2.983569	0.300241	-0.865597	-0.400745	0.013852	-0.416128	0.909201	-0.953763	-0.278531	-0.112948
609	4168261													9.393217	0.204774	2.874369	0.298218	-0.866058	-0.401261	0.013848	-0.416419	0.909067	-0.954397	-0.276657	-0.112191
610	4168427													9.505284	0.159244	2.844555	0.296524	-0.866067	-0.402495	0.013928	-0.417483	0.908578	-0.954924	-0.275021	-0.111731
611	4168594													9.480663	0.137036	2.927451	0.295758	-0.865938	-0.403334	0.013878	-0.418283	0.908211	-0.955162	-0.274208	-0.111694
612	4168761													9.408938	0.121964	2.967098	0.295276	-0.865569	-0.404479	0.013930	-0.419410	0.907690	-0.955311	-0.273653	-0.111784
613	4168927													9.412498	0.127991	2.981457	0.294965	-0.865256	-0.405373	0.013896	-0.420320	0.907270	-0.955407	-0.273246	-0.111956
614	4169094													9.421153	0.142752	2.986438	0.295063	-0.864920	-0.406019	0.013814	-0.421032	0.906941	-0.955378	-0.273214	-0.112283
615	4169261													9.281624	0.154767	3.129563	0.295289	-0.865664	-0.404264	0.013428	-0.419330	0.907734	-0.955314	-0.273472	-0.112199
616	4169427													9.392764	0.156181	2.819486	0.294947	-0.866309	-0.403131	0.013207	-0.418164	0.908276	-0.955422	-0.273218	-0.111895
617	4169594													9.611074	0.124399	2.789710	0.295370	-0.866408	-0.402608	0.012856	-0.417768	0.908463	-0.955296	-0.273509	-0.112258
618	4169761													9.503439	0.058636	2.842389	0.296602	-0.865967	-0.402651	0.012607	-0.418036	0.908343	-0.954918	-0.274493	-0.113073
619	4169927													9.349843	0.097203	2.903779	0.298008	-0.865311	-0.403023	0.012429	-0.418654	0.908061	-0.954483	-0.275618	-0.114007
620	4170094													9.358346	0.201378	2.978668	0.299357	-0.864944	-0.402813	0.012186	-0.418673	0.908055	-0.954063	-0.276741	-0.114792
621	4170261													9.285320	0.164723	2.954166	0.300418	-0.864707	-0.402532	0.011948	-0.418581	0.908101	-0.953733	-0.277619	-0.115417
622	4170427													9.279991	0.121974	2.806787	0.300566	-0.864566	-0.402723	0.011640	-0.418891	0.907962	-0.953690	-0.277590	-0.115841
623	4170594													9.465098	0.128683	2.728092	0.301075	-0.864091	-0.403362	0.011514	-0.419664	0.907607	-0.953531	-0.277902	-0.116401
624	4170761													9.497038	0.088980	2.918211	0.302102	-0.863265	-0.404361	0.011597	-0.420820	0.907070	-0.953205	-0.278717	-0.117119
625	4170927													9.414742	0.183768	2.999861	0.303209	-0.862383	-0.405413	0.011918	-0.421976	0.906529	-0.952850	-0.279699	-0.117669
626	4171094													9.370333	0.189969	2.953884	0.304451	-0.861458	-0.406448	0.012307	-0.423111	0.905994	-0.952449	-0.280833	-0.118214
627	4171261													9.313887	0.150635	3.050685	0.305832	-0.860550	-0.407334	0.012421	-0.424190	0.905488	-0.952004	-0.281987	-0.119042
628	4171427													9.283262	0.101013	3.058661	0.306773	-0.859922	-0.407952	0.012386	-0.424975	0.905120	-0.951702	-0.282720	-0.119720
629	4171594													9.349419	0.100547	3.004980	0.307662	-0.859284	-0.408626	0.012380	-0.425806	0.904730	-0.951415	-0.283410	-0.120367
630	4171761													9.359781	0.127089	3.047920	0.308749	-0.858576	-0.409293	0.012349	-0.426662	0.904327	-0.951064	-0.284264	-0.121129
631	4171927													9.317455	0.121052	3.077607	0.310013	-0.857856	-0.409848	0.012297	-0.427433	0.903964	-0.950653	-0.285280	-0.121960
632	4172094													9.245645	0.120155	3.114458	0.311060	-0.857368	-0.410074	0.012265	-0.427823	0.903779	-0.950311	-0.286159	-0.122563
633	4172261													9.259522	0.109217	3.038207	0.311748	-0.856986	-0.410350	0.012177	-0.428234	0.903586	-0.950087	-0.286688	-0.123066
634	4172427													9.328835	0.108159	3.057986	0.312399	-0.856618	-0.410624	0.012028	-0.428657	0.903387	-0.949875	-0.287156	-0.123609
635	4172594													9.341328	0.098543	3.111240	0.313195	-0.856202	-0.410886	0.011912	-0.429077	0.903189	-0.949614	-0.287769	-0.124186
636	4172761													9.301404	0.106526	3.103173	0.314004	-0.855776	-0.411155	0.011748	-0.429523	0.902980	-0.949349	-0.288370	-0.124818
637	4172927													9.333963	0.090425	3.111441	0.314884	-0.855318	-0.411436	0.011525	-0.430010	0.902751	-0.949060	-0.289004	-0.125546
638	4173094													9.331858	0.095305	3.163891	0.315758	-0.854841	-0.411756	0.011420	-0.430502	0.902517	-0.948771	-0.289679	-0.126172
639	4173261													9.339587	0.148426	3.088041	0.316604	-0.854344	-0.412139	0.011406	-0.431030	0.902266	-0.948489	-0.290362	-0.126721
640	4173427													9.313454	0.132659	3.140011	0.317583	-0.853757	-0.412602	0.011360	-0.431671	0.901959	-0.948162	-0.291134	-0.127393
641	4173594													9.318937	0.114665	3.071831	0.318518	-0.853182	-0.413071	0.011230	-0.432340	0.901641	-0.947850	-0.291827	-0.128127
642	4173761													9.359132	0.115759	3.115949	0.319625	-0.852467	-0.413692	0.011151	-0.433179	0.901239	-0.947479	-0.292671	-0.128949
643	4173927													9.306335	0.118786	3.133439	0.320811	-0.851718	-0.414315	0.011127	-0.434018	0.900836	-0.947078	-0.293608	-0.129761
644	4174094													9.268022	0.153270	3.154190	0.321870	-0.851015	-0.414938	0.011174	-0.434815	0.900450	-0.946718	-0.294465	-0.130445
645	4174261													9.284678	0.131119	3.160679	0.322860	-0.850428	-0.415371	0.011259	-0.435392	0.900170	-0.946380	-0.295306	-0.130996
646	4174427													9.299246	0.075839	3.130174	0.323776	-0.849900	-0.415738	0.011350	-0.435887	0.899930	-0.946066	-0.296095	-0.131483
647	4174594													9.342002	0.081121	3.127782	0.324782	-0.849332	-0.416114	0.011445	-0.436403	0.899678	-0.945719	-0.296962	-0.132016
648	4174761													9.328183	0.089341	3.153338	0.325900	-0.848685	-0.416561	0.011612	-0.436990	0.899391	-0.945333	-0.297948	-0.132560
649	4174927													9.298848	0.098856	3.183517	0.327056	-0.848063	-0.416922	0.011763	-0.437497	0.899143	-0.944932	-0.298974	-0.133110
650	4175094													9.318528	0.081250	3.203843	0.328173	-0.847490	-0.417208	0.011923	-0.437917	0.898936	-0.944542	-0.299981	-0.133608
651	4175261													9.321119	0.091267	3.198964	0.329398	-0.846886	-0.417470	0.012067	-0.438334	0.898731	-0.944114	-0.301078	-0.134167
652	4175427													9.312950	0.103030	3.200423	0.330773	-0.846217	-0.417739	0.012202	-0.438784	0.898510	-0.943631	-0.302300	-0.134813
653	4175594													9.289976	0.109390	3.229951	0.332234	-0.845522	-0.417988	0.012362	-0.439219	0.898295	-0.943116	-0.303611	-0.135471
654	4175761													9.274169	0.131662	3.258662	0.333659	-0.844884	-0.418142	0.012486	-0.439562	0.898126	-0.942611	-0.304888	-0.136115
655	4175927													9.276593	0.127881	3.257979	0.335069	-0.844333	-0.418128	0.012567	-0.439737	0.898039	-0.942110	-0.306160	-0.136731
656	4176094													9.269889	0.119658	3.285162	0.336550	-0.843753	-0.418109	0.012636	-0.439923	0.897946	-0.941581	-0.307487	-0.137394
657	4176261													9.248958	0.124233	3.288665	0.338114	-0.843206	-0.417950	0.012662	-0.439989	0.897914	-0.941020	-0.308889	-0.138090
658	4176427													9.244686	0.108043	3.309791	0.339716	-0.842631	-0.417810	0.012690	-0.440082	0.897868	-0.940442	-0.310323	-0.138810
659	4176594													9.234054	0.135949	3.337695	0.341356	-0.842020	-0.417707	0.012671	-0.440238	0.897792	-0.939849	-0.311759	-0.139608
660	4176761													9.219194	0.124849	3.356454	0.343061	-0.841378	-0.417603	0.012645	-0.440406	0.897709	-0.939228	-0.313250	-0.140447
661	4176928													9.234619	0.144927	3.371399	0.344689	-0.840782	-0.417463	0.012577	-0.440540	0.897645	-0.938633	-0.314659	-0.141274
662	4177094													9.233495	0.149932	3.377015	0.346450	-0.840144	-0.417289	0.012474	-0.440673	0.897581	-0.937986	-0.316172	-0.142191
663	4177261													9.232445	0.148724	3.437075	0.348139	-0.839467	-0.417246	0.012462	-0.440906	0.897467	-0.937360	-0.317643	-0.143035
664	4177428													9.219134	0.119395	3.456578	0.349913	-0.838644	-0.417417	0.012502	-0.441366	0.897240	-0.936699	-0.319175	-0.143955
665	4177594													9.210276	0.122943	3.504745	0.351724	-0.837761	-0.417668	0.012578	-0.441908	0.896972	-0.936019	-0.320740	-0.144893
666	4177761													9.192131	0.119574	3.543769	0.353548	-0.836847	-0.417959	0.012589	-0.442519	0.896671	-0.935332	-0.322278	-0.145917
667	4177928													9.178987	0.142247	3.595772	0.355362	-0.836026	-0.418065	0.012453	-0.442984	0.896443	-0.934646	-0.323768	-0.147009
668	4178094													9.142522	0.147795	3.547309	0.357223	-0.835600	-0.417329	0.011985	-0.442673	0.896603	-0.933942	-0.325289	-0.148118
669	4178261													9.168809	0.155497	3.544423	0.358946	-0.835237	-0.416577	0.011460	-0.442344	0.896772	-0.933288	-0.326667	-0.149206
670	4178428													9.203749	0.070190	3.470994	0.360711	-0.834728	-0.416072	0.010835	-0.442325	0.896790	-0.932615	-0.327990	-0.150507
671	4178594													9.166752	0.074843	3.541098	0.362629	-0.833989	-0.415887	0.010260	-0.442663	0.896629	-0.931877	-0.329411	-0.151966
672	4178761													9.161722	0.037164	3.545346	0.364688	-0.833258	-0.415552	0.009677	-0.442872	0.896533	-0.931079	-0.330976	-0.153447
673	4178928													9.227103	0.108378	3.670977	0.367062	-0.832585	-0.414809	0.009227	-0.442656	0.896644	-0.930151	-0.332952	-0.154800
674	4179094													9.128489	0.146091	3.545310	0.369469	-0.832031	-0.413783	0.008925	-0.442093	0.896925	-0.929200	-0.335079	-0.155914
675	4179261													9.178450	0.144056	3.565732	0.371653	-0.831466	-0.412964	0.008566	-0.441736	0.897104	-0.928332	-0.336949	-0.157050
676	4179428													9.216736	0.052699	3.594721	0.374086	-0.830665	-0.412377	0.008142	-0.441703	0.897124	-0.927358	-0.338959	-0.158471
677	4179594													9.162160	0.056262	3.679759	0.376496	-0.829756	-0.412014	0.007778	-0.441892	0.897035	-0.926386	-0.340935	-0.159917
678	4179761													9.127439	0.100740	3.744017	0.379018	-0.828587	-0.412055	0.007542	-0.442497	0.896738	-0.925358	-0.342988	-0.161466
679	4179928													9.126951	0.121213	3.751870	0.381913	-0.827523	-0.411519	0.007177	-0.442603	0.896689	-0.924170	-0.345411	-0.163097
680	4180094													9.033875	0.108875	3.720865	0.384950	-0.826309	-0.411130	0.006859	-0.442885	0.896552	-0.922912	-0.347948	-0.164820
681	4180261													9.114697	0.080469	3.691309	0.387683	-0.825329	-0.410530	0.006473	-0.442912	0.896542	-0.921770	-0.350231	-0.166367
682	4180428													9.192393	0.014930	3.781546	0.390943	-0.824181	-0.409743	0.006087	-0.442847	0.896576	-0.920395	-0.353005	-0.168111
683	4180594													9.111871	0.015159	3.860196	0.394343	-0.823079	-0.408699	0.005612	-0.442574	0.896714	-0.918946	-0.355906	-0.169907
684	4180761													9.180582	0.057599	3.930876	0.398057	-0.821768	-0.407736	0.005229	-0.442427	0.896789	-0.917346	-0.359105	-0.171814
685	4180928													9.010968	0.030618	3.906556	0.402401	-0.820832	-0.405350	0.004461	-0.441017	0.897488	-0.915453	-0.362958	-0.173804
686	4181094													8.951900	-0.086539	3.818825	0.406625	-0.819691	-0.403440	0.003848	-0.440055	0.897962	-0.913587	-0.366686	-0.175783
687	4181261													9.075731	-0.172097	3.834651	0.410731	-0.817993	-0.402725	0.003857	-0.440139	0.897921	-0.911749	-0.370357	-0.177624
688	4181428													9.073126	-0.054230	3.984310	0.415067	-0.815674	-0.402983	0.004443	-0.441118	0.897438	-0.909780	-0.374288	-0.179469
689	4181594													8.969299	-0.006170	4.064426	0.419021	-0.813514	-0.403257	0.005038	-0.442037	0.896983	-0.907963	-0.377886	-0.181125
690	4181761													8.972528	-0.013609	4.056442	0.422986	-0.811392	-0.403393	0.005674	-0.442799	0.896603	-0.906118	-0.381540	-0.182694
691	4181928													8.853167	-0.070598	4.077558	0.427229	-0.809071	-0.403583	0.006394	-0.443656	0.896174	-0.904121	-0.385452	-0.184370
692	4182094													8.859676	-0.017763	4.188281	0.430880	-0.806825	-0.404197	0.007328	-0.444766	0.895617	-0.902379	-0.388865	-0.185729
693	4182261													8.939983	0.055644	4.246124	0.434456	-0.804590	-0.404824	0.008349	-0.445842	0.895073	-0.900654	-0.392250	-0.186981
694	4182428													8.895660	0.106082	4.354242	0.438011	-0.802454	-0.405232	0.009253	-0.446726	0.894623	-0.898922	-0.395605	-0.188246
695	4182594													8.824698	0.113090	4.428409	0.441582	-0.800436	-0.405349	0.010076	-0.447331	0.894312	-0.897164	-0.398996	-0.189468
696	4182761													8.831203	0.123332	4.425494	0.445016	-0.798660	-0.405096	0.010684	-0.447590	0.894175	-0.895459	-0.402250	-0.190651
697	4182928													8.854503	0.119117	4.402102	0.448817	-0.796902	-0.404365	0.011069	-0.447508	0.894212	-0.893555	-0.405813	-0.192028
698	4183094													8.812855	0.117203	4.478266	0.452847	-0.795084	-0.403449	0.011354	-0.447327	0.894298	-0.891516	-0.409561	-0.193543
699	4183261													8.803991	0.156092	4.500180	0.457089	-0.793252	-0.402269	0.011522	-0.446963	0.894478	-0.889346	-0.413491	-0.195162
700	4183428													8.828511	0.143366	4.599961	0.461695	-0.791311	-0.400830	0.011526	-0.446484	0.894717	-0.886964	-0.417706	-0.197019
701	4183594													8.751866	0.096056	4.599413	0.466916	-0.789003	-0.399328	0.011598	-0.446072	0.894922	-0.884225	-0.422485	-0.199127
702	4183761													8.719144	0.145121	4.566383	0.472421	-0.786470	-0.397849	0.011644	-0.445788	0.895063	-0.881296	-0.427479	-0.201442
703	4183928													8.731422	0.152325	4.497312	0.478258	-0.783998	-0.395747	0.011437	-0.445026	0.895445	-0.878145	-0.432780	-0.203871
704	4184094													8.738667	0.114025	4.635617	0.484581	-0.781221	-0.393541	0.011296	-0.444266	0.895824	-0.874673	-0.438545	-0.206459
705	4184261													8.533642	0.064493	4.687294	0.491066	-0.778200	-0.391483	0.011315	-0.443665	0.896121	-0.871049	-0.444484	-0.209064
706	4184428													8.454527	0.137402	4.735401	0.497364	-0.774953	-0.389970	0.011565	-0.443549	0.896175	-0.867465	-0.450235	-0.211643
707	4184594													8.424638	0.120966	4.787247	0.503897	-0.771323	-0.388779	0.012125	-0.443738	0.896075	-0.863679	-0.456243	-0.214246
708	4184761													8.372705	0.116346	4.927491	0.510825	-0.767109	-0.388075	0.013058	-0.444440	0.895714	-0.859585	-0.462620	-0.217014
709	4184928													8.334279	0.148165	5.007288	0.518138	-0.762390	-0.387679	0.014281	-0.445493	0.895171	-0.855178	-0.469359	-0.219939
710	4185094													8.453976	0.154945	4.985996	0.525304	-0.757607	-0.387411	0.015562	-0.446658	0.894569	-0.850772	-0.475950	-0.222842
711	4185261													8.613536	0.178535	5.044890	0.532011	-0.753098	-0.387049	0.016701	-0.447684	0.894036	-0.846573	-0.482101	-0.225596
712	4185428													8.468447	0.192752	5.289426	0.538816	-0.748491	-0.386574	0.017824	-0.448651	0.893529	-0.842235	-0.488338	-0.228400
713	4185594													8.157097	0.196572	5.359629	0.545674	-0.743672	-0.386253	0.019113	-0.449759	0.892945	-0.837779	-0.494639	-0.231209
714	4185761													8.111357	0.258267	5.385639	0.552567	-0.738646	-0.386098	0.020491	-0.451063	0.892257	-0.833217	-0.500943	-0.234107
715	4185928													8.127970	0.248934	5.387322	0.559566	-0.733696	-0.385455	0.021569	-0.452035	0.891739	-0.828505	-0.507301	-0.237119
716	4186094													8.174922	0.215645	5.388130	0.566008	-0.728983	-0.384991	0.022741	-0.453012	0.891214	-0.824086	-0.513189	-0.239830
717	4186261													8.188525	0.248001	5.586585	0.572199	-0.724213	-0.384842	0.024057	-0.454230	0.890560	-0.819762	-0.518836	-0.242487
718	4186428													8.020909	0.261374	5.728317	0.578485	-0.719190	-0.384865	0.025517	-0.455639	0.889799	-0.815294	-0.524556	-0.245229
719	4186594													7.994550	0.267006	5.755076	0.584868	-0.713990	-0.384900	0.026979	-0.457137	0.888987	-0.810680	-0.530324	-0.248101
720	4186761													8.005790	0.317980	5.772366	0.591591	-0.708440	-0.384881	0.028444	-0.458741	0.888114	-0.805737	-0.536348	-0.251236
721	4186928													8.062820	0.290040	5.868511	0.598141	-0.702956	-0.384813	0.029826	-0.460322	0.887251	-0.800836	-0.542178	-0.254371
722	4187094													8.009006	0.218727	6.115811	0.604693	-0.697166	-0.385104	0.031361	-0.462304	0.886167	-0.795841	-0.547936	-0.257688
723	4187261													7.770035	0.293161	6.184721	0.611588	-0.690875	-0.385555	0.032800	-0.464759	0.884830	-0.790496	-0.553797	-0.261580
724	4187428													7.670236	0.365945	5.965652	0.618362	-0.685096	-0.385061	0.033245	-0.466724	0.883778	-0.785190	-0.559296	-0.265828
725	4187594													7.541860	0.294263	5.967186	0.624746	-0.679920	-0.383929	0.032972	-0.468284	0.882962	-0.780132	-0.564286	-0.270141
726	4187761													7.308639	0.155842	6.126831	0.630628	-0.674882	-0.383200	0.032596	-0.470292	0.881909	-0.775401	-0.568647	-0.274581
727	4187928													7.167243	0.297225	6.105262	0.636225	-0.669661	-0.383109	0.032474	-0.472890	0.880523	-0.770820	-0.572651	-0.279118
728	4188094													7.173738	0.379929	6.259109	0.641506	-0.664683	-0.382971	0.032195	-0.475466	0.879145	-0.766442	-0.576307	-0.283614
729	4188261													7.214350	0.362084	6.402696	0.646195	-0.660144	-0.382938	0.031841	-0.478014	0.877775	-0.762508	-0.579407	-0.287871
730	4188428													7.183136	0.311335	6.486093	0.650349	-0.656225	-0.382641	0.031205	-0.480213	0.876597	-0.758994	-0.582034	-0.291829
731	4188594													7.166437	0.297703	6.558771	0.653715	-0.652936	-0.382532	0.030564	-0.482306	0.875469	-0.756123	-0.583999	-0.295335
732	4188761													7.132747	0.337536	6.613698	0.656377	-0.650325	-0.382422	0.029865	-0.484104	0.874500	-0.753842	-0.585423	-0.298333
733	4188928													7.125926	0.335833	6.578414	0.658409	-0.648247	-0.382457	0.029275	-0.485699	0.873636	-0.752091	-0.586406	-0.300811
734	4189094													7.150212	0.397881	6.611635	0.659915	-0.646656	-0.382555	0.028754	-0.487054	0.872898	-0.750790	-0.587039	-0.302820
735	4189261													7.206697	0.368010	6.617952	0.660646	-0.645839	-0.382674	0.028232	-0.488022	0.872375	-0.750167	-0.587134	-0.304176
736	4189428													7.154901	0.354988	6.606993	0.660955	-0.645551	-0.382626	0.027640	-0.488590	0.872076	-0.749916	-0.586979	-0.305093
737	4189594													7.168266	0.333318	6.642308	0.660819	-0.645747	-0.382529	0.027043	-0.488852	0.871947	-0.750058	-0.586544	-0.305580
738	4189761													7.141739	0.347206	6.604431	0.660387	-0.646290	-0.382359	0.026453	-0.488846	0.871969	-0.750459	-0.585952	-0.305731
739	4189928													7.149340	0.267610	6.486852	0.659519	-0.647323	-0.382109	0.025841	-0.488511	0.872175	-0.751243	-0.585090	-0.305455
740	4190094													7.257796	0.260296	6.496278	0.658175	-0.648825	-0.381879	0.025214	-0.487953	0.872505	-0.752443	-0.583890	-0.304799
741	4190261													7.215930	0.313811	6.489241	0.656561	-0.650546	-0.381729	0.024680	-0.487289	0.872892	-0.753869	-0.582528	-0.303880
742	4190428													7.244627	0.327871	6.463978	0.654679	-0.652545	-0.381551	0.024157	-0.486440	0.873380	-0.755521	-0.581000	-0.302698
743	4190594													7.299235	0.262127	6.395593	0.652729	-0.654662	-0.381265	0.023598	-0.485446	0.873948	-0.757224	-0.579448	-0.301416
744	4190761													7.327388	0.265036	6.431880	0.650600	-0.656908	-0.381039	0.023051	-0.484436	0.874523	-0.759070	-0.577748	-0.300032
745	4190928													7.354593	0.216562	6.425651	0.648091	-0.659520	-0.380803	0.022357	-0.483336	0.875149	-0.761235	-0.575690	-0.298501
746	4191094													7.293074	0.214569	6.399811	0.645554	-0.662309	-0.380272	0.021437	-0.482014	0.875901	-0.763414	-0.573593	-0.296968
747	4191261													7.298396	0.219412	6.312339	0.642580	-0.665584	-0.379590	0.020318	-0.480431	0.876797	-0.765949	-0.571125	-0.295192
748	4191428													7.308545	0.241678	6.314309	0.639481	-0.669006	-0.378809	0.019072	-0.478766	0.877735	-0.768571	-0.568519	-0.293402
749	4191594													7.378380	0.151470	6.355011	0.636018	-0.672532	-0.378393	0.018012	-0.477282	0.878566	-0.771464	-0.565600	-0.291446
750	4191761													7.482226	0.154517	6.300886	0.632038	-0.676318	-0.378314	0.017059	-0.475925	0.879320	-0.774750	-0.562218	-0.289265
751	4191928													7.474885	0.167962	6.264581	0.627769	-0.680437	-0.378035	0.015926	-0.474328	0.880204	-0.778236	-0.558586	-0.286932
752	4192094													7.476965	0.184645	6.157496	0.623131	-0.684821	-0.377794	0.014739	-0.472672	0.881115	-0.781979	-0.554618	-0.284443
753	4192261													7.484646	0.145935	6.150678	0.618216	-0.689228	-0.377853	0.013724	-0.471185	0.881927	-0.785888	-0.550407	-0.281835
754	4192428													7.639479	0.124453	6.084339	0.612907	-0.693719	-0.378285	0.012920	-0.469885	0.882633	-0.790049	-0.545860	-0.279033
755	4192594													7.741482	0.091984	6.060335	0.607374	-0.698221	-0.378925	0.012273	-0.468681	0.883282	-0.794322	-0.541133	-0.276095
756	4192761													7.791682	0.069236	6.012350	0.601531	-0.702972	-0.379462	0.011529	-0.467322	0.884012	-0.798766	-0.536135	-0.273004
757	4192928													7.854713	0.093556	5.960825	0.595573	-0.707639	-0.380184	0.010941	-0.466088	0.884671	-0.803227	-0.531045	-0.269847
758	4193094													7.904613	0.123574	5.873016	0.589504	-0.712418	-0.380718	0.010123	-0.464770	0.885374	-0.807702	-0.525785	-0.266771
759	4193261													7.968315	0.119083	5.802846	0.583420	-0.717034	-0.381422	0.009357	-0.463668	0.885960	-0.812116	-0.520456	-0.263804
760	4193428													7.986745	0.129939	5.675903	0.577404	-0.721818	-0.381554	0.008276	-0.462130	0.886773	-0.816417	-0.515184	-0.260862
761	4193595													7.976863	0.083612	5.538918	0.571338	-0.726623	-0.381565	0.007249	-0.460432	0.887665	-0.820683	-0.509923	-0.257795
762	4193761													8.121340	-0.003479	5.475301	0.565115	-0.731571	-0.381379	0.006031	-0.458595	0.888625	-0.824990	-0.504475	-0.254747
763	4193928													8.074362	-0.049465	5.477437	0.558842	-0.736151	-0.381807	0.005327	-0.457215	0.889340	-0.829257	-0.499035	-0.251589
764	4194095													8.097299	-0.032750	5.359177	0.552589	-0.740755	-0.382005	0.004619	-0.455610	0.890168	-0.833441	-0.493661	-0.248343
765	4194261													8.186412	-0.015396	5.304291	0.545811	-0.745295	-0.382917	0.004225	-0.454538	0.890718	-0.837898	-0.487781	-0.244943
766	4194428													8.224225	-0.085657	5.291964	0.539176	-0.749537	-0.384037	0.003923	-0.453756	0.891117	-0.842184	-0.481975	-0.241714
767	4194595													8.290462	-0.042144	5.202099	0.532059	-0.753908	-0.385402	0.003846	-0.453021	0.891491	-0.846698	-0.475808	-0.238135
768	4194761													8.326997	-0.033544	5.261238	0.524962	-0.758032	-0.387042	0.004008	-0.452535	0.891737	-0.851116	-0.469680	-0.234526
769	4194928													8.420506	0.025891	5.065453	0.517706	-0.762390	-0.388255	0.003884	-0.451704	0.892160	-0.855550	-0.463385	-0.230889
770	4195095													8.424388	-0.006157	5.041089	0.510546	-0.766624	-0.389397	0.003689	-0.450909	0.892562	-0.859842	-0.457131	-0.227382
771	4195261													8.502950	-0.031828	4.961157	0.502995	-0.770786	-0.391005	0.003757	-0.450446	0.892796	-0.864281	-0.450541	-0.223676
772	4195428													8.531485	-0.006461	4.854252	0.495617	-0.774785	-0.392519	0.003790	-0.449996	0.893023	-0.868533	-0.444085	-0.220089
773	4195595													8.544718	0.003289	4.905019	0.488012	-0.778549	-0.394594	0.004101	-0.450032	0.893003	-0.872827	-0.437415	-0.216428
774	4195761													8.725433	0.007303	4.719046	0.480525	-0.782391	-0.396182	0.004194	-0.449701	0.893169	-0.876971	-0.430851	-0.212812
775	4195928													8.622546	0.034430	4.725454	0.473231	-0.786111	-0.397596	0.004344	-0.449244	0.893398	-0.880928	-0.424511	-0.209181
776	4196095													8.612438	0.061756	4.538860	0.465660	-0.789800	-0.399221	0.004544	-0.448976	0.893532	-0.884952	-0.417896	-0.205481
777	4196261													8.770996	0.040827	4.517634	0.458018	-0.793543	-0.400635	0.004504	-0.448610	0.893717	-0.888931	-0.411143	-0.201897
778	4196428													8.872744	-0.008952	4.418184	0.450550	-0.796985	-0.402268	0.004716	-0.448462	0.893789	-0.892739	-0.404594	-0.198296
779	4196595													8.932997	0.032714	4.436542	0.443524	-0.800173	-0.403745	0.004907	-0.448301	0.893869	-0.896249	-0.398433	-0.194906
780	4196761													8.863274	0.032602	4.271150	0.436778	-0.803096	-0.405292	0.005117	-0.448314	0.893861	-0.899555	-0.392492	-0.191704
781	4196928													8.807073	0.131673	4.110815	0.430199	-0.806077	-0.406409	0.005109	-0.448016	0.894011	-0.902719	-0.386679	-0.188618
782	4197095													8.901573	0.145489	4.223905	0.423519	-0.809305	-0.407010	0.004905	-0.447239	0.894401	-0.905874	-0.380792	-0.185444
783	4197261													9.077638	0.044297	4.011661	0.416954	-0.812435	-0.407551	0.004934	-0.446357	0.894841	-0.908914	-0.375119	-0.182102
784	4197428													9.084581	0.129109	3.986871	0.410798	-0.815051	-0.408579	0.005170	-0.446048	0.894994	-0.911712	-0.369774	-0.179022
785	4197595													9.068603	0.087254	3.922243	0.405113	-0.817627	-0.409109	0.005157	-0.445422	0.895306	-0.914252	-0.364809	-0.176229
786	4197761													9.130953	0.074210	3.868414	0.399457	-0.819926	-0.410068	0.005103	-0.445310	0.895362	-0.916738	-0.359751	-0.173698
787	4197928													9.064690	0.048835	3.889284	0.394265	-0.822101	-0.410737	0.004959	-0.445031	0.895501	-0.918983	-0.355102	-0.171383
788	4198095													9.009720	0.072362	3.878837	0.388669	-0.824314	-0.411634	0.005038	-0.444852	0.895590	-0.921364	-0.350162	-0.168748
789	4198261													9.191672	0.066488	3.684202	0.383436	-0.826369	-0.412421	0.005176	-0.444623	0.895703	-0.923553	-0.345580	-0.166207
790	4198428													9.148091	0.079661	3.750221	0.378789	-0.828104	-0.413234	0.005394	-0.444523	0.895751	-0.925467	-0.341530	-0.163914
791	4198595													9.084977	0.121578	3.711174	0.374044	-0.830207	-0.413337	0.005414	-0.443727	0.896146	-0.927395	-0.337436	-0.161478
792	4198761													9.097958	0.068989	3.596735	0.369054	-0.832654	-0.412900	0.005142	-0.442425	0.896791	-0.929394	-0.333087	-0.158997
793	4198928													9.110507	0.052465	3.619488	0.364029	-0.834887	-0.412852	0.005019	-0.441501	0.897247	-0.931374	-0.328696	-0.156529
794	4199095													9.170836	0.033898	3.447400	0.358766	-0.837163	-0.412851	0.005158	-0.440511	0.897733	-0.933413	-0.324206	-0.153722
795	4199261													9.244812	-0.134275	3.261225	0.353982	-0.839469	-0.412297	0.005363	-0.439011	0.898466	-0.935237	-0.320252	-0.150900
796	4199428													9.233340	-0.194467	3.370771	0.349357	-0.841110	-0.412898	0.006110	-0.438610	0.898657	-0.936970	-0.316475	-0.148092
797	4199595													9.233683	-0.052829	3.276711	0.344546	-0.842342	-0.414424	0.007289	-0.439041	0.898438	-0.938741	-0.312574	-0.145130
798	4199761													9.297879	0.124424	3.240266	0.340053	-0.842863	-0.417069	0.008907	-0.440593	0.897663	-0.940364	-0.308968	-0.142317
799	4199928													9.331099	0.134960	3.244265	0.336103	-0.843059	-0.419863	0.010223	-0.442506	0.896707	-0.941770	-0.305679	-0.140109
800	4200095													9.367863	0.133532	3.344924	0.332437	-0.843222	-0.422447	0.011254	-0.444344	0.895786	-0.943058	-0.302546	-0.138227
801	4200261													9.366636	0.096723	3.268081	0.329196	-0.843488	-0.424451	0.012039	-0.445720	0.895091	-0.944185	-0.299770	-0.136574
802	4200428													9.087742	0.162235	3.470744	0.325710	-0.844522	-0.425083	0.012423	-0.445738	0.895077	-0.945388	-0.296817	-0.134690
803	4200595													9.113648	0.115592	2.951580	0.320985	-0.845657	-0.426418	0.012982	-0.446272	0.894803	-0.946995	-0.292755	-0.132268
804	4200761													9.496361	0.152618	2.970970	0.316639	-0.846258	-0.428471	0.013580	-0.447623	0.894119	-0.948449	-0.288932	-0.130242
805	4200928													9.633107	0.122250	3.022913	0.314084	-0.846220	-0.430422	0.014175	-0.449134	0.893352	-0.949289	-0.286688	-0.129071
806	4201095													9.337422	0.128658	3.291914	0.311904	-0.846463	-0.431528	0.014526	-0.449884	0.892969	-0.950002	-0.284789	-0.128025
807	4201261													9.215616	0.188606	3.086118	0.309038	-0.846763	-0.432999	0.014934	-0.450908	0.892445	-0.950932	-0.282266	-0.126702
808	4201428													9.233595	0.186535	2.970747	0.305654	-0.847244	-0.434458	0.014990	-0.451956	0.891914	-0.952025	-0.279130	-0.125442
809	4201595													9.403971	0.238637	2.955611	0.301988	-0.847688	-0.436152	0.015175	-0.453180	0.891290	-0.953191	-0.275777	-0.123992
810	4201761													9.550285	0.068845	2.783202	0.298976	-0.847962	-0.437691	0.015387	-0.454327	0.890702	-0.954137	-0.273033	-0.122786
811	4201928													9.456637	0.143433	2.997841	0.296563	-0.847996	-0.439265	0.015563	-0.455604	0.890046	-0.954887	-0.270791	-0.121918
812	4202095													9.433046	0.166127	2.978701	0.294473	-0.848138	-0.440394	0.015673	-0.456479	0.889596	-0.955531	-0.268865	-0.121127
813	4202261													9.369522	0.196720	3.025531	0.292785	-0.848338	-0.441135	0.015603	-0.457052	0.889303	-0.956051	-0.267258	-0.120581
814	4202428													9.286077	0.203079	2.899984	0.290393	-0.848809	-0.441809	0.015490	-0.457475	0.889088	-0.956782	-0.265029	-0.119699
815	4202595													9.483104	0.190610	2.759860	0.288230	-0.849329	-0.442227	0.015375	-0.457662	0.888994	-0.957438	-0.263034	-0.118853
816	4202761													9.506165	0.126518	2.767843	0.286798	-0.849690	-0.442462	0.015350	-0.457730	0.888959	-0.957868	-0.261744	-0.118234
817	4202928													9.481535	0.163384	2.803865	0.285254	-0.849891	-0.443076	0.015394	-0.458160	0.888736	-0.958328	-0.260336	-0.117609
818	4203095													9.516944	0.159543	2.764405	0.284357	-0.849773	-0.443877	0.015370	-0.458890	0.888360	-0.958595	-0.259434	-0.117427
819	4203261													9.470608	0.211152	2.841336	0.283856	-0.849585	-0.444557	0.015218	-0.459578	0.888007	-0.958746	-0.258831	-0.117525
820	4203428													9.358050	0.145629	2.800294	0.283029	-0.849475	-0.445295	0.015098	-0.460275	0.887648	-0.958992	-0.257953	-0.117446
821	4203595													9.444286	0.174561	2.691926	0.282083	-0.849731	-0.445405	0.014965	-0.460305	0.887635	-0.959273	-0.257052	-0.117128
822	4203761													9.472679	0.143791	2.674726	0.281380	-0.849905	-0.445519	0.014874	-0.460359	0.887608	-0.959481	-0.256382	-0.116894
823	4203928													9.436051	0.177550	2.730535	0.280212	-0.849685	-0.446672	0.014800	-0.461435	0.887051	-0.959824	-0.255173	-0.116725
824	4204095													9.483221	0.183423	2.671324	0.279311	-0.849897	-0.446834	0.014537	-0.461559	0.886990	-0.960091	-0.254242	-0.116564
825	4204261													9.470465	0.138755	2.641136	0.278674	-0.850021	-0.446996	0.014556	-0.461642	0.886947	-0.960275	-0.253676	-0.116275
826	4204428													9.468466	0.150017	2.683094	0.278152	-0.850223	-0.446936	0.014584	-0.461506	0.887017	-0.960426	-0.253244	-0.115969
827	4204595													9.483231	0.136339	2.645541	0.277897	-0.850270	-0.447007	0.014731	-0.461509	0.887013	-0.960498	-0.253083	-0.115727
828	4204761													9.512410	0.161618	2.731435	0.277984	-0.850122	-0.447234	0.014924	-0.461706	0.886907	-0.960470	-0.253220	-0.115659
829	4204928													9.470219	0.152910	2.752950	0.278317	-0.849758	-0.447718	0.015113	-0.462203	0.886645	-0.960370	-0.253535	-0.115796
830	4205095													9.426830	0.166688	2.791704	0.278606	-0.849504	-0.448021	0.015179	-0.462538	0.886469	-0.960286	-0.253776	-0.115971
831	4205261													9.452467	0.158397	2.747982	0.278736	-0.849346	-0.448239	0.015275	-0.462757	0.886354	-0.960246	-0.253906	-0.116013
832	4205428													9.505275	0.152286	2.721372	0.279085	-0.849240	-0.448222	0.015279	-0.462782	0.886340	-0.960145	-0.254212	-0.116180
833	4205595													9.479916	0.147645	2.749521	0.279666	-0.849035	-0.448248	0.015308	-0.462875	0.886291	-0.959975	-0.254727	-0.116453
834	4205761													9.463252	0.120157	2.684099	0.280498	-0.848806	-0.448163	0.015237	-0.462910	0.886274	-0.959734	-0.255427	-0.116912
835	4205928													9.404142	0.148787	2.687775	0.281535	-0.848425	-0.448234	0.015136	-0.463144	0.886154	-0.959432	-0.256268	-0.117550
836	4206095													9.433479	0.099764	2.717746	0.282549	-0.848120	-0.448173	0.015024	-0.463240	0.886105	-0.959135	-0.257102	-0.118146
837	4206261													9.469593	0.131988	2.802623	0.283540	-0.847819	-0.448116	0.015127	-0.463281	0.886082	-0.958841	-0.258018	-0.118533
838	4206428													9.473954	0.205775	2.784339	0.284457	-0.847762	-0.447643	0.015281	-0.462863	0.886298	-0.958567	-0.258954	-0.118710
839	4206595													9.420476	0.159960	2.790252	0.285410	-0.847669	-0.447212	0.015318	-0.462526	0.886473	-0.958283	-0.259858	-0.119025
840	4206761													9.401492	0.124594	2.821661	0.286261	-0.847521	-0.446948	0.015088	-0.462424	0.886530	-0.958033	-0.260523	-0.119587
841	4206928													9.432246	0.120842	2.828684	0.287197	-0.847419	-0.446541	0.014830	-0.462190	0.886657	-0.957757	-0.261267	-0.120172
842	4207095													9.417074	0.152497	2.842644	0.288411	-0.847190	-0.446193	0.014612	-0.462046	0.886736	-0.957395	-0.262264	-0.120880
843	4207261													9.384769	0.178857	2.882170	0.289693	-0.847049	-0.445630	0.014330	-0.461705	0.886918	-0.957012	-0.263320	-0.121614
844	4207428													9.401071	0.143108	2.870825	0.291179	-0.846916	-0.444914	0.014064	-0.461226	0.887171	-0.956565	-0.264583	-0.122389
845	4207595													9.406112	0.114022	2.849832	0.293084	-0.846642	-0.444184	0.013803	-0.460790	0.887402	-0.955987	-0.266215	-0.123364
846	4207761													9.390759	0.131155	2.901116	0.295150	-0.846197	-0.443663	0.013511	-0.460607	0.887501	-0.955355	-0.267940	-0.124515
847	4207928													9.370111	0.143665	2.979624	0.297359	-0.845738	-0.443063	0.013192	-0.460370	0.887629	-0.954675	-0.269789	-0.125738
848	4208095													9.370956	0.149148	2.989985	0.299545	-0.845277	-0.442469	0.013025	-0.460098	0.887773	-0.953993	-0.271691	-0.126811
849	4208261													9.372295	0.136512	2.959792	0.301867	-0.844928	-0.441557	0.012777	-0.459536	0.888067	-0.953264	-0.273720	-0.127923
850	4208428													9.423534	0.103073	2.960082	0.304207	-0.844523	-0.440726	0.012505	-0.459073	0.888311	-0.952524	-0.275741	-0.129093
851	4208595													9.426498	0.140525	2.990779	0.306736	-0.844116	-0.439750	0.012315	-0.458464	0.888628	-0.951715	-0.277990	-0.130232
852	4208761													9.421434	0.193310	2.895111	0.309336	-0.843558	-0.439000	0.012334	-0.458045	0.888844	-0.950873	-0.280365	-0.131285
853	4208928													9.415613	0.132631	2.942552	0.312142	-0.842707	-0.438649	0.012278	-0.458101	0.888815	-0.949956	-0.282822	-0.132646
854	4209095													9.410695	0.127485	3.051888	0.314967	-0.841891	-0.438196	0.012113	-0.458092	0.888822	-0.949025	-0.285257	-0.134086
855	4209261													9.448006	0.124898	3.086280	0.318119	-0.841305	-0.437044	0.011808	-0.457440	0.889162	-0.947977	-0.288020	-0.135586
856	4209428													9.314658	0.136036	3.058776	0.321522	-0.840934	-0.435263	0.011326	-0.456222	0.889794	-0.946834	-0.291019	-0.137161
857	4209595													9.284755	0.112780	3.023111	0.324589	-0.840436	-0.433945	0.011088	-0.455374	0.890231	-0.945790	-0.293771	-0.138491
858	4209761													9.399027	0.099498	3.044323	0.327583	-0.839734	-0.433055	0.011020	-0.454918	0.890465	-0.944758	-0.296474	-0.139770
859	4209928													9.417217	0.098794	3.174516	0.331051	-0.838837	-0.432155	0.010956	-0.454531	0.890664	-0.943549	-0.299590	-0.141283
860	4210095													9.282835	0.088381	3.237551	0.334663	-0.838691	-0.429649	0.010595	-0.452562	0.891670	-0.942278	-0.302961	-0.142570
861	4210262													9.266652	0.112141	3.084144	0.338238	-0.838571	-0.427075	0.010475	-0.450441	0.892745	-0.941002	-0.306434	-0.143572
862	4210428													9.291298	0.178309	3.226889	0.341988	-0.838132	-0.424946	0.010281	-0.448848	0.893549	-0.939648	-0.309951	-0.144884
863	4210595													9.266068	0.103817	3.261551	0.345606	-0.837309	-0.423639	0.010300	-0.448046	0.893951	-0.938323	-0.313319	-0.146223
864	4210762													9.278911	0.109730	3.313300	0.349461	-0.836241	-0.422585	0.010387	-0.447536	0.894206	-0.936893	-0.316879	-0.147711
865	4210928													9.252988	0.115102	3.463400	0.353346	-0.834948	-0.421910	0.010596	-0.447402	0.894270	-0.935433	-0.320457	-0.149240
866	4211095													9.225311	0.138176	3.540516	0.357217	-0.833609	-0.421299	0.010792	-0.447345	0.894296	-0.933959	-0.324004	-0.150803
