// Start Time: Unknown
// Update Rate: 60.0Hz
//Filter Profile: human (46.1)
// Option Flags: AHS Disabled ICC Disabled
// Firmware Version: 4.0.2
0	sampleTimeFine	Year	Month	Day	Second	UTC_Nano	UTC_Year	UTC_Month	UTC_Day	UTC_Hour	UTC_Minute	UTC_Second	UTC_Valid	Acc_X	Acc_Y	Acc_Z	Mat[1][1]	Mat[2][1]	Mat[3][1]	Mat[1][2]	Mat[2][2]	Mat[3][2]	Mat[1][3]	Mat[2][3]	Mat[3][3]
0	2203827													0.091655	0.192281	-0.347410	0.334642	-0.823560	-0.457999	0.006353	-0.484038	0.875024	-0.942324	-0.295729	-0.156747
1	2203994													9.255846	0.056261	3.293371	0.334053	-0.824312	-0.457076	0.006062	-0.483044	0.875575	-0.942535	-0.295259	-0.156365
2	2204161													9.274157	0.057734	3.273982	0.334028	-0.824469	-0.456811	0.005856	-0.482823	0.875699	-0.942545	-0.295183	-0.156449
3	2204327													9.266597	0.045375	3.283920	0.333778	-0.824284	-0.457326	0.005689	-0.483378	0.875393	-0.942635	-0.294789	-0.156652
4	2204494													9.254269	0.044323	3.273124	0.333601	-0.824202	-0.457604	0.005458	-0.483715	0.875209	-0.942699	-0.294468	-0.156869
5	2204661													9.263980	0.054967	3.274457	0.333438	-0.824035	-0.458024	0.005235	-0.484201	0.874941	-0.942758	-0.294136	-0.157137
6	2204827													9.263167	0.056644	3.279532	0.333301	-0.824064	-0.458072	0.005074	-0.484278	0.874900	-0.942807	-0.293929	-0.157229
7	2204994													9.249774	0.051529	3.288652	0.333188	-0.824183	-0.457939	0.004956	-0.484154	0.874969	-0.942847	-0.293799	-0.157230
8	2205161													9.264104	0.070834	3.291523	0.333141	-0.824048	-0.458216	0.004852	-0.484471	0.874794	-0.942865	-0.293653	-0.157399
9	2205327													9.258843	0.053768	3.290590	0.333154	-0.824040	-0.458222	0.004798	-0.484497	0.874780	-0.942860	-0.293635	-0.157459
10	2205494													9.247235	0.047993	3.280773	0.333170	-0.824011	-0.458262	0.004736	-0.484562	0.874744	-0.942855	-0.293608	-0.157539
11	2205661													9.263343	0.043440	3.294803	0.333091	-0.824234	-0.457918	0.004625	-0.484217	0.874936	-0.942883	-0.293551	-0.157476
12	2205827													9.254580	0.040354	3.278123	0.333049	-0.824341	-0.457757	0.004482	-0.484083	0.875011	-0.942899	-0.293473	-0.157529
13	2205994													9.268992	0.028159	3.257496	0.333048	-0.824407	-0.457637	0.004306	-0.484011	0.875052	-0.942900	-0.293405	-0.157649
14	2206161													9.273346	0.040683	3.313885	0.333042	-0.824501	-0.457472	0.004169	-0.483877	0.875126	-0.942903	-0.293360	-0.157714
15	2206327													9.227281	0.008812	3.242601	0.333083	-0.824488	-0.457465	0.004010	-0.483927	0.875099	-0.942889	-0.293315	-0.157881
16	2206494													9.241961	0.030469	3.217928	0.333086	-0.824466	-0.457504	0.003857	-0.484015	0.875051	-0.942888	-0.293232	-0.158039
17	2206661													9.328533	-0.011923	3.291062	0.333071	-0.824443	-0.457555	0.003753	-0.484100	0.875005	-0.942894	-0.293156	-0.158145
18	2206827													9.302037	0.066789	3.297249	0.333101	-0.824723	-0.457029	0.003747	-0.483549	0.875309	-0.942884	-0.293279	-0.157980
19	2206994													9.247702	0.107733	3.274569	0.333297	-0.824246	-0.457747	0.003910	-0.484294	0.874896	-0.942814	-0.293391	-0.158191
20	2207161													9.228350	0.021318	3.343289	0.333305	-0.824207	-0.457810	0.004018	-0.484330	0.874876	-0.942811	-0.293440	-0.158117
21	2207327													9.276424	0.028706	3.297349	0.333147	-0.824334	-0.457697	0.004030	-0.484177	0.874961	-0.942866	-0.293335	-0.157980
22	2207494													9.242130	0.051854	3.320056	0.333148	-0.824237	-0.457870	0.004174	-0.484317	0.874883	-0.942865	-0.293377	-0.157909
23	2207661													9.207282	0.096692	3.342254	0.333006	-0.824213	-0.458017	0.004266	-0.484419	0.874826	-0.942915	-0.293276	-0.157798
24	2207827													9.234811	0.060532	3.320936	0.332847	-0.824383	-0.457827	0.004375	-0.484155	0.874971	-0.942971	-0.293234	-0.157543
25	2207994													9.241652	0.023410	3.312691	0.332759	-0.824483	-0.457711	0.004432	-0.483999	0.875057	-0.943002	-0.293212	-0.157401
26	2208161													9.242768	0.032783	3.315030	0.332670	-0.824408	-0.457910	0.004393	-0.484206	0.874943	-0.943033	-0.293079	-0.157459
27	2208328													9.241406	0.027390	3.305328	0.332635	-0.824421	-0.457912	0.004377	-0.484207	0.874942	-0.943045	-0.293041	-0.157456
28	2208494													9.237579	0.034564	3.337220	0.332659	-0.824490	-0.457771	0.004363	-0.484066	0.875021	-0.943037	-0.293081	-0.157431
29	2208661													9.228820	0.043919	3.315144	0.332590	-0.824596	-0.457629	0.004285	-0.483928	0.875097	-0.943062	-0.293010	-0.157416
30	2208828													9.237268	0.049269	3.281378	0.332455	-0.824698	-0.457545	0.004199	-0.483841	0.875146	-0.943110	-0.292868	-0.157392
31	2208994													9.313258	0.001871	3.231024	0.332236	-0.824917	-0.457309	0.004012	-0.483610	0.875274	-0.943188	-0.292632	-0.157363
32	2209161													9.296505	0.056748	3.320598	0.332237	-0.825013	-0.457135	0.003930	-0.483452	0.875362	-0.943188	-0.292624	-0.157379
33	2209328													9.264222	0.118308	3.208648	0.332164	-0.825035	-0.457148	0.004059	-0.483412	0.875384	-0.943213	-0.292626	-0.157223
34	2209494													9.264633	0.089774	3.264140	0.332173	-0.824985	-0.457231	0.004162	-0.483470	0.875351	-0.943209	-0.292671	-0.157162
35	2209661													9.304392	0.051745	3.240494	0.331966	-0.825066	-0.457237	0.004180	-0.483433	0.875371	-0.943282	-0.292505	-0.157034
36	2209828													9.276889	0.051615	3.242790	0.331932	-0.825074	-0.457246	0.004241	-0.483418	0.875379	-0.943294	-0.292505	-0.156963
37	2209994													9.263600	0.090807	3.278184	0.331868	-0.824879	-0.457645	0.004319	-0.483806	0.875165	-0.943316	-0.292416	-0.156997
38	2210161													9.267076	0.105351	3.274572	0.331783	-0.824886	-0.457693	0.004398	-0.483817	0.875158	-0.943345	-0.292376	-0.156894
39	2210328													9.271013	0.058682	3.280741	0.331780	-0.824906	-0.457660	0.004405	-0.483780	0.875179	-0.943346	-0.292383	-0.156875
40	2210494													9.249581	0.068735	3.254077	0.331732	-0.824930	-0.457650	0.004347	-0.483779	0.875180	-0.943363	-0.292315	-0.156899
41	2210661													9.271164	0.092102	3.270792	0.331671	-0.825067	-0.457448	0.004349	-0.483553	0.875304	-0.943385	-0.292302	-0.156793
42	2210828													9.263732	0.067926	3.256788	0.331601	-0.825148	-0.457353	0.004363	-0.483436	0.875369	-0.943410	-0.292269	-0.156708
43	2210994													9.273055	0.059051	3.252715	0.331564	-0.825267	-0.457165	0.004363	-0.483229	0.875483	-0.943423	-0.292273	-0.156621
44	2211161													9.247021	0.072071	3.304269	0.331586	-0.825430	-0.456855	0.004371	-0.482902	0.875663	-0.943415	-0.292355	-0.156516
45	2211328													9.252099	0.079113	3.273474	0.331539	-0.825443	-0.456866	0.004406	-0.482895	0.875667	-0.943431	-0.292331	-0.156462
46	2211494													9.258024	0.084534	3.287808	0.331492	-0.825491	-0.456812	0.004392	-0.482834	0.875701	-0.943448	-0.292294	-0.156431
47	2211661													9.266662	0.082632	3.298872	0.331466	-0.825604	-0.456627	0.004375	-0.482638	0.875809	-0.943457	-0.292299	-0.156366
48	2211828													9.272215	0.089441	3.313828	0.331451	-0.825618	-0.456614	0.004380	-0.482620	0.875819	-0.943462	-0.292290	-0.156349
49	2211994													9.244181	0.074607	3.277569	0.331413	-0.825638	-0.456605	0.004340	-0.482616	0.875821	-0.943476	-0.292240	-0.156362
50	2212161													9.258408	0.077253	3.296759	0.331355	-0.825691	-0.456551	0.004285	-0.482566	0.875849	-0.943497	-0.292173	-0.156362
51	2212328													9.263322	0.075401	3.306000	0.331383	-0.825799	-0.456335	0.004239	-0.482356	0.875965	-0.943487	-0.292214	-0.156344
52	2212494													9.260274	0.072497	3.301902	0.331426	-0.825692	-0.456497	0.004182	-0.482553	0.875857	-0.943472	-0.292190	-0.156478
53	2212661													9.252238	0.069493	3.302903	0.331475	-0.825758	-0.456341	0.004107	-0.482419	0.875931	-0.943455	-0.292224	-0.156519
54	2212828													9.250425	0.061014	3.304991	0.331566	-0.825787	-0.456223	0.004023	-0.482336	0.875977	-0.943423	-0.292280	-0.156604
55	2212994													9.255443	0.068266	3.304058	0.331699	-0.825869	-0.455979	0.003910	-0.482136	0.876088	-0.943377	-0.292380	-0.156695
56	2213161													9.254813	0.062036	3.291598	0.331803	-0.826008	-0.455650	0.003775	-0.481847	0.876247	-0.943341	-0.292462	-0.156760
57	2213328													9.246441	0.065620	3.301086	0.331775	-0.826102	-0.455500	0.003633	-0.481727	0.876314	-0.943352	-0.292394	-0.156824
58	2213494													9.277004	0.063721	3.258594	0.331853	-0.826164	-0.455331	0.003472	-0.481611	0.876378	-0.943325	-0.292410	-0.156955
59	2213661													9.255907	0.074024	3.286545	0.331930	-0.826196	-0.455216	0.003338	-0.481545	0.876415	-0.943298	-0.292428	-0.157081
60	2213828													9.271838	0.075565	3.290336	0.332032	-0.826207	-0.455123	0.003194	-0.481508	0.876436	-0.943263	-0.292459	-0.157237
61	2213994													9.251333	0.070716	3.258007	0.332111	-0.826274	-0.454944	0.003049	-0.481377	0.876508	-0.943235	-0.292485	-0.157351
62	2214161													9.259248	0.068987	3.277740	0.332189	-0.826209	-0.455004	0.002913	-0.481497	0.876443	-0.943208	-0.292470	-0.157541
63	2214328													9.254374	0.075537	3.271872	0.332208	-0.826185	-0.455034	0.002802	-0.481566	0.876405	-0.943202	-0.292423	-0.157665
64	2214494													9.248101	0.068306	3.282891	0.332239	-0.826205	-0.454976	0.002701	-0.481542	0.876419	-0.943191	-0.292409	-0.157755
65	2214661													9.253247	0.057849	3.274515	0.332253	-0.826346	-0.454709	0.002608	-0.481290	0.876558	-0.943187	-0.292425	-0.157755
66	2214828													9.250172	0.065809	3.270700	0.332260	-0.826464	-0.454489	0.002558	-0.481073	0.876677	-0.943184	-0.292447	-0.157728
67	2214994													9.258990	0.056286	3.295707	0.332235	-0.826553	-0.454345	0.002454	-0.480949	0.876745	-0.943193	-0.292400	-0.157760
68	2215161													9.251026	0.042163	3.303046	0.332183	-0.826593	-0.454310	0.002384	-0.480924	0.876759	-0.943212	-0.292328	-0.157784
69	2215328													9.267302	0.055270	3.301204	0.332147	-0.826604	-0.454317	0.002321	-0.480944	0.876748	-0.943225	-0.292264	-0.157826
70	2215494													9.259438	0.042972	3.297209	0.332128	-0.826638	-0.454270	0.002267	-0.480908	0.876768	-0.943232	-0.292229	-0.157849
71	2215661													9.257241	0.044699	3.293093	0.332115	-0.826710	-0.454147	0.002202	-0.480796	0.876830	-0.943236	-0.292208	-0.157859
72	2215828													9.249563	0.037364	3.298361	0.332076	-0.826752	-0.454100	0.002128	-0.480761	0.876849	-0.943250	-0.292147	-0.157890
73	2215994													9.252940	0.055899	3.303572	0.332054	-0.826829	-0.453976	0.002113	-0.480631	0.876920	-0.943258	-0.292144	-0.157849
74	2216161													9.261890	0.054408	3.308693	0.332064	-0.826934	-0.453776	0.002059	-0.480437	0.877027	-0.943254	-0.292164	-0.157834
75	2216328													9.231078	0.055599	3.300807	0.332089	-0.827062	-0.453526	0.002015	-0.480190	0.877162	-0.943246	-0.292210	-0.157799
76	2216494													9.240323	0.057988	3.318367	0.332110	-0.827093	-0.453453	0.001979	-0.480128	0.877196	-0.943239	-0.292223	-0.157818
77	2216661													9.260885	0.050143	3.338409	0.332382	-0.827269	-0.452933	0.001913	-0.479644	0.877461	-0.943143	-0.292519	-0.157843
78	2216828													9.230470	0.074126	3.301610	0.332896	-0.827365	-0.452379	0.001890	-0.479155	0.877728	-0.942962	-0.293047	-0.157946
79	2216994													9.235746	0.073685	3.308649	0.333243	-0.827464	-0.451943	0.001856	-0.478765	0.877941	-0.942839	-0.293407	-0.158010
80	2217161													9.248735	0.047500	3.322917	0.333618	-0.827422	-0.451743	0.001773	-0.478645	0.878007	-0.942707	-0.293720	-0.158218
81	2217328													9.226928	0.038149	3.326968	0.334167	-0.827568	-0.451069	0.001694	-0.478053	0.878329	-0.942512	-0.294273	-0.158347
82	2217494													9.187533	0.063712	3.326861	0.334665	-0.827621	-0.450602	0.001622	-0.477669	0.878538	-0.942336	-0.294747	-0.158517
83	2217661													9.214650	0.063313	3.309900	0.334953	-0.827779	-0.450099	0.001599	-0.477192	0.878797	-0.942233	-0.295076	-0.158513
84	2217828													9.251844	0.024363	3.266877	0.335167	-0.827950	-0.449624	0.001575	-0.476734	0.879046	-0.942158	-0.295335	-0.158481
85	2217994													9.238250	0.065923	3.250950	0.335503	-0.827981	-0.449317	0.001595	-0.476462	0.879194	-0.942038	-0.295689	-0.158534
86	2218161													9.272969	0.003422	3.305202	0.335678	-0.827993	-0.449163	0.001586	-0.476332	0.879264	-0.941975	-0.295862	-0.158581
87	2218328													9.337171	0.070505	3.403864	0.335746	-0.827970	-0.449154	0.001824	-0.476261	0.879302	-0.941951	-0.296042	-0.158393
88	2218494													9.285272	0.133434	3.348944	0.335953	-0.827846	-0.449228	0.002155	-0.476272	0.879295	-0.941876	-0.296370	-0.158221
89	2218661													9.167623	0.054895	3.397249	0.336236	-0.827679	-0.449325	0.002422	-0.476342	0.879257	-0.941775	-0.296726	-0.158158
90	2218828													9.177467	0.039077	3.384349	0.336100	-0.827746	-0.449303	0.002408	-0.476298	0.879281	-0.941823	-0.296608	-0.158090
91	2218994													9.250307	0.049279	3.329185	0.335899	-0.827720	-0.449501	0.002406	-0.476473	0.879186	-0.941895	-0.296400	-0.158055
92	2219161													9.218288	0.102040	3.346045	0.335788	-0.827678	-0.449662	0.002371	-0.476635	0.879098	-0.941935	-0.296256	-0.158086
93	2219328													9.183697	0.072262	3.326918	0.335584	-0.827732	-0.449715	0.002293	-0.476680	0.879074	-0.942008	-0.296034	-0.158068
94	2219494													9.233138	0.048222	3.326924	0.335491	-0.827789	-0.449678	0.002244	-0.476640	0.879096	-0.942041	-0.295938	-0.158051
95	2219661													9.221288	0.077986	3.338406	0.335424	-0.827768	-0.449768	0.002152	-0.476752	0.879035	-0.942065	-0.295817	-0.158133
96	2219828													9.200968	0.053571	3.344476	0.335293	-0.827761	-0.449879	0.002027	-0.476885	0.878963	-0.942112	-0.295622	-0.158218
97	2219994													9.218946	0.057445	3.346287	0.335175	-0.827843	-0.449815	0.001909	-0.476834	0.878992	-0.942154	-0.295475	-0.158243
98	2220161													9.241957	0.062378	3.379908	0.335159	-0.827768	-0.449966	0.001839	-0.477013	0.878894	-0.942160	-0.295396	-0.158353
99	2220328													9.214369	0.093726	3.328122	0.335059	-0.827797	-0.449986	0.001763	-0.477041	0.878879	-0.942196	-0.295269	-0.158377
100	2220494													9.246250	0.009086	3.266957	0.334896	-0.827867	-0.449978	0.001591	-0.477056	0.878871	-0.942254	-0.295047	-0.158447
101	2220661													9.290022	0.065912	3.393034	0.334807	-0.827729	-0.450298	0.001552	-0.477393	0.878688	-0.942286	-0.294890	-0.158550
102	2220828													9.264977	0.124558	3.251971	0.334597	-0.827623	-0.450649	0.001619	-0.477707	0.878518	-0.942360	-0.294679	-0.158499
103	2220994													9.226238	0.121538	3.330529	0.334688	-0.827486	-0.450834	0.001718	-0.477889	0.878419	-0.942327	-0.294771	-0.158522
104	2221161													9.221035	0.059755	3.345717	0.334543	-0.827558	-0.450809	0.001633	-0.477862	0.878433	-0.942379	-0.294609	-0.158514
105	2221328													9.277557	0.042996	3.315974	0.334382	-0.827470	-0.451089	0.001562	-0.478153	0.878275	-0.942436	-0.294384	-0.158593
106	2221494													9.225913	0.072949	3.362421	0.334352	-0.827479	-0.451095	0.001449	-0.478190	0.878255	-0.942447	-0.294300	-0.158684
107	2221661													9.206473	0.093815	3.353378	0.334287	-0.827511	-0.451085	0.001344	-0.478201	0.878249	-0.942470	-0.294194	-0.158745
108	2221828													9.235916	0.064801	3.341715	0.334204	-0.827673	-0.450850	0.001282	-0.477956	0.878383	-0.942500	-0.294137	-0.158674
109	2221994													9.237947	0.037940	3.336791	0.334126	-0.827755	-0.450757	0.001171	-0.477877	0.878426	-0.942528	-0.294033	-0.158702
110	2222161													9.217971	0.069159	3.340536	0.334011	-0.827783	-0.450790	0.001110	-0.477911	0.878408	-0.942568	-0.293898	-0.158709
111	2222328													9.232167	0.062410	3.339886	0.333866	-0.827793	-0.450879	0.001066	-0.477993	0.878363	-0.942620	-0.293736	-0.158703
112	2222494													9.254782	0.044186	3.329755	0.333742	-0.827884	-0.450804	0.001058	-0.477894	0.878417	-0.942664	-0.293641	-0.158617
113	2222661													9.249326	0.067021	3.324503	0.333627	-0.827888	-0.450882	0.001048	-0.477960	0.878381	-0.942705	-0.293524	-0.158592
114	2222828													9.240283	0.062655	3.339816	0.333501	-0.827957	-0.450848	0.001030	-0.477907	0.878410	-0.942749	-0.293415	-0.158530
115	2222994													9.259918	0.074724	3.293734	0.333367	-0.828073	-0.450734	0.001025	-0.477763	0.878488	-0.942796	-0.293321	-0.158421
116	2223161													9.251902	0.082221	3.330976	0.333282	-0.828078	-0.450788	0.001005	-0.477811	0.878462	-0.942827	-0.293229	-0.158413
117	2223328													9.237885	0.065185	3.343600	0.333182	-0.828129	-0.450768	0.001003	-0.477773	0.878483	-0.942862	-0.293147	-0.158354
118	2223494													9.235270	0.078051	3.345009	0.333127	-0.828203	-0.450674	0.000994	-0.477666	0.878541	-0.942882	-0.293113	-0.158300
119	2223661													9.238856	0.063302	3.341583	0.333108	-0.828302	-0.450505	0.000932	-0.477503	0.878630	-0.942888	-0.293099	-0.158288
120	2223828													9.231549	0.060162	3.340128	0.333059	-0.828449	-0.450270	0.000826	-0.477278	0.878752	-0.942906	-0.293048	-0.158278
121	2223994													9.232968	0.045905	3.328867	0.333034	-0.828481	-0.450231	0.000698	-0.477272	0.878756	-0.942915	-0.292969	-0.158369
122	2224161													9.245625	0.058203	3.331037	0.333041	-0.828493	-0.450203	0.000567	-0.477284	0.878749	-0.942912	-0.292915	-0.158485
123	2224328													9.215974	0.049790	3.321744	0.332967	-0.828598	-0.450065	0.000387	-0.477181	0.878805	-0.942938	-0.292787	-0.158565
124	2224494													9.246298	0.034238	3.340057	0.332868	-0.828651	-0.450040	0.000220	-0.477188	0.878801	-0.942973	-0.292624	-0.158658
125	2224661													9.237581	0.023819	3.326115	0.332831	-0.828683	-0.450008	0.000040	-0.477203	0.878793	-0.942987	-0.292507	-0.158795
126	2224828													9.219046	0.049767	3.315275	0.332773	-0.828743	-0.449941	-0.000150	-0.477181	0.878805	-0.943007	-0.292375	-0.158918
127	2224995													9.240692	0.045507	3.323853	0.332668	-0.828806	-0.449902	-0.000317	-0.477173	0.878809	-0.943044	-0.292209	-0.159003
128	2225161													9.261010	0.043230	3.301476	0.332612	-0.828803	-0.449950	-0.000485	-0.477265	0.878759	-0.943064	-0.292067	-0.159146
129	2225328													9.248166	0.053279	3.324720	0.332559	-0.828894	-0.449822	-0.000637	-0.477167	0.878812	-0.943082	-0.291970	-0.159215
130	2225495													9.242121	0.047463	3.314464	0.332444	-0.828868	-0.449954	-0.000751	-0.477322	0.878728	-0.943123	-0.291790	-0.159305
131	2225661													9.250985	0.040650	3.324697	0.332309	-0.828912	-0.449973	-0.000855	-0.477349	0.878713	-0.943170	-0.291619	-0.159336
132	2225828													9.257321	0.045335	3.302239	0.332198	-0.828933	-0.450016	-0.000929	-0.477399	0.878686	-0.943209	-0.291480	-0.159361
133	2225995													9.249149	0.049974	3.321151	0.332033	-0.829005	-0.450005	-0.001009	-0.477382	0.878695	-0.943267	-0.291302	-0.159343
134	2226161													9.254781	0.044843	3.285998	0.331869	-0.829069	-0.450009	-0.001065	-0.477374	0.878699	-0.943325	-0.291134	-0.159308
135	2226328													9.264475	0.056579	3.297267	0.331792	-0.829133	-0.449947	-0.001097	-0.477305	0.878737	-0.943352	-0.291065	-0.159275
136	2226495													9.249764	0.033023	3.316660	0.331711	-0.829095	-0.450077	-0.001139	-0.477441	0.878663	-0.943380	-0.290950	-0.159317
137	2226661													9.241771	0.045767	3.310632	0.331658	-0.829117	-0.450076	-0.001149	-0.477434	0.878667	-0.943399	-0.290900	-0.159297
138	2226828													9.228596	0.046910	3.335891	0.331599	-0.829152	-0.450055	-0.001155	-0.477402	0.878684	-0.943420	-0.290851	-0.159264
139	2226995													9.236251	0.046936	3.314213	0.331519	-0.829145	-0.450127	-0.001178	-0.477471	0.878646	-0.943448	-0.290758	-0.159267
140	2227161													9.251824	0.048642	3.314335	0.331477	-0.829092	-0.450254	-0.001228	-0.477615	0.878569	-0.943462	-0.290673	-0.159336
141	2227328													9.256921	0.026125	3.303662	0.331437	-0.829185	-0.450113	-0.001331	-0.477489	0.878637	-0.943476	-0.290614	-0.159362
142	2227495													9.254147	0.033301	3.287148	0.331423	-0.829130	-0.450225	-0.001445	-0.477640	0.878554	-0.943481	-0.290523	-0.159499
143	2227661													9.271456	0.037801	3.314112	0.331411	-0.829069	-0.450346	-0.001579	-0.477808	0.878463	-0.943485	-0.290421	-0.159660
144	2227828													9.280208	0.015812	3.343613	0.331454	-0.829000	-0.450442	-0.001695	-0.477953	0.878384	-0.943470	-0.290380	-0.159824
145	2227995													9.239479	0.008742	3.303407	0.331514	-0.829011	-0.450377	-0.001823	-0.477935	0.878394	-0.943448	-0.290379	-0.159953
146	2228161													9.230744	0.057907	3.253570	0.331593	-0.829035	-0.450274	-0.001894	-0.477861	0.878433	-0.943421	-0.290429	-0.160025
147	2228328													9.276779	-0.019980	3.275474	0.331650	-0.829019	-0.450262	-0.001986	-0.477887	0.878419	-0.943400	-0.290434	-0.160138
148	2228495													9.303463	0.020871	3.380806	0.331706	-0.828923	-0.450397	-0.001960	-0.478032	0.878340	-0.943381	-0.290468	-0.160191
149	2228661													9.263354	0.106382	3.287462	0.331907	-0.828862	-0.450361	-0.001786	-0.477977	0.878371	-0.943310	-0.290734	-0.160124
150	2228828													9.205204	0.053593	3.350829	0.332055	-0.828653	-0.450637	-0.001624	-0.478246	0.878224	-0.943259	-0.290887	-0.160150
151	2228995													9.278600	0.016085	3.353216	0.331921	-0.828658	-0.450726	-0.001712	-0.478344	0.878171	-0.943306	-0.290712	-0.160191
152	2229161													9.265168	0.022153	3.319789	0.331952	-0.828581	-0.450845	-0.001727	-0.478479	0.878097	-0.943295	-0.290707	-0.160263
153	2229328													9.189194	0.060418	3.337222	0.331980	-0.828522	-0.450934	-0.001777	-0.478594	0.878035	-0.943285	-0.290689	-0.160356
154	2229495													9.225509	0.050254	3.340245	0.331870	-0.828663	-0.450755	-0.001854	-0.478408	0.878136	-0.943323	-0.290591	-0.160305
155	2229661													9.259001	0.021826	3.318027	0.331845	-0.828688	-0.450727	-0.001919	-0.478394	0.878143	-0.943332	-0.290542	-0.160343
156	2229828													9.224765	0.006443	3.332030	0.331844	-0.828737	-0.450638	-0.002043	-0.478338	0.878173	-0.943332	-0.290495	-0.160427
157	2229995													9.215279	0.018067	3.302632	0.331746	-0.828793	-0.450607	-0.002206	-0.478338	0.878173	-0.943366	-0.290336	-0.160515
158	2230161													9.250118	-0.017218	3.311037	0.331721	-0.828815	-0.450585	-0.002367	-0.478359	0.878161	-0.943374	-0.290238	-0.160643
159	2230328													9.253693	0.004094	3.351517	0.331726	-0.828748	-0.450705	-0.002509	-0.478531	0.878067	-0.943372	-0.290147	-0.160821
160	2230495													9.223215	0.032057	3.347972	0.331721	-0.828686	-0.450822	-0.002612	-0.478686	0.877982	-0.943374	-0.290068	-0.160955
161	2230661													9.234772	-0.012566	3.286495	0.331560	-0.828738	-0.450846	-0.002828	-0.478748	0.877948	-0.943430	-0.289817	-0.161078
162	2230828													9.314372	0.010978	3.343264	0.331421	-0.828707	-0.451004	-0.002942	-0.478926	0.877851	-0.943478	-0.289612	-0.161164
163	2230995													9.275823	0.068173	3.249141	0.331296	-0.828696	-0.451116	-0.002964	-0.479028	0.877794	-0.943522	-0.289473	-0.161156
164	2231161													9.244686	0.100641	3.285221	0.331368	-0.828655	-0.451138	-0.002869	-0.479036	0.877791	-0.943497	-0.289577	-0.161114
165	2231328													9.263582	0.041072	3.290983	0.331220	-0.828640	-0.451276	-0.002913	-0.479168	0.877718	-0.943549	-0.289403	-0.161124
166	2231495													9.306859	0.007451	3.255783	0.331137	-0.828648	-0.451321	-0.002941	-0.479210	0.877695	-0.943578	-0.289310	-0.161122
167	2231661													9.248546	0.020671	3.313153	0.331178	-0.828505	-0.451554	-0.002903	-0.479453	0.877563	-0.943564	-0.289319	-0.161190
168	2231828													9.230906	0.037178	3.292114	0.331071	-0.828527	-0.451592	-0.002921	-0.479478	0.877549	-0.943601	-0.289212	-0.161162
169	2231995													9.274282	0.021121	3.277898	0.331086	-0.828621	-0.451408	-0.002903	-0.479281	0.877657	-0.943596	-0.289269	-0.161089
170	2232161													9.243759	0.017080	3.282182	0.331130	-0.828677	-0.451273	-0.002903	-0.479146	0.877730	-0.943581	-0.289333	-0.161065
171	2232328													9.236753	0.005506	3.324528	0.331125	-0.828709	-0.451218	-0.002931	-0.479095	0.877758	-0.943582	-0.289325	-0.161069
172	2232495													9.268177	0.021583	3.300879	0.331135	-0.828728	-0.451175	-0.002903	-0.479043	0.877787	-0.943579	-0.289356	-0.161034
173	2232661													9.255743	0.019433	3.301265	0.331147	-0.828804	-0.451027	-0.002862	-0.478876	0.877878	-0.943575	-0.289416	-0.160950
174	2232828													9.245780	0.022240	3.298015	0.331169	-0.828819	-0.450983	-0.002833	-0.478825	0.877906	-0.943567	-0.289458	-0.160920
175	2232995													9.263779	0.036313	3.325286	0.331232	-0.828765	-0.451037	-0.002810	-0.478886	0.877873	-0.943545	-0.289512	-0.160951
176	2233161													9.264069	0.025380	3.313417	0.331283	-0.828699	-0.451120	-0.002789	-0.478977	0.877823	-0.943527	-0.289550	-0.160988
177	2233328													9.245468	0.042984	3.311694	0.331382	-0.828653	-0.451132	-0.002768	-0.479000	0.877810	-0.943493	-0.289642	-0.161025
178	2233495													9.251934	0.052098	3.300332	0.331485	-0.828617	-0.451122	-0.002768	-0.479009	0.877805	-0.943456	-0.289731	-0.161078
179	2233661													9.259127	0.032615	3.291087	0.331578	-0.828528	-0.451217	-0.002776	-0.479128	0.877740	-0.943424	-0.289787	-0.161168
180	2233828													9.229355	0.031214	3.314988	0.331766	-0.828436	-0.451249	-0.002808	-0.479206	0.877698	-0.943357	-0.289924	-0.161310
181	2233995													9.239323	0.020917	3.306389	0.331907	-0.828411	-0.451190	-0.002841	-0.479179	0.877712	-0.943308	-0.290037	-0.161397
182	2234161													9.235028	0.000857	3.348838	0.332038	-0.828325	-0.451252	-0.002903	-0.479288	0.877653	-0.943262	-0.290104	-0.161546
183	2234328													9.224872	0.013483	3.342388	0.332127	-0.828291	-0.451249	-0.002976	-0.479323	0.877633	-0.943230	-0.290143	-0.161661
184	2234495													9.237314	0.005448	3.328138	0.332228	-0.828244	-0.451260	-0.003084	-0.479387	0.877598	-0.943194	-0.290171	-0.161820
185	2234661													9.247767	0.006640	3.333531	0.332355	-0.828192	-0.451263	-0.003170	-0.479439	0.877569	-0.943149	-0.290234	-0.161970
186	2234828													9.228821	0.005601	3.334008	0.332465	-0.828066	-0.451413	-0.003287	-0.479654	0.877451	-0.943110	-0.290238	-0.162190
187	2234995													9.229227	0.017992	3.324380	0.332463	-0.828053	-0.451440	-0.003421	-0.479724	0.877413	-0.943110	-0.290162	-0.162323
188	2235161													9.255309	0.010194	3.324883	0.332511	-0.828013	-0.451476	-0.003526	-0.479804	0.877369	-0.943093	-0.290143	-0.162459
189	2235328													9.242256	0.021493	3.329411	0.332591	-0.827939	-0.451553	-0.003650	-0.479937	0.877295	-0.943064	-0.290132	-0.162645
190	2235495													9.246242	0.027166	3.303861	0.332639	-0.827941	-0.451515	-0.003740	-0.479934	0.877297	-0.943047	-0.290134	-0.162741
191	2235661													9.262721	0.026429	3.318993	0.332702	-0.827983	-0.451391	-0.003797	-0.479832	0.877352	-0.943024	-0.290183	-0.162785
192	2235828													9.240254	0.020320	3.324732	0.332778	-0.827899	-0.451490	-0.003832	-0.479960	0.877282	-0.942998	-0.290210	-0.162892
193	2235995													9.235352	0.031653	3.329003	0.332783	-0.827902	-0.451480	-0.003849	-0.479956	0.877284	-0.942996	-0.290207	-0.162908
194	2236161													9.244246	0.012764	3.316678	0.332764	-0.827905	-0.451488	-0.003840	-0.479959	0.877283	-0.943002	-0.290195	-0.162892
195	2236328													9.245129	0.009373	3.302524	0.332788	-0.827897	-0.451485	-0.003813	-0.479952	0.877286	-0.942994	-0.290229	-0.162879
196	2236495													9.242014	0.016648	3.334742	0.332789	-0.827879	-0.451518	-0.003786	-0.479979	0.877272	-0.942994	-0.290237	-0.162866
197	2236661													9.236975	0.013121	3.310821	0.332801	-0.827875	-0.451517	-0.003768	-0.479974	0.877275	-0.942990	-0.290256	-0.162855
198	2236828													9.242668	0.012888	3.312412	0.332779	-0.827932	-0.451427	-0.003738	-0.479866	0.877334	-0.942998	-0.290270	-0.162784
199	2236995													9.248033	0.016447	3.317082	0.332773	-0.827824	-0.451631	-0.003666	-0.480058	0.877229	-0.943000	-0.290262	-0.162785
200	2237161													9.247192	0.007596	3.312165	0.332771	-0.827764	-0.451741	-0.003631	-0.480164	0.877171	-0.943001	-0.290257	-0.162790
201	2237328													9.251359	0.015764	3.314787	0.332744	-0.827754	-0.451779	-0.003624	-0.480197	0.877153	-0.943010	-0.290230	-0.162783
202	2237495													9.237283	0.011941	3.335771	0.332800	-0.827669	-0.451894	-0.003622	-0.480329	0.877081	-0.942990	-0.290256	-0.162852
203	2237661													9.228900	0.011104	3.345925	0.332842	-0.827618	-0.451957	-0.003588	-0.480393	0.877046	-0.942976	-0.290296	-0.162864
204	2237828													9.262710	0.015267	3.309544	0.332872	-0.827663	-0.451853	-0.003563	-0.480280	0.877108	-0.942965	-0.290355	-0.162821
205	2237995													9.261537	0.029228	3.338611	0.332900	-0.827689	-0.451784	-0.003566	-0.480213	0.877145	-0.942955	-0.290390	-0.162815
206	2238161													9.257049	0.006720	3.342491	0.332962	-0.827630	-0.451846	-0.003605	-0.480302	0.877096	-0.942933	-0.290411	-0.162906
207	2238328													9.257608	0.011680	3.311568	0.332981	-0.827648	-0.451799	-0.003700	-0.480285	0.877105	-0.942926	-0.290388	-0.162988
208	2238495													9.265460	0.013286	3.314994	0.333056	-0.827682	-0.451681	-0.003827	-0.480213	0.877144	-0.942899	-0.290409	-0.163106
209	2238661													9.258142	0.003326	3.355226	0.333157	-0.827709	-0.451558	-0.003920	-0.480129	0.877189	-0.942863	-0.290472	-0.163202
210	2238828													9.227695	-0.019118	3.284267	0.333209	-0.827730	-0.451482	-0.004028	-0.480092	0.877209	-0.942845	-0.290475	-0.163305
211	2238995													9.226580	0.012470	3.263210	0.333271	-0.827743	-0.451410	-0.004114	-0.480054	0.877229	-0.942822	-0.290498	-0.163393
212	2239161													9.276357	-0.044406	3.330541	0.333325	-0.827714	-0.451423	-0.004122	-0.480080	0.877215	-0.942803	-0.290537	-0.163435
213	2239328													9.280366	0.011942	3.348610	0.333353	-0.827602	-0.451610	-0.003986	-0.480241	0.877128	-0.942794	-0.290593	-0.163389
214	2239495													9.256553	0.087926	3.309596	0.333513	-0.827489	-0.451698	-0.003679	-0.480269	0.877114	-0.942738	-0.290867	-0.163220
215	2239661													9.230079	0.010766	3.383775	0.333597	-0.827347	-0.451895	-0.003480	-0.480432	0.877025	-0.942709	-0.291000	-0.163150
216	2239828													9.253542	-0.010433	3.344566	0.333454	-0.827355	-0.451987	-0.003487	-0.480506	0.876985	-0.942760	-0.290858	-0.163111
217	2239995													9.245118	0.011737	3.337095	0.333475	-0.827292	-0.452088	-0.003393	-0.480587	0.876940	-0.942753	-0.290903	-0.163071
218	2240161													9.191661	0.065881	3.358938	0.333435	-0.827330	-0.452046	-0.003374	-0.480530	0.876972	-0.942767	-0.290888	-0.163017
219	2240328													9.232762	0.011354	3.314112	0.333348	-0.827552	-0.451705	-0.003325	-0.480137	0.877187	-0.942798	-0.290906	-0.162804
220	2240495													9.240734	-0.028928	3.319046	0.333413	-0.827558	-0.451645	-0.003258	-0.480065	0.877227	-0.942775	-0.291008	-0.162756
221	2240661													9.214598	-0.002089	3.329753	0.333490	-0.827602	-0.451509	-0.003263	-0.479936	0.877297	-0.942748	-0.291096	-0.162754
222	2240828													9.220689	-0.008876	3.318803	0.333474	-0.827633	-0.451463	-0.003276	-0.479888	0.877323	-0.942754	-0.291085	-0.162742
223	2240995													9.237401	-0.041591	3.324250	0.333478	-0.827752	-0.451241	-0.003274	-0.479654	0.877452	-0.942752	-0.291133	-0.162664
224	2241161													9.240648	-0.007567	3.334091	0.333537	-0.827783	-0.451141	-0.003250	-0.479551	0.877508	-0.942731	-0.291215	-0.162639
225	2241328													9.215439	0.023152	3.376647	0.333577	-0.827725	-0.451218	-0.003173	-0.479616	0.877473	-0.942718	-0.291273	-0.162615
226	2241495													9.233041	-0.025325	3.286032	0.333421	-0.827726	-0.451330	-0.003201	-0.479715	0.877419	-0.942773	-0.291105	-0.162597
227	2241662													9.306567	0.003702	3.352410	0.333350	-0.827678	-0.451472	-0.003157	-0.479839	0.877351	-0.942798	-0.291040	-0.162567
228	2241828													9.256224	0.039096	3.275369	0.333226	-0.827678	-0.451564	-0.003010	-0.479869	0.877335	-0.942842	-0.290991	-0.162396
229	2241995													9.267806	0.088637	3.298664	0.333263	-0.827567	-0.451740	-0.002730	-0.479975	0.877278	-0.942830	-0.291131	-0.162217
230	2242162													9.274421	0.011680	3.331104	0.333118	-0.827551	-0.451876	-0.002590	-0.480050	0.877237	-0.942882	-0.291053	-0.162056
231	2242328													9.284788	0.003821	3.249929	0.333017	-0.827516	-0.452014	-0.002460	-0.480137	0.877190	-0.942918	-0.291008	-0.161929
232	2242495													9.252201	0.033974	3.300082	0.333001	-0.827419	-0.452203	-0.002327	-0.480294	0.877105	-0.942924	-0.291024	-0.161864
233	2242662													9.221760	0.055795	3.302212	0.332880	-0.827422	-0.452288	-0.002248	-0.480337	0.877081	-0.942967	-0.290946	-0.161755
234	2242828													9.266116	0.011537	3.304422	0.332775	-0.827538	-0.452152	-0.002163	-0.480148	0.877185	-0.943004	-0.290928	-0.161571
235	2242995													9.245498	0.015607	3.305861	0.332733	-0.827580	-0.452107	-0.002079	-0.480066	0.877230	-0.943019	-0.290943	-0.161454
236	2243162													9.236199	0.030528	3.314732	0.332636	-0.827602	-0.452137	-0.002004	-0.480057	0.877235	-0.943053	-0.290894	-0.161343
237	2243328													9.278882	0.021969	3.314146	0.332561	-0.827592	-0.452210	-0.001921	-0.480096	0.877214	-0.943080	-0.290859	-0.161251
238	2243495													9.260221	0.012917	3.305978	0.332528	-0.827641	-0.452145	-0.001847	-0.479998	0.877268	-0.943092	-0.290881	-0.161141
239	2243662													9.267373	0.024329	3.277490	0.332500	-0.827657	-0.452137	-0.001776	-0.479963	0.877287	-0.943102	-0.290895	-0.161058
240	2243828													9.261469	0.027018	3.319414	0.332516	-0.827656	-0.452126	-0.001721	-0.479937	0.877301	-0.943096	-0.290938	-0.161012
241	2243995													9.250692	0.037299	3.281928	0.332489	-0.827697	-0.452071	-0.001660	-0.479855	0.877346	-0.943106	-0.290957	-0.160920
242	2244162													9.260983	0.054609	3.297653	0.332551	-0.827661	-0.452092	-0.001590	-0.479867	0.877340	-0.943084	-0.291042	-0.160896
243	2244328													9.259798	0.040275	3.303446	0.332623	-0.827624	-0.452107	-0.001546	-0.479882	0.877332	-0.943059	-0.291122	-0.160899
244	2244495													9.249660	0.033262	3.322847	0.332700	-0.827646	-0.452009	-0.001507	-0.479780	0.877388	-0.943031	-0.291226	-0.160870
245	2244828													9.251702	0.029861	3.330146	0.332807	-0.827604	-0.452009	-0.001441	-0.479779	0.877388	-0.942994	-0.291349	-0.160866
246	2244995													9.254873	0.026306	3.289929	0.332853	-0.827584	-0.452011	-0.001417	-0.479782	0.877386	-0.942978	-0.291400	-0.160870
247	2245162													9.247332	0.027959	3.307670	0.332925	-0.827617	-0.451896	-0.001445	-0.479682	0.877441	-0.942952	-0.291469	-0.160894
248	2245328													9.248691	0.027337	3.323973	0.333007	-0.827527	-0.452002	-0.001431	-0.479805	0.877374	-0.942923	-0.291525	-0.160962
249	2245495													9.245090	0.040744	3.305345	0.333064	-0.827509	-0.451992	-0.001418	-0.479801	0.877376	-0.942903	-0.291582	-0.160978
250	2245662													9.241117	0.030140	3.303178	0.333110	-0.827517	-0.451944	-0.001371	-0.479743	0.877408	-0.942887	-0.291654	-0.160942
251	2245828													9.258586	0.051111	3.314636	0.333140	-0.827432	-0.452077	-0.001365	-0.479889	0.877328	-0.942876	-0.291656	-0.161000
252	2245995													9.247797	0.039503	3.316231	0.333166	-0.827461	-0.452004	-0.001367	-0.479816	0.877368	-0.942867	-0.291691	-0.160989
253	2246162													9.238967	0.061590	3.294681	0.333158	-0.827396	-0.452130	-0.001378	-0.479951	0.877294	-0.942870	-0.291655	-0.161040
254	2246328													9.252292	0.058832	3.303307	0.333188	-0.827406	-0.452090	-0.001389	-0.479918	0.877312	-0.942859	-0.291682	-0.161053
255	2246495													9.234919	0.052084	3.284990	0.333229	-0.827337	-0.452186	-0.001419	-0.480037	0.877247	-0.942845	-0.291683	-0.161136
256	2246662													9.235673	0.053049	3.291623	0.333218	-0.827347	-0.452176	-0.001414	-0.480022	0.877255	-0.942849	-0.291678	-0.161121
257	2246828													9.266511	0.029228	3.316900	0.333228	-0.827384	-0.452101	-0.001444	-0.479954	0.877292	-0.942845	-0.291686	-0.161129
258	2246995													9.246674	0.025291	3.325100	0.333270	-0.827373	-0.452090	-0.001474	-0.479960	0.877289	-0.942830	-0.291708	-0.161176
259	2247162													9.241954	0.022226	3.303608	0.333316	-0.827317	-0.452159	-0.001484	-0.480044	0.877243	-0.942814	-0.291728	-0.161234
260	2247328													9.252514	0.030952	3.299384	0.333316	-0.827390	-0.452024	-0.001458	-0.479892	0.877326	-0.942814	-0.291768	-0.161162
261	2247495													9.246244	0.022394	3.299434	0.333392	-0.827424	-0.451906	-0.001470	-0.479785	0.877385	-0.942787	-0.291848	-0.161173
262	2247662													9.237145	0.028145	3.300668	0.333425	-0.827439	-0.451856	-0.001507	-0.479749	0.877405	-0.942776	-0.291867	-0.161207
263	2247828													9.262830	0.013897	3.300382	0.333456	-0.827462	-0.451789	-0.001540	-0.479694	0.877434	-0.942764	-0.291890	-0.161231
264	2247995													9.251719	0.014834	3.290715	0.333527	-0.827463	-0.451736	-0.001596	-0.479668	0.877449	-0.942739	-0.291932	-0.161303
265	2248162													9.256522	0.012209	3.295461	0.333568	-0.827450	-0.451728	-0.001625	-0.479677	0.877444	-0.942725	-0.291953	-0.161350
266	2248328													9.271557	0.024615	3.327028	0.333652	-0.827496	-0.451582	-0.001666	-0.479549	0.877513	-0.942695	-0.292032	-0.161381
267	2248495													9.243942	0.020409	3.321746	0.333721	-0.827499	-0.451526	-0.001723	-0.479520	0.877529	-0.942670	-0.292071	-0.161452
268	2248662													9.254838	0.016426	3.311042	0.333815	-0.827452	-0.451542	-0.001757	-0.479565	0.877505	-0.942637	-0.292131	-0.161540
269	2248828													9.242923	0.033445	3.332889	0.333909	-0.827355	-0.451650	-0.001753	-0.479696	0.877433	-0.942604	-0.292191	-0.161626
270	2248995													9.263493	0.037400	3.330718	0.333950	-0.827349	-0.451631	-0.001732	-0.479676	0.877444	-0.942589	-0.292240	-0.161621
271	2249162													9.252952	0.026260	3.306449	0.334066	-0.827288	-0.451657	-0.001767	-0.479736	0.877411	-0.942548	-0.292315	-0.161726
272	2249328													9.245077	0.004136	3.304830	0.334239	-0.827255	-0.451589	-0.001822	-0.479712	0.877424	-0.942487	-0.292447	-0.161846
273	2249495													9.226501	0.003955	3.301200	0.334351	-0.827216	-0.451579	-0.001914	-0.479750	0.877403	-0.942447	-0.292496	-0.161988
274	2249662													9.266915	0.022201	3.340757	0.334488	-0.827221	-0.451467	-0.001988	-0.479679	0.877442	-0.942398	-0.292597	-0.162091
275	2249828													9.234221	0.013461	3.329038	0.334609	-0.827181	-0.451451	-0.001985	-0.479683	0.877440	-0.942355	-0.292703	-0.162149
276	2249995													9.243073	0.015279	3.270401	0.334740	-0.827101	-0.451501	-0.001982	-0.479760	0.877398	-0.942308	-0.292805	-0.162234
277	2250162													9.255721	0.010764	3.262218	0.334954	-0.826977	-0.451570	-0.001990	-0.479874	0.877335	-0.942232	-0.292968	-0.162382
278	2250328													9.291529	-0.018102	3.336659	0.335148	-0.826776	-0.451792	-0.001881	-0.480112	0.877205	-0.942163	-0.293144	-0.162464
279	2250495													9.301301	0.111181	3.382360	0.335294	-0.826643	-0.451928	-0.001617	-0.480200	0.877158	-0.942112	-0.293375	-0.162345
280	2250662													9.262248	0.102025	3.322202	0.335586	-0.826524	-0.451928	-0.001285	-0.480151	0.877185	-0.942009	-0.293791	-0.162194
281	2250828													9.230765	0.001171	3.423061	0.335783	-0.826381	-0.452045	-0.001132	-0.480262	0.877124	-0.941939	-0.294012	-0.162199
282	2250995													9.231912	0.025949	3.383818	0.335846	-0.826400	-0.451963	-0.001161	-0.480196	0.877161	-0.941916	-0.294066	-0.162231
283	2251162													9.224537	0.037765	3.365916	0.335976	-0.826336	-0.451983	-0.001126	-0.480230	0.877142	-0.941870	-0.294190	-0.162276
284	2251328													9.196285	0.073008	3.359153	0.336025	-0.826434	-0.451767	-0.001197	-0.480032	0.877250	-0.941852	-0.294237	-0.162291
285	2251495													9.221867	0.005471	3.335564	0.336037	-0.826626	-0.451408	-0.001279	-0.479679	0.877443	-0.941848	-0.294275	-0.162247
286	2251662													9.232183	-0.019219	3.323076	0.336174	-0.826631	-0.451296	-0.001369	-0.479613	0.877479	-0.941799	-0.294368	-0.162365
287	2251828													9.207010	0.015991	3.318153	0.336326	-0.826615	-0.451212	-0.001485	-0.479588	0.877493	-0.941744	-0.294454	-0.162526
288	2251995													9.184470	-0.008331	3.342126	0.336398	-0.826592	-0.451201	-0.001628	-0.479634	0.877467	-0.941719	-0.294443	-0.162693
289	2252162													9.203023	-0.019169	3.344746	0.336479	-0.826593	-0.451140	-0.001765	-0.479626	0.877471	-0.941689	-0.294454	-0.162843
290	2252328													9.228532	0.029379	3.390094	0.336537	-0.826591	-0.451098	-0.001814	-0.479609	0.877481	-0.941668	-0.294487	-0.162905
291	2252495													9.209760	0.047978	3.336938	0.336502	-0.826630	-0.451053	-0.001876	-0.479574	0.877499	-0.941681	-0.294435	-0.162928
292	2252662													9.265945	-0.032323	3.290856	0.336391	-0.826678	-0.451048	-0.002056	-0.479604	0.877483	-0.941720	-0.294250	-0.163034
293	2252828													9.280145	0.008496	3.390651	0.336405	-0.826633	-0.451121	-0.002124	-0.479705	0.877427	-0.941715	-0.294213	-0.163131
294	2252995													9.253726	0.070293	3.274499	0.336333	-0.826544	-0.451337	-0.002000	-0.479883	0.877330	-0.941741	-0.294173	-0.163053
295	2253162													9.221784	0.068005	3.360799	0.336399	-0.826479	-0.451407	-0.001895	-0.479936	0.877301	-0.941718	-0.294267	-0.163016
296	2253328													9.259981	-0.015361	3.324976	0.336249	-0.826450	-0.451572	-0.001942	-0.480099	0.877212	-0.941771	-0.294084	-0.163038
297	2253495													9.280166	-0.014986	3.340155	0.336224	-0.826390	-0.451700	-0.001941	-0.480229	0.877141	-0.941780	-0.294039	-0.163069
298	2253662													9.224557	0.030514	3.324126	0.336246	-0.826280	-0.451885	-0.001888	-0.480414	0.877040	-0.941772	-0.294048	-0.163098
299	2253828													9.228131	0.044488	3.333361	0.336282	-0.826310	-0.451804	-0.001853	-0.480323	0.877090	-0.941760	-0.294112	-0.163055
300	2253995													9.231900	-0.010031	3.320129	0.336427	-0.826224	-0.451852	-0.001783	-0.480379	0.877059	-0.941708	-0.294260	-0.163086
301	2254162													9.225222	0.014207	3.311193	0.336580	-0.826094	-0.451976	-0.001727	-0.480521	0.876981	-0.941653	-0.294393	-0.163161
302	2254328													9.233363	0.035319	3.316360	0.336673	-0.826067	-0.451957	-0.001693	-0.480507	0.876989	-0.941620	-0.294494	-0.163172
303	2254495													9.282647	0.019286	3.301036	0.336812	-0.826024	-0.451931	-0.001627	-0.480485	0.877002	-0.941571	-0.294649	-0.163177
304	2254662													9.269836	0.018965	3.304387	0.336985	-0.825980	-0.451883	-0.001520	-0.480432	0.877030	-0.941509	-0.294859	-0.163154
305	2254828													9.283258	0.030730	3.321764	0.337186	-0.825957	-0.451775	-0.001412	-0.480321	0.877092	-0.941437	-0.295105	-0.163124
306	2254995													9.264587	0.042267	3.338618	0.337378	-0.825933	-0.451676	-0.001361	-0.480235	0.877139	-0.941368	-0.295313	-0.163144
307	2255162													9.253258	0.044735	3.347741	0.337553	-0.825884	-0.451634	-0.001271	-0.480194	0.877161	-0.941306	-0.295514	-0.163141
308	2255328													9.266787	0.036091	3.325519	0.337753	-0.825855	-0.451538	-0.001218	-0.480113	0.877206	-0.941234	-0.295729	-0.163165
309	2255495													9.254595	0.029840	3.348243	0.337982	-0.825800	-0.451467	-0.001135	-0.480053	0.877239	-0.941152	-0.295979	-0.163186
310	2255662													9.225105	0.030269	3.334188	0.338171	-0.825767	-0.451385	-0.001070	-0.479980	0.877279	-0.941084	-0.296187	-0.163199
311	2255828													9.225727	0.022080	3.341269	0.338352	-0.825748	-0.451285	-0.001053	-0.479902	0.877322	-0.941019	-0.296368	-0.163245
312	2255995													9.217811	0.024118	3.347706	0.338552	-0.825730	-0.451168	-0.001077	-0.479823	0.877365	-0.940947	-0.296548	-0.163334
313	2256162													9.217549	0.016846	3.352057	0.338767	-0.825741	-0.450986	-0.001143	-0.479689	0.877438	-0.940870	-0.296731	-0.163447
314	2256328													9.209180	0.005809	3.377109	0.338967	-0.825691	-0.450928	-0.001222	-0.479690	0.877437	-0.940798	-0.296871	-0.163608
315	2256495													9.219763	0.022504	3.330443	0.339168	-0.825636	-0.450877	-0.001294	-0.479696	0.877434	-0.940725	-0.297014	-0.163765
316	2256662													9.226982	0.008720	3.383811	0.339365	-0.825533	-0.450916	-0.001401	-0.479808	0.877373	-0.940654	-0.297118	-0.163987
317	2256828													9.220602	0.014211	3.398286	0.339544	-0.825476	-0.450888	-0.001545	-0.479856	0.877346	-0.940589	-0.297201	-0.164208
318	2256995													9.225525	0.005213	3.391218	0.339681	-0.825454	-0.450824	-0.001700	-0.479862	0.877342	-0.940539	-0.297250	-0.164404
319	2257162													9.225533	0.017846	3.377257	0.339793	-0.825432	-0.450781	-0.001845	-0.479883	0.877331	-0.940498	-0.297279	-0.164584
320	2257328													9.240499	0.022049	3.397143	0.339881	-0.825399	-0.450775	-0.002000	-0.479942	0.877298	-0.940466	-0.297275	-0.164774
321	2257495													9.230360	0.016521	3.373891	0.339990	-0.825357	-0.450769	-0.002125	-0.479995	0.877268	-0.940427	-0.297305	-0.164947
322	2257662													9.215879	0.013379	3.348442	0.340072	-0.825383	-0.450660	-0.002229	-0.479928	0.877305	-0.940397	-0.297342	-0.165050
323	2257828													9.223346	0.015710	3.370693	0.340175	-0.825357	-0.450630	-0.002311	-0.479941	0.877298	-0.940359	-0.297393	-0.165171
324	2257995													9.204992	0.015559	3.368249	0.340230	-0.825342	-0.450616	-0.002392	-0.479962	0.877286	-0.940339	-0.297401	-0.165272
325	2258162													9.220407	0.024086	3.347278	0.340268	-0.825278	-0.450703	-0.002405	-0.480066	0.877229	-0.940325	-0.297409	-0.165336
326	2258329													9.216970	0.032948	3.386479	0.340365	-0.825221	-0.450735	-0.002417	-0.480122	0.877199	-0.940290	-0.297478	-0.165411
327	2258495													9.212739	0.011637	3.379970	0.340415	-0.825211	-0.450714	-0.002451	-0.480120	0.877199	-0.940272	-0.297507	-0.165463
328	2258662													9.221254	0.019004	3.384909	0.340421	-0.825237	-0.450664	-0.002465	-0.480072	0.877226	-0.940270	-0.297515	-0.165460
329	2258829													9.223157	0.003008	3.387158	0.340479	-0.825221	-0.450649	-0.002505	-0.480080	0.877221	-0.940249	-0.297547	-0.165524
330	2258995													9.209267	0.002918	3.376505	0.340451	-0.825246	-0.450625	-0.002563	-0.480067	0.877228	-0.940259	-0.297499	-0.165554
331	2259162													9.240748	-0.003319	3.387466	0.340442	-0.825260	-0.450606	-0.002603	-0.480059	0.877233	-0.940262	-0.297474	-0.165580
332	2259329													9.257463	-0.038934	3.354447	0.340451	-0.825243	-0.450629	-0.002665	-0.480104	0.877208	-0.940259	-0.297445	-0.165651
333	2259495													9.200530	-0.002850	3.312037	0.340456	-0.825282	-0.450554	-0.002752	-0.480053	0.877235	-0.940256	-0.297421	-0.165708
334	2259662													9.229797	-0.021464	3.291480	0.340482	-0.825277	-0.450545	-0.002782	-0.480057	0.877233	-0.940247	-0.297429	-0.165746
335	2259829													9.303015	-0.040895	3.372224	0.340498	-0.825227	-0.450624	-0.002761	-0.480138	0.877189	-0.940241	-0.297437	-0.165764
336	2259995													9.287492	0.051979	3.348242	0.340506	-0.825109	-0.450833	-0.002544	-0.480293	0.877105	-0.940239	-0.297512	-0.165642
337	2260162													9.217736	0.041736	3.368711	0.340704	-0.825027	-0.450834	-0.002261	-0.480241	0.877134	-0.940168	-0.297823	-0.165485
338	2260329													9.204475	-0.006595	3.424447	0.340702	-0.824935	-0.451003	-0.002160	-0.480388	0.877053	-0.940169	-0.297840	-0.165451
339	2260495													9.248449	0.000474	3.395000	0.340604	-0.825005	-0.450949	-0.002168	-0.480315	0.877093	-0.940204	-0.297764	-0.165386
340	2260662													9.204881	0.023063	3.377973	0.340615	-0.824952	-0.451038	-0.002100	-0.480391	0.877052	-0.940200	-0.297790	-0.165361
341	2260829													9.189511	0.052524	3.413622	0.340582	-0.825073	-0.450841	-0.002104	-0.480176	0.877169	-0.940213	-0.297799	-0.165276
342	2260995													9.217617	-0.016161	3.374491	0.340490	-0.825176	-0.450722	-0.002116	-0.480037	0.877246	-0.940246	-0.297740	-0.165194
343	2261162													9.228244	-0.014218	3.342542	0.340533	-0.825164	-0.450712	-0.002165	-0.480050	0.877239	-0.940230	-0.297753	-0.165259
344	2261329													9.205066	0.004009	3.370867	0.340581	-0.825117	-0.450762	-0.002250	-0.480138	0.877190	-0.940213	-0.297740	-0.165382
345	2261495													9.208408	-0.013000	3.333440	0.340579	-0.825126	-0.450747	-0.002331	-0.480147	0.877185	-0.940213	-0.297700	-0.165451
346	2261662													9.245257	-0.024544	3.360022	0.340615	-0.825152	-0.450673	-0.002409	-0.480100	0.877210	-0.940200	-0.297705	-0.165517
347	2261829													9.227472	-0.015209	3.381567	0.340705	-0.825071	-0.450753	-0.002421	-0.480206	0.877152	-0.940167	-0.297759	-0.165606
348	2261995													9.187933	0.015678	3.378608	0.340735	-0.825053	-0.450762	-0.002488	-0.480243	0.877132	-0.940156	-0.297748	-0.165688
349	2262162													9.268764	-0.062462	3.326343	0.340620	-0.825073	-0.450813	-0.002623	-0.480318	0.877091	-0.940197	-0.297572	-0.165770
350	2262329													9.261618	-0.016705	3.389908	0.340570	-0.825029	-0.450931	-0.002626	-0.480435	0.877026	-0.940216	-0.297504	-0.165789
351	2262495													9.222835	0.077873	3.280894	0.340479	-0.825010	-0.451034	-0.002461	-0.480475	0.877005	-0.940249	-0.297492	-0.165622
352	2262662													9.223969	0.039077	3.377377	0.340464	-0.825007	-0.451052	-0.002349	-0.480456	0.877016	-0.940254	-0.297533	-0.165516
353	2262829													9.264812	-0.019518	3.336629	0.340237	-0.825048	-0.451148	-0.002352	-0.480517	0.876982	-0.940337	-0.297321	-0.165430
354	2262995													9.262602	-0.008349	3.322933	0.340178	-0.825052	-0.451186	-0.002303	-0.480530	0.876975	-0.940358	-0.297288	-0.165366
355	2263162													9.209660	0.022899	3.358445	0.340150	-0.825023	-0.451259	-0.002230	-0.480580	0.876948	-0.940368	-0.297288	-0.165310
356	2263329													9.209385	0.015031	3.377080	0.340066	-0.825121	-0.451142	-0.002198	-0.480430	0.877030	-0.940399	-0.297257	-0.165192
357	2263495													9.210403	-0.015016	3.355895	0.340005	-0.825145	-0.451145	-0.002169	-0.480412	0.877040	-0.940421	-0.297220	-0.165133
358	2263662													9.212638	0.005554	3.381340	0.339919	-0.825124	-0.451248	-0.002147	-0.480499	0.876993	-0.940452	-0.297138	-0.165102
359	2263829													9.213548	0.031455	3.381101	0.339807	-0.825136	-0.451311	-0.002113	-0.480534	0.876973	-0.940493	-0.297048	-0.165032
360	2263995													9.236230	0.001284	3.335721	0.339695	-0.825234	-0.451216	-0.002082	-0.480402	0.877046	-0.940533	-0.296989	-0.164909
361	2264162													9.236199	0.004964	3.385191	0.339615	-0.825268	-0.451214	-0.002015	-0.480364	0.877067	-0.940562	-0.296956	-0.164802
362	2264329													9.237712	0.007453	3.361174	0.339544	-0.825331	-0.451153	-0.001953	-0.480266	0.877121	-0.940588	-0.296940	-0.164684
363	2264495													9.257323	0.034196	3.372246	0.339487	-0.825351	-0.451158	-0.001891	-0.480242	0.877134	-0.940609	-0.296923	-0.164597
364	2264662													9.245175	0.026332	3.350280	0.339439	-0.825358	-0.451183	-0.001821	-0.480237	0.877137	-0.940626	-0.296913	-0.164514
365	2264829													9.236643	0.029675	3.337317	0.339389	-0.825360	-0.451217	-0.001767	-0.480247	0.877132	-0.940645	-0.296891	-0.164449
366	2264995													9.248945	0.023228	3.356224	0.339377	-0.825369	-0.451208	-0.001723	-0.480221	0.877146	-0.940649	-0.296906	-0.164399
367	2265162													9.221769	0.004066	3.351485	0.339355	-0.825393	-0.451181	-0.001680	-0.480175	0.877171	-0.940657	-0.296915	-0.164336
368	2265329													9.214132	0.005410	3.344633	0.339331	-0.825425	-0.451141	-0.001650	-0.480119	0.877202	-0.940666	-0.296917	-0.164281
369	2265495													9.232769	-0.000236	3.341090	0.339304	-0.825449	-0.451118	-0.001658	-0.480091	0.877217	-0.940675	-0.296895	-0.164266
370	2265662													9.226054	0.015979	3.369877	0.339245	-0.825509	-0.451051	-0.001662	-0.480011	0.877261	-0.940697	-0.296856	-0.164214
371	2265829													9.223775	-0.012077	3.365465	0.339209	-0.825545	-0.451013	-0.001698	-0.479975	0.877280	-0.940709	-0.296816	-0.164214
372	2265995													9.223578	-0.005171	3.370132	0.339195	-0.825548	-0.451017	-0.001731	-0.479987	0.877274	-0.940714	-0.296786	-0.164239
373	2266162													9.233202	0.000661	3.353745	0.339173	-0.825523	-0.451080	-0.001772	-0.480063	0.877232	-0.940723	-0.296734	-0.164287
374	2266329													9.239454	-0.008146	3.345570	0.339098	-0.825575	-0.451040	-0.001825	-0.480024	0.877254	-0.940749	-0.296652	-0.164282
375	2266495													9.222199	0.003619	3.345097	0.339013	-0.825553	-0.451145	-0.001853	-0.480128	0.877196	-0.940780	-0.296545	-0.164299
376	2266662													9.242245	0.013503	3.345406	0.338951	-0.825543	-0.451211	-0.001906	-0.480203	0.877155	-0.940802	-0.296453	-0.164339
377	2266829													9.239049	0.020321	3.339973	0.338950	-0.825511	-0.451270	-0.001919	-0.480270	0.877119	-0.940803	-0.296433	-0.164372
378	2266995													9.221331	0.004130	3.338074	0.338905	-0.825509	-0.451308	-0.001925	-0.480303	0.877100	-0.940819	-0.296385	-0.164366
379	2267162													9.241074	0.016161	3.360837	0.338889	-0.825504	-0.451328	-0.001961	-0.480333	0.877084	-0.940824	-0.296349	-0.164399
380	2267329													9.241159	0.021063	3.335706	0.338867	-0.825476	-0.451396	-0.001955	-0.480400	0.877048	-0.940832	-0.296320	-0.164405
381	2267495													9.237250	0.025698	3.345628	0.338850	-0.825447	-0.451461	-0.001958	-0.480467	0.877011	-0.940838	-0.296291	-0.164423
382	2267662													9.238885	0.014069	3.333090	0.338797	-0.825432	-0.451529	-0.001898	-0.480510	0.876987	-0.940858	-0.296263	-0.164362
383	2267829													9.239754	0.003905	3.366001	0.338795	-0.825425	-0.451544	-0.001855	-0.480511	0.876987	-0.940858	-0.296282	-0.164326
384	2267995													9.236464	-0.004867	3.353478	0.338811	-0.825457	-0.451472	-0.001820	-0.480428	0.877032	-0.940853	-0.296327	-0.164276
385	2268162													9.225832	-0.012603	3.325068	0.338805	-0.825474	-0.451446	-0.001826	-0.480400	0.877047	-0.940855	-0.296324	-0.164269
386	2268329													9.260771	0.004324	3.343986	0.338872	-0.825477	-0.451391	-0.001817	-0.480352	0.877074	-0.940831	-0.296395	-0.164278
387	2268495													9.241875	-0.035115	3.367146	0.338946	-0.825452	-0.451380	-0.001795	-0.480347	0.877077	-0.940804	-0.296472	-0.164293
388	2268662													9.189090	0.010224	3.311114	0.338944	-0.825486	-0.451321	-0.001787	-0.480281	0.877113	-0.940805	-0.296485	-0.164263
389	2268829													9.254842	-0.022966	3.265810	0.338889	-0.825486	-0.451360	-0.001768	-0.480307	0.877099	-0.940825	-0.296441	-0.164230
390	2268995													9.315286	-0.026283	3.366499	0.338957	-0.825344	-0.451570	-0.001652	-0.480506	0.876990	-0.940800	-0.296516	-0.164235
391	2269162													9.237808	0.063488	3.339834	0.339086	-0.825242	-0.451659	-0.001352	-0.480529	0.876978	-0.940754	-0.296760	-0.164056
392	2269329													9.194056	0.048834	3.376718	0.339240	-0.825126	-0.451756	-0.001040	-0.480563	0.876960	-0.940699	-0.297030	-0.163885
393	2269495													9.246542	0.008423	3.399277	0.339140	-0.825090	-0.451896	-0.000946	-0.480663	0.876905	-0.940735	-0.296966	-0.163792
394	2269662													9.236410	0.001842	3.336727	0.339063	-0.825144	-0.451855	-0.000932	-0.480601	0.876939	-0.940763	-0.296917	-0.163723
395	2269829													9.193974	0.046509	3.386046	0.339079	-0.825143	-0.451847	-0.000882	-0.480579	0.876951	-0.940758	-0.296957	-0.163682
396	2269995													9.192022	0.062430	3.373197	0.339010	-0.825280	-0.451647	-0.000912	-0.480364	0.877069	-0.940782	-0.296923	-0.163601
397	2270162													9.242208	-0.012531	3.303468	0.339003	-0.825412	-0.451411	-0.000968	-0.480130	0.877197	-0.940785	-0.296935	-0.163564
398	2270329													9.221229	-0.000372	3.335715	0.339079	-0.825413	-0.451352	-0.001041	-0.480104	0.877211	-0.940757	-0.296974	-0.163652
399	2270495													9.208730	0.014308	3.373022	0.339075	-0.825422	-0.451338	-0.001132	-0.480117	0.877204	-0.940759	-0.296927	-0.163730
400	2270662													9.220468	-0.019283	3.341647	0.339074	-0.825455	-0.451280	-0.001242	-0.480089	0.877219	-0.940759	-0.296881	-0.163811
401	2270829													9.221776	-0.019143	3.368458	0.339074	-0.825502	-0.451193	-0.001341	-0.480029	0.877252	-0.940759	-0.296848	-0.163872
402	2270995													9.207696	0.031209	3.380407	0.339022	-0.825514	-0.451209	-0.001436	-0.480066	0.877231	-0.940777	-0.296753	-0.163938
403	2271162													9.220265	0.002965	3.304996	0.338893	-0.825575	-0.451195	-0.001608	-0.480081	0.877222	-0.940824	-0.296559	-0.164023
404	2271329													9.306882	-0.040480	3.346569	0.338786	-0.825535	-0.451349	-0.001733	-0.480265	0.877122	-0.940862	-0.296374	-0.164138
405	2271495													9.243760	0.030853	3.348486	0.338673	-0.825524	-0.451453	-0.001745	-0.480358	0.877071	-0.940903	-0.296252	-0.164125
406	2271662													9.219698	0.077997	3.312087	0.338652	-0.825494	-0.451524	-0.001581	-0.480378	0.877060	-0.940910	-0.296305	-0.163986
407	2271829													9.229671	0.027919	3.366668	0.338529	-0.825494	-0.451617	-0.001524	-0.480436	0.877028	-0.940955	-0.296211	-0.163900
408	2271995													9.249907	-0.006545	3.290355	0.338318	-0.825597	-0.451586	-0.001525	-0.480364	0.877068	-0.941031	-0.296039	-0.163774
409	2272162													9.240788	0.015510	3.293104	0.338249	-0.825570	-0.451687	-0.001464	-0.480440	0.877027	-0.941056	-0.295992	-0.163717
410	2272329													9.225102	0.033023	3.357522	0.338156	-0.825662	-0.451589	-0.001447	-0.480313	0.877096	-0.941089	-0.295942	-0.163615
411	2272495													9.226568	-0.005396	3.344837	0.338075	-0.825778	-0.451438	-0.001413	-0.480127	0.877198	-0.941118	-0.295921	-0.163485
412	2272662													9.237426	-0.014151	3.314275	0.338013	-0.825872	-0.451313	-0.001396	-0.479977	0.877280	-0.941140	-0.295902	-0.163392
413	2272829													9.215557	0.003086	3.328616	0.337935	-0.825934	-0.451257	-0.001394	-0.479903	0.877321	-0.941168	-0.295848	-0.163327
414	2272995													9.240909	0.003272	3.321267	0.337853	-0.825965	-0.451262	-0.001358	-0.479882	0.877332	-0.941198	-0.295797	-0.163251
415	2273162													9.250901	-0.001373	3.322290	0.337769	-0.826013	-0.451236	-0.001306	-0.479823	0.877365	-0.941228	-0.295758	-0.163148
416	2273329													9.257885	-0.008340	3.320930	0.337729	-0.826041	-0.451215	-0.001301	-0.479791	0.877382	-0.941242	-0.295730	-0.163115
417	2273495													9.253407	0.023399	3.318667	0.337675	-0.826077	-0.451191	-0.001307	-0.479757	0.877400	-0.941262	-0.295686	-0.163081
418	2273662													9.250768	0.021718	3.293197	0.337577	-0.826112	-0.451200	-0.001278	-0.479740	0.877410	-0.941297	-0.295617	-0.163005
419	2273829													9.255761	0.031098	3.297492	0.337566	-0.826077	-0.451271	-0.001260	-0.479807	0.877373	-0.941301	-0.295603	-0.163007
420	2273995													9.242186	0.015360	3.305951	0.337575	-0.826027	-0.451357	-0.001254	-0.479899	0.877323	-0.941298	-0.295596	-0.163038
421	2274162													9.249095	0.026636	3.299788	0.337554	-0.826016	-0.451392	-0.001266	-0.479935	0.877303	-0.941305	-0.295566	-0.163050
422	2274329													9.249352	0.027666	3.335421	0.337597	-0.825959	-0.451464	-0.001293	-0.480029	0.877252	-0.941290	-0.295574	-0.163124
423	2274495													9.224225	0.002392	3.338847	0.337614	-0.825959	-0.451452	-0.001361	-0.480040	0.877246	-0.941284	-0.295556	-0.163192
424	2274662													9.236549	0.007585	3.326166	0.337567	-0.825996	-0.451418	-0.001439	-0.480021	0.877256	-0.941300	-0.295483	-0.163228
425	2274829													9.258486	0.005790	3.317755	0.337611	-0.825998	-0.451383	-0.001532	-0.480021	0.877256	-0.941285	-0.295479	-0.163326
426	2274996													9.243563	0.004295	3.339949	0.337647	-0.825981	-0.451387	-0.001621	-0.480059	0.877235	-0.941272	-0.295464	-0.163429
427	2275162													9.235328	-0.010308	3.344375	0.337671	-0.825999	-0.451336	-0.001748	-0.480050	0.877240	-0.941263	-0.295429	-0.163542
428	2275329													9.240705	0.000512	3.347167	0.337703	-0.826013	-0.451287	-0.001870	-0.480041	0.877244	-0.941251	-0.295403	-0.163656
429	2275496													9.239599	-0.007702	3.301412	0.337716	-0.825993	-0.451313	-0.001965	-0.480101	0.877211	-0.941246	-0.295361	-0.163761
430	2275662													9.239816	0.012577	3.326373	0.337687	-0.825996	-0.451330	-0.002062	-0.480145	0.877187	-0.941256	-0.295284	-0.163842
431	2275829													9.258801	0.019842	3.317519	0.337690	-0.825987	-0.451344	-0.002184	-0.480198	0.877158	-0.941255	-0.295222	-0.163962
432	2275996													9.254781	0.008031	3.322555	0.337690	-0.826006	-0.451309	-0.002266	-0.480187	0.877163	-0.941255	-0.295186	-0.164026
433	2276162													9.239144	0.000822	3.333430	0.337712	-0.826005	-0.451294	-0.002338	-0.480197	0.877157	-0.941247	-0.295171	-0.164099
434	2276329													9.238002	0.007796	3.310610	0.337733	-0.826003	-0.451281	-0.002397	-0.480206	0.877152	-0.941239	-0.295162	-0.164162
435	2276496													9.234461	-0.002543	3.331534	0.337773	-0.826002	-0.451253	-0.002433	-0.480195	0.877159	-0.941224	-0.295183	-0.164207
436	2276662													9.240573	-0.010632	3.338032	0.337805	-0.825993	-0.451247	-0.002461	-0.480203	0.877154	-0.941213	-0.295196	-0.164247
437	2276829													9.243781	-0.017688	3.337409	0.337809	-0.826052	-0.451135	-0.002506	-0.480099	0.877211	-0.941211	-0.295199	-0.164252
438	2276996													9.235709	-0.017670	3.312144	0.337826	-0.826043	-0.451139	-0.002539	-0.480117	0.877201	-0.941205	-0.295196	-0.164293
439	2277162													9.243691	-0.010106	3.330590	0.337873	-0.826045	-0.451100	-0.002566	-0.480093	0.877214	-0.941188	-0.295230	-0.164330
440	2277329													9.252442	-0.018510	3.369070	0.337924	-0.826061	-0.451033	-0.002586	-0.480038	0.877244	-0.941170	-0.295275	-0.164353
441	2277496													9.203398	-0.045489	3.300528	0.337930	-0.826055	-0.451039	-0.002604	-0.480050	0.877237	-0.941168	-0.295270	-0.164374
442	2277662													9.223096	-0.009030	3.281227	0.337928	-0.826075	-0.451003	-0.002602	-0.480012	0.877258	-0.941168	-0.295277	-0.164359
443	2277829													9.294023	-0.078605	3.310767	0.337979	-0.826004	-0.451096	-0.002542	-0.480100	0.877210	-0.941150	-0.295332	-0.164364
444	2277996													9.270101	0.007385	3.315169	0.338047	-0.825922	-0.451195	-0.002396	-0.480173	0.877171	-0.941126	-0.295444	-0.164300
445	2278162													9.235726	0.044878	3.317635	0.338142	-0.825810	-0.451329	-0.002052	-0.480225	0.877143	-0.941093	-0.295673	-0.164079
446	2278329													9.251435	-0.000672	3.377688	0.338155	-0.825733	-0.451461	-0.001860	-0.480306	0.877099	-0.941089	-0.295756	-0.163954
447	2278496													9.263597	-0.029244	3.348186	0.338092	-0.825729	-0.451514	-0.001836	-0.480343	0.877079	-0.941111	-0.295704	-0.163916
448	2278662													9.226886	-0.004021	3.334336	0.338130	-0.825680	-0.451576	-0.001756	-0.480392	0.877052	-0.941098	-0.295765	-0.163885
449	2278829													9.204493	0.032540	3.356403	0.338112	-0.825661	-0.451623	-0.001697	-0.480420	0.877037	-0.941104	-0.295770	-0.163837
450	2278996													9.239529	0.000622	3.319346	0.338052	-0.825820	-0.451378	-0.001675	-0.480141	0.877190	-0.941126	-0.295780	-0.163695
451	2279162													9.237075	-0.035415	3.319389	0.338091	-0.825826	-0.451338	-0.001648	-0.480097	0.877214	-0.941112	-0.295835	-0.163677
452	2279329													9.206924	-0.010950	3.342684	0.338128	-0.825829	-0.451305	-0.001674	-0.480077	0.877225	-0.941099	-0.295859	-0.163710
453	2279496													9.224408	-0.022831	3.316689	0.338117	-0.825832	-0.451308	-0.001718	-0.480092	0.877216	-0.941102	-0.295826	-0.163747
454	2279662													9.231527	-0.039274	3.347738	0.338228	-0.825797	-0.451288	-0.001720	-0.480092	0.877216	-0.941063	-0.295923	-0.163801
455	2279829													9.224669	0.002943	3.379891	0.338343	-0.825711	-0.451360	-0.001660	-0.480171	0.877173	-0.941021	-0.296036	-0.163833
456	2279996													9.204928	0.014777	3.308292	0.338308	-0.825730	-0.451351	-0.001666	-0.480157	0.877181	-0.941034	-0.296005	-0.163817
457	2280162													9.296247	-0.051096	3.299671	0.338200	-0.825712	-0.451464	-0.001699	-0.480268	0.877120	-0.941073	-0.295875	-0.163829
458	2280329													9.268100	0.007578	3.343744	0.338181	-0.825662	-0.451571	-0.001636	-0.480358	0.877071	-0.941080	-0.295869	-0.163799
459	2280496													9.256729	0.077142	3.270102	0.338171	-0.825607	-0.451678	-0.001379	-0.480389	0.877054	-0.941084	-0.295972	-0.163592
460	2280662													9.247330	0.049806	3.370180	0.338169	-0.825573	-0.451742	-0.001205	-0.480402	0.877047	-0.941085	-0.296046	-0.163452
461	2280829													9.271324	-0.005271	3.299632	0.337965	-0.825645	-0.451763	-0.001146	-0.480368	0.877066	-0.941158	-0.295900	-0.163294
462	2280996													9.270329	0.019992	3.315517	0.337949	-0.825612	-0.451835	-0.000979	-0.480389	0.877055	-0.941164	-0.295957	-0.163155
463	2281162													9.201190	0.022655	3.333670	0.337849	-0.825607	-0.451919	-0.000862	-0.480423	0.877037	-0.941200	-0.295916	-0.163022
464	2281329													9.250089	0.016873	3.309368	0.337671	-0.825649	-0.451976	-0.000695	-0.480398	0.877050	-0.941264	-0.295840	-0.162790
465	2281496													9.241463	-0.009669	3.312167	0.337690	-0.825576	-0.452095	-0.000494	-0.480465	0.877014	-0.941257	-0.295935	-0.162656
466	2281662													9.202192	0.015135	3.341011	0.337614	-0.825513	-0.452267	-0.000361	-0.480592	0.876944	-0.941285	-0.295906	-0.162552
467	2281829													9.244019	0.023799	3.336386	0.337460	-0.825503	-0.452400	-0.000208	-0.480658	0.876908	-0.941340	-0.295827	-0.162375
468	2281996													9.270731	-0.002590	3.316064	0.337353	-0.825505	-0.452476	-0.000097	-0.480683	0.876895	-0.941378	-0.295779	-0.162240
469	2282162													9.254376	0.015841	3.299328	0.337289	-0.825462	-0.452603	0.000028	-0.480767	0.876848	-0.941401	-0.295764	-0.162134
470	2282329													9.254591	0.008187	3.300425	0.337245	-0.825392	-0.452763	0.000215	-0.480870	0.876792	-0.941417	-0.295791	-0.161994
471	2282496													9.275891	0.056080	3.322603	0.337200	-0.825366	-0.452843	0.000321	-0.480914	0.876768	-0.941433	-0.295791	-0.161899
472	2282662													9.243709	0.037007	3.319886	0.337209	-0.825346	-0.452874	0.000384	-0.480928	0.876760	-0.941430	-0.295825	-0.161856
473	2282829													9.244152	0.039921	3.337292	0.337188	-0.825360	-0.452863	0.000449	-0.480893	0.876779	-0.941437	-0.295843	-0.161781
474	2282996													9.266368	0.056468	3.341129	0.337173	-0.825404	-0.452794	0.000479	-0.480807	0.876826	-0.941443	-0.295859	-0.161720
475	2283162													9.241936	0.014687	3.340904	0.337178	-0.825390	-0.452817	0.000484	-0.480831	0.876813	-0.941441	-0.295861	-0.161725
476	2283329													9.228231	0.028084	3.312523	0.337181	-0.825430	-0.452740	0.000459	-0.480758	0.876853	-0.941440	-0.295866	-0.161723
477	2283496													9.243956	0.021758	3.315419	0.337214	-0.825449	-0.452681	0.000440	-0.480707	0.876881	-0.941428	-0.295896	-0.161738
478	2283662													9.240494	0.012735	3.329377	0.337243	-0.825427	-0.452701	0.000388	-0.480749	0.876858	-0.941418	-0.295890	-0.161809
479	2283829													9.245279	0.028917	3.320619	0.337302	-0.825468	-0.452581	0.000331	-0.480651	0.876912	-0.941397	-0.295934	-0.161851
480	2283996													9.252814	0.008797	3.302459	0.337305	-0.825511	-0.452500	0.000239	-0.480595	0.876943	-0.941395	-0.295905	-0.161910
481	2284162													9.243037	0.019215	3.338339	0.337345	-0.825517	-0.452460	0.000168	-0.480582	0.876950	-0.941381	-0.295911	-0.161984
482	2284329													9.244099	0.009774	3.327339	0.337363	-0.825555	-0.452378	0.000049	-0.480535	0.876976	-0.941375	-0.295881	-0.162074
483	2284496													9.239106	0.031020	3.320294	0.337344	-0.825599	-0.452311	-0.000066	-0.480496	0.876997	-0.941382	-0.295819	-0.162147
484	2284662													9.237759	0.021289	3.321946	0.337342	-0.825655	-0.452210	-0.000111	-0.480403	0.877048	-0.941382	-0.295815	-0.162151
485	2284829													9.245125	0.017513	3.301008	0.337327	-0.825738	-0.452069	-0.000179	-0.480272	0.877119	-0.941387	-0.295795	-0.162157
486	2284996													9.241331	0.022898	3.325158	0.337312	-0.825755	-0.452050	-0.000210	-0.480259	0.877127	-0.941393	-0.295770	-0.162170
487	2285162													9.245071	0.033269	3.318853	0.337298	-0.825811	-0.451958	-0.000279	-0.480180	0.877170	-0.941398	-0.295741	-0.162194
488	2285329													9.228435	0.017112	3.284854	0.337272	-0.825875	-0.451861	-0.000343	-0.480092	0.877218	-0.941407	-0.295706	-0.162205
489	2285496													9.238491	0.033809	3.311254	0.337265	-0.825895	-0.451829	-0.000351	-0.480059	0.877236	-0.941410	-0.295702	-0.162197
490	2285662													9.250644	0.029547	3.310660	0.337267	-0.825881	-0.451854	-0.000357	-0.480089	0.877220	-0.941409	-0.295696	-0.162213
491	2285829													9.235394	-0.003623	3.334488	0.337265	-0.825908	-0.451805	-0.000413	-0.480054	0.877239	-0.941410	-0.295676	-0.162246
492	2285996													9.247761	-0.003226	3.286910	0.337220	-0.825993	-0.451685	-0.000483	-0.479939	0.877302	-0.941426	-0.295625	-0.162244
493	2286162													9.249767	0.015303	3.297535	0.337207	-0.826056	-0.451577	-0.000553	-0.479845	0.877353	-0.941430	-0.295600	-0.162264
494	2286329													9.250536	0.003501	3.342659	0.337189	-0.826104	-0.451505	-0.000576	-0.479772	0.877393	-0.941437	-0.295587	-0.162250
495	2286496													9.223575	-0.034013	3.299720	0.337147	-0.826158	-0.451437	-0.000615	-0.479704	0.877430	-0.941452	-0.295545	-0.162239
496	2286662													9.220925	0.027394	3.267759	0.337111	-0.826165	-0.451451	-0.000635	-0.479719	0.877422	-0.941465	-0.295502	-0.162243
497	2286829													9.262928	-0.036692	3.267097	0.337092	-0.826182	-0.451433	-0.000679	-0.479711	0.877426	-0.941472	-0.295467	-0.162267
498	2286996													9.318537	0.012783	3.345126	0.337040	-0.826140	-0.451549	-0.000508	-0.479771	0.877394	-0.941490	-0.295488	-0.162122
499	2287162													9.296640	0.102167	3.311594	0.337078	-0.826129	-0.451541	-0.000192	-0.479669	0.877449	-0.941477	-0.295682	-0.161845
500	2287329													9.236491	0.025121	3.336560	0.337224	-0.826053	-0.451570	0.000085	-0.479640	0.877465	-0.941424	-0.295941	-0.161675
501	2287496													9.226944	-0.008503	3.344889	0.337137	-0.826060	-0.451624	0.000135	-0.479666	0.877451	-0.941455	-0.295882	-0.161602
502	2287662													9.238170	0.001659	3.322590	0.337077	-0.826049	-0.451688	0.000157	-0.479716	0.877424	-0.941477	-0.295830	-0.161571
503	2287829													9.209291	0.030491	3.352237	0.337067	-0.826077	-0.451645	0.000167	-0.479665	0.877452	-0.941481	-0.295835	-0.161541
504	2287996													9.233281	0.028002	3.336534	0.336954	-0.826225	-0.451458	0.000164	-0.479447	0.877571	-0.941521	-0.295775	-0.161417
505	2288162													9.248595	-0.016669	3.285945	0.336959	-0.826332	-0.451258	0.000153	-0.479239	0.877685	-0.941519	-0.295813	-0.161357
506	2288329													9.233206	-0.015624	3.290965	0.337007	-0.826356	-0.451178	0.000098	-0.479180	0.877716	-0.941502	-0.295841	-0.161406
507	2288496													9.220879	-0.019498	3.319526	0.336999	-0.826365	-0.451168	0.000018	-0.479193	0.877709	-0.941505	-0.295795	-0.161473
508	2288662													9.228560	-0.010392	3.341136	0.337036	-0.826346	-0.451174	-0.000006	-0.479214	0.877698	-0.941492	-0.295814	-0.161517
509	2288829													9.236789	0.020806	3.352837	0.337048	-0.826348	-0.451163	0.000022	-0.479195	0.877708	-0.941487	-0.295840	-0.161493
510	2288996													9.212547	0.016459	3.311783	0.336980	-0.826359	-0.451193	-0.000004	-0.479223	0.877693	-0.941512	-0.295764	-0.161492
511	2289162													9.276424	-0.048265	3.269299	0.336901	-0.826343	-0.451282	-0.000101	-0.479333	0.877633	-0.941540	-0.295629	-0.161571
512	2289329													9.281401	0.016683	3.344568	0.336889	-0.826251	-0.451459	-0.000050	-0.479504	0.877540	-0.941544	-0.295611	-0.161581
513	2289496													9.272805	0.085718	3.250279	0.336962	-0.826198	-0.451500	0.000132	-0.479504	0.877540	-0.941518	-0.295757	-0.161466
514	2289662													9.218375	0.045661	3.321832	0.337184	-0.826121	-0.451476	0.000228	-0.479488	0.877548	-0.941439	-0.295998	-0.161488
515	2289829													9.255146	-0.006494	3.333372	0.337118	-0.826127	-0.451516	0.000214	-0.479522	0.877530	-0.941462	-0.295928	-0.161479
516	2289996													9.257656	-0.004417	3.300432	0.337142	-0.826076	-0.451589	0.000217	-0.479604	0.877485	-0.941454	-0.295935	-0.161516
517	2290162													9.199840	0.033834	3.302910	0.337143	-0.826058	-0.451622	0.000245	-0.479630	0.877471	-0.941453	-0.295944	-0.161502
518	2290329													9.229940	0.041992	3.331448	0.337150	-0.826139	-0.451470	0.000296	-0.479453	0.877567	-0.941451	-0.296006	-0.161403
519	2290496													9.241592	0.009541	3.325994	0.337173	-0.826169	-0.451397	0.000354	-0.479362	0.877617	-0.941443	-0.296068	-0.161335
520	2290662													9.231404	0.008665	3.335082	0.337173	-0.826178	-0.451380	0.000435	-0.479319	0.877641	-0.941443	-0.296113	-0.161254
521	2290829													9.248466	0.039775	3.327994	0.337123	-0.826191	-0.451394	0.000541	-0.479291	0.877656	-0.941460	-0.296122	-0.161133
522	2290996													9.250053	0.020216	3.319300	0.337099	-0.826152	-0.451483	0.000675	-0.479340	0.877629	-0.941469	-0.296153	-0.161028
523	2291162													9.251980	0.017910	3.312501	0.337057	-0.826101	-0.451607	0.000858	-0.479406	0.877593	-0.941484	-0.296186	-0.160879
524	2291329													9.237659	0.042467	3.303396	0.337001	-0.826086	-0.451678	0.001056	-0.479408	0.877591	-0.941504	-0.296226	-0.160689
525	2291496													9.254550	0.043533	3.305062	0.336909	-0.826076	-0.451765	0.001213	-0.479435	0.877577	-0.941537	-0.296211	-0.160524
526	2291663													9.264390	0.030237	3.285336	0.336830	-0.826103	-0.451773	0.001379	-0.479378	0.877608	-0.941565	-0.296227	-0.160329
527	2291829													9.257638	0.053833	3.296945	0.336822	-0.826039	-0.451897	0.001560	-0.479450	0.877568	-0.941567	-0.296289	-0.160201
528	2291996													9.248834	0.053650	3.288738	0.336840	-0.826003	-0.451949	0.001716	-0.479460	0.877562	-0.941560	-0.296374	-0.160084
529	2292163													9.259681	0.042045	3.291698	0.336885	-0.825990	-0.451939	0.001829	-0.479422	0.877583	-0.941544	-0.296471	-0.159999
530	2292329													9.234861	0.034586	3.313252	0.336942	-0.825953	-0.451965	0.001928	-0.479428	0.877579	-0.941524	-0.296564	-0.159947
531	2292496													9.236353	0.047993	3.319436	0.336973	-0.825952	-0.451942	0.002008	-0.479385	0.877602	-0.941512	-0.296636	-0.159882
532	2292663													9.231056	0.046044	3.339537	0.337021	-0.825913	-0.451978	0.002042	-0.479421	0.877583	-0.941495	-0.296686	-0.159889
533	2292829													9.224494	0.028910	3.314225	0.337069	-0.825902	-0.451963	0.002077	-0.479402	0.877593	-0.941478	-0.296748	-0.159877
534	2292996													9.248762	0.026843	3.319146	0.337117	-0.825853	-0.452017	0.002131	-0.479452	0.877566	-0.941460	-0.296805	-0.159872
535	2293163													9.234908	0.040161	3.308982	0.337172	-0.825833	-0.452011	0.002145	-0.479450	0.877566	-0.941440	-0.296861	-0.159886
536	2293329													9.242697	0.030505	3.341522	0.337182	-0.825792	-0.452079	0.002142	-0.479526	0.877525	-0.941437	-0.296854	-0.159919
537	2293496													9.222503	0.036574	3.315206	0.337135	-0.825781	-0.452135	0.002107	-0.479587	0.877492	-0.941454	-0.296786	-0.159945
538	2293663													9.254077	0.058825	3.321799	0.337058	-0.825798	-0.452161	0.002048	-0.479620	0.877474	-0.941482	-0.296686	-0.159969
539	2293829													9.252256	0.053103	3.298579	0.337068	-0.825794	-0.452160	0.002000	-0.479636	0.877465	-0.941478	-0.296670	-0.160018
540	2293996													9.242504	0.055705	3.296333	0.337017	-0.825834	-0.452126	0.001920	-0.479615	0.877477	-0.941497	-0.296593	-0.160053
541	2294163													9.261826	0.049545	3.292904	0.336972	-0.825836	-0.452156	0.001818	-0.479672	0.877446	-0.941513	-0.296497	-0.160134
542	2294329													9.256174	0.056656	3.290945	0.336951	-0.825853	-0.452141	0.001715	-0.479684	0.877440	-0.941520	-0.296430	-0.160214
543	2294496													9.262871	0.044924	3.314564	0.336973	-0.825859	-0.452113	0.001612	-0.479691	0.877436	-0.941513	-0.296401	-0.160312
544	2294663													9.266342	0.028230	3.339734	0.336990	-0.825910	-0.452007	0.001560	-0.479598	0.877487	-0.941507	-0.296410	-0.160331
545	2294829													9.234747	0.004370	3.286624	0.337016	-0.825915	-0.451978	0.001461	-0.479603	0.877484	-0.941498	-0.296386	-0.160428
546	2294996													9.215508	0.069414	3.266175	0.337129	-0.825886	-0.451946	0.001415	-0.479604	0.877484	-0.941457	-0.296465	-0.160520
547	2295163													9.255546	-0.021007	3.307163	0.337130	-0.825892	-0.451935	0.001356	-0.479611	0.877480	-0.941457	-0.296438	-0.160572
548	2295329													9.321362	0.015949	3.352721	0.337111	-0.825844	-0.452038	0.001407	-0.479701	0.877431	-0.941464	-0.296427	-0.160550
549	2295496													9.278584	0.102938	3.314702	0.337275	-0.825738	-0.452108	0.001642	-0.479731	0.877414	-0.941405	-0.296672	-0.160446
550	2295663													9.207558	0.046615	3.356296	0.337442	-0.825636	-0.452170	0.001816	-0.479772	0.877391	-0.941345	-0.296890	-0.160395
551	2295829													9.229502	0.015411	3.353821	0.337420	-0.825593	-0.452265	0.001759	-0.479887	0.877329	-0.941353	-0.296824	-0.160471
552	2295996													9.267392	0.010540	3.317877	0.337387	-0.825548	-0.452372	0.001703	-0.480012	0.877260	-0.941364	-0.296747	-0.160544
553	2296163													9.217553	0.067661	3.347171	0.337455	-0.825476	-0.452453	0.001657	-0.480125	0.877199	-0.941340	-0.296765	-0.160653
554	2296329													9.219730	0.064068	3.324028	0.337405	-0.825580	-0.452300	0.001551	-0.479987	0.877274	-0.941358	-0.296698	-0.160669
555	2296496													9.271856	0.004438	3.311861	0.337441	-0.825620	-0.452200	0.001413	-0.479931	0.877305	-0.941346	-0.296678	-0.160782
556	2296663													9.229435	0.013105	3.310338	0.337545	-0.825576	-0.452203	0.001239	-0.480008	0.877263	-0.941308	-0.296676	-0.161002
557	2296829													9.203646	0.013519	3.347819	0.337567	-0.825540	-0.452252	0.001034	-0.480129	0.877197	-0.941301	-0.296581	-0.161222
558	2296996													9.238665	0.001390	3.320151	0.337618	-0.825574	-0.452153	0.000856	-0.480089	0.877220	-0.941283	-0.296552	-0.161379
559	2297163													9.246080	0.011428	3.346280	0.337646	-0.825568	-0.452142	0.000718	-0.480126	0.877199	-0.941273	-0.296507	-0.161520
560	2297329													9.223321	0.001214	3.270671	0.337560	-0.825621	-0.452110	0.000460	-0.480156	0.877183	-0.941304	-0.296310	-0.161702
561	2297496													9.298460	-0.029212	3.309257	0.337532	-0.825578	-0.452210	0.000219	-0.480334	0.877086	-0.941314	-0.296144	-0.161948
562	2297663													9.263989	0.036441	3.335694	0.337459	-0.825538	-0.452336	0.000138	-0.480481	0.877005	-0.941340	-0.296016	-0.162029
563	2297829													9.242611	0.085350	3.267094	0.337536	-0.825500	-0.452348	0.000212	-0.480484	0.877004	-0.941312	-0.296117	-0.162006
564	2297996													9.225155	0.043085	3.334656	0.337478	-0.825480	-0.452429	0.000196	-0.480564	0.876959	-0.941334	-0.296043	-0.162018
565	2298163													9.290317	-0.016258	3.284663	0.337244	-0.825551	-0.452473	0.000118	-0.480593	0.876944	-0.941417	-0.295797	-0.161979
566	2298329													9.272388	0.004813	3.302475	0.337221	-0.825510	-0.452564	0.000093	-0.480693	0.876889	-0.941425	-0.295748	-0.162023
567	2298496													9.222548	0.032890	3.295770	0.337132	-0.825538	-0.452581	0.000049	-0.480708	0.876881	-0.941457	-0.295647	-0.162021
568	2298663													9.249288	0.028481	3.275652	0.337099	-0.825632	-0.452433	0.000020	-0.480555	0.876965	-0.941469	-0.295633	-0.161978
569	2298829													9.261329	0.001227	3.292017	0.337152	-0.825618	-0.452420	0.000007	-0.480555	0.876965	-0.941450	-0.295673	-0.162014
570	2298996													9.219220	-0.003079	3.318342	0.337199	-0.825580	-0.452453	0.000007	-0.480598	0.876941	-0.941433	-0.295707	-0.162051
571	2299163													9.244614	0.010425	3.293465	0.337216	-0.825555	-0.452487	-0.000005	-0.480641	0.876918	-0.941427	-0.295708	-0.162084
572	2299329													9.253454	0.007084	3.297657	0.337249	-0.825534	-0.452500	0.000002	-0.480658	0.876908	-0.941415	-0.295737	-0.162100
573	2299496													9.251534	-0.020156	3.326484	0.337338	-0.825509	-0.452479	-0.000001	-0.480653	0.876911	-0.941383	-0.295815	-0.162144
574	2299663													9.247274	0.000590	3.333647	0.337444	-0.825502	-0.452414	-0.000022	-0.480610	0.876934	-0.941346	-0.295906	-0.162197
575	2299829													9.265309	0.024386	3.316371	0.337520	-0.825523	-0.452320	-0.000061	-0.480536	0.876975	-0.941319	-0.295969	-0.162241
576	2299996													9.247589	0.015760	3.305606	0.337576	-0.825509	-0.452302	-0.000125	-0.480548	0.876969	-0.941298	-0.295987	-0.162324
577	2300163													9.248856	0.018342	3.307706	0.337650	-0.825501	-0.452261	-0.000185	-0.480537	0.876974	-0.941272	-0.296027	-0.162406
578	2300329													9.264022	-0.009123	3.316496	0.337743	-0.825493	-0.452207	-0.000265	-0.480522	0.876983	-0.941238	-0.296075	-0.162512
579	2300496													9.262955	0.013616	3.315565	0.337885	-0.825439	-0.452199	-0.000335	-0.480561	0.876961	-0.941187	-0.296161	-0.162651
580	2300663													9.227683	-0.004138	3.305070	0.337973	-0.825420	-0.452169	-0.000430	-0.480575	0.876953	-0.941156	-0.296192	-0.162776
581	2300829													9.231303	-0.003648	3.310520	0.338044	-0.825442	-0.452075	-0.000543	-0.480524	0.876981	-0.941130	-0.296213	-0.162886
582	2300996													9.235684	0.002890	3.340646	0.338134	-0.825418	-0.452053	-0.000650	-0.480550	0.876967	-0.941098	-0.296238	-0.163027
583	2301163													9.229067	-0.004116	3.323552	0.338238	-0.825411	-0.451986	-0.000754	-0.480532	0.876977	-0.941060	-0.296286	-0.163156
584	2301329													9.250737	-0.012631	3.320865	0.338336	-0.825404	-0.451927	-0.000894	-0.480531	0.876977	-0.941025	-0.296308	-0.163319
585	2301496													9.255412	-0.008297	3.326027	0.338488	-0.825362	-0.451889	-0.001000	-0.480552	0.876965	-0.940970	-0.296391	-0.163487
586	2301663													9.232435	-0.008890	3.315862	0.338650	-0.825292	-0.451896	-0.001087	-0.480617	0.876930	-0.940912	-0.296481	-0.163658
587	2301829													9.232977	0.000873	3.336051	0.338781	-0.825256	-0.451864	-0.001183	-0.480637	0.876919	-0.940865	-0.296549	-0.163807
588	2301996													9.237917	-0.007418	3.328873	0.338850	-0.825248	-0.451826	-0.001292	-0.480644	0.876915	-0.940839	-0.296559	-0.163932
589	2302163													9.236288	-0.004077	3.318502	0.338906	-0.825253	-0.451775	-0.001377	-0.480627	0.876924	-0.940819	-0.296572	-0.164024
590	2302329													9.241617	-0.001767	3.319360	0.338985	-0.825278	-0.451669	-0.001452	-0.480553	0.876964	-0.940791	-0.296622	-0.164098
591	2302496													9.247554	0.002160	3.321449	0.339053	-0.825277	-0.451620	-0.001490	-0.480526	0.876979	-0.940766	-0.296669	-0.164153
592	2302663													9.235063	0.002410	3.336648	0.339136	-0.825291	-0.451533	-0.001510	-0.480455	0.877018	-0.940736	-0.296746	-0.164186
593	2302829													9.230474	0.005504	3.333558	0.339200	-0.825293	-0.451481	-0.001531	-0.480418	0.877038	-0.940713	-0.296800	-0.164222
594	2302996													9.231293	0.002217	3.322483	0.339211	-0.825345	-0.451377	-0.001549	-0.480316	0.877094	-0.940709	-0.296821	-0.164207
595	2303163													9.228035	-0.013829	3.297288	0.339197	-0.825395	-0.451297	-0.001589	-0.480240	0.877136	-0.940714	-0.296805	-0.164207
596	2303329													9.264387	-0.016336	3.332346	0.339237	-0.825429	-0.451204	-0.001614	-0.480156	0.877181	-0.940700	-0.296844	-0.164219
597	2303496													9.240663	-0.050034	3.349168	0.339251	-0.825469	-0.451120	-0.001584	-0.480061	0.877234	-0.940695	-0.296888	-0.164169
598	2303663													9.205809	-0.014687	3.278481	0.339248	-0.825477	-0.451108	-0.001547	-0.480035	0.877248	-0.940696	-0.296907	-0.164128
599	2303829													9.255464	-0.025649	3.269694	0.339227	-0.825450	-0.451173	-0.001452	-0.480071	0.877229	-0.940703	-0.296925	-0.164052
600	2303996													9.301798	-0.038633	3.351465	0.339257	-0.825305	-0.451415	-0.001252	-0.480271	0.877119	-0.940693	-0.297004	-0.163968
601	2304163													9.253059	0.071904	3.316634	0.339275	-0.825220	-0.451558	-0.000922	-0.480322	0.877092	-0.940687	-0.297159	-0.163722
602	2304329													9.230375	0.054407	3.358767	0.339370	-0.825119	-0.451672	-0.000602	-0.480359	0.877072	-0.940653	-0.297380	-0.163516
603	2304496													9.246662	0.002696	3.368903	0.339220	-0.825112	-0.451796	-0.000500	-0.480430	0.877033	-0.940707	-0.297281	-0.163384
604	2304663													9.252861	-0.003083	3.329939	0.339131	-0.825155	-0.451784	-0.000425	-0.480378	0.877061	-0.940739	-0.297246	-0.163262
605	2304829													9.204986	0.036534	3.375865	0.339124	-0.825136	-0.451825	-0.000337	-0.480392	0.877054	-0.940741	-0.297278	-0.163191
606	2304996													9.220026	0.044868	3.337946	0.338942	-0.825329	-0.451608	-0.000330	-0.480126	0.877199	-0.940807	-0.297171	-0.163007
607	2305163													9.256233	-0.001473	3.311779	0.338902	-0.825486	-0.451351	-0.000356	-0.479854	0.877349	-0.940822	-0.297174	-0.162918
608	2305329													9.227863	-0.014906	3.305553	0.338939	-0.825517	-0.451267	-0.000421	-0.479792	0.877382	-0.940808	-0.297189	-0.162968
609	2305496													9.205194	-0.012671	3.309394	0.338909	-0.825528	-0.451270	-0.000504	-0.479815	0.877369	-0.940819	-0.297121	-0.163030
610	2305663													9.235808	-0.016133	3.338129	0.338891	-0.825541	-0.451259	-0.000554	-0.479816	0.877369	-0.940825	-0.297083	-0.163063
611	2305829													9.238856	-0.019887	3.363481	0.338934	-0.825517	-0.451270	-0.000598	-0.479850	0.877350	-0.940810	-0.297094	-0.163132
612	2305996													9.206313	0.035157	3.356364	0.338970	-0.825461	-0.451347	-0.000599	-0.479939	0.877302	-0.940797	-0.297108	-0.163179
613	2306163													9.226971	-0.013891	3.269880	0.338827	-0.825495	-0.451391	-0.000727	-0.480000	0.877268	-0.940848	-0.296914	-0.163237
614	2306329													9.311368	0.007614	3.372390	0.338803	-0.825448	-0.451496	-0.000755	-0.480115	0.877205	-0.940857	-0.296859	-0.163288
615	2306496													9.250784	0.063742	3.258504	0.338722	-0.825430	-0.451589	-0.000702	-0.480183	0.877168	-0.940886	-0.296799	-0.163227
616	2306663													9.243360	0.068048	3.313940	0.338827	-0.825320	-0.451711	-0.000526	-0.480277	0.877117	-0.940849	-0.296953	-0.163165
617	2306829													9.254063	0.011048	3.316681	0.338706	-0.825338	-0.451769	-0.000496	-0.480306	0.877101	-0.940892	-0.296856	-0.163092
618	2306996													9.273540	0.006852	3.283029	0.338647	-0.825332	-0.451825	-0.000456	-0.480342	0.877081	-0.940914	-0.296814	-0.163043
619	2307163													9.233441	0.041463	3.339050	0.338682	-0.825233	-0.451979	-0.000379	-0.480488	0.877001	-0.940901	-0.296853	-0.163046
620	2307329													9.241958	0.014312	3.329198	0.338642	-0.825296	-0.451893	-0.000381	-0.480390	0.877055	-0.940915	-0.296835	-0.162994
621	2307496													9.247356	-0.008697	3.296709	0.338681	-0.825344	-0.451778	-0.000339	-0.480261	0.877126	-0.940901	-0.296913	-0.162935
622	2307663													9.232137	-0.008772	3.334391	0.338697	-0.825349	-0.451756	-0.000354	-0.480246	0.877134	-0.940896	-0.296922	-0.162950
623	2307829													9.234225	0.011641	3.349894	0.338667	-0.825358	-0.451762	-0.000350	-0.480245	0.877134	-0.940906	-0.296898	-0.162932
624	2307996													9.268274	0.012749	3.290468	0.338638	-0.825386	-0.451732	-0.000361	-0.480211	0.877153	-0.940917	-0.296875	-0.162916
625	2308163													9.260628	0.002407	3.296559	0.338648	-0.825362	-0.451769	-0.000376	-0.480258	0.877127	-0.940913	-0.296868	-0.162949
626	2308330													9.249148	0.025058	3.331130	0.338645	-0.825369	-0.451757	-0.000414	-0.480257	0.877128	-0.940914	-0.296848	-0.162979
627	2308496													9.261909	0.018099	3.326681	0.338661	-0.825363	-0.451758	-0.000431	-0.480265	0.877123	-0.940908	-0.296853	-0.163003
628	2308663													9.251948	0.029117	3.314701	0.338665	-0.825362	-0.451757	-0.000479	-0.480281	0.877115	-0.940907	-0.296831	-0.163049
629	2308830													9.261043	0.024009	3.326106	0.338642	-0.825355	-0.451786	-0.000564	-0.480334	0.877085	-0.940915	-0.296763	-0.163127
630	2308996													9.238324	0.030907	3.325864	0.338621	-0.825363	-0.451787	-0.000661	-0.480362	0.877070	-0.940922	-0.296696	-0.163207
631	2309163													9.244284	0.013082	3.321066	0.338629	-0.825427	-0.451665	-0.000788	-0.480273	0.877119	-0.940919	-0.296662	-0.163285
632	2309330													9.225588	0.006329	3.328030	0.338681	-0.825437	-0.451608	-0.000929	-0.480266	0.877122	-0.940901	-0.296645	-0.163424
633	2309496													9.227820	-0.000391	3.340422	0.338674	-0.825452	-0.451585	-0.001084	-0.480290	0.877109	-0.940903	-0.296564	-0.163557
634	2309663													9.214303	0.006395	3.312120	0.338643	-0.825473	-0.451569	-0.001274	-0.480328	0.877088	-0.940914	-0.296445	-0.163711
635	2309830													9.256827	-0.004752	3.338307	0.338651	-0.825482	-0.451547	-0.001473	-0.480368	0.877066	-0.940911	-0.296354	-0.163893
636	2309996													9.236692	-0.007646	3.346328	0.338675	-0.825461	-0.451567	-0.001664	-0.480454	0.877018	-0.940902	-0.296272	-0.164091
637	2310163													9.234995	-0.009402	3.341535	0.338724	-0.825445	-0.451560	-0.001824	-0.480506	0.876989	-0.940884	-0.296234	-0.164265
638	2310330													9.250057	0.007358	3.324760	0.338726	-0.825450	-0.451550	-0.002020	-0.480558	0.876961	-0.940883	-0.296137	-0.164445
639	2310496													9.254753	-0.011446	3.316722	0.338760	-0.825409	-0.451598	-0.002226	-0.480680	0.876893	-0.940870	-0.296051	-0.164673
640	2310663													9.237107	-0.015554	3.295416	0.338810	-0.825393	-0.451591	-0.002390	-0.480733	0.876864	-0.940852	-0.296011	-0.164849
641	2310830													9.233951	-0.010341	3.313295	0.338882	-0.825393	-0.451536	-0.002513	-0.480726	0.876867	-0.940825	-0.296020	-0.164984
642	2310996													9.246484	-0.026500	3.317833	0.338914	-0.825399	-0.451501	-0.002572	-0.480714	0.876874	-0.940814	-0.296024	-0.165044
643	2311163													9.259963	-0.017413	3.296584	0.338960	-0.825395	-0.451475	-0.002604	-0.480705	0.876879	-0.940797	-0.296051	-0.165089
644	2311330													9.246312	-0.023235	3.282411	0.339024	-0.825385	-0.451444	-0.002623	-0.480690	0.876887	-0.940774	-0.296102	-0.165130
645	2311496													9.231100	-0.022956	3.309701	0.339098	-0.825417	-0.451330	-0.002600	-0.480576	0.876949	-0.940747	-0.296198	-0.165108
646	2311663													9.242608	-0.032851	3.322611	0.339143	-0.825470	-0.451200	-0.002572	-0.480437	0.877026	-0.940731	-0.296276	-0.165060
647	2311830													9.265242	-0.026729	3.313660	0.339176	-0.825527	-0.451072	-0.002529	-0.480293	0.877104	-0.940720	-0.296352	-0.164992
648	2311996													9.250429	-0.015199	3.319003	0.339218	-0.825502	-0.451084	-0.002434	-0.480284	0.877110	-0.940705	-0.296434	-0.164930
649	2312163													9.237494	-0.029572	3.327732	0.339247	-0.825467	-0.451128	-0.002307	-0.480296	0.877103	-0.940694	-0.296514	-0.164843
650	2312330													9.237422	-0.012871	3.316406	0.339292	-0.825459	-0.451108	-0.002188	-0.480246	0.877131	-0.940679	-0.296617	-0.164750
651	2312496													9.210160	-0.019497	3.330189	0.339353	-0.825435	-0.451107	-0.002065	-0.480217	0.877147	-0.940657	-0.296731	-0.164668
652	2312663													9.244195	-0.029221	3.323563	0.339335	-0.825424	-0.451139	-0.001965	-0.480216	0.877148	-0.940663	-0.296761	-0.164576
653	2312830													9.247396	-0.009985	3.343954	0.339368	-0.825384	-0.451188	-0.001866	-0.480244	0.877133	-0.940652	-0.296830	-0.164519
654	2312996													9.247035	-0.020967	3.347180	0.339362	-0.825393	-0.451176	-0.001823	-0.480216	0.877148	-0.940654	-0.296848	-0.164471
655	2313163													9.259097	-0.029024	3.326892	0.339341	-0.825398	-0.451182	-0.001816	-0.480217	0.877148	-0.940662	-0.296833	-0.164457
656	2313330													9.248143	-0.016300	3.302724	0.339379	-0.825420	-0.451114	-0.001849	-0.480162	0.877178	-0.940648	-0.296861	-0.164483
657	2313496													9.263439	-0.010897	3.331949	0.339422	-0.825485	-0.450963	-0.001865	-0.480015	0.877259	-0.940632	-0.296920	-0.164467
658	2313663													9.236475	-0.026582	3.290743	0.339512	-0.825484	-0.450897	-0.001898	-0.479971	0.877282	-0.940600	-0.296992	-0.164523
659	2313830													9.220993	-0.001838	3.251527	0.339604	-0.825450	-0.450889	-0.001873	-0.479971	0.877282	-0.940567	-0.297084	-0.164546
660	2313996													9.277246	-0.043408	3.319339	0.339673	-0.825382	-0.450962	-0.001777	-0.480032	0.877249	-0.940542	-0.297177	-0.164520
661	2314163													9.266418	0.039694	3.318372	0.339781	-0.825278	-0.451070	-0.001513	-0.480084	0.877221	-0.940503	-0.297381	-0.164372
662	2314330													9.242837	0.065854	3.319239	0.340016	-0.825182	-0.451071	-0.001084	-0.479992	0.877272	-0.940419	-0.297798	-0.164099
663	2314496													9.230393	-0.007346	3.402568	0.340100	-0.825087	-0.451181	-0.000880	-0.480060	0.877235	-0.940389	-0.297950	-0.163994
664	2314663													9.244016	-0.004571	3.354078	0.339989	-0.825149	-0.451149	-0.000815	-0.479985	0.877276	-0.940429	-0.297897	-0.163863
665	2314830													9.204368	0.018249	3.360669	0.340047	-0.825096	-0.451204	-0.000617	-0.479991	0.877273	-0.940408	-0.298036	-0.163729
666	2314996													9.192709	0.050814	3.399879	0.339956	-0.825196	-0.451090	-0.000557	-0.479834	0.877359	-0.940441	-0.298012	-0.163583
667	2315163													9.247542	0.017588	3.351618	0.339848	-0.825342	-0.450904	-0.000499	-0.479598	0.877488	-0.940480	-0.297988	-0.163402
668	2315330													9.209925	-0.015435	3.343779	0.339825	-0.825426	-0.450768	-0.000521	-0.479456	0.877566	-0.940489	-0.297983	-0.163361
669	2315496													9.192318	-0.018801	3.333374	0.339740	-0.825523	-0.450654	-0.000640	-0.479357	0.877620	-0.940519	-0.297874	-0.163385
670	2315663													9.213469	-0.022881	3.342448	0.339686	-0.825562	-0.450623	-0.000719	-0.479339	0.877629	-0.940538	-0.297795	-0.163418
671	2315830													9.224122	-0.010210	3.376154	0.339668	-0.825618	-0.450533	-0.000806	-0.479268	0.877668	-0.940545	-0.297753	-0.163457
672	2315996													9.234330	0.006810	3.361346	0.339621	-0.825625	-0.450557	-0.000841	-0.479296	0.877653	-0.940562	-0.297691	-0.163473
673	2316163													9.209453	0.006821	3.309393	0.339487	-0.825697	-0.450526	-0.000935	-0.479268	0.877668	-0.940610	-0.297535	-0.163477
674	2316330													9.288603	-0.040372	3.288978	0.339262	-0.825719	-0.450655	-0.001067	-0.479405	0.877593	-0.940691	-0.297253	-0.163525
675	2316496													9.277826	0.026601	3.315934	0.339190	-0.825699	-0.450745	-0.001105	-0.479499	0.877542	-0.940717	-0.297155	-0.163553
676	2316663													9.246108	0.091024	3.264862	0.339121	-0.825679	-0.450835	-0.000953	-0.479534	0.877523	-0.940742	-0.297156	-0.163407
677	2316830													9.250558	0.029171	3.333672	0.339005	-0.825656	-0.450963	-0.000887	-0.479628	0.877472	-0.940784	-0.297068	-0.163329
678	2316996													9.276615	-0.013749	3.276261	0.338838	-0.825660	-0.451081	-0.000924	-0.479734	0.877413	-0.940844	-0.296884	-0.163315
679	2317163													9.255230	-0.005163	3.308501	0.338835	-0.825606	-0.451183	-0.000884	-0.479830	0.877361	-0.940846	-0.296881	-0.163313
680	2317330													9.239596	0.033202	3.308110	0.338807	-0.825635	-0.451150	-0.000891	-0.479792	0.877382	-0.940856	-0.296861	-0.163292
681	2317496													9.243512	0.007728	3.318606	0.338785	-0.825771	-0.450917	-0.000926	-0.479551	0.877513	-0.940863	-0.296871	-0.163229
682	2317663													9.236209	-0.027837	3.318334	0.338833	-0.825815	-0.450801	-0.000926	-0.479437	0.877576	-0.940846	-0.296934	-0.163213
683	2317830													9.233479	-0.017141	3.310249	0.338808	-0.825821	-0.450809	-0.000940	-0.479445	0.877571	-0.940855	-0.296905	-0.163217
684	2317996													9.248805	0.002242	3.304544	0.338779	-0.825858	-0.450763	-0.000974	-0.479402	0.877595	-0.940865	-0.296872	-0.163215
685	2318163													9.259698	-0.004874	3.304716	0.338779	-0.825891	-0.450702	-0.000996	-0.479343	0.877627	-0.940865	-0.296873	-0.163214
686	2318330													9.247746	-0.001009	3.288577	0.338833	-0.825925	-0.450599	-0.001055	-0.479263	0.877671	-0.940846	-0.296909	-0.163261
687	2318496													9.266672	0.012148	3.280347	0.338931	-0.825925	-0.450527	-0.001099	-0.479218	0.877695	-0.940811	-0.296983	-0.163329
688	2318663													9.255367	0.001702	3.320280	0.339057	-0.825907	-0.450465	-0.001136	-0.479187	0.877712	-0.940765	-0.297083	-0.163410
689	2318830													9.251462	0.019219	3.310692	0.339176	-0.825899	-0.450389	-0.001171	-0.479139	0.877738	-0.940722	-0.297181	-0.163479
690	2318996													9.259084	0.014305	3.320508	0.339377	-0.825841	-0.450344	-0.001201	-0.479138	0.877739	-0.940650	-0.297344	-0.163600
691	2319163													9.231589	0.018207	3.332101	0.339590	-0.825762	-0.450329	-0.001254	-0.479178	0.877717	-0.940573	-0.297499	-0.163760
692	2319330													9.245143	0.010137	3.305217	0.339738	-0.825700	-0.450330	-0.001290	-0.479218	0.877695	-0.940519	-0.297606	-0.163874
693	2319496													9.246911	0.007421	3.351796	0.339990	-0.825640	-0.450250	-0.001346	-0.479197	0.877706	-0.940428	-0.297805	-0.164033
694	2319663													9.216721	-0.011584	3.367365	0.340242	-0.825603	-0.450128	-0.001434	-0.479143	0.877736	-0.940337	-0.297997	-0.164208
695	2319830													9.225699	-0.013096	3.365150	0.340449	-0.825584	-0.450007	-0.001543	-0.479087	0.877766	-0.940262	-0.298140	-0.164378
696	2319996													9.237096	-0.005651	3.354391	0.340722	-0.825543	-0.449876	-0.001673	-0.479039	0.877792	-0.940163	-0.298331	-0.164600
697	2320163													9.220076	-0.027963	3.365456	0.341024	-0.825514	-0.449698	-0.001812	-0.478951	0.877840	-0.940053	-0.298550	-0.164829
698	2320330													9.225361	-0.027616	3.355410	0.341329	-0.825414	-0.449652	-0.001897	-0.478986	0.877821	-0.939942	-0.298773	-0.165058
699	2320496													9.245865	-0.023241	3.346896	0.341772	-0.825219	-0.449672	-0.001981	-0.479116	0.877749	-0.939781	-0.299100	-0.165383
700	2320663													9.262349	-0.024965	3.361439	0.342355	-0.824979	-0.449670	-0.002033	-0.479240	0.877681	-0.939569	-0.299564	-0.165747
701	2320830													9.241009	-0.032841	3.352139	0.342988	-0.824717	-0.449668	-0.002085	-0.479374	0.877608	-0.939337	-0.300072	-0.166139
702	2320996													9.252086	-0.023650	3.416230	0.343751	-0.824421	-0.449628	-0.002118	-0.479486	0.877547	-0.939059	-0.300705	-0.166570
703	2321163													9.207043	0.003106	3.466146	0.344539	-0.824295	-0.449255	-0.002204	-0.479265	0.877668	-0.938769	-0.301401	-0.166942
704	2321330													9.199746	-0.045547	3.399877	0.345266	-0.824272	-0.448739	-0.002273	-0.478875	0.877880	-0.938502	-0.302082	-0.167213
705	2321496													9.273252	-0.027950	3.317920	0.346067	-0.824098	-0.448442	-0.002250	-0.478704	0.877973	-0.938207	-0.302829	-0.167518
706	2321663													9.229813	-0.003604	3.359803	0.347127	-0.823811	-0.448150	-0.002226	-0.478587	0.878037	-0.937816	-0.303793	-0.167964
707	2321830													9.231709	-0.032033	3.377613	0.348233	-0.823492	-0.447877	-0.002117	-0.478472	0.878100	-0.937406	-0.304835	-0.168363
708	2321996													9.255545	-0.017470	3.403571	0.349409	-0.823102	-0.447680	-0.001989	-0.478446	0.878115	-0.936968	-0.305930	-0.168810
709	2322163													9.247911	-0.013231	3.396068	0.350734	-0.822668	-0.447441	-0.001879	-0.478410	0.878135	-0.936473	-0.307151	-0.169341
710	2322330													9.231454	-0.003755	3.453600	0.352132	-0.822193	-0.447216	-0.001740	-0.478394	0.878143	-0.935949	-0.308444	-0.169888
711	2322496													9.224338	0.008936	3.474575	0.353593	-0.821807	-0.446772	-0.001599	-0.478157	0.878273	-0.935398	-0.309837	-0.170387
712	2322663													9.265390	-0.008410	3.466124	0.355225	-0.821412	-0.446204	-0.001526	-0.477844	0.878443	-0.934779	-0.311365	-0.170996
713	2322830													9.227647	-0.022559	3.456972	0.356935	-0.820980	-0.445633	-0.001549	-0.477577	0.878589	-0.934128	-0.312909	-0.171735
714	2322996													9.222887	-0.029556	3.442029	0.358861	-0.820453	-0.445057	-0.001564	-0.477346	0.878714	-0.933390	-0.314640	-0.172584
715	2323163													9.157460	-0.038550	3.458405	0.360713	-0.819885	-0.444605	-0.001656	-0.477260	0.878760	-0.932675	-0.316244	-0.173511
716	2323330													9.212067	-0.004430	3.446737	0.362577	-0.819364	-0.444050	-0.001791	-0.477084	0.878856	-0.931952	-0.317857	-0.174447
717	2323496													9.233290	-0.006561	3.528459	0.364654	-0.818808	-0.443375	-0.001896	-0.476814	0.879002	-0.931141	-0.319690	-0.175425
718	2323663													9.151319	-0.035055	3.524673	0.366843	-0.818250	-0.442598	-0.002072	-0.476485	0.879180	-0.930281	-0.321604	-0.176490
719	2323830													9.171399	-0.043493	3.542024	0.369072	-0.817581	-0.441981	-0.002246	-0.476337	0.879260	-0.929398	-0.323518	-0.177639
720	2323996													9.258262	-0.056798	3.638791	0.371379	-0.816823	-0.441450	-0.002234	-0.476239	0.879313	-0.928479	-0.325572	-0.178690
721	2324163													9.235772	0.057975	3.709571	0.374033	-0.815992	-0.440746	-0.002068	-0.475974	0.879457	-0.927413	-0.328034	-0.179717
722	2324330													9.094809	0.036599	3.671923	0.377032	-0.815361	-0.439355	-0.002064	-0.475102	0.879928	-0.926198	-0.330854	-0.180811
723	2324496													9.061330	0.053293	3.686061	0.379799	-0.814995	-0.437649	-0.002511	-0.474005	0.880519	-0.925066	-0.333321	-0.182073
724	2324663													9.161307	-0.015544	3.632890	0.382543	-0.814496	-0.436185	-0.002971	-0.473176	0.880963	-0.923933	-0.335711	-0.183430
725	2324830													9.152877	-0.042929	3.672208	0.385822	-0.813558	-0.435046	-0.003204	-0.472735	0.881199	-0.922568	-0.338592	-0.184998
726	2324997													9.002225	-0.022953	3.779029	0.389412	-0.812066	-0.434635	-0.003281	-0.473104	0.881001	-0.921058	-0.341646	-0.186897
727	2325163													8.989856	-0.027657	3.809508	0.392991	-0.810688	-0.433985	-0.003442	-0.473251	0.880921	-0.919536	-0.344700	-0.188774
728	2325330													9.026825	-0.017338	3.901224	0.396812	-0.808969	-0.433717	-0.003444	-0.473818	0.880616	-0.917894	-0.347945	-0.190803
729	2325497													9.141597	-0.020274	3.934194	0.400673	-0.807433	-0.433028	-0.003785	-0.474078	0.880475	-0.916214	-0.351143	-0.193006
730	2325663													9.054107	0.006343	3.945052	0.404979	-0.805899	-0.431877	-0.004369	-0.474045	0.880490	-0.914315	-0.354693	-0.195500
731	2325830													9.076176	-0.006947	4.073072	0.409733	-0.804163	-0.430628	-0.004986	-0.474040	0.880489	-0.912192	-0.358619	-0.198239
732	2325997													8.986300	-0.004953	3.919270	0.414684	-0.802218	-0.429515	-0.005467	-0.474200	0.880400	-0.909949	-0.362739	-0.201029
733	2326163													8.928858	-0.126482	3.888314	0.419566	-0.800224	-0.428493	-0.005965	-0.474472	0.880250	-0.907705	-0.366767	-0.203845
734	2326330													9.165412	-0.080117	4.007967	0.424707	-0.798201	-0.427199	-0.005956	-0.474324	0.880330	-0.905311	-0.371338	-0.206202
735	2326497													9.029915	0.009522	4.154755	0.430530	-0.795550	-0.426314	-0.005396	-0.474591	0.880190	-0.902560	-0.376648	-0.208619
736	2326663													8.740954	0.075412	4.284554	0.435695	-0.793276	-0.425303	-0.004971	-0.474623	0.880175	-0.900080	-0.381374	-0.210735
737	2326830													8.818636	-0.032415	4.258081	0.439860	-0.791426	-0.424461	-0.004754	-0.474684	0.880143	-0.898054	-0.385122	-0.212558
738	2326997													8.901277	-0.022918	4.363224	0.444307	-0.789569	-0.423288	-0.004531	-0.474460	0.880265	-0.895863	-0.389190	-0.214384
739	2327163													8.718101	-0.044341	4.361823	0.448998	-0.787616	-0.421974	-0.004321	-0.474162	0.880427	-0.893522	-0.393487	-0.216301
740	2327330													8.657430	-0.046581	4.433849	0.453440	-0.785702	-0.420790	-0.004146	-0.473970	0.880531	-0.891277	-0.397524	-0.218174
741	2327497													8.697778	-0.057786	4.519082	0.457622	-0.783820	-0.419771	-0.003872	-0.473858	0.880593	-0.889139	-0.401353	-0.219883
742	2327663													8.672798	-0.083522	4.575000	0.461697	-0.781861	-0.418962	-0.003414	-0.473879	0.880583	-0.887031	-0.405132	-0.221458
743	2327830													8.640655	-0.100253	4.640477	0.465673	-0.779815	-0.418375	-0.002800	-0.474059	0.880489	-0.884952	-0.408848	-0.222940
744	2327997													8.597454	-0.076510	4.700916	0.469612	-0.777535	-0.418214	-0.001933	-0.474602	0.880199	-0.882871	-0.412543	-0.224382
745	2328163													8.621371	-0.084992	4.757784	0.473390	-0.775211	-0.418269	-0.000928	-0.475285	0.879831	-0.880852	-0.416115	-0.225715
746	2328330													8.621910	-0.049016	4.804991	0.477041	-0.772682	-0.418801	0.000263	-0.476391	0.879234	-0.878881	-0.419541	-0.227054
747	2328497													8.640251	0.081796	4.901580	0.480562	-0.770083	-0.419563	0.001688	-0.477615	0.878568	-0.876959	-0.422914	-0.228224
748	2328663													8.655198	0.197560	4.931693	0.484263	-0.767483	-0.420070	0.003113	-0.478608	0.878023	-0.874917	-0.426502	-0.229383
749	2328830													8.638226	0.232259	4.776348	0.488367	-0.765210	-0.419466	0.004019	-0.478710	0.877964	-0.872629	-0.430454	-0.230710
750	2328997													8.705739	0.172586	4.629563	0.492578	-0.763142	-0.418307	0.004597	-0.478376	0.878143	-0.870256	-0.434477	-0.232129
751	2329163													8.743577	0.150100	4.782173	0.497434	-0.760908	-0.416626	0.004965	-0.477755	0.878479	-0.867487	-0.439054	-0.233874
752	2329330													8.558405	0.058638	4.847630	0.502308	-0.758416	-0.415322	0.005432	-0.477537	0.878595	-0.864672	-0.443581	-0.235751
753	2329497													8.450085	0.036711	4.934977	0.506899	-0.755941	-0.414255	0.005894	-0.477521	0.878601	-0.861986	-0.447803	-0.237599
754	2329663													8.584310	0.056752	4.868869	0.511240	-0.753651	-0.413091	0.006246	-0.477381	0.878674	-0.859415	-0.451794	-0.239349
755	2329830													8.583626	0.074489	5.085006	0.515705	-0.751401	-0.411636	0.006494	-0.477012	0.878873	-0.856742	-0.455912	-0.241118
756	2329997													8.313987	0.033674	5.179158	0.520037	-0.749367	-0.409892	0.006568	-0.476363	0.879224	-0.854119	-0.459921	-0.242804
757	2330163													8.191450	-0.021668	5.176463	0.524027	-0.747376	-0.408441	0.006875	-0.475831	0.879510	-0.851674	-0.463695	-0.244210
758	2330330													8.203892	-0.018351	5.164979	0.527672	-0.745404	-0.407351	0.007336	-0.475531	0.879668	-0.849416	-0.467165	-0.245456
759	2330497													8.203285	0.028388	5.097378	0.531223	-0.743303	-0.406575	0.007989	-0.475470	0.879696	-0.847194	-0.470562	-0.246643
760	2330663													8.287806	0.076558	5.192696	0.534065	-0.741618	-0.405928	0.008649	-0.475319	0.879771	-0.845399	-0.473366	-0.247437
761	2330830													8.085868	0.050717	5.267342	0.536717	-0.739946	-0.405481	0.009432	-0.475271	0.879789	-0.843710	-0.476022	-0.248107
762	2330997													7.983454	0.033255	5.255274	0.538987	-0.738382	-0.405321	0.010304	-0.475383	0.879719	-0.842251	-0.478333	-0.248617
763	2331163													8.005829	0.079086	5.293946	0.540925	-0.737009	-0.405238	0.011140	-0.475491	0.879650	-0.840997	-0.480339	-0.248995
764	2331330													8.088323	0.082490	5.256094	0.542495	-0.735888	-0.405178	0.011782	-0.475608	0.879579	-0.839977	-0.481941	-0.249344
765	2331497													8.081625	0.087824	5.329965	0.543719	-0.734914	-0.405303	0.012305	-0.475892	0.879418	-0.839177	-0.483144	-0.249709
766	2331663													8.084798	0.195191	5.364033	0.544595	-0.734154	-0.405504	0.012705	-0.476215	0.879237	-0.838603	-0.483980	-0.250017
767	2331830													8.084105	0.195021	5.361104	0.545236	-0.733730	-0.405410	0.012802	-0.476275	0.879203	-0.838185	-0.484564	-0.250289
768	2331997													8.138822	0.132589	5.312061	0.545615	-0.733634	-0.405074	0.012669	-0.476085	0.879308	-0.837940	-0.484896	-0.250465
769	2332163													8.185727	0.085555	5.340331	0.545904	-0.733553	-0.404832	0.012526	-0.475981	0.879366	-0.837754	-0.485120	-0.250651
770	2332330													8.148488	0.152025	5.364908	0.545883	-0.733625	-0.404730	0.012444	-0.475899	0.879412	-0.837769	-0.485093	-0.250656
771	2332497													8.189513	0.052270	5.351667	0.545519	-0.733950	-0.404632	0.012325	-0.475720	0.879510	-0.838008	-0.484776	-0.250469
772	2332663													8.107141	0.093360	5.407080	0.545066	-0.734288	-0.404629	0.012191	-0.475632	0.879560	-0.838305	-0.484351	-0.250300
773	2332830													8.114706	0.152741	5.386498	0.544167	-0.734892	-0.404742	0.012263	-0.475404	0.879682	-0.838887	-0.483658	-0.249687
774	2332997													8.173674	0.154169	5.373656	0.543194	-0.735402	-0.405124	0.012550	-0.475350	0.879707	-0.839514	-0.482936	-0.248978
775	2333163													8.134176	0.181137	5.391297	0.542136	-0.736127	-0.405222	0.012653	-0.475035	0.879876	-0.840195	-0.482140	-0.248219
776	2333330													8.114643	0.106413	5.336196	0.540871	-0.736942	-0.405432	0.012814	-0.474747	0.880029	-0.841008	-0.481177	-0.247334
777	2333497													8.000982	0.123502	5.235134	0.539232	-0.738034	-0.405629	0.012767	-0.474435	0.880198	-0.842060	-0.479810	-0.246408
778	2333663													8.092040	0.195825	5.313107	0.537425	-0.739226	-0.405856	0.012724	-0.474101	0.880378	-0.843215	-0.478302	-0.245388
779	2333830													8.203821	0.141955	5.227506	0.535557	-0.740593	-0.405834	0.012429	-0.473597	0.880654	-0.844408	-0.476684	-0.244433
780	2333997													8.211504	0.127873	5.389858	0.533202	-0.742207	-0.405985	0.012146	-0.473129	0.880909	-0.845901	-0.474634	-0.243259
781	2334163													8.246107	0.113945	5.343697	0.530515	-0.744031	-0.406167	0.011762	-0.472646	0.881174	-0.847594	-0.472254	-0.241994
782	2334330													8.138577	0.128918	5.209566	0.527552	-0.746128	-0.406180	0.011177	-0.471990	0.881533	-0.849449	-0.469594	-0.240660
783	2334497													8.243604	0.088709	5.095318	0.524548	-0.748366	-0.405953	0.010555	-0.471065	0.882036	-0.851315	-0.466955	-0.239197
784	2334663													8.310991	0.159948	5.123896	0.521338	-0.750507	-0.406136	0.010096	-0.470473	0.882357	-0.853291	-0.464106	-0.237698
785	2334830													8.470749	0.054845	5.119179	0.517999	-0.752758	-0.406241	0.009433	-0.469868	0.882686	-0.855329	-0.461063	-0.236290
786	2334997													8.492757	0.018703	5.148646	0.514530	-0.754840	-0.406787	0.008913	-0.469668	0.882798	-0.857426	-0.457851	-0.234931
787	2335163													8.405037	0.088610	5.007101	0.511315	-0.756516	-0.407725	0.008599	-0.469907	0.882674	-0.859350	-0.454831	-0.233765
788	2335330													8.415008	0.133649	4.913973	0.508605	-0.757920	-0.408508	0.008227	-0.470158	0.882544	-0.860961	-0.452227	-0.232889
789	2335497													8.504263	0.194176	4.913339	0.505588	-0.759540	-0.409243	0.007713	-0.470336	0.882454	-0.862740	-0.449315	-0.231938
790	2335663													8.582009	0.149070	4.900465	0.502712	-0.761212	-0.409679	0.007142	-0.470243	0.882508	-0.864424	-0.446574	-0.230960
791	2335830													8.646652	0.086921	4.932069	0.499599	-0.762850	-0.410439	0.006762	-0.470359	0.882449	-0.866230	-0.443646	-0.229833
792	2335997													8.567789	0.106087	4.937150	0.496668	-0.764382	-0.411147	0.006376	-0.470477	0.882389	-0.867917	-0.440876	-0.228797
793	2336163													8.437994	0.137311	4.830632	0.493866	-0.765906	-0.411685	0.005929	-0.470475	0.882393	-0.869518	-0.438225	-0.227810
794	2336330													8.536821	0.147429	4.857219	0.490860	-0.767364	-0.412564	0.005566	-0.470766	0.882241	-0.871221	-0.435353	-0.226809
795	2336497													8.532752	0.154564	4.850439	0.487764	-0.768865	-0.413439	0.005127	-0.471067	0.882082	-0.872960	-0.432368	-0.225828
796	2336663													8.594025	0.127851	4.860672	0.484407	-0.770539	-0.414269	0.004655	-0.471258	0.881983	-0.874830	-0.429168	-0.224694
797	2336830													8.599240	0.126628	4.772757	0.480908	-0.772278	-0.415107	0.004197	-0.471416	0.881901	-0.876761	-0.425855	-0.223467
798	2336997													8.539279	0.130161	4.726949	0.477317	-0.773903	-0.416225	0.003920	-0.471786	0.881704	-0.878722	-0.422484	-0.222158
799	2337163													8.596434	0.115360	4.660138	0.473262	-0.776541	-0.415940	0.003127	-0.470681	0.882298	-0.880916	-0.418859	-0.220327
800	2337330													8.592314	0.037146	4.656080	0.469148	-0.778836	-0.416311	0.002807	-0.470092	0.882613	-0.883115	-0.415245	-0.218356
801	2337497													8.788631	0.032407	4.605230	0.464619	-0.781295	-0.416782	0.002441	-0.469537	0.882910	-0.885508	-0.411234	-0.216248
802	2337663													8.774643	0.022749	4.623589	0.460399	-0.783538	-0.417254	0.002108	-0.469067	0.883160	-0.887709	-0.407486	-0.214306
803	2337830													8.594975	0.020503	4.627475	0.456025	-0.785909	-0.417599	0.001746	-0.468439	0.883494	-0.889965	-0.403624	-0.212248
804	2337997													8.645958	0.033677	4.468721	0.450568	-0.789205	-0.417306	0.001174	-0.466919	0.884299	-0.892742	-0.398926	-0.209452
805	2338163													8.682231	0.065676	4.346167	0.444830	-0.792912	-0.416434	0.000492	-0.464753	0.885440	-0.895615	-0.394075	-0.206346
806	2338330													8.876948	-0.057942	4.247149	0.439099	-0.796636	-0.415407	-0.000071	-0.462397	0.886673	-0.898439	-0.389308	-0.203095
807	2338497													8.978147	-0.086069	4.268228	0.433591	-0.799649	-0.415403	-0.000324	-0.461129	0.887333	-0.901110	-0.384605	-0.200201
808	2338663													8.961364	-0.145204	4.301634	0.428928	-0.802063	-0.415591	-0.000393	-0.460227	0.887801	-0.903338	-0.380640	-0.197720
809	2338830													8.823359	-0.112523	4.320078	0.424819	-0.804387	-0.415319	-0.000377	-0.458932	0.888471	-0.905278	-0.377283	-0.195266
810	2338997													8.798450	-0.013033	4.104852	0.420583	-0.807055	-0.414454	-0.000450	-0.457008	0.889463	-0.907254	-0.373906	-0.192573
811	2339163													8.999531	0.014430	3.841274	0.416564	-0.809172	-0.414386	-0.000353	-0.455961	0.890000	-0.909106	-0.370596	-0.190223
812	2339330													9.100412	-0.002741	3.841146	0.412886	-0.810658	-0.415161	-0.000283	-0.455943	0.890009	-0.910783	-0.367354	-0.188482
813	2339497													9.115520	-0.034718	4.061286	0.409417	-0.811849	-0.416267	-0.000193	-0.456336	0.889807	-0.912347	-0.364222	-0.186989
814	2339663													9.041453	-0.053841	3.979760	0.405758	-0.813479	-0.416668	-0.000305	-0.456003	0.889978	-0.913981	-0.360988	-0.185275
815	2339830													9.002940	0.011219	3.914108	0.402030	-0.814869	-0.417564	-0.000278	-0.456151	0.889903	-0.915627	-0.357651	-0.183613
816	2339997													9.088856	0.043109	3.782852	0.398314	-0.816488	-0.417963	-0.000477	-0.455855	0.890054	-0.917249	-0.354322	-0.181963
817	2340163													9.118648	0.005119	3.823951	0.394180	-0.818056	-0.418816	-0.000659	-0.455965	0.889997	-0.919033	-0.350543	-0.180271
818	2340330													9.183897	-0.024059	3.651803	0.390419	-0.819402	-0.419707	-0.000789	-0.456185	0.889885	-0.920637	-0.347097	-0.178749
819	2340497													9.180588	-0.020034	3.860728	0.387345	-0.820279	-0.420840	-0.000899	-0.456810	0.889564	-0.921935	-0.344190	-0.177680
820	2340663													9.027946	0.039764	3.873626	0.383999	-0.821688	-0.421157	-0.001241	-0.456585	0.889679	-0.923332	-0.341113	-0.176348
821	2340830													8.996066	0.031333	3.766179	0.380342	-0.823319	-0.421290	-0.001620	-0.456117	0.889918	-0.924844	-0.337791	-0.174815
822	2340997													9.076946	0.031401	3.646905	0.375986	-0.825207	-0.421507	-0.002102	-0.455642	0.890160	-0.926623	-0.333802	-0.173050
823	2341163													9.247599	-0.034531	3.421565	0.372318	-0.826277	-0.422664	-0.002283	-0.456220	0.889864	-0.928102	-0.330348	-0.171745
824	2341330													9.217134	-0.087277	3.686000	0.369535	-0.826781	-0.424120	-0.002343	-0.457255	0.889333	-0.929214	-0.327646	-0.170909
825	2341497													9.065100	-0.099035	3.731098	0.366611	-0.827361	-0.425523	-0.002335	-0.458185	0.888854	-0.930371	-0.324870	-0.169908
826	2341664													8.985007	0.065068	3.688072	0.363241	-0.828200	-0.426779	-0.002175	-0.458820	0.888527	-0.931693	-0.321821	-0.168464
827	2341830													9.149557	0.101259	3.444338	0.359682	-0.829601	-0.427073	-0.001991	-0.458386	0.888751	-0.933073	-0.318817	-0.166525
828	2341997													9.315749	0.020310	3.430464	0.356846	-0.830398	-0.427902	-0.001931	-0.458713	0.888582	-0.934161	-0.316261	-0.165293
829	2342164													9.268742	-0.079856	3.555686	0.354319	-0.831030	-0.428773	-0.002028	-0.459201	0.888330	-0.935122	-0.313883	-0.164390
830	2342330													9.200952	-0.071077	3.574181	0.352013	-0.831534	-0.429696	-0.002020	-0.459753	0.888044	-0.935993	-0.311735	-0.163519
831	2342497													9.077915	-0.017622	3.583626	0.349758	-0.832006	-0.430623	-0.001899	-0.460283	0.887770	-0.936838	-0.309688	-0.162568
832	2342664													9.085617	0.073042	3.542659	0.346939	-0.832920	-0.431136	-0.001852	-0.460296	0.887764	-0.937886	-0.307201	-0.161237
833	2342830													9.217924	0.045800	3.324110	0.343940	-0.834168	-0.431125	-0.001918	-0.459760	0.888041	-0.938990	-0.304606	-0.159729
834	2342997													9.382898	-0.041804	3.213243	0.341540	-0.834835	-0.431742	-0.001927	-0.459986	0.887924	-0.939865	-0.302429	-0.158712
835	2343164													9.306046	-0.128216	3.385378	0.340103	-0.835031	-0.432496	-0.001819	-0.460496	0.887660	-0.940386	-0.301109	-0.158136
836	2343330													9.210993	-0.084399	3.437364	0.338654	-0.835147	-0.433409	-0.001521	-0.461112	0.887341	-0.940910	-0.299843	-0.157428
837	2343497													9.200194	0.022468	3.369163	0.337150	-0.835285	-0.434313	-0.001138	-0.461685	0.887043	-0.941450	-0.298573	-0.156607
838	2343664													9.254188	0.023589	3.291353	0.335609	-0.835689	-0.434729	-0.000916	-0.461785	0.886992	-0.942001	-0.297285	-0.155745
839	2343830													9.330858	-0.070654	3.149944	0.334129	-0.835958	-0.435353	-0.000746	-0.462134	0.886810	-0.942527	-0.295984	-0.155037
840	2343997													9.371593	-0.021869	3.123981	0.332896	-0.835936	-0.436339	-0.000486	-0.462884	0.886419	-0.942964	-0.294873	-0.154499
841	2344164													9.411083	0.021420	3.161597	0.332180	-0.835655	-0.437422	-0.000108	-0.463789	0.885946	-0.943216	-0.294246	-0.154151
842	2344330													9.353616	0.004590	3.214949	0.331793	-0.835244	-0.438497	0.000177	-0.464774	0.885429	-0.943352	-0.293857	-0.154061
843	2344497													9.348469	0.046395	3.213512	0.331278	-0.834881	-0.439578	0.000264	-0.465802	0.884889	-0.943533	-0.293260	-0.154090
844	2344664													9.353608	0.027561	3.156949	0.330788	-0.834639	-0.440405	0.000231	-0.466605	0.884466	-0.943705	-0.292672	-0.154154
845	2344830													9.343884	-0.014208	3.153815	0.330487	-0.834564	-0.440773	0.000108	-0.466981	0.884268	-0.943810	-0.292287	-0.154241
846	2344997													9.331832	0.022367	3.148486	0.330235	-0.834369	-0.441331	0.000075	-0.467539	0.883972	-0.943899	-0.291951	-0.154335
847	2345164													9.339272	0.040282	3.151700	0.330181	-0.834142	-0.441801	0.000031	-0.468040	0.883707	-0.943918	-0.291797	-0.154512
848	2345330													9.354498	0.027696	3.184266	0.330238	-0.833852	-0.442305	-0.000053	-0.468611	0.883405	-0.943898	-0.291710	-0.154797
849	2345497													9.320794	0.044573	3.207714	0.330234	-0.833602	-0.442779	-0.000212	-0.469161	0.883113	-0.943899	-0.291540	-0.155109
850	2345664													9.315517	0.031552	3.106554	0.330164	-0.833563	-0.442906	-0.000393	-0.469339	0.883018	-0.943924	-0.291366	-0.155286
851	2345830													9.374552	0.012512	3.124805	0.330536	-0.833352	-0.443024	-0.000487	-0.469558	0.882902	-0.943793	-0.291615	-0.155611
852	2345997													9.347742	0.005805	3.190075	0.331111	-0.833002	-0.443252	-0.000547	-0.469920	0.882709	-0.943592	-0.292032	-0.156051
853	2346164													9.300643	0.012112	3.217903	0.331931	-0.832498	-0.443587	-0.000568	-0.470424	0.882440	-0.943303	-0.292657	-0.156621
854	2346330													9.255054	0.020408	3.253589	0.332760	-0.831962	-0.443971	-0.000600	-0.470988	0.882139	-0.943011	-0.293274	-0.157225
855	2346497													9.219006	0.028523	3.277700	0.333374	-0.831601	-0.444187	-0.000678	-0.471350	0.881946	-0.942794	-0.293717	-0.157700
856	2346664													9.263014	0.010959	3.228038	0.333814	-0.831485	-0.444073	-0.000836	-0.471356	0.881942	-0.942638	-0.294034	-0.158041
857	2346830													9.293401	-0.009383	3.229351	0.334467	-0.831207	-0.444103	-0.000952	-0.471541	0.881844	-0.942407	-0.294525	-0.158506
858	2346997													9.242887	-0.019700	3.322018	0.335173	-0.830918	-0.444111	-0.001007	-0.471693	0.881762	-0.942156	-0.295096	-0.158935
859	2347164													9.244030	0.001344	3.312097	0.335923	-0.830649	-0.444047	-0.001111	-0.471791	0.881709	-0.941889	-0.295693	-0.159408
860	2347330													9.185088	-0.015431	3.339202	0.336802	-0.830330	-0.443978	-0.001199	-0.471904	0.881649	-0.941575	-0.296408	-0.159934
