// Start Time: Unknown
// Update Rate: 60.0Hz
//Filter Profile: human (46.1)
// Option Flags: AHS Disabled ICC Disabled
// Firmware Version: 4.0.2
0	sampleTimeFine	Year	Month	Day	Second	UTC_Nano	UTC_Year	UTC_Month	UTC_Day	UTC_Hour	UTC_Minute	UTC_Second	UTC_Valid	Acc_X	Acc_Y	Acc_Z	Mat[1][1]	Mat[2][1]	Mat[3][1]	Mat[1][2]	Mat[2][2]	Mat[3][2]	Mat[1][3]	Mat[2][3]	Mat[3][3]
0	2203827													-0.251083	0.164218	0.043203	-0.201577	-0.901427	0.383139	0.025087	0.386289	0.922037	-0.979151	0.195473	-0.055253
1	2203994													9.526541	0.237870	-1.976870	-0.201869	-0.901674	0.382404	0.024779	0.385615	0.922327	-0.979099	0.195665	-0.055502
2	2204161													9.536575	0.257759	-1.977961	-0.202289	-0.902385	0.380501	0.024499	0.383749	0.923112	-0.979019	0.196058	-0.055521
3	2204327													9.551102	0.246272	-1.962580	-0.202663	-0.902780	0.379363	0.024549	0.382597	0.923589	-0.978941	0.196491	-0.055376
4	2204494													9.553788	0.246186	-1.963738	-0.202720	-0.903134	0.378488	0.024527	0.381709	0.923957	-0.978930	0.196588	-0.055228
5	2204661													9.559978	0.257719	-1.984691	-0.202638	-0.903198	0.378379	0.024453	0.381607	0.924001	-0.978948	0.196490	-0.055242
6	2204827													9.536489	0.257966	-1.965755	-0.202600	-0.903135	0.378551	0.024439	0.381785	0.923928	-0.978957	0.196439	-0.055278
7	2204994													9.570621	0.267211	-1.977253	-0.202526	-0.903052	0.378787	0.024420	0.382025	0.923829	-0.978972	0.196349	-0.055317
8	2205161													9.540975	0.264457	-1.961457	-0.202451	-0.902922	0.379137	0.024408	0.382381	0.923682	-0.978988	0.196255	-0.055375
9	2205327													9.518125	0.257959	-1.951372	-0.202401	-0.903014	0.378945	0.024345	0.382194	0.923761	-0.979000	0.196195	-0.055373
10	2205494													9.524789	0.236691	-1.982894	-0.202396	-0.903041	0.378884	0.024195	0.382162	0.923779	-0.979005	0.196136	-0.055499
11	2205661													9.562697	0.212496	-1.975088	-0.202417	-0.903032	0.378894	0.023972	0.382218	0.923761	-0.979006	0.196067	-0.055720
12	2205827													9.548634	0.184712	-1.979495	-0.202371	-0.903085	0.378793	0.023727	0.382161	0.923791	-0.979021	0.195936	-0.055910
13	2205994													9.428678	0.198959	-1.939510	-0.202371	-0.903128	0.378689	0.023487	0.382103	0.923821	-0.979027	0.195849	-0.056115
14	2206161													9.516212	0.149499	-1.991409	-0.202625	-0.903089	0.378646	0.023291	0.382113	0.923822	-0.978979	0.196008	-0.056392
15	2206327													9.559596	0.138349	-1.968717	-0.202862	-0.903136	0.378408	0.023104	0.381921	0.923906	-0.978935	0.196169	-0.056611
16	2206494													9.543938	0.204378	-1.957405	-0.203143	-0.903107	0.378326	0.023088	0.381857	0.923933	-0.978877	0.196425	-0.056721
17	2206661													9.579975	0.277317	-1.931228	-0.203421	-0.903270	0.377787	0.023233	0.381293	0.924162	-0.978816	0.196771	-0.056577
18	2206827													9.540765	0.282037	-1.920556	-0.203600	-0.903165	0.377942	0.023490	0.381410	0.924108	-0.978772	0.197027	-0.056440
19	2206994													9.542967	0.280029	-1.959634	-0.203763	-0.903117	0.377968	0.023701	0.381404	0.924105	-0.978733	0.197256	-0.056311
20	2207161													9.540682	0.325368	-1.949104	-0.203911	-0.902956	0.378273	0.023821	0.381701	0.923979	-0.978700	0.197420	-0.056324
21	2207327													9.530137	0.369155	-1.968076	-0.204056	-0.902848	0.378452	0.023895	0.381878	0.923904	-0.978667	0.197572	-0.056351
22	2207494													9.577210	0.343462	-1.966658	-0.204205	-0.902676	0.378782	0.023973	0.382208	0.923765	-0.978635	0.197718	-0.056409
23	2207661													9.564316	0.262627	-1.989793	-0.204251	-0.902475	0.379237	0.023989	0.382674	0.923572	-0.978625	0.197738	-0.056512
24	2207827													9.547946	0.224597	-1.986671	-0.204234	-0.902353	0.379537	0.023872	0.383003	0.923439	-0.978631	0.197658	-0.056681
25	2207994													9.540772	0.195915	-1.990542	-0.204158	-0.902313	0.379671	0.023608	0.383189	0.923368	-0.978653	0.197477	-0.056929
26	2208161													9.586246	0.179497	-1.994581	-0.203995	-0.902417	0.379511	0.023312	0.383075	0.923423	-0.978694	0.197221	-0.057108
27	2208328													9.554358	0.217161	-1.983157	-0.203657	-0.902597	0.379267	0.023093	0.382849	0.923522	-0.978770	0.196840	-0.057126
28	2208494													9.524452	0.221900	-1.994645	-0.203412	-0.902740	0.379056	0.022898	0.382658	0.923606	-0.978825	0.196553	-0.057166
29	2208661													9.560102	0.240189	-1.985906	-0.203121	-0.902886	0.378864	0.022650	0.382494	0.923680	-0.978892	0.196200	-0.057242
30	2208828													9.485785	0.300992	-1.981833	-0.202940	-0.902947	0.378817	0.022523	0.382461	0.923697	-0.978932	0.195987	-0.057279
31	2208994													9.548263	0.374028	-1.990167	-0.202824	-0.903050	0.378634	0.022570	0.382257	0.923780	-0.978955	0.195911	-0.057149
32	2209161													9.518969	0.332386	-1.995576	-0.202699	-0.902959	0.378918	0.022716	0.382511	0.923672	-0.978978	0.195834	-0.057023
33	2209328													9.515801	0.300370	-1.993671	-0.202624	-0.902804	0.379326	0.022798	0.382907	0.923506	-0.978991	0.195773	-0.057004
34	2209494													9.511375	0.278119	-2.001428	-0.202587	-0.902649	0.379714	0.022795	0.383302	0.923342	-0.978999	0.195713	-0.057076
35	2209661													9.554705	0.274129	-1.981729	-0.202577	-0.902521	0.380025	0.022738	0.383631	0.923206	-0.979002	0.195662	-0.057193
36	2209828													9.557374	0.242107	-1.970432	-0.202471	-0.902467	0.380208	0.022691	0.383822	0.923128	-0.979025	0.195534	-0.057235
37	2209994													9.553467	0.205042	-1.991424	-0.202339	-0.902369	0.380512	0.022698	0.384124	0.923003	-0.979052	0.195396	-0.057241
38	2210161													9.535465	0.217465	-1.951275	-0.202202	-0.902346	0.380638	0.022704	0.384243	0.922953	-0.979081	0.195265	-0.057208
39	2210328													9.526598	0.234774	-1.964393	-0.202110	-0.902346	0.380689	0.022714	0.384287	0.922934	-0.979099	0.195182	-0.057172
40	2210494													9.520353	0.273347	-1.943036	-0.202099	-0.902295	0.380814	0.022732	0.384411	0.922882	-0.979101	0.195171	-0.057178
41	2210661													9.519724	0.305919	-1.955799	-0.202128	-0.902355	0.380656	0.022753	0.384247	0.922950	-0.979095	0.195215	-0.057136
42	2210828													9.538382	0.332977	-1.955302	-0.202195	-0.902314	0.380718	0.022753	0.384314	0.922922	-0.979081	0.195273	-0.057176
43	2210994													9.556588	0.335609	-1.937321	-0.202229	-0.902272	0.380800	0.022715	0.384408	0.922884	-0.979075	0.195284	-0.057243
44	2211161													9.568705	0.325707	-1.969307	-0.202240	-0.902154	0.381074	0.022654	0.384701	0.922763	-0.979074	0.195252	-0.057364
45	2211328													9.566740	0.310326	-1.959928	-0.202183	-0.902057	0.381333	0.022571	0.384979	0.922649	-0.979088	0.195151	-0.057477
46	2211494													9.547699	0.274197	-1.961970	-0.202062	-0.902038	0.381442	0.022499	0.385098	0.922601	-0.979114	0.195004	-0.057519
47	2211661													9.552029	0.254811	-1.970300	-0.201929	-0.901965	0.381687	0.022416	0.385356	0.922496	-0.979144	0.194834	-0.057596
48	2211828													9.538234	0.247590	-1.959018	-0.201776	-0.902004	0.381674	0.022280	0.385361	0.922497	-0.979178	0.194642	-0.057660
49	2211994													9.567574	0.254813	-1.978613	-0.201530	-0.902016	0.381777	0.022122	0.385483	0.922450	-0.979233	0.194346	-0.057732
50	2212161													9.539505	0.262402	-1.968254	-0.201217	-0.902135	0.381660	0.021947	0.385380	0.922497	-0.979301	0.193999	-0.057746
51	2212328													9.560733	0.273271	-1.980592	-0.200845	-0.902279	0.381515	0.021744	0.385249	0.922556	-0.979382	0.193586	-0.057756
52	2212494													9.570757	0.263677	-1.958816	-0.200393	-0.902401	0.381465	0.021524	0.385214	0.922576	-0.979479	0.193089	-0.057771
53	2212661													9.585205	0.262986	-1.945971	-0.199858	-0.902611	0.381249	0.021262	0.385012	0.922667	-0.979594	0.192508	-0.057756
54	2212828													9.572470	0.281417	-1.921720	-0.199245	-0.902822	0.381069	0.020951	0.384852	0.922740	-0.979726	0.191836	-0.057765
55	2212994													9.537671	0.291201	-1.910749	-0.198632	-0.903005	0.380956	0.020653	0.384758	0.922786	-0.979856	0.191163	-0.057776
56	2213161													9.515075	0.294804	-1.902586	-0.198132	-0.903158	0.380854	0.020349	0.384683	0.922824	-0.979964	0.190591	-0.057839
57	2213328													9.536457	0.278146	-1.911975	-0.197726	-0.903264	0.380813	0.020055	0.384674	0.922835	-0.980052	0.190106	-0.057945
58	2213494													9.546454	0.279321	-1.901815	-0.197392	-0.903363	0.380753	0.019809	0.384640	0.922854	-0.980124	0.189706	-0.058030
59	2213661													9.516914	0.257401	-1.885695	-0.197136	-0.903434	0.380715	0.019586	0.384629	0.922863	-0.980180	0.189387	-0.058129
60	2213828													9.556641	0.262201	-1.885185	-0.196951	-0.903427	0.380827	0.019394	0.384769	0.922809	-0.980222	0.189134	-0.058260
61	2213994													9.565962	0.266231	-1.904346	-0.196789	-0.903420	0.380928	0.019206	0.384899	0.922759	-0.980258	0.188905	-0.058392
62	2214161													9.541702	0.270002	-1.884918	-0.196657	-0.903373	0.381109	0.019050	0.385105	0.922676	-0.980287	0.188710	-0.058524
63	2214328													9.541039	0.259625	-1.901631	-0.196604	-0.903371	0.381139	0.018899	0.385162	0.922655	-0.980301	0.188601	-0.058651
64	2214494													9.537041	0.238258	-1.900144	-0.196598	-0.903346	0.381202	0.018768	0.385252	0.922621	-0.980305	0.188540	-0.058786
65	2214661													9.552343	0.244008	-1.885741	-0.196628	-0.903246	0.381424	0.018636	0.385506	0.922517	-0.980301	0.188501	-0.058969
66	2214828													9.575063	0.239867	-1.913207	-0.196642	-0.903178	0.381577	0.018565	0.385676	0.922448	-0.980300	0.188476	-0.059072
67	2214994													9.561405	0.233784	-1.916454	-0.196653	-0.903127	0.381691	0.018499	0.385806	0.922394	-0.980299	0.188453	-0.059163
68	2215161													9.575095	0.233004	-1.902142	-0.196634	-0.903114	0.381733	0.018405	0.385865	0.922372	-0.980304	0.188395	-0.059253
69	2215328													9.580191	0.229821	-1.928545	-0.196583	-0.903048	0.381916	0.018327	0.386064	0.922290	-0.980316	0.188306	-0.059343
70	2215494													9.571376	0.252988	-1.904842	-0.196467	-0.903093	0.381869	0.018266	0.386021	0.922309	-0.980340	0.188178	-0.059344
71	2215661													9.557729	0.271924	-1.924733	-0.196304	-0.903065	0.382019	0.018211	0.386175	0.922246	-0.980374	0.187997	-0.059362
72	2215828													9.540141	0.270093	-1.892017	-0.196138	-0.902967	0.382335	0.018150	0.386499	0.922111	-0.980408	0.187801	-0.059419
73	2215994													9.552479	0.268369	-1.910031	-0.196016	-0.903007	0.382304	0.018054	0.386478	0.922122	-0.980434	0.187653	-0.059453
74	2216161													9.538872	0.266835	-1.893248	-0.195900	-0.902957	0.382482	0.017939	0.386674	0.922042	-0.980460	0.187489	-0.059551
75	2216328													9.543373	0.263780	-1.858496	-0.195876	-0.902810	0.382840	0.017842	0.387057	0.921883	-0.980466	0.187406	-0.059707
76	2216494													9.563744	0.271069	-1.885344	-0.195886	-0.902675	0.383154	0.017822	0.387382	0.921747	-0.980465	0.187386	-0.059795
77	2216661													9.553995	0.274234	-1.879082	-0.195827	-0.902600	0.383360	0.017810	0.387591	0.921659	-0.980477	0.187314	-0.059825
78	2216828													9.515469	0.244945	-1.872069	-0.195821	-0.902469	0.383671	0.017790	0.387912	0.921525	-0.980478	0.187279	-0.059906
79	2216994													9.497276	0.236136	-1.887192	-0.195955	-0.902328	0.383934	0.017727	0.388201	0.921404	-0.980453	0.187360	-0.060075
80	2217161													9.520381	0.246227	-1.873116	-0.196161	-0.902223	0.384077	0.017692	0.388367	0.921335	-0.980412	0.187525	-0.060220
81	2217328													9.502523	0.252481	-1.887043	-0.196428	-0.902030	0.384394	0.017690	0.388708	0.921191	-0.980359	0.187747	-0.060396
82	2217494													9.534648	0.263017	-1.920262	-0.196800	-0.901883	0.384547	0.017656	0.388893	0.921114	-0.980285	0.188065	-0.060610
83	2217661													9.599277	0.239810	-1.934663	-0.197195	-0.901763	0.384628	0.017640	0.389004	0.921067	-0.980206	0.188415	-0.060802
84	2217828													9.670837	0.227571	-1.968327	-0.197362	-0.901665	0.384772	0.017594	0.389170	0.920998	-0.980173	0.188540	-0.060943
85	2217994													9.623560	0.286350	-1.939731	-0.197378	-0.901544	0.385047	0.017678	0.389436	0.920884	-0.980168	0.188569	-0.060928
86	2218161													9.618081	0.296153	-1.937335	-0.197315	-0.901438	0.385325	0.017902	0.389674	0.920779	-0.980177	0.188581	-0.060751
87	2218328													9.599634	0.266414	-1.914896	-0.197053	-0.901452	0.385428	0.018062	0.389731	0.920752	-0.980227	0.188398	-0.060515
88	2218494													9.561843	0.270578	-1.938930	-0.196730	-0.901506	0.385466	0.018046	0.389753	0.920743	-0.980292	0.188094	-0.060407
89	2218661													9.551458	0.280695	-1.906554	-0.196357	-0.901601	0.385433	0.017888	0.389726	0.920757	-0.980369	0.187692	-0.060397
90	2218828													9.519058	0.302378	-1.866401	-0.196030	-0.901677	0.385423	0.017616	0.389748	0.920753	-0.980440	0.187285	-0.060518
91	2218994													9.551003	0.299762	-1.880254	-0.195692	-0.901697	0.385549	0.017327	0.389910	0.920690	-0.980512	0.186852	-0.060678
92	2219161													9.550529	0.257776	-1.909617	-0.195345	-0.901744	0.385614	0.017075	0.390002	0.920655	-0.980586	0.186430	-0.060787
93	2219328													9.549419	0.219818	-1.881948	-0.195004	-0.901898	0.385426	0.016818	0.389838	0.920730	-0.980658	0.186028	-0.060852
94	2219494													9.544456	0.198283	-1.873278	-0.194716	-0.902038	0.385244	0.016497	0.389694	0.920796	-0.980721	0.185649	-0.060999
95	2219661													9.560649	0.245082	-1.875429	-0.194494	-0.902174	0.385039	0.016196	0.389528	0.920872	-0.980770	0.185340	-0.061149
96	2219828													9.558192	0.276419	-1.862256	-0.194248	-0.902371	0.384700	0.016036	0.389196	0.921015	-0.980821	0.185074	-0.061130
97	2219994													9.505982	0.289561	-1.864988	-0.194072	-0.902511	0.384460	0.015930	0.388960	0.921117	-0.980858	0.184888	-0.061110
98	2220161													9.591088	0.270483	-1.859373	-0.193959	-0.902592	0.384327	0.015757	0.388850	0.921166	-0.980883	0.184725	-0.061199
99	2220328													9.527288	0.286123	-1.849424	-0.193892	-0.902601	0.384340	0.015655	0.388878	0.921156	-0.980898	0.184621	-0.061270
100	2220494													9.561627	0.344178	-1.858269	-0.193918	-0.902526	0.384504	0.015639	0.389050	0.921084	-0.980893	0.184628	-0.061329
101	2220661													9.537162	0.310308	-1.866748	-0.193986	-0.902421	0.384715	0.015699	0.389258	0.920995	-0.980879	0.184699	-0.061344
102	2220828													9.584027	0.263264	-1.887396	-0.194128	-0.902311	0.384902	0.015675	0.389463	0.920909	-0.980851	0.184807	-0.061462
103	2220994													9.554235	0.234849	-1.863412	-0.194199	-0.902231	0.385052	0.015528	0.389649	0.920833	-0.980839	0.184804	-0.061660
104	2221161													9.558132	0.251485	-1.877500	-0.194320	-0.902133	0.385222	0.015288	0.389875	0.920741	-0.980819	0.184808	-0.061969
105	2221328													9.568162	0.247767	-1.869062	-0.194395	-0.902118	0.385218	0.015063	0.389918	0.920726	-0.980808	0.184787	-0.062210
106	2221494													9.545216	0.241533	-1.879551	-0.194441	-0.902086	0.385271	0.014942	0.389998	0.920694	-0.980800	0.184777	-0.062353
107	2221661													9.549954	0.223377	-1.849790	-0.194517	-0.902022	0.385381	0.014874	0.390128	0.920641	-0.980786	0.184813	-0.062470
108	2221828													9.561501	0.232031	-1.865014	-0.194652	-0.901988	0.385394	0.014772	0.390169	0.920625	-0.980761	0.184894	-0.062623
109	2221994													9.573335	0.241446	-1.867891	-0.194787	-0.902008	0.385277	0.014692	0.390074	0.920666	-0.980735	0.184995	-0.062729
110	2222161													9.560182	0.254082	-1.857700	-0.194921	-0.902028	0.385165	0.014620	0.389981	0.920707	-0.980710	0.185097	-0.062828
111	2222328													9.535112	0.275093	-1.852758	-0.195104	-0.902058	0.385002	0.014594	0.389832	0.920770	-0.980674	0.185265	-0.062893
112	2222494													9.545331	0.258087	-1.866781	-0.195370	-0.902030	0.384933	0.014590	0.389780	0.920793	-0.980621	0.185512	-0.062991
113	2222661													9.552328	0.264856	-1.885616	-0.195674	-0.901944	0.384979	0.014613	0.389842	0.920766	-0.980560	0.185796	-0.063102
114	2222828													9.570121	0.269962	-1.893015	-0.195977	-0.901836	0.385079	0.014630	0.389961	0.920715	-0.980499	0.186073	-0.063229
115	2222994													9.582132	0.285567	-1.914586	-0.196233	-0.901719	0.385222	0.014653	0.390120	0.920648	-0.980448	0.186306	-0.063341
116	2223161													9.566089	0.275297	-1.915228	-0.196436	-0.901614	0.385363	0.014613	0.390284	0.920578	-0.980408	0.186466	-0.063491
117	2223328													9.560470	0.235626	-1.904698	-0.196588	-0.901508	0.385535	0.014505	0.390491	0.920492	-0.980379	0.186549	-0.063690
118	2223494													9.542992	0.239158	-1.912785	-0.196704	-0.901506	0.385479	0.014382	0.390465	0.920506	-0.980358	0.186611	-0.063840
119	2223661													9.556659	0.244089	-1.919906	-0.196816	-0.901451	0.385551	0.014232	0.390574	0.920461	-0.980337	0.186649	-0.064042
120	2223828													9.572593	0.247275	-1.907306	-0.196905	-0.901409	0.385605	0.014043	0.390671	0.920423	-0.980322	0.186651	-0.064267
121	2223994													9.546610	0.247363	-1.915303	-0.196935	-0.901529	0.385308	0.013868	0.390403	0.920540	-0.980318	0.186630	-0.064381
122	2224161													9.549301	0.238675	-1.926748	-0.196979	-0.901594	0.385134	0.013675	0.390266	0.920601	-0.980312	0.186606	-0.064545
123	2224328													9.571781	0.237408	-1.901349	-0.197060	-0.901644	0.384974	0.013469	0.390147	0.920654	-0.980299	0.186609	-0.064738
124	2224494													9.550045	0.245351	-1.905028	-0.197178	-0.901688	0.384811	0.013291	0.390022	0.920709	-0.980278	0.186658	-0.064919
125	2224661													9.540896	0.252697	-1.915991	-0.197370	-0.901689	0.384711	0.013156	0.389959	0.920738	-0.980241	0.186788	-0.065104
126	2224828													9.547304	0.251424	-1.898798	-0.197623	-0.901705	0.384543	0.013039	0.389826	0.920796	-0.980191	0.186985	-0.065281
127	2224995													9.564218	0.252375	-1.904613	-0.197933	-0.901678	0.384447	0.012940	0.389769	0.920822	-0.980130	0.187236	-0.065481
128	2225161													9.545808	0.255621	-1.927492	-0.198226	-0.901651	0.384359	0.012877	0.389711	0.920847	-0.980072	0.187485	-0.065640
129	2225328													9.549892	0.249331	-1.903103	-0.198573	-0.901526	0.384475	0.012825	0.389863	0.920784	-0.980002	0.187773	-0.065854
130	2225495													9.545476	0.244849	-1.920673	-0.198943	-0.901409	0.384557	0.012775	0.389982	0.920734	-0.979928	0.188087	-0.066069
131	2225661													9.540897	0.238610	-1.942768	-0.199349	-0.901340	0.384508	0.012752	0.389965	0.920741	-0.979846	0.188452	-0.066245
132	2225828													9.550052	0.222667	-1.951535	-0.199754	-0.901196	0.384635	0.012744	0.390124	0.920674	-0.979763	0.188810	-0.066444
133	2225995													9.530526	0.249244	-1.948666	-0.200136	-0.901119	0.384617	0.012752	0.390130	0.920671	-0.979685	0.189164	-0.066588
134	2226161													9.546534	0.237631	-1.961357	-0.200477	-0.901034	0.384638	0.012733	0.390179	0.920651	-0.979616	0.189467	-0.066749
135	2226328													9.549523	0.259043	-1.976844	-0.200750	-0.900984	0.384613	0.012734	0.390172	0.920654	-0.979560	0.189719	-0.066854
136	2226495													9.563344	0.246968	-1.954308	-0.200930	-0.900929	0.384647	0.012716	0.390223	0.920632	-0.979523	0.189874	-0.066951
137	2226661													9.553227	0.254020	-1.950143	-0.201067	-0.900922	0.384594	0.012641	0.390193	0.920646	-0.979496	0.189973	-0.067066
138	2226828													9.542563	0.248662	-1.975382	-0.201155	-0.900899	0.384601	0.012570	0.390220	0.920636	-0.979479	0.190026	-0.067170
139	2226995													9.532008	0.237275	-1.973454	-0.201231	-0.900901	0.384556	0.012471	0.390199	0.920646	-0.979464	0.190058	-0.067285
140	2227161													9.536072	0.234328	-1.958740	-0.201385	-0.900914	0.384445	0.012332	0.390123	0.920680	-0.979435	0.190152	-0.067455
141	2227328													9.557428	0.207194	-1.975274	-0.201564	-0.900945	0.384280	0.012152	0.390002	0.920734	-0.979400	0.190256	-0.067662
142	2227495													9.551791	0.205900	-1.983872	-0.201660	-0.900992	0.384118	0.011978	0.389877	0.920789	-0.979382	0.190288	-0.067830
143	2227661													9.486522	0.242808	-1.972021	-0.201765	-0.901091	0.383832	0.011859	0.389615	0.920902	-0.979362	0.190357	-0.067925
144	2227828													9.525965	0.230405	-1.991396	-0.202043	-0.901121	0.383613	0.011815	0.389420	0.920985	-0.979305	0.190611	-0.068033
145	2227995													9.583404	0.205845	-1.998958	-0.202247	-0.901176	0.383376	0.011755	0.389204	0.921077	-0.979264	0.190792	-0.068122
146	2228161													9.554951	0.253322	-1.987011	-0.202465	-0.901176	0.383262	0.011826	0.389089	0.921124	-0.979218	0.191028	-0.068120
147	2228328													9.566089	0.287990	-1.970446	-0.202687	-0.901144	0.383220	0.012014	0.389025	0.921149	-0.979170	0.191308	-0.068024
148	2228495													9.541189	0.297912	-1.978969	-0.202821	-0.901062	0.383341	0.012189	0.389124	0.921105	-0.979140	0.191492	-0.067940
149	2228661													9.550325	0.285093	-1.973386	-0.202960	-0.900964	0.383499	0.012280	0.389278	0.921038	-0.979110	0.191643	-0.067944
150	2228828													9.575346	0.262689	-1.941088	-0.202995	-0.900823	0.383810	0.012231	0.389608	0.920900	-0.979103	0.191633	-0.068071
151	2228995													9.559832	0.263829	-1.953992	-0.202969	-0.900715	0.384078	0.012092	0.389907	0.920775	-0.979111	0.191533	-0.068247
152	2229161													9.548634	0.260442	-1.947899	-0.202904	-0.900642	0.384284	0.011914	0.390148	0.920675	-0.979126	0.191387	-0.068432
153	2229328													9.545784	0.219821	-1.937533	-0.202849	-0.900577	0.384465	0.011763	0.390358	0.920588	-0.979139	0.191263	-0.068590
154	2229495													9.518500	0.153636	-1.942768	-0.202840	-0.900637	0.384328	0.011544	0.390260	0.920632	-0.979144	0.191178	-0.068764
155	2229661													9.502561	0.144637	-1.960349	-0.202958	-0.900706	0.384105	0.011267	0.390095	0.920706	-0.979123	0.191192	-0.069024
156	2229828													9.560899	0.176761	-1.979485	-0.203142	-0.900832	0.383711	0.010976	0.389762	0.920850	-0.979088	0.191275	-0.069289
157	2229995													9.576048	0.204073	-1.981855	-0.203249	-0.901052	0.383139	0.010738	0.389232	0.921077	-0.979068	0.191322	-0.069435
158	2230161													9.510519	0.219627	-1.993768	-0.203281	-0.901277	0.382593	0.010602	0.388702	0.921302	-0.979063	0.191340	-0.069461
159	2230328													9.571054	0.205799	-1.999240	-0.203406	-0.901412	0.382209	0.010424	0.388354	0.921451	-0.979039	0.191412	-0.069597
160	2230495													9.513353	0.228138	-2.008581	-0.203451	-0.901535	0.381894	0.010280	0.388063	0.921575	-0.979031	0.191421	-0.069684
161	2230661													9.509093	0.295311	-1.995603	-0.203670	-0.901523	0.381804	0.010291	0.387985	0.921608	-0.978985	0.191633	-0.069743
162	2230828													9.569427	0.286887	-1.991837	-0.203854	-0.901452	0.381875	0.010408	0.388048	0.921580	-0.978946	0.191843	-0.069723
163	2230995													9.579575	0.231974	-2.010856	-0.203967	-0.901324	0.382115	0.010527	0.388279	0.921482	-0.978921	0.191974	-0.069708
164	2231161													9.540641	0.202423	-1.996262	-0.203991	-0.901228	0.382329	0.010578	0.388489	0.921393	-0.978916	0.192000	-0.069715
165	2231328													9.535998	0.191888	-2.013480	-0.204014	-0.901165	0.382465	0.010528	0.388640	0.921330	-0.978911	0.191991	-0.069800
166	2231495													9.549413	0.203953	-2.025251	-0.203996	-0.901133	0.382552	0.010489	0.388734	0.921290	-0.978916	0.191952	-0.069848
167	2231661													9.553991	0.201165	-2.026654	-0.203908	-0.901115	0.382641	0.010507	0.388816	0.921256	-0.978934	0.191872	-0.069815
168	2231828													9.551198	0.193401	-2.011620	-0.203727	-0.901151	0.382651	0.010561	0.388802	0.921261	-0.978971	0.191727	-0.069692
169	2231995													9.540140	0.193679	-2.011006	-0.203508	-0.901224	0.382597	0.010586	0.388726	0.921293	-0.979016	0.191541	-0.069568
170	2232161													9.540321	0.214467	-1.990777	-0.203316	-0.901326	0.382457	0.010585	0.388569	0.921359	-0.979056	0.191375	-0.069462
171	2232328													9.513097	0.227715	-1.984865	-0.203183	-0.901439	0.382262	0.010597	0.388358	0.921447	-0.979083	0.191273	-0.069355
172	2232495													9.542948	0.238837	-1.955148	-0.203119	-0.901483	0.382192	0.010641	0.388274	0.921483	-0.979096	0.191237	-0.069273
173	2232661													9.539733	0.264364	-1.975651	-0.203095	-0.901506	0.382152	0.010711	0.388217	0.921506	-0.979100	0.191247	-0.069189
174	2232828													9.531719	0.262937	-1.962973	-0.203095	-0.901489	0.382191	0.010776	0.388244	0.921493	-0.979100	0.191269	-0.069136
175	2232995													9.514224	0.259322	-1.953775	-0.203159	-0.901462	0.382220	0.010822	0.388270	0.921482	-0.979086	0.191344	-0.069125
176	2233161													9.514349	0.242092	-1.965764	-0.203288	-0.901380	0.382345	0.010845	0.388402	0.921426	-0.979059	0.191461	-0.069182
177	2233328													9.549178	0.248898	-1.969611	-0.203421	-0.901311	0.382437	0.010826	0.388509	0.921381	-0.979031	0.191569	-0.069273
178	2233495													9.572983	0.220376	-1.968525	-0.203489	-0.901234	0.382582	0.010738	0.388680	0.921310	-0.979018	0.191585	-0.069414
179	2233661													9.572559	0.207673	-1.975990	-0.203470	-0.901260	0.382532	0.010610	0.388653	0.921323	-0.979024	0.191520	-0.069517
180	2233828													9.567498	0.176200	-1.987343	-0.203352	-0.901304	0.382490	0.010490	0.388625	0.921336	-0.979050	0.191368	-0.069573
181	2233995													9.561130	0.188080	-1.993930	-0.203135	-0.901407	0.382363	0.010360	0.388504	0.921389	-0.979096	0.191127	-0.069580
182	2234161													9.548536	0.176529	-1.969509	-0.202859	-0.901555	0.382160	0.010228	0.388303	0.921475	-0.979155	0.190838	-0.069550
183	2234328													9.526924	0.206561	-1.945935	-0.202623	-0.901763	0.381795	0.010073	0.387943	0.921629	-0.979205	0.190589	-0.069522
184	2234495													9.540969	0.206893	-1.955683	-0.202453	-0.901941	0.381465	0.009934	0.387620	0.921766	-0.979242	0.190404	-0.069515
185	2234661													9.556573	0.226963	-1.938545	-0.202251	-0.902085	0.381231	0.009751	0.387401	0.921860	-0.979285	0.190165	-0.069557
186	2234828													9.546733	0.239040	-1.949065	-0.202104	-0.902212	0.381009	0.009619	0.387190	0.921950	-0.979317	0.189995	-0.069574
187	2234995													9.548012	0.237549	-1.940429	-0.202004	-0.902310	0.380829	0.009503	0.387021	0.922022	-0.979339	0.189871	-0.069605
188	2235161													9.536208	0.223312	-1.953308	-0.201901	-0.902354	0.380780	0.009407	0.386982	0.922039	-0.979361	0.189742	-0.069644
189	2235328													9.535975	0.207470	-1.948590	-0.201866	-0.902363	0.380777	0.009383	0.386981	0.922040	-0.979368	0.189701	-0.069651
190	2235495													9.546932	0.204323	-1.947989	-0.201855	-0.902347	0.380820	0.009375	0.387026	0.922021	-0.979371	0.189684	-0.069663
191	2235661													9.525186	0.191373	-1.964278	-0.201887	-0.902315	0.380879	0.009371	0.387089	0.921995	-0.979364	0.189708	-0.069693
192	2235828													9.544822	0.193412	-1.948640	-0.201921	-0.902266	0.380977	0.009400	0.387186	0.921954	-0.979357	0.189743	-0.069700
193	2235995													9.542147	0.188334	-1.955427	-0.201990	-0.902188	0.381125	0.009485	0.387326	0.921894	-0.979342	0.189829	-0.069678
194	2236161													9.564105	0.190944	-1.969299	-0.202019	-0.902165	0.381165	0.009529	0.387361	0.921879	-0.979335	0.189869	-0.069657
195	2236328													9.541225	0.196727	-1.969163	-0.202032	-0.902140	0.381217	0.009577	0.387405	0.921860	-0.979332	0.189896	-0.069629
196	2236495													9.539136	0.184196	-1.965555	-0.202076	-0.902163	0.381139	0.009639	0.387316	0.921897	-0.979322	0.189967	-0.069571
197	2236661													9.541081	0.195948	-1.975890	-0.202134	-0.902152	0.381135	0.009691	0.387307	0.921900	-0.979310	0.190040	-0.069545
198	2236828													9.539330	0.204920	-1.998453	-0.202185	-0.902169	0.381068	0.009745	0.387231	0.921931	-0.979299	0.190114	-0.069500
199	2236995													9.538907	0.215788	-1.977099	-0.202262	-0.902173	0.381017	0.009818	0.387170	0.921956	-0.979282	0.190217	-0.069452
200	2237161													9.568164	0.198000	-1.983236	-0.202319	-0.902209	0.380902	0.009889	0.387043	0.922009	-0.979270	0.190307	-0.069385
201	2237328													9.546495	0.223302	-1.995055	-0.202308	-0.902230	0.380858	0.009962	0.386984	0.922033	-0.979271	0.190329	-0.069302
202	2237495													9.548873	0.217516	-2.010358	-0.202237	-0.902258	0.380829	0.010017	0.386938	0.922051	-0.979285	0.190288	-0.069215
203	2237661													9.545438	0.222841	-1.985324	-0.202123	-0.902282	0.380832	0.010038	0.386929	0.922055	-0.979309	0.190191	-0.069150
204	2237828													9.523561	0.225051	-1.983030	-0.202006	-0.902298	0.380857	0.009979	0.386958	0.922044	-0.979333	0.190059	-0.069164
205	2237995													9.534036	0.213861	-1.977210	-0.201942	-0.902350	0.380766	0.009872	0.386881	0.922077	-0.979348	0.189965	-0.069219
206	2238161													9.557770	0.177083	-1.962682	-0.201904	-0.902383	0.380710	0.009717	0.386851	0.922091	-0.979357	0.189873	-0.069338
207	2238328													9.545077	0.157848	-1.967995	-0.201736	-0.902468	0.380598	0.009562	0.386754	0.922133	-0.979393	0.189666	-0.069393
208	2238495													9.466442	0.166464	-1.945284	-0.201559	-0.902593	0.380395	0.009466	0.386553	0.922219	-0.979431	0.189482	-0.069369
209	2238661													9.505381	0.144350	-1.982708	-0.201640	-0.902656	0.380202	0.009417	0.386370	0.922296	-0.979414	0.189552	-0.069408
210	2238828													9.573920	0.140908	-1.977582	-0.201650	-0.902711	0.380066	0.009420	0.386232	0.922354	-0.979412	0.189573	-0.069380
211	2238995													9.571422	0.199012	-1.958978	-0.201646	-0.902770	0.379928	0.009607	0.386054	0.922426	-0.979411	0.189654	-0.069174
212	2239161													9.578565	0.249791	-1.948571	-0.201611	-0.902781	0.379921	0.009907	0.385987	0.922451	-0.979416	0.189740	-0.068876
213	2239328													9.549618	0.260548	-1.949126	-0.201538	-0.902809	0.379893	0.010160	0.385904	0.922483	-0.979428	0.189775	-0.068601
214	2239495													9.547480	0.227483	-1.949344	-0.201463	-0.902775	0.380013	0.010306	0.385993	0.922444	-0.979442	0.189755	-0.068459
215	2239661													9.532153	0.229322	-1.937285	-0.201357	-0.902732	0.380172	0.010341	0.386141	0.922382	-0.979463	0.189660	-0.068418
216	2239828													9.539375	0.244033	-1.930241	-0.201230	-0.902663	0.380403	0.010333	0.386370	0.922286	-0.979489	0.189523	-0.068422
217	2239995													9.546591	0.205629	-1.923497	-0.201080	-0.902583	0.380672	0.010377	0.386625	0.922179	-0.979520	0.189382	-0.068376
218	2240161													9.554646	0.152919	-1.940942	-0.200928	-0.902520	0.380902	0.010414	0.386842	0.922087	-0.979551	0.189239	-0.068329
219	2240328													9.537464	0.109365	-1.943170	-0.200754	-0.902539	0.380949	0.010401	0.386880	0.922071	-0.979586	0.189072	-0.068280
220	2240495													9.521304	0.114002	-1.915658	-0.200592	-0.902644	0.380784	0.010348	0.386710	0.922143	-0.979620	0.188915	-0.068231
221	2240661													9.561700	0.130176	-1.935295	-0.200450	-0.902824	0.380433	0.010273	0.386356	0.922293	-0.979650	0.188781	-0.068171
222	2240828													9.569141	0.190683	-1.935359	-0.200314	-0.903018	0.380044	0.010291	0.385946	0.922464	-0.979678	0.188693	-0.068017
223	2240995													9.502193	0.213504	-1.942510	-0.200164	-0.903153	0.379800	0.010399	0.385665	0.922580	-0.979707	0.188617	-0.067805
224	2241161													9.564418	0.203341	-1.946072	-0.200222	-0.903243	0.379557	0.010502	0.385400	0.922690	-0.979694	0.188729	-0.067680
225	2241328													9.493132	0.210267	-1.942217	-0.200300	-0.903312	0.379351	0.010585	0.385180	0.922781	-0.979677	0.188848	-0.067590
226	2241495													9.528520	0.271457	-1.938006	-0.200632	-0.903245	0.379335	0.010771	0.385151	0.922791	-0.979607	0.189227	-0.067545
227	2241662													9.541802	0.279568	-1.939757	-0.200923	-0.903103	0.379520	0.011074	0.385302	0.922724	-0.979544	0.189599	-0.067415
228	2241828													9.525741	0.221646	-1.996833	-0.201292	-0.902951	0.379685	0.011332	0.385447	0.922661	-0.979466	0.190027	-0.067355
229	2241995													9.528544	0.220384	-1.980140	-0.201675	-0.902782	0.379884	0.011530	0.385638	0.922578	-0.979385	0.190441	-0.067365
230	2242162													9.530540	0.209548	-1.987724	-0.202029	-0.902617	0.380088	0.011622	0.385854	0.922487	-0.979311	0.190787	-0.067464
231	2242328													9.552145	0.203482	-2.002770	-0.202295	-0.902503	0.380217	0.011642	0.386000	0.922425	-0.979255	0.191028	-0.067579
232	2242495													9.556705	0.199081	-1.973228	-0.202480	-0.902445	0.380256	0.011713	0.386040	0.922408	-0.979216	0.191223	-0.067595
233	2242662													9.559842	0.195222	-2.014656	-0.202587	-0.902415	0.380270	0.011806	0.386043	0.922405	-0.979193	0.191357	-0.067553
234	2242828													9.538167	0.187164	-1.992223	-0.202647	-0.902414	0.380241	0.011874	0.386005	0.922420	-0.979180	0.191440	-0.067507
235	2242995													9.537604	0.188942	-1.994000	-0.202681	-0.902464	0.380105	0.011919	0.385859	0.922481	-0.979172	0.191499	-0.067450
236	2243162													9.548953	0.213446	-1.991987	-0.202684	-0.902491	0.380039	0.011921	0.385791	0.922509	-0.979172	0.191508	-0.067435
237	2243328													9.562035	0.228670	-1.981079	-0.202698	-0.902554	0.379880	0.011994	0.385616	0.922581	-0.979168	0.191562	-0.067338
238	2243495													9.555311	0.249623	-1.989398	-0.202675	-0.902562	0.379875	0.012077	0.385593	0.922590	-0.979172	0.191574	-0.067249
239	2243662													9.531937	0.251765	-1.980310	-0.202623	-0.902583	0.379852	0.012187	0.385544	0.922609	-0.979181	0.191571	-0.067120
240	2243828													9.544972	0.266299	-1.987878	-0.202558	-0.902548	0.379970	0.012278	0.385642	0.922567	-0.979193	0.191538	-0.067033
241	2243995													9.523973	0.226499	-1.982356	-0.202491	-0.902508	0.380099	0.012398	0.385746	0.922522	-0.979206	0.191515	-0.066921
242	2244162													9.550756	0.231731	-1.992880	-0.202432	-0.902492	0.380170	0.012492	0.385796	0.922499	-0.979217	0.191493	-0.066824
243	2244328													9.553209	0.205246	-1.972503	-0.202354	-0.902480	0.380241	0.012579	0.385846	0.922477	-0.979232	0.191450	-0.066726
244	2244495													9.544010	0.206801	-1.984434	-0.202266	-0.902501	0.380238	0.012653	0.385822	0.922486	-0.979249	0.191399	-0.066619
245	2244828													9.548062	0.191624	-1.972729	-0.202176	-0.902542	0.380187	0.012721	0.385751	0.922515	-0.979267	0.191347	-0.066508
246	2244995													9.541368	0.209273	-1.964185	-0.202071	-0.902583	0.380146	0.012769	0.385693	0.922539	-0.979288	0.191273	-0.066412
247	2245162													9.558469	0.227983	-1.948808	-0.201959	-0.902675	0.379987	0.012839	0.385509	0.922615	-0.979310	0.191209	-0.066268
248	2245328													9.564077	0.247035	-1.961610	-0.201796	-0.902770	0.379848	0.012869	0.385349	0.922681	-0.979343	0.191081	-0.066144
249	2245495													9.545632	0.253517	-1.946213	-0.201622	-0.902852	0.379746	0.012869	0.385233	0.922730	-0.979379	0.190929	-0.066052
250	2245662													9.520059	0.246422	-1.945404	-0.201477	-0.902943	0.379607	0.012854	0.385084	0.922792	-0.979409	0.190801	-0.065979
251	2245828													9.514853	0.244738	-1.939252	-0.201401	-0.902999	0.379514	0.012826	0.384988	0.922832	-0.979425	0.190727	-0.065955
252	2245995													9.524023	0.223495	-1.944520	-0.201386	-0.902962	0.379611	0.012812	0.385089	0.922790	-0.979428	0.190700	-0.065983
253	2246162													9.533055	0.227875	-1.961783	-0.201434	-0.902899	0.379734	0.012784	0.385224	0.922734	-0.979419	0.190725	-0.066054
254	2246328													9.554385	0.206556	-1.960029	-0.201463	-0.902889	0.379743	0.012779	0.385236	0.922730	-0.979413	0.190748	-0.066072
255	2246495													9.553470	0.210281	-1.971241	-0.201455	-0.902883	0.379761	0.012795	0.385252	0.922723	-0.979414	0.190746	-0.066059
256	2246662													9.541042	0.212234	-1.975711	-0.201481	-0.902841	0.379847	0.012805	0.385339	0.922686	-0.979409	0.190768	-0.066078
257	2246828													9.563148	0.221569	-1.975121	-0.201494	-0.902799	0.379939	0.012805	0.385434	0.922646	-0.979406	0.190773	-0.066102
258	2246995													9.550820	0.220069	-1.978998	-0.201451	-0.902763	0.380047	0.012808	0.385541	0.922602	-0.979415	0.190727	-0.066105
259	2247162													9.547572	0.209648	-1.988915	-0.201394	-0.902767	0.380069	0.012806	0.385560	0.922594	-0.979427	0.190672	-0.066089
260	2247328													9.561019	0.213199	-1.960341	-0.201285	-0.902773	0.380112	0.012765	0.385604	0.922576	-0.979450	0.190553	-0.066092
261	2247495													9.556236	0.200518	-1.960963	-0.201082	-0.902801	0.380152	0.012706	0.385642	0.922561	-0.979492	0.190341	-0.066075
262	2247662													9.562658	0.200437	-1.958497	-0.200854	-0.902910	0.380015	0.012641	0.385499	0.922622	-0.979540	0.190116	-0.066015
263	2247828													9.540727	0.204954	-1.943771	-0.200628	-0.902993	0.379937	0.012577	0.385417	0.922657	-0.979587	0.189889	-0.065968
264	2247995													9.538967	0.211048	-1.954604	-0.200389	-0.903065	0.379893	0.012542	0.385362	0.922680	-0.979636	0.189659	-0.065896
265	2248162													9.568363	0.216133	-1.966958	-0.200176	-0.903112	0.379893	0.012506	0.385354	0.922684	-0.979680	0.189450	-0.065844
266	2248328													9.555701	0.198070	-1.943274	-0.199943	-0.903182	0.379849	0.012469	0.385300	0.922707	-0.979728	0.189226	-0.065776
267	2248495													9.545408	0.227138	-1.937972	-0.199696	-0.903255	0.379804	0.012452	0.385241	0.922732	-0.979779	0.188995	-0.065683
268	2248662													9.560308	0.223986	-1.947008	-0.199416	-0.903320	0.379798	0.012405	0.385225	0.922739	-0.979836	0.188720	-0.065614
269	2248828													9.530592	0.218243	-1.940387	-0.199099	-0.903386	0.379807	0.012399	0.385213	0.922744	-0.979901	0.188427	-0.065495
270	2248995													9.533430	0.196868	-1.967819	-0.198869	-0.903433	0.379816	0.012351	0.385216	0.922744	-0.979948	0.188196	-0.065449
271	2249162													9.549477	0.186094	-1.958501	-0.198615	-0.903510	0.379764	0.012285	0.385159	0.922769	-0.980001	0.187941	-0.065399
272	2249328													9.516595	0.170000	-1.938269	-0.198455	-0.903599	0.379636	0.012167	0.385040	0.922820	-0.980035	0.187757	-0.065419
273	2249495													9.555107	0.166366	-1.938502	-0.198288	-0.903714	0.379452	0.012101	0.384852	0.922899	-0.980069	0.187591	-0.065376
274	2249662													9.534628	0.186624	-1.939830	-0.198076	-0.903840	0.379262	0.012100	0.384644	0.922986	-0.980112	0.187410	-0.065252
275	2249828													9.486913	0.215052	-1.962744	-0.197955	-0.903948	0.379067	0.012167	0.384423	0.923077	-0.980136	0.187340	-0.065100
276	2249995													9.587762	0.201966	-1.962934	-0.197917	-0.904032	0.378888	0.012196	0.384233	0.923156	-0.980143	0.187328	-0.065021
277	2250162													9.619258	0.224571	-1.950696	-0.197753	-0.904123	0.378755	0.012277	0.384071	0.923222	-0.980175	0.187220	-0.064851
278	2250328													9.616643	0.303645	-1.937389	-0.197556	-0.904161	0.378767	0.012536	0.384020	0.923240	-0.980212	0.187139	-0.064531
279	2250495													9.601690	0.288378	-1.904941	-0.197254	-0.904163	0.378919	0.012845	0.384096	0.923204	-0.980268	0.186973	-0.064150
280	2250662													9.585013	0.259346	-1.881935	-0.196860	-0.904127	0.379212	0.012994	0.384340	0.923100	-0.980346	0.186648	-0.063913
281	2250828													9.573688	0.218962	-1.896144	-0.196414	-0.904108	0.379488	0.012972	0.384597	0.922994	-0.980435	0.186212	-0.063812
282	2250995													9.534782	0.215279	-1.872703	-0.195948	-0.904099	0.379750	0.012806	0.384865	0.922884	-0.980531	0.185700	-0.063836
283	2251162													9.525321	0.193174	-1.874586	-0.195528	-0.904102	0.379958	0.012605	0.385088	0.922794	-0.980617	0.185222	-0.063899
284	2251328													9.539157	0.175414	-1.846242	-0.195127	-0.904102	0.380165	0.012478	0.385296	0.922709	-0.980699	0.184789	-0.063900
285	2251495													9.525818	0.154053	-1.840787	-0.194818	-0.904151	0.380207	0.012392	0.385335	0.922694	-0.980761	0.184469	-0.063866
286	2251662													9.530753	0.137109	-1.852634	-0.194538	-0.904244	0.380129	0.012268	0.385259	0.922727	-0.980818	0.184169	-0.063854
287	2251828													9.538010	0.150366	-1.853402	-0.194386	-0.904372	0.379901	0.012073	0.385053	0.922815	-0.980851	0.183969	-0.063930
288	2251995													9.586457	0.182280	-1.841778	-0.194297	-0.904522	0.379590	0.011924	0.384758	0.922940	-0.980870	0.183851	-0.063972
289	2252162													9.569253	0.214565	-1.842474	-0.194145	-0.904636	0.379397	0.011882	0.384559	0.923024	-0.980901	0.183708	-0.063911
290	2252328													9.527294	0.234177	-1.864538	-0.194145	-0.904662	0.379334	0.011847	0.384502	0.923048	-0.980901	0.183699	-0.063932
291	2252495													9.566652	0.173128	-1.893102	-0.194125	-0.904689	0.379280	0.011776	0.384458	0.923068	-0.980906	0.183657	-0.063979
292	2252662													9.530511	0.207170	-1.877705	-0.194217	-0.904652	0.379320	0.011775	0.384506	0.923048	-0.980888	0.183738	-0.064025
293	2252828													9.573167	0.234095	-1.901913	-0.194340	-0.904570	0.379455	0.011917	0.384624	0.922996	-0.980862	0.183897	-0.063968
294	2252995													9.560217	0.213256	-1.906339	-0.194392	-0.904452	0.379709	0.012105	0.384851	0.922899	-0.980849	0.184000	-0.063863
295	2253162													9.543592	0.179599	-1.921344	-0.194478	-0.904314	0.379992	0.012202	0.385128	0.922782	-0.980831	0.184098	-0.063864
296	2253328													9.520084	0.167935	-1.913503	-0.194576	-0.904226	0.380153	0.012222	0.385295	0.922713	-0.980811	0.184184	-0.063917
297	2253495													9.505661	0.201790	-1.918171	-0.194680	-0.904165	0.380244	0.012219	0.385396	0.922671	-0.980791	0.184272	-0.063981
298	2253662													9.526245	0.196251	-1.916018	-0.194756	-0.904079	0.380410	0.012262	0.385562	0.922601	-0.980775	0.184347	-0.064004
299	2253828													9.555115	0.192868	-1.930465	-0.194761	-0.903998	0.380600	0.012356	0.385739	0.922525	-0.980773	0.184375	-0.063957
300	2253995													9.540895	0.177541	-1.962555	-0.194713	-0.903964	0.380704	0.012437	0.385827	0.922487	-0.980781	0.184355	-0.063883
301	2254162													9.556806	0.176039	-1.946311	-0.194658	-0.903949	0.380767	0.012459	0.385883	0.922463	-0.980792	0.184309	-0.063853
302	2254328													9.579658	0.184207	-1.932833	-0.194605	-0.903911	0.380886	0.012489	0.385995	0.922416	-0.980802	0.184264	-0.063827
303	2254495													9.595654	0.216829	-1.925816	-0.194468	-0.903878	0.381034	0.012589	0.386118	0.922363	-0.980828	0.184167	-0.063709
304	2254662													9.586109	0.209889	-1.929248	-0.194276	-0.903867	0.381158	0.012708	0.386210	0.922323	-0.980865	0.184029	-0.063545
305	2254828													9.573960	0.214858	-1.902051	-0.194108	-0.903835	0.381318	0.012888	0.386328	0.922271	-0.980895	0.183935	-0.063341
306	2254995													9.581740	0.213643	-1.907665	-0.193893	-0.903809	0.381489	0.013049	0.386458	0.922215	-0.980936	0.183789	-0.063138
307	2255162													9.547201	0.226973	-1.879780	-0.193670	-0.903754	0.381735	0.013196	0.386667	0.922125	-0.980978	0.183626	-0.062960
308	2255328													9.544508	0.218172	-1.875830	-0.193505	-0.903701	0.381943	0.013272	0.386854	0.922046	-0.981010	0.183489	-0.062864
309	2255495													9.561229	0.209313	-1.885716	-0.193373	-0.903673	0.382076	0.013329	0.386971	0.921996	-0.981035	0.183382	-0.062784
310	2255662													9.556534	0.189975	-1.878883	-0.193244	-0.903664	0.382163	0.013323	0.387052	0.921962	-0.981060	0.183255	-0.062756
311	2255828													9.554585	0.184539	-1.844902	-0.193128	-0.903678	0.382189	0.013265	0.387082	0.921950	-0.981084	0.183124	-0.062769
312	2255995													9.558421	0.185763	-1.878146	-0.193000	-0.903738	0.382111	0.013176	0.387010	0.921981	-0.981110	0.182977	-0.062785
313	2256162													9.555939	0.197745	-1.855194	-0.192892	-0.903834	0.381939	0.013061	0.386850	0.922050	-0.981133	0.182844	-0.062815
314	2256328													9.577819	0.203263	-1.873926	-0.192826	-0.903971	0.381646	0.012896	0.386577	0.922167	-0.981148	0.182740	-0.062885
315	2256495													9.583949	0.198711	-1.849478	-0.192755	-0.904085	0.381412	0.012722	0.386366	0.922258	-0.981164	0.182622	-0.062972
316	2256662													9.583918	0.183805	-1.862443	-0.192678	-0.904182	0.381223	0.012538	0.386202	0.922329	-0.981182	0.182492	-0.063076
317	2256828													9.559926	0.207343	-1.851118	-0.192608	-0.904272	0.381043	0.012329	0.386053	0.922394	-0.981198	0.182358	-0.063208
318	2256995													9.562843	0.189782	-1.849077	-0.192564	-0.904348	0.380885	0.012157	0.385922	0.922452	-0.981209	0.182261	-0.063320
319	2257162													9.557145	0.194525	-1.831617	-0.192553	-0.904382	0.380810	0.011997	0.385874	0.922474	-0.981213	0.182193	-0.063451
320	2257328													9.544975	0.195940	-1.840668	-0.192622	-0.904368	0.380810	0.011874	0.385901	0.922464	-0.981201	0.182208	-0.063594
321	2257495													9.543750	0.193305	-1.858010	-0.192768	-0.904335	0.380813	0.011814	0.385924	0.922455	-0.981173	0.182318	-0.063710
322	2257662													9.543344	0.180062	-1.853508	-0.192952	-0.904263	0.380890	0.011819	0.386015	0.922417	-0.981137	0.182484	-0.063795
323	2257828													9.558281	0.183868	-1.863653	-0.193198	-0.904185	0.380950	0.011822	0.386092	0.922384	-0.981088	0.182707	-0.063903
324	2257995													9.573164	0.188411	-1.852376	-0.193467	-0.904100	0.381017	0.011896	0.386164	0.922353	-0.981035	0.182977	-0.063955
325	2258162													9.563670	0.201688	-1.886674	-0.193700	-0.904018	0.381093	0.011963	0.386245	0.922319	-0.980988	0.183212	-0.064001
326	2258329													9.581398	0.201619	-1.898437	-0.193961	-0.903912	0.381212	0.012037	0.386369	0.922266	-0.980935	0.183472	-0.064060
327	2258495													9.575087	0.212706	-1.908620	-0.194149	-0.903824	0.381324	0.012084	0.386488	0.922215	-0.980898	0.183655	-0.064115
328	2258662													9.569300	0.190211	-1.912738	-0.194330	-0.903717	0.381485	0.012089	0.386663	0.922142	-0.980862	0.183811	-0.064216
329	2258829													9.569414	0.197938	-1.884700	-0.194533	-0.903589	0.381686	0.012023	0.386894	0.922046	-0.980822	0.183958	-0.064400
330	2258995													9.562164	0.154716	-1.914180	-0.194703	-0.903518	0.381767	0.011933	0.387005	0.922000	-0.980790	0.184072	-0.064570
331	2259162													9.521026	0.160171	-1.892896	-0.194880	-0.903457	0.381820	0.011814	0.387093	0.921965	-0.980756	0.184184	-0.064763
332	2259329													9.484838	0.149441	-1.921945	-0.195208	-0.903389	0.381815	0.011769	0.387119	0.921955	-0.980691	0.184467	-0.064937
333	2259495													9.610415	0.124980	-1.952958	-0.195621	-0.903323	0.381760	0.011763	0.387092	0.921966	-0.980609	0.184846	-0.065097
334	2259662													9.569862	0.150858	-1.940606	-0.195912	-0.903270	0.381735	0.011830	0.387073	0.921973	-0.980550	0.185142	-0.065147
335	2259829													9.593304	0.208181	-1.906697	-0.196263	-0.903209	0.381700	0.012126	0.387006	0.921998	-0.980476	0.185582	-0.065003
336	2259995													9.601852	0.215827	-1.914620	-0.196499	-0.903131	0.381761	0.012430	0.387026	0.921985	-0.980425	0.185915	-0.064825
337	2260162													9.558881	0.217841	-1.912934	-0.196680	-0.903018	0.381936	0.012685	0.387168	0.921922	-0.980386	0.186169	-0.064694
338	2260329													9.558509	0.215338	-1.919899	-0.196824	-0.902908	0.382123	0.012835	0.387341	0.921847	-0.980355	0.186346	-0.064649
339	2260495													9.580468	0.230806	-1.920570	-0.196845	-0.902800	0.382367	0.012904	0.387579	0.921746	-0.980350	0.186376	-0.064643
340	2260662													9.552300	0.213535	-1.911125	-0.196810	-0.902694	0.382635	0.012915	0.387848	0.921633	-0.980357	0.186329	-0.064674
341	2260829													9.550466	0.182813	-1.913946	-0.196742	-0.902600	0.382893	0.012902	0.388108	0.921524	-0.980370	0.186242	-0.064711
342	2260995													9.537692	0.157859	-1.888054	-0.196739	-0.902502	0.383123	0.012879	0.388348	0.921423	-0.980371	0.186215	-0.064780
343	2261162													9.526747	0.116903	-1.908171	-0.196785	-0.902476	0.383162	0.012814	0.388403	0.921401	-0.980363	0.186227	-0.064867
344	2261329													9.525366	0.120497	-1.896490	-0.196917	-0.902487	0.383067	0.012720	0.388332	0.921432	-0.980338	0.186318	-0.064989
345	2261495													9.559392	0.146369	-1.912048	-0.197101	-0.902566	0.382787	0.012635	0.388076	0.921541	-0.980302	0.186473	-0.065086
346	2261662													9.544145	0.180224	-1.916556	-0.197197	-0.902694	0.382436	0.012629	0.387725	0.921689	-0.980283	0.186584	-0.065058
347	2261829													9.559663	0.170452	-1.907606	-0.197491	-0.902787	0.382063	0.012593	0.387371	0.921838	-0.980224	0.186866	-0.065134
348	2261995													9.570568	0.159445	-1.942365	-0.197682	-0.902897	0.381705	0.012526	0.387031	0.921982	-0.980186	0.187040	-0.065200
349	2262162													9.514221	0.193654	-1.923014	-0.197978	-0.902975	0.381366	0.012527	0.386705	0.922118	-0.980126	0.187337	-0.065247
350	2262329													9.549498	0.233465	-1.945327	-0.198365	-0.902979	0.381156	0.012711	0.386481	0.922210	-0.980046	0.187779	-0.065186
351	2262495													9.540592	0.221523	-1.949082	-0.198745	-0.902916	0.381109	0.012902	0.386422	0.922232	-0.979966	0.188206	-0.065150
352	2262662													9.530999	0.192456	-1.935479	-0.199172	-0.902839	0.381067	0.013014	0.386387	0.922245	-0.979878	0.188645	-0.065207
353	2262829													9.528948	0.179890	-1.942730	-0.199684	-0.902752	0.381005	0.013017	0.386358	0.922257	-0.979774	0.189120	-0.065398
354	2262995													9.538549	0.191795	-1.947604	-0.200189	-0.902688	0.380891	0.012966	0.386286	0.922288	-0.979672	0.189571	-0.065626
355	2263162													9.545722	0.173244	-1.963411	-0.200620	-0.902636	0.380788	0.012995	0.386204	0.922322	-0.979583	0.189984	-0.065751
356	2263329													9.559402	0.165872	-1.967017	-0.201006	-0.902623	0.380616	0.013054	0.386043	0.922388	-0.979503	0.190375	-0.065814
357	2263495													9.561538	0.154358	-1.970088	-0.201316	-0.902652	0.380382	0.013127	0.385812	0.922484	-0.979438	0.190704	-0.065821
358	2263662													9.546070	0.170613	-1.981642	-0.201588	-0.902702	0.380121	0.013164	0.385556	0.922590	-0.979382	0.190987	-0.065841
359	2263829													9.551705	0.214079	-1.973913	-0.201865	-0.902746	0.379869	0.013195	0.385312	0.922692	-0.979325	0.191271	-0.065869
360	2263995													9.552875	0.211936	-1.970949	-0.202140	-0.902772	0.379660	0.013267	0.385103	0.922778	-0.979267	0.191567	-0.065867
361	2264162													9.535262	0.235041	-1.974660	-0.202384	-0.902755	0.379572	0.013398	0.385004	0.922818	-0.979215	0.191849	-0.065824
362	2264329													9.553146	0.236337	-1.982249	-0.202636	-0.902690	0.379592	0.013533	0.385015	0.922811	-0.979161	0.192132	-0.065802
363	2264495													9.560977	0.248453	-1.979791	-0.202874	-0.902562	0.379769	0.013689	0.385182	0.922739	-0.979109	0.192398	-0.065788
364	2264662													9.544729	0.227206	-1.991547	-0.203062	-0.902436	0.379966	0.013828	0.385369	0.922659	-0.979068	0.192611	-0.065775
365	2264829													9.555672	0.215232	-1.988216	-0.203217	-0.902289	0.380234	0.013934	0.385633	0.922547	-0.979035	0.192775	-0.065794
366	2264995													9.525460	0.178182	-1.963249	-0.203346	-0.902183	0.380416	0.014005	0.385814	0.922470	-0.979007	0.192909	-0.065819
367	2265162													9.545004	0.165869	-1.971090	-0.203432	-0.902079	0.380616	0.014043	0.386017	0.922385	-0.978988	0.192987	-0.065860
368	2265329													9.535956	0.168160	-1.976316	-0.203516	-0.902015	0.380724	0.014077	0.386127	0.922338	-0.978970	0.193070	-0.065885
369	2265495													9.533772	0.143327	-1.978619	-0.203602	-0.901995	0.380724	0.014107	0.386126	0.922338	-0.978952	0.193161	-0.065892
370	2265662													9.529749	0.170484	-1.967846	-0.203750	-0.902023	0.380578	0.014125	0.385984	0.922398	-0.978921	0.193314	-0.065903
371	2265829													9.562610	0.178473	-1.959836	-0.203875	-0.902059	0.380427	0.014121	0.385838	0.922458	-0.978895	0.193439	-0.065925
372	2265995													9.553545	0.192183	-1.968540	-0.203958	-0.902140	0.380190	0.014117	0.385603	0.922557	-0.978878	0.193530	-0.065911
373	2266162													9.517794	0.201170	-1.983046	-0.204030	-0.902219	0.379963	0.014072	0.385385	0.922649	-0.978863	0.193595	-0.065934
374	2266329													9.527437	0.195633	-1.997928	-0.204160	-0.902284	0.379740	0.014026	0.385175	0.922737	-0.978837	0.193712	-0.065982
375	2266495													9.531996	0.202050	-1.994023	-0.204304	-0.902323	0.379571	0.013971	0.385022	0.922802	-0.978808	0.193835	-0.066055
376	2266662													9.525172	0.212869	-1.996230	-0.204468	-0.902335	0.379452	0.013947	0.384917	0.922846	-0.978774	0.193985	-0.066118
377	2266829													9.556162	0.214472	-2.013573	-0.204598	-0.902337	0.379378	0.013970	0.384845	0.922875	-0.978746	0.194118	-0.066133
378	2266995													9.556190	0.191370	-2.004421	-0.204612	-0.902304	0.379448	0.014037	0.384904	0.922850	-0.978742	0.194153	-0.066091
379	2267162													9.533514	0.188098	-2.007422	-0.204571	-0.902273	0.379546	0.014093	0.384991	0.922813	-0.978750	0.194130	-0.066042
380	2267329													9.551424	0.187973	-1.981863	-0.204538	-0.902232	0.379660	0.014205	0.385084	0.922772	-0.978756	0.194135	-0.065948
381	2267495													9.566090	0.188785	-2.002519	-0.204474	-0.902179	0.379820	0.014333	0.385217	0.922715	-0.978767	0.194116	-0.065836
382	2267662													9.539579	0.200668	-1.985203	-0.204387	-0.902160	0.379911	0.014430	0.385285	0.922685	-0.978784	0.194067	-0.065729
383	2267829													9.540014	0.189534	-1.996394	-0.204295	-0.902118	0.380062	0.014456	0.385428	0.922625	-0.978803	0.193982	-0.065700
384	2267995													9.540277	0.167858	-1.995693	-0.204178	-0.902112	0.380139	0.014467	0.385496	0.922596	-0.978827	0.193873	-0.065660
385	2268162													9.564733	0.161575	-2.016565	-0.204057	-0.902127	0.380167	0.014443	0.385521	0.922586	-0.978852	0.193751	-0.065639
386	2268329													9.522109	0.156442	-1.985475	-0.203867	-0.902211	0.380071	0.014420	0.385415	0.922631	-0.978892	0.193574	-0.065563
387	2268495													9.459622	0.172130	-2.002955	-0.203782	-0.902274	0.379967	0.014472	0.385293	0.922681	-0.978909	0.193525	-0.065458
388	2268662													9.599374	0.139011	-2.000587	-0.203767	-0.902355	0.379781	0.014522	0.385091	0.922764	-0.978912	0.193544	-0.065365
389	2268829													9.582275	0.173950	-1.988879	-0.203617	-0.902479	0.379569	0.014660	0.384837	0.922868	-0.978941	0.193477	-0.065129
390	2268995													9.572090	0.255969	-1.992340	-0.203464	-0.902573	0.379426	0.014975	0.384618	0.922954	-0.978968	0.193470	-0.064740
391	2269162													9.570204	0.274511	-1.972369	-0.203219	-0.902619	0.379447	0.015271	0.384565	0.922972	-0.979014	0.193360	-0.064367
392	2269329													9.549614	0.255072	-1.984468	-0.202944	-0.902629	0.379572	0.015477	0.384633	0.922940	-0.979068	0.193180	-0.064089
393	2269495													9.524390	0.252164	-1.968658	-0.202649	-0.902642	0.379699	0.015555	0.384728	0.922899	-0.979128	0.192931	-0.063924
394	2269662													9.521962	0.253821	-1.941624	-0.202415	-0.902632	0.379845	0.015494	0.384874	0.922839	-0.979177	0.192682	-0.063920
395	2269829													9.553283	0.212618	-1.946013	-0.202189	-0.902615	0.380007	0.015427	0.385037	0.922772	-0.979225	0.192436	-0.063926
396	2269995													9.549542	0.178044	-1.909719	-0.201903	-0.902618	0.380152	0.015322	0.385187	0.922711	-0.979286	0.192123	-0.063940
397	2270162													9.528462	0.153416	-1.935067	-0.201673	-0.902662	0.380169	0.015206	0.385212	0.922703	-0.979335	0.191865	-0.063961
398	2270329													9.520229	0.128780	-1.913888	-0.201518	-0.902756	0.380029	0.015033	0.385092	0.922756	-0.979369	0.191665	-0.064032
399	2270495													9.537444	0.131637	-1.931583	-0.201425	-0.902928	0.379671	0.014812	0.384763	0.922897	-0.979392	0.191518	-0.064126
400	2270662													9.567860	0.173056	-1.943128	-0.201364	-0.903112	0.379264	0.014642	0.384376	0.923060	-0.979407	0.191424	-0.064177
401	2270829													9.537504	0.205884	-1.927485	-0.201297	-0.903302	0.378848	0.014575	0.383960	0.923235	-0.979422	0.191366	-0.064125
402	2270995													9.575655	0.187235	-1.942117	-0.201378	-0.903418	0.378528	0.014459	0.383661	0.923361	-0.979407	0.191418	-0.064199
403	2271162													9.516072	0.180885	-1.964061	-0.201345	-0.903521	0.378298	0.014372	0.383441	0.923454	-0.979415	0.191370	-0.064218
404	2271329													9.508621	0.259039	-1.940122	-0.201539	-0.903524	0.378188	0.014417	0.383332	0.923498	-0.979374	0.191574	-0.064230
405	2271495													9.560128	0.265930	-1.960445	-0.201706	-0.903461	0.378251	0.014593	0.383373	0.923478	-0.979337	0.191791	-0.064144
406	2271662													9.545211	0.232696	-1.962489	-0.201841	-0.903349	0.378446	0.014780	0.383545	0.923404	-0.979307	0.191974	-0.064063
407	2271829													9.547808	0.194522	-1.972572	-0.201997	-0.903216	0.378679	0.014930	0.383764	0.923310	-0.979272	0.192160	-0.064034
408	2271995													9.528039	0.181843	-1.978215	-0.202120	-0.903086	0.378923	0.015003	0.384008	0.923208	-0.979246	0.192283	-0.064066
409	2272162													9.542183	0.202315	-1.976827	-0.202216	-0.902971	0.379146	0.015058	0.384232	0.923114	-0.979225	0.192377	-0.064101
410	2272329													9.549388	0.176409	-2.002204	-0.202230	-0.902873	0.379373	0.015123	0.384451	0.923021	-0.979221	0.192400	-0.064093
411	2272495													9.537906	0.161784	-1.991218	-0.202230	-0.902815	0.379511	0.015205	0.384577	0.922968	-0.979220	0.192422	-0.064045
412	2272662													9.550895	0.148227	-1.977417	-0.202245	-0.902831	0.379464	0.015221	0.384526	0.922988	-0.979217	0.192445	-0.064027
413	2272829													9.558494	0.163522	-1.994533	-0.202216	-0.902891	0.379337	0.015218	0.384396	0.923043	-0.979223	0.192426	-0.063990
414	2272995													9.556119	0.182819	-1.981709	-0.202161	-0.902956	0.379212	0.015222	0.384263	0.923098	-0.979234	0.192387	-0.063938
415	2273162													9.550401	0.204223	-1.986826	-0.202093	-0.903045	0.379037	0.015219	0.384080	0.923174	-0.979248	0.192336	-0.063877
416	2273329													9.513610	0.218893	-1.962336	-0.202060	-0.903108	0.378903	0.015271	0.383931	0.923235	-0.979254	0.192335	-0.063786
417	2273495													9.524399	0.228337	-1.975644	-0.202091	-0.903111	0.378880	0.015331	0.383898	0.923248	-0.979247	0.192389	-0.063737
418	2273662													9.541407	0.243418	-1.984831	-0.202159	-0.903080	0.378917	0.015388	0.383929	0.923234	-0.979232	0.192471	-0.063718
419	2273829													9.551352	0.217705	-1.967654	-0.202218	-0.903058	0.378938	0.015423	0.383948	0.923226	-0.979219	0.192537	-0.063714
420	2273995													9.544835	0.194835	-1.974482	-0.202257	-0.903009	0.379035	0.015447	0.384044	0.923185	-0.979211	0.192576	-0.063726
421	2274162													9.530802	0.194963	-1.986856	-0.202260	-0.902975	0.379114	0.015406	0.384133	0.923149	-0.979211	0.192556	-0.063784
422	2274329													9.544442	0.177988	-1.973448	-0.202290	-0.902959	0.379136	0.015315	0.384176	0.923133	-0.979206	0.192548	-0.063886
423	2274495													9.550203	0.164963	-1.965916	-0.202286	-0.902999	0.379043	0.015200	0.384103	0.923165	-0.979209	0.192504	-0.063973
424	2274662													9.540005	0.163650	-1.974466	-0.202251	-0.903084	0.378858	0.015095	0.383932	0.923238	-0.979217	0.192444	-0.064018
425	2274829													9.552556	0.165093	-1.971297	-0.202202	-0.903171	0.378678	0.014990	0.383766	0.923309	-0.979229	0.192371	-0.064060
426	2274996													9.559312	0.180360	-1.982781	-0.202118	-0.903300	0.378415	0.014865	0.383516	0.923415	-0.979248	0.192264	-0.064088
427	2275162													9.535058	0.183247	-1.976990	-0.202022	-0.903439	0.378133	0.014698	0.383253	0.923526	-0.979271	0.192130	-0.064146
428	2275329													9.552550	0.184831	-1.959543	-0.201950	-0.903569	0.377862	0.014523	0.383006	0.923631	-0.979288	0.192015	-0.064226
429	2275496													9.530604	0.199694	-1.944373	-0.201861	-0.903655	0.377704	0.014399	0.382863	0.923693	-0.979308	0.191896	-0.064274
430	2275662													9.539937	0.203994	-1.953330	-0.201845	-0.903706	0.377589	0.014290	0.382766	0.923735	-0.979313	0.191847	-0.064346
431	2275829													9.534153	0.183441	-1.933041	-0.201854	-0.903738	0.377508	0.014219	0.382697	0.923764	-0.979312	0.191833	-0.064399
432	2275996													9.530506	0.181271	-1.954100	-0.201914	-0.903726	0.377505	0.014192	0.382704	0.923762	-0.979300	0.191878	-0.064447
433	2276162													9.549442	0.175030	-1.962479	-0.201985	-0.903711	0.377503	0.014189	0.382707	0.923761	-0.979286	0.191942	-0.064479
434	2276329													9.548301	0.186989	-1.968570	-0.202007	-0.903696	0.377528	0.014208	0.382730	0.923751	-0.979281	0.191968	-0.064474
435	2276496													9.573596	0.177945	-1.970272	-0.201994	-0.903684	0.377564	0.014249	0.382758	0.923739	-0.979283	0.191970	-0.064438
436	2276662													9.533646	0.175370	-1.979892	-0.201973	-0.903659	0.377633	0.014242	0.382829	0.923710	-0.979288	0.191942	-0.064452
437	2276829													9.546646	0.175495	-1.952083	-0.202001	-0.903624	0.377704	0.014227	0.382906	0.923678	-0.979282	0.191957	-0.064492
438	2276996													9.562225	0.144211	-1.981843	-0.201978	-0.903620	0.377724	0.014166	0.382937	0.923666	-0.979288	0.191911	-0.064544
439	2277162													9.571170	0.130909	-1.979346	-0.201885	-0.903674	0.377645	0.014102	0.382862	0.923698	-0.979308	0.191806	-0.064551
440	2277329													9.465978	0.151105	-1.955574	-0.201816	-0.903725	0.377560	0.014098	0.382772	0.923735	-0.979322	0.191748	-0.064509
441	2277496													9.513370	0.140763	-2.009732	-0.201933	-0.903759	0.377416	0.014124	0.382627	0.923795	-0.979297	0.191875	-0.064501
442	2277662													9.600228	0.135034	-2.004554	-0.201989	-0.903812	0.377259	0.014173	0.382462	0.923863	-0.979285	0.191957	-0.064444
443	2277829													9.561559	0.189028	-1.988450	-0.202009	-0.903869	0.377111	0.014377	0.382271	0.923938	-0.979278	0.192066	-0.064227
444	2277996													9.580842	0.232861	-1.979120	-0.201983	-0.903904	0.377042	0.014684	0.382139	0.923988	-0.979279	0.192166	-0.063913
445	2278162													9.550901	0.235457	-1.964128	-0.201877	-0.903882	0.377151	0.014948	0.382191	0.923962	-0.979297	0.192165	-0.063644
446	2278329													9.533363	0.211355	-1.944444	-0.201736	-0.903835	0.377338	0.015116	0.382340	0.923898	-0.979323	0.192087	-0.063469
447	2278496													9.534466	0.222720	-1.956766	-0.201587	-0.903810	0.377477	0.015103	0.382475	0.923842	-0.979354	0.191936	-0.063452
448	2278662													9.533967	0.223569	-1.942500	-0.201443	-0.903755	0.377687	0.015015	0.382697	0.923752	-0.979385	0.191754	-0.063522
449	2278829													9.533705	0.171259	-1.949729	-0.201301	-0.903688	0.377924	0.014954	0.382942	0.923651	-0.979415	0.191583	-0.063573
450	2278996													9.536860	0.149779	-1.962744	-0.201151	-0.903658	0.378074	0.014930	0.383090	0.923590	-0.979446	0.191426	-0.063568
451	2279162													9.519299	0.099100	-1.945543	-0.201043	-0.903700	0.378033	0.014901	0.383046	0.923609	-0.979469	0.191318	-0.063543
452	2279329													9.528669	0.099630	-1.943118	-0.201028	-0.903799	0.377803	0.014814	0.382828	0.923701	-0.979474	0.191286	-0.063570
453	2279496													9.571526	0.150850	-1.946343	-0.201036	-0.903939	0.377464	0.014728	0.382498	0.923839	-0.979473	0.191285	-0.063582
454	2279662													9.537873	0.208569	-1.972252	-0.200925	-0.904090	0.377161	0.014752	0.382176	0.923972	-0.979496	0.191213	-0.063451
455	2279829													9.542147	0.184427	-1.949923	-0.200949	-0.904173	0.376949	0.014787	0.381955	0.924063	-0.979490	0.191263	-0.063383
456	2279996													9.562693	0.177609	-1.972361	-0.200920	-0.904251	0.376777	0.014798	0.381775	0.924137	-0.979496	0.191253	-0.063326
457	2280162													9.526726	0.234395	-1.968959	-0.201034	-0.904249	0.376721	0.014893	0.381707	0.924164	-0.979471	0.191398	-0.063269
458	2280329													9.565725	0.243887	-1.944201	-0.201128	-0.904167	0.376869	0.015178	0.381808	0.924117	-0.979447	0.191586	-0.063069
459	2280496													9.552491	0.210775	-1.969304	-0.201189	-0.904054	0.377106	0.015489	0.381994	0.924035	-0.979430	0.191746	-0.062850
460	2280662													9.541332	0.185903	-1.973329	-0.201265	-0.903918	0.377392	0.015735	0.382243	0.923928	-0.979410	0.191893	-0.062709
461	2280829													9.513539	0.186267	-1.981987	-0.201367	-0.903782	0.377664	0.015880	0.382499	0.923819	-0.979387	0.192024	-0.062671
462	2280996													9.520647	0.205279	-1.977152	-0.201488	-0.903664	0.377881	0.015959	0.382713	0.923729	-0.979361	0.192151	-0.062690
463	2281162													9.552977	0.183907	-1.968919	-0.201565	-0.903583	0.378034	0.016091	0.382849	0.923671	-0.979343	0.192262	-0.062629
464	2281329													9.552011	0.168504	-1.975654	-0.201572	-0.903521	0.378177	0.016288	0.382957	0.923623	-0.979338	0.192336	-0.062477
465	2281496													9.557509	0.176035	-1.981669	-0.201510	-0.903521	0.378211	0.016434	0.382958	0.923619	-0.979349	0.192334	-0.062322
466	2281662													9.547465	0.160314	-1.984087	-0.201423	-0.903569	0.378142	0.016535	0.382863	0.923657	-0.979365	0.192299	-0.062177
467	2281829													9.560218	0.190848	-1.985850	-0.201357	-0.903641	0.378006	0.016594	0.382708	0.923720	-0.979377	0.192270	-0.062066
468	2281996													9.547858	0.217040	-1.964218	-0.201295	-0.903710	0.377873	0.016704	0.382546	0.923785	-0.979388	0.192266	-0.061909
469	2282162													9.551724	0.232375	-1.953750	-0.201230	-0.903752	0.377809	0.016825	0.382452	0.923822	-0.979400	0.192257	-0.061755
470	2282329													9.550090	0.245199	-1.963796	-0.201184	-0.903771	0.377786	0.016960	0.382400	0.923841	-0.979407	0.192269	-0.061605
471	2282496													9.554199	0.253900	-1.929550	-0.201142	-0.903747	0.377867	0.017057	0.382461	0.923814	-0.979413	0.192264	-0.061514
472	2282662													9.553610	0.242006	-1.950191	-0.201054	-0.903729	0.377957	0.017129	0.382533	0.923783	-0.979430	0.192204	-0.061430
473	2282829													9.552053	0.233080	-1.950581	-0.200962	-0.903717	0.378033	0.017182	0.382595	0.923756	-0.979448	0.192136	-0.061360
474	2282996													9.537616	0.220727	-1.956228	-0.200855	-0.903702	0.378127	0.017236	0.382673	0.923723	-0.979469	0.192052	-0.061286
475	2283162													9.532105	0.212981	-1.967654	-0.200782	-0.903713	0.378139	0.017254	0.382677	0.923721	-0.979484	0.191991	-0.061242
476	2283329													9.550819	0.207992	-1.957215	-0.200682	-0.903735	0.378141	0.017247	0.382674	0.923722	-0.979505	0.191897	-0.061209
477	2283496													9.560457	0.187212	-1.953366	-0.200577	-0.903766	0.378120	0.017193	0.382657	0.923730	-0.979527	0.191780	-0.061214
478	2283662													9.550558	0.183582	-1.951108	-0.200438	-0.903838	0.378024	0.017107	0.382567	0.923769	-0.979557	0.191625	-0.061219
479	2283829													9.557295	0.193770	-1.952917	-0.200272	-0.903945	0.377855	0.017001	0.382404	0.923839	-0.979593	0.191442	-0.061217
480	2283996													9.536137	0.196902	-1.949634	-0.200107	-0.904060	0.377667	0.016888	0.382224	0.923916	-0.979629	0.191260	-0.061218
481	2284162													9.537091	0.206157	-1.932910	-0.200002	-0.904167	0.377468	0.016766	0.382037	0.923995	-0.979652	0.191129	-0.061249
482	2284329													9.549543	0.194829	-1.932551	-0.199947	-0.904278	0.377231	0.016677	0.381809	0.924091	-0.979665	0.191060	-0.061261
483	2284496													9.544819	0.209051	-1.933299	-0.199882	-0.904354	0.377081	0.016624	0.381662	0.924153	-0.979679	0.190990	-0.061253
484	2284662													9.532065	0.210349	-1.932636	-0.199835	-0.904421	0.376946	0.016580	0.381530	0.924208	-0.979689	0.190939	-0.061248
485	2284829													9.525661	0.203021	-1.939542	-0.199813	-0.904424	0.376950	0.016535	0.381541	0.924204	-0.979694	0.190901	-0.061282
486	2284996													9.542788	0.213947	-1.949301	-0.199826	-0.904436	0.376915	0.016480	0.381516	0.924215	-0.979693	0.190894	-0.061332
487	2285162													9.542827	0.211493	-1.943990	-0.199849	-0.904416	0.376952	0.016467	0.381558	0.924198	-0.979688	0.190907	-0.061361
488	2285329													9.552901	0.200761	-1.966385	-0.199883	-0.904365	0.377056	0.016481	0.381664	0.924154	-0.979681	0.190937	-0.061384
489	2285496													9.568536	0.167849	-1.964546	-0.199902	-0.904317	0.377159	0.016528	0.381762	0.924113	-0.979676	0.190966	-0.061369
490	2285662													9.563367	0.175309	-1.956693	-0.199869	-0.904294	0.377233	0.016536	0.381833	0.924083	-0.979683	0.190933	-0.061364
491	2285829													9.526287	0.175108	-1.962523	-0.199869	-0.904282	0.377262	0.016484	0.381873	0.924068	-0.979684	0.190911	-0.061419
492	2285996													9.542461	0.159794	-1.958920	-0.199897	-0.904288	0.377232	0.016416	0.381858	0.924075	-0.979679	0.190912	-0.061488
493	2286162													9.571693	0.136615	-1.953739	-0.199835	-0.904335	0.377152	0.016430	0.381769	0.924112	-0.979692	0.190867	-0.061433
494	2286329													9.479012	0.183195	-1.952556	-0.199764	-0.904401	0.377033	0.016450	0.381639	0.924165	-0.979706	0.190818	-0.061360
495	2286496													9.502265	0.188169	-1.970086	-0.199865	-0.904425	0.376921	0.016517	0.381518	0.924214	-0.979684	0.190943	-0.061313
496	2286662													9.596602	0.158415	-1.983479	-0.199951	-0.904447	0.376822	0.016577	0.381410	0.924257	-0.979666	0.191052	-0.061270
497	2286829													9.607653	0.192833	-1.957097	-0.199924	-0.904488	0.376738	0.016743	0.381291	0.924304	-0.979668	0.191099	-0.061085
498	2286996													9.598548	0.244537	-1.948021	-0.199801	-0.904498	0.376779	0.017104	0.381255	0.924312	-0.979687	0.191123	-0.060704
499	2287162													9.552851	0.235110	-1.921156	-0.199611	-0.904458	0.376976	0.017462	0.381374	0.924256	-0.979720	0.191074	-0.060332
500	2287329													9.559376	0.221420	-1.920705	-0.199410	-0.904421	0.377172	0.017689	0.381517	0.924192	-0.979756	0.190966	-0.060080
501	2287496													9.543713	0.213894	-1.913784	-0.199163	-0.904386	0.377385	0.017749	0.381708	0.924113	-0.979806	0.190748	-0.059971
502	2287662													9.529782	0.233457	-1.910667	-0.198944	-0.904375	0.377527	0.017672	0.381854	0.924054	-0.979852	0.190506	-0.059985
503	2287829													9.540919	0.223429	-1.905969	-0.198758	-0.904355	0.377674	0.017609	0.382006	0.923992	-0.979890	0.190301	-0.060002
504	2287996													9.542521	0.161106	-1.924512	-0.198569	-0.904332	0.377828	0.017605	0.382151	0.923932	-0.979929	0.190116	-0.059962
505	2288162													9.513380	0.123858	-1.898748	-0.198464	-0.904368	0.377797	0.017557	0.382122	0.923945	-0.979951	0.190003	-0.059959
506	2288329													9.545940	0.119872	-1.918101	-0.198466	-0.904463	0.377570	0.017455	0.381910	0.924035	-0.979952	0.189980	-0.060009
507	2288496													9.601212	0.160865	-1.925573	-0.198458	-0.904616	0.377206	0.017345	0.381560	0.924181	-0.979956	0.189954	-0.060033
508	2288662													9.549467	0.226486	-1.920690	-0.198343	-0.904796	0.376835	0.017310	0.381180	0.924339	-0.979980	0.189859	-0.059942
509	2288829													9.533787	0.207423	-1.918875	-0.198419	-0.904881	0.376591	0.017240	0.380949	0.924435	-0.979966	0.189918	-0.059988
510	2288996													9.548521	0.183859	-1.943932	-0.198501	-0.904951	0.376379	0.017095	0.380765	0.924514	-0.979952	0.189951	-0.060112
511	2289162													9.504010	0.228054	-1.931570	-0.198765	-0.904978	0.376175	0.016962	0.380599	0.924584	-0.979900	0.190156	-0.060299
512	2289329													9.558618	0.268453	-1.947760	-0.199134	-0.904926	0.376106	0.016963	0.380552	0.924604	-0.979825	0.190500	-0.060431
513	2289496													9.565197	0.223617	-1.924538	-0.199450	-0.904831	0.376165	0.017017	0.380622	0.924574	-0.979760	0.190808	-0.060517
514	2289662													9.538315	0.177123	-1.953872	-0.199766	-0.904729	0.376245	0.016999	0.380726	0.924531	-0.979696	0.191086	-0.060676
515	2289829													9.520650	0.170028	-1.978588	-0.200061	-0.904668	0.376233	0.016929	0.380747	0.924524	-0.979637	0.191330	-0.060857
516	2289996													9.529191	0.180808	-1.929708	-0.200414	-0.904604	0.376200	0.016844	0.380752	0.924524	-0.979567	0.191624	-0.061071
517	2290162													9.564997	0.195464	-1.961738	-0.200699	-0.904532	0.376221	0.016827	0.380795	0.924506	-0.979508	0.191878	-0.061205
518	2290329													9.571550	0.172717	-1.959747	-0.200903	-0.904484	0.376226	0.016913	0.380797	0.924504	-0.979465	0.192098	-0.061205
519	2290496													9.567184	0.182215	-1.960134	-0.201035	-0.904468	0.376195	0.017067	0.380744	0.924523	-0.979435	0.192282	-0.061106
520	2290662													9.575459	0.183932	-1.966438	-0.201117	-0.904463	0.376163	0.017183	0.380693	0.924542	-0.979416	0.192405	-0.061022
521	2290829													9.537090	0.211808	-1.981197	-0.201168	-0.904446	0.376176	0.017324	0.380682	0.924544	-0.979404	0.192506	-0.060912
522	2290996													9.548853	0.212023	-1.970097	-0.201281	-0.904404	0.376217	0.017460	0.380704	0.924532	-0.979378	0.192660	-0.060837
523	2291162													9.544805	0.225297	-1.974950	-0.201370	-0.904349	0.376302	0.017632	0.380763	0.924505	-0.979357	0.192802	-0.060728
524	2291329													9.554013	0.212970	-1.949977	-0.201432	-0.904281	0.376431	0.017834	0.380858	0.924461	-0.979340	0.192930	-0.060591
525	2291496													9.544768	0.225802	-1.955459	-0.201542	-0.904184	0.376606	0.018046	0.381003	0.924398	-0.979314	0.193101	-0.060471
526	2291663													9.546354	0.222712	-1.960061	-0.201675	-0.904095	0.376749	0.018216	0.381124	0.924344	-0.979283	0.193280	-0.060394
527	2291829													9.539315	0.239173	-1.966850	-0.201776	-0.904003	0.376914	0.018375	0.381268	0.924282	-0.979259	0.193424	-0.060319
528	2291996													9.552654	0.215935	-1.979516	-0.201833	-0.903918	0.377087	0.018535	0.381417	0.924217	-0.979245	0.193527	-0.060229
529	2292163													9.545949	0.214855	-1.996250	-0.201842	-0.903864	0.377214	0.018645	0.381525	0.924171	-0.979241	0.193569	-0.060155
530	2292329													9.543657	0.209383	-1.963252	-0.201808	-0.903840	0.377289	0.018709	0.381587	0.924143	-0.979246	0.193558	-0.060097
531	2292496													9.545909	0.206412	-1.970923	-0.201744	-0.903835	0.377335	0.018761	0.381620	0.924129	-0.979259	0.193516	-0.060032
532	2292663													9.562227	0.199084	-1.978780	-0.201648	-0.903877	0.377285	0.018771	0.381561	0.924153	-0.979278	0.193436	-0.059974
533	2292829													9.551542	0.210184	-1.953707	-0.201515	-0.903923	0.377247	0.018823	0.381503	0.924176	-0.979305	0.193336	-0.059863
534	2292996													9.557135	0.223399	-1.956525	-0.201393	-0.904004	0.377117	0.018847	0.381358	0.924235	-0.979329	0.193242	-0.059765
535	2293163													9.546943	0.211940	-1.952699	-0.201256	-0.904089	0.376987	0.018842	0.381217	0.924293	-0.979357	0.193123	-0.059687
536	2293329													9.531051	0.220305	-1.920548	-0.201181	-0.904141	0.376902	0.018830	0.381128	0.924331	-0.979373	0.193054	-0.059651
537	2293496													9.542526	0.234234	-1.937131	-0.201139	-0.904176	0.376841	0.018780	0.381073	0.924354	-0.979383	0.193001	-0.059669
538	2293663													9.534273	0.253117	-1.943268	-0.201143	-0.904207	0.376765	0.018761	0.381000	0.924385	-0.979382	0.193002	-0.059671
539	2293829													9.532627	0.252970	-1.946337	-0.201210	-0.904200	0.376744	0.018758	0.380983	0.924392	-0.979369	0.193063	-0.059696
540	2293996													9.508629	0.234881	-1.949766	-0.201345	-0.904172	0.376739	0.018749	0.380988	0.924390	-0.979341	0.193185	-0.059757
541	2294163													9.533150	0.232386	-1.963863	-0.201543	-0.904108	0.376789	0.018698	0.381062	0.924361	-0.979301	0.193343	-0.059895
542	2294329													9.563554	0.221757	-1.981419	-0.201750	-0.904044	0.376832	0.018632	0.381131	0.924333	-0.979260	0.193505	-0.060049
543	2294496													9.556630	0.181138	-1.993809	-0.201827	-0.904007	0.376879	0.018567	0.381197	0.924307	-0.979245	0.193547	-0.060151
544	2294663													9.497915	0.209568	-1.976164	-0.201917	-0.903970	0.376918	0.018520	0.381252	0.924286	-0.979228	0.193609	-0.060240
545	2294829													9.548278	0.183484	-1.989866	-0.202087	-0.903918	0.376952	0.018534	0.381294	0.924268	-0.979192	0.193769	-0.060301
546	2294996													9.594334	0.168103	-2.001582	-0.202144	-0.903905	0.376952	0.018516	0.381302	0.924265	-0.979181	0.193815	-0.060341
547	2295163													9.559002	0.192261	-1.979324	-0.202146	-0.903933	0.376885	0.018604	0.381216	0.924299	-0.979179	0.193855	-0.060245
548	2295329													9.586814	0.257483	-1.969213	-0.202086	-0.903972	0.376824	0.018822	0.381107	0.924339	-0.979187	0.193889	-0.060002
549	2295496													9.577702	0.259586	-1.945782	-0.201884	-0.904002	0.376860	0.019008	0.381094	0.924341	-0.979225	0.193773	-0.059754
550	2295663													9.544301	0.224098	-1.960034	-0.201656	-0.904029	0.376918	0.019090	0.381123	0.924327	-0.979270	0.193591	-0.059598
551	2295829													9.537630	0.252695	-1.961617	-0.201387	-0.904090	0.376914	0.019007	0.381118	0.924331	-0.979327	0.193312	-0.059568
552	2295996													9.540223	0.261802	-1.913596	-0.201163	-0.904143	0.376907	0.018806	0.381137	0.924327	-0.979377	0.193028	-0.059667
553	2296163													9.532171	0.238812	-1.911717	-0.200980	-0.904165	0.376951	0.018603	0.381211	0.924301	-0.979419	0.192778	-0.059796
554	2296329													9.516785	0.206703	-1.924764	-0.200867	-0.904177	0.376982	0.018413	0.381273	0.924279	-0.979445	0.192599	-0.059936
555	2296496													9.537509	0.151322	-1.920589	-0.200843	-0.904237	0.376853	0.018198	0.381181	0.924321	-0.979454	0.192501	-0.060103
556	2296663													9.517094	0.156830	-1.928717	-0.200888	-0.904339	0.376583	0.017930	0.380961	0.924417	-0.979450	0.192456	-0.060315
557	2296829													9.545221	0.165633	-1.943414	-0.201028	-0.904458	0.376222	0.017664	0.380654	0.924549	-0.979426	0.192506	-0.060546
558	2296996													9.525008	0.188117	-1.921218	-0.201097	-0.904603	0.375838	0.017490	0.380299	0.924698	-0.979415	0.192528	-0.060656
559	2297163													9.566133	0.189375	-1.954585	-0.201380	-0.904689	0.375478	0.017291	0.379989	0.924830	-0.979361	0.192734	-0.060879
560	2297329													9.537828	0.183345	-1.960404	-0.201520	-0.904787	0.375168	0.017088	0.379720	0.924944	-0.979335	0.192806	-0.061060
561	2297496													9.539004	0.254974	-1.968879	-0.201821	-0.904817	0.374933	0.017024	0.379512	0.925030	-0.979274	0.193074	-0.061190
562	2297663													9.555603	0.262053	-1.983011	-0.202079	-0.904760	0.374931	0.017206	0.379490	0.925036	-0.979218	0.193381	-0.061119
563	2297829													9.551171	0.228658	-2.000607	-0.202289	-0.904657	0.375067	0.017449	0.379595	0.924988	-0.979170	0.193660	-0.061003
564	2297996													9.540415	0.187605	-2.013920	-0.202427	-0.904559	0.375228	0.017619	0.379734	0.924928	-0.979139	0.193842	-0.060931
565	2298163													9.521127	0.200286	-2.007019	-0.202574	-0.904447	0.375418	0.017680	0.379926	0.924848	-0.979107	0.193987	-0.060972
566	2298329													9.528202	0.225837	-2.017587	-0.202667	-0.904355	0.375589	0.017699	0.380104	0.924775	-0.979088	0.194069	-0.061029
567	2298496													9.532922	0.211853	-2.009474	-0.202734	-0.904254	0.375798	0.017768	0.380307	0.924690	-0.979073	0.194143	-0.061034
568	2298663													9.540849	0.209630	-1.999874	-0.202708	-0.904161	0.376034	0.017858	0.380529	0.924596	-0.979076	0.194138	-0.060990
569	2298829													9.556223	0.183302	-2.016793	-0.202633	-0.904091	0.376245	0.017919	0.380728	0.924514	-0.979091	0.194079	-0.060947
570	2298996													9.563313	0.170874	-1.994946	-0.202474	-0.904064	0.376393	0.017945	0.380865	0.924457	-0.979123	0.193933	-0.060892
571	2299163													9.562007	0.184118	-1.984365	-0.202280	-0.904082	0.376455	0.017920	0.380920	0.924434	-0.979164	0.193740	-0.060852
572	2299329													9.538016	0.205077	-1.977370	-0.202104	-0.904112	0.376479	0.017842	0.380949	0.924424	-0.979202	0.193547	-0.060860
573	2299496													9.563586	0.210127	-1.960274	-0.201939	-0.904139	0.376501	0.017783	0.380973	0.924415	-0.979237	0.193371	-0.060855
574	2299663													9.534286	0.208534	-1.952702	-0.201796	-0.904158	0.376532	0.017738	0.381004	0.924403	-0.979267	0.193220	-0.060847
575	2299829													9.527431	0.224746	-1.951416	-0.201717	-0.904168	0.376550	0.017677	0.381029	0.924394	-0.979284	0.193122	-0.060878
576	2299996													9.546570	0.220036	-1.962672	-0.201686	-0.904139	0.376636	0.017608	0.381129	0.924354	-0.979292	0.193062	-0.060948
577	2300163													9.532272	0.212131	-1.946492	-0.201638	-0.904111	0.376731	0.017525	0.381239	0.924310	-0.979303	0.192978	-0.061028
578	2300329													9.538890	0.169703	-1.973464	-0.201585	-0.904083	0.376824	0.017382	0.381359	0.924263	-0.979317	0.192868	-0.061161
579	2300496													9.532386	0.185276	-1.966337	-0.201518	-0.904089	0.376847	0.017214	0.381412	0.924245	-0.979334	0.192739	-0.061298
580	2300663													9.538075	0.168942	-1.954100	-0.201450	-0.904117	0.376817	0.017035	0.381412	0.924248	-0.979351	0.192609	-0.061434
581	2300829													9.559156	0.166651	-1.942733	-0.201401	-0.904166	0.376725	0.016861	0.381349	0.924277	-0.979364	0.192503	-0.061559
582	2300996													9.559219	0.165489	-1.977536	-0.201283	-0.904256	0.376573	0.016712	0.381215	0.924335	-0.979391	0.192346	-0.061621
583	2301163													9.554023	0.175796	-1.954400	-0.201126	-0.904367	0.376390	0.016550	0.381050	0.924406	-0.979426	0.192151	-0.061672
584	2301329													9.553670	0.152015	-1.956139	-0.200915	-0.904492	0.376202	0.016386	0.380876	0.924481	-0.979472	0.191907	-0.061702
585	2301496													9.527106	0.189323	-1.958115	-0.200684	-0.904633	0.375986	0.016235	0.380670	0.924568	-0.979522	0.191650	-0.061708
586	2301663													9.536880	0.172912	-1.945232	-0.200511	-0.904750	0.375796	0.016113	0.380488	0.924645	-0.979559	0.191457	-0.061713
587	2301829													9.535240	0.176515	-1.932761	-0.200335	-0.904850	0.375649	0.016001	0.380349	0.924705	-0.979597	0.191261	-0.061718
588	2301996													9.543898	0.176430	-1.914699	-0.200235	-0.904932	0.375504	0.015896	0.380215	0.924762	-0.979619	0.191139	-0.061747
589	2302163													9.545471	0.186481	-1.929730	-0.200175	-0.904970	0.375446	0.015788	0.380173	0.924781	-0.979633	0.191045	-0.061813
590	2302329													9.550506	0.190102	-1.917981	-0.200116	-0.904990	0.375430	0.015722	0.380165	0.924785	-0.979646	0.190967	-0.061849
591	2302496													9.549778	0.186503	-1.907853	-0.200117	-0.904972	0.375471	0.015683	0.380216	0.924765	-0.979647	0.190949	-0.061895
592	2302663													9.556448	0.188931	-1.938834	-0.200147	-0.904923	0.375572	0.015687	0.380320	0.924722	-0.979640	0.190972	-0.061925
593	2302829													9.536437	0.175260	-1.929677	-0.200224	-0.904843	0.375725	0.015701	0.380478	0.924657	-0.979624	0.191038	-0.061973
594	2302996													9.556746	0.141984	-1.934986	-0.200339	-0.904758	0.375868	0.015723	0.380627	0.924595	-0.979600	0.191142	-0.062029
595	2303163													9.579789	0.124890	-1.952475	-0.200442	-0.904675	0.376014	0.015741	0.380779	0.924532	-0.979579	0.191234	-0.062084
596	2303329													9.513960	0.136929	-1.953882	-0.200461	-0.904648	0.376069	0.015807	0.380824	0.924512	-0.979574	0.191273	-0.062041
597	2303496													9.447520	0.160511	-1.970615	-0.200608	-0.904583	0.376147	0.015972	0.380881	0.924486	-0.979541	0.191467	-0.061960
598	2303663													9.580751	0.152520	-2.024407	-0.200899	-0.904491	0.376212	0.016109	0.380940	0.924459	-0.979480	0.191783	-0.061960
599	2303829													9.598383	0.185373	-1.983804	-0.201067	-0.904441	0.376243	0.016259	0.380953	0.924451	-0.979443	0.191994	-0.061892
600	2303996													9.596860	0.262851	-1.974374	-0.201192	-0.904360	0.376371	0.016551	0.381035	0.924413	-0.979412	0.192214	-0.061693
601	2304163													9.601357	0.255566	-1.948322	-0.201146	-0.904254	0.376650	0.016834	0.381262	0.924314	-0.979417	0.192263	-0.061467
602	2304329													9.555117	0.223944	-1.938667	-0.201022	-0.904142	0.376986	0.016987	0.381566	0.924185	-0.979439	0.192185	-0.061344
603	2304496													9.526320	0.199898	-1.962570	-0.200898	-0.904024	0.377334	0.016996	0.381912	0.924042	-0.979465	0.192051	-0.061360
604	2304663													9.519029	0.206092	-1.945869	-0.200786	-0.903931	0.377616	0.016901	0.382212	0.923920	-0.979489	0.191892	-0.061465
605	2304829													9.522455	0.191856	-1.925819	-0.200700	-0.903858	0.377836	0.016823	0.382447	0.923824	-0.979508	0.191768	-0.061551
606	2304996													9.520068	0.156791	-1.944798	-0.200677	-0.903815	0.377951	0.016765	0.382574	0.923773	-0.979514	0.191717	-0.061621
607	2305163													9.534255	0.119127	-1.919086	-0.200698	-0.903836	0.377889	0.016738	0.382518	0.923797	-0.979510	0.191729	-0.061642
608	2305329													9.517546	0.123079	-1.938924	-0.200821	-0.903939	0.377579	0.016635	0.382228	0.923918	-0.979487	0.191823	-0.061723
609	2305496													9.553704	0.147071	-1.961669	-0.200994	-0.904071	0.377169	0.016464	0.381855	0.924076	-0.979454	0.191943	-0.061866
610	2305663													9.575431	0.207134	-1.947458	-0.201131	-0.904220	0.376740	0.016383	0.381441	0.924248	-0.979427	0.192067	-0.061906
611	2305829													9.511107	0.230617	-1.940736	-0.201218	-0.904320	0.376454	0.016388	0.381153	0.924367	-0.979409	0.192168	-0.061875
612	2305996													9.564878	0.207602	-1.984398	-0.201380	-0.904373	0.376238	0.016323	0.380955	0.924449	-0.979377	0.192307	-0.061954
613	2306163													9.494047	0.207735	-1.968321	-0.201510	-0.904403	0.376097	0.016247	0.380834	0.924501	-0.979352	0.192406	-0.062049
614	2306329													9.539777	0.269735	-1.989667	-0.201826	-0.904319	0.376130	0.016362	0.380867	0.924485	-0.979285	0.192739	-0.062073
615	2306496													9.555974	0.256935	-1.995618	-0.202054	-0.904175	0.376352	0.016557	0.381069	0.924398	-0.979234	0.193010	-0.062026
616	2306663													9.542070	0.197763	-1.988687	-0.202266	-0.904008	0.376641	0.016748	0.381341	0.924283	-0.979187	0.193259	-0.061992
617	2306829													9.546242	0.169782	-2.003600	-0.202456	-0.903858	0.376899	0.016874	0.381592	0.924177	-0.979146	0.193465	-0.062004
618	2306996													9.534210	0.161693	-1.992739	-0.202592	-0.903764	0.377050	0.016910	0.381748	0.924112	-0.979117	0.193594	-0.062056
619	2307163													9.552980	0.179414	-1.988046	-0.202718	-0.903706	0.377122	0.016941	0.381824	0.924080	-0.979091	0.193717	-0.062093
620	2307329													9.536319	0.165822	-1.997158	-0.202750	-0.903704	0.377109	0.017013	0.381798	0.924089	-0.979083	0.193774	-0.062035
621	2307496													9.558841	0.156928	-1.986229	-0.202734	-0.903761	0.376982	0.017039	0.381662	0.924145	-0.979085	0.193779	-0.061977
622	2307663													9.546356	0.185337	-1.995835	-0.202699	-0.903843	0.376803	0.017043	0.381477	0.924221	-0.979093	0.193761	-0.061921
623	2307829													9.524979	0.211235	-1.978625	-0.202676	-0.903933	0.376599	0.016993	0.381277	0.924305	-0.979098	0.193734	-0.061915
624	2307996													9.531664	0.221200	-1.993552	-0.202727	-0.904023	0.376356	0.016941	0.381041	0.924403	-0.979089	0.193777	-0.061932
625	2308163													9.545938	0.231599	-1.973725	-0.202811	-0.904085	0.376162	0.016875	0.380862	0.924478	-0.979073	0.193842	-0.061986
626	2308330													9.557975	0.229941	-1.966815	-0.202885	-0.904132	0.376010	0.016824	0.380721	0.924537	-0.979058	0.193901	-0.062031
627	2308496													9.549479	0.225437	-1.952312	-0.202935	-0.904155	0.375928	0.016793	0.380647	0.924568	-0.979048	0.193940	-0.062063
628	2308663													9.526666	0.226828	-1.962025	-0.203016	-0.904153	0.375888	0.016728	0.380623	0.924579	-0.979033	0.193992	-0.062148
629	2308830													9.505633	0.218532	-1.976254	-0.203120	-0.904131	0.375886	0.016641	0.380645	0.924571	-0.979012	0.194054	-0.062271
630	2308996													9.515346	0.201497	-1.982869	-0.203256	-0.904119	0.375840	0.016516	0.380633	0.924579	-0.978986	0.194134	-0.062434
631	2309163													9.539136	0.165666	-1.973109	-0.203417	-0.904111	0.375773	0.016364	0.380604	0.924593	-0.978956	0.194227	-0.062626
632	2309330													9.554550	0.173881	-1.961445	-0.203533	-0.904134	0.375653	0.016201	0.380522	0.924630	-0.978934	0.194279	-0.062801
633	2309496													9.554850	0.159333	-1.974384	-0.203627	-0.904192	0.375463	0.015988	0.380376	0.924694	-0.978918	0.194295	-0.062999
634	2309663													9.531941	0.159247	-1.978364	-0.203704	-0.904283	0.375202	0.015723	0.380166	0.924784	-0.978906	0.194281	-0.063223
635	2309830													9.548898	0.156454	-1.970248	-0.203805	-0.904381	0.374910	0.015481	0.379923	0.924889	-0.978889	0.194301	-0.063429
636	2309996													9.531421	0.167686	-1.959903	-0.203897	-0.904477	0.374630	0.015252	0.379688	0.924989	-0.978874	0.194316	-0.063622
637	2310163													9.523958	0.164007	-1.967455	-0.204004	-0.904558	0.374375	0.015040	0.379476	0.925079	-0.978855	0.194350	-0.063810
638	2310330													9.529405	0.177565	-1.991837	-0.204144	-0.904593	0.374214	0.014835	0.379362	0.925129	-0.978828	0.194412	-0.064025
639	2310496													9.543262	0.174189	-2.006131	-0.204336	-0.904592	0.374111	0.014676	0.379301	0.925157	-0.978791	0.194534	-0.064229
640	2310663													9.519569	0.153527	-1.989395	-0.204504	-0.904565	0.374086	0.014563	0.379309	0.925156	-0.978757	0.194646	-0.064397
641	2310830													9.546264	0.151984	-1.998477	-0.204700	-0.904497	0.374143	0.014503	0.379392	0.925122	-0.978717	0.194799	-0.064544
642	2310996													9.547310	0.133574	-2.011518	-0.204870	-0.904400	0.374286	0.014485	0.379553	0.925056	-0.978682	0.194937	-0.064659
643	2311163													9.534040	0.125283	-2.006829	-0.204999	-0.904325	0.374396	0.014516	0.379668	0.925009	-0.978655	0.195060	-0.064705
644	2311330													9.546098	0.123965	-2.034802	-0.205157	-0.904219	0.374565	0.014592	0.379837	0.924938	-0.978620	0.195224	-0.064732
645	2311496													9.540445	0.141654	-2.039268	-0.205287	-0.904114	0.374746	0.014690	0.380011	0.924865	-0.978591	0.195368	-0.064730
646	2311663													9.519680	0.153597	-2.025146	-0.205414	-0.904012	0.374924	0.014798	0.380181	0.924794	-0.978563	0.195514	-0.064717
647	2311830													9.544842	0.159241	-2.005294	-0.205534	-0.903908	0.375108	0.014941	0.380348	0.924723	-0.978536	0.195666	-0.064669
648	2311996													9.551649	0.148323	-2.004793	-0.205604	-0.903823	0.375274	0.015044	0.380502	0.924658	-0.978520	0.195759	-0.064636
649	2312163													9.559055	0.138599	-2.024108	-0.205608	-0.903760	0.375425	0.015148	0.380636	0.924601	-0.978517	0.195792	-0.064571
650	2312330													9.546474	0.131197	-2.007182	-0.205519	-0.903740	0.375520	0.015267	0.380704	0.924571	-0.978534	0.195750	-0.064444
651	2312496													9.556409	0.166351	-2.001471	-0.205399	-0.903759	0.375542	0.015349	0.380702	0.924571	-0.978558	0.195670	-0.064324
652	2312663													9.561172	0.170446	-2.016881	-0.205247	-0.903794	0.375541	0.015444	0.380671	0.924582	-0.978588	0.195567	-0.064174
653	2312830													9.511156	0.189253	-2.007186	-0.205108	-0.903812	0.375572	0.015477	0.380687	0.924574	-0.978617	0.195450	-0.064094
654	2312996													9.513719	0.186417	-1.992763	-0.205100	-0.903825	0.375544	0.015438	0.380666	0.924584	-0.978619	0.195430	-0.064121
655	2313163													9.552933	0.164110	-1.994556	-0.205136	-0.903815	0.375550	0.015351	0.380692	0.924574	-0.978613	0.195429	-0.064220
656	2313330													9.515599	0.152005	-1.994302	-0.205156	-0.903842	0.375474	0.015271	0.380631	0.924601	-0.978610	0.195421	-0.064286
657	2313496													9.432916	0.162517	-1.985110	-0.205268	-0.903824	0.375457	0.015303	0.380615	0.924607	-0.978586	0.195537	-0.064297
658	2313663													9.505061	0.129336	-2.008409	-0.205584	-0.903759	0.375438	0.015399	0.380598	0.924612	-0.978518	0.195867	-0.064328
659	2313830													9.569179	0.132564	-2.025032	-0.205898	-0.903701	0.375407	0.015568	0.380553	0.924628	-0.978450	0.196223	-0.064286
660	2313996													9.587384	0.203285	-2.018460	-0.206215	-0.903649	0.375357	0.015932	0.380451	0.924664	-0.978377	0.196660	-0.064057
661	2314163													9.630200	0.245068	-1.994825	-0.206369	-0.903556	0.375496	0.016385	0.380512	0.924631	-0.978337	0.196968	-0.063722
662	2314330													9.553625	0.244673	-1.974743	-0.206359	-0.903429	0.375807	0.016762	0.380754	0.924525	-0.978333	0.197084	-0.063429
663	2314496													9.574349	0.228337	-1.979019	-0.206325	-0.903298	0.376141	0.016995	0.381046	0.924400	-0.978336	0.197120	-0.063268
664	2314663													9.560742	0.242432	-1.978391	-0.206177	-0.903207	0.376440	0.017064	0.381329	0.924282	-0.978366	0.196989	-0.063209
665	2314830													9.546178	0.258231	-1.967832	-0.205984	-0.903088	0.376834	0.017083	0.381715	0.924122	-0.978406	0.196791	-0.063200
666	2314996													9.546959	0.192400	-1.963920	-0.205759	-0.902981	0.377212	0.017105	0.382082	0.923970	-0.978453	0.196567	-0.063171
667	2315163													9.513674	0.140244	-1.978875	-0.205550	-0.902925	0.377461	0.017057	0.382333	0.923867	-0.978498	0.196339	-0.063187
668	2315330													9.494735	0.097384	-1.979891	-0.205453	-0.902938	0.377481	0.016904	0.382378	0.923851	-0.978521	0.196189	-0.063298
669	2315496													9.525853	0.105962	-1.978256	-0.205439	-0.903035	0.377256	0.016699	0.382187	0.923934	-0.978527	0.196112	-0.063436
670	2315663													9.562397	0.162003	-1.999380	-0.205411	-0.903167	0.376956	0.016557	0.381907	0.924052	-0.978536	0.196052	-0.063494
671	2315830													9.533814	0.199321	-1.980890	-0.205287	-0.903315	0.376668	0.016539	0.381608	0.924176	-0.978562	0.195951	-0.063399
672	2315996													9.535780	0.178954	-1.993367	-0.205316	-0.903398	0.376454	0.016542	0.381391	0.924266	-0.978556	0.195994	-0.063362
673	2316163													9.535154	0.180056	-2.021696	-0.205291	-0.903479	0.376273	0.016493	0.381214	0.924340	-0.978562	0.195965	-0.063358
674	2316330													9.510338	0.260319	-2.034791	-0.205399	-0.903479	0.376214	0.016554	0.381148	0.924366	-0.978538	0.196091	-0.063331
675	2316496													9.533228	0.260551	-2.020664	-0.205501	-0.903396	0.376357	0.016768	0.381258	0.924317	-0.978513	0.196259	-0.063201
676	2316663													9.520554	0.230042	-2.035686	-0.205602	-0.903250	0.376654	0.017018	0.381519	0.924205	-0.978488	0.196428	-0.063069
677	2316830													9.538877	0.190787	-2.053988	-0.205650	-0.903105	0.376974	0.017168	0.381819	0.924078	-0.978475	0.196509	-0.063017
678	2316996													9.528374	0.178356	-2.055576	-0.205616	-0.903001	0.377241	0.017193	0.382085	0.923967	-0.978482	0.196468	-0.063037
679	2317163													9.572946	0.178885	-2.049932	-0.205463	-0.902967	0.377406	0.017140	0.382255	0.923898	-0.978515	0.196296	-0.063063
680	2317330													9.549115	0.168613	-2.047886	-0.205137	-0.902980	0.377553	0.017157	0.382380	0.923846	-0.978583	0.195992	-0.062948
681	2317496													9.561773	0.157281	-2.041445	-0.204707	-0.903046	0.377629	0.017130	0.382434	0.923824	-0.978673	0.195582	-0.062817
682	2317663													9.556546	0.146267	-2.025398	-0.204200	-0.903174	0.377596	0.017097	0.382374	0.923849	-0.978780	0.195106	-0.062639
683	2317830													9.499789	0.172853	-1.998022	-0.203724	-0.903344	0.377446	0.017002	0.382209	0.923919	-0.978881	0.194642	-0.062507
684	2317996													9.528488	0.183284	-1.984672	-0.203353	-0.903494	0.377288	0.016878	0.382047	0.923989	-0.978960	0.194264	-0.062442
685	2318163													9.557208	0.186938	-1.997794	-0.202994	-0.903646	0.377117	0.016750	0.381875	0.924062	-0.979037	0.193896	-0.062382
686	2318330													9.570810	0.202453	-1.986139	-0.202568	-0.903787	0.377008	0.016687	0.381748	0.924116	-0.979126	0.193488	-0.062249
687	2318496													9.542630	0.209432	-2.001807	-0.202109	-0.903897	0.376991	0.016657	0.381707	0.924133	-0.979221	0.193055	-0.062090
688	2318663													9.531305	0.205680	-1.976619	-0.201591	-0.903996	0.377031	0.016649	0.381716	0.924130	-0.979328	0.192573	-0.061900
689	2318830													9.539749	0.196952	-1.993943	-0.201124	-0.904061	0.377124	0.016637	0.381783	0.924102	-0.979425	0.192133	-0.061745
690	2318996													9.579648	0.200650	-1.961883	-0.200598	-0.904130	0.377240	0.016592	0.381876	0.924065	-0.979533	0.191625	-0.061602
691	2319163													9.587049	0.196592	-1.949138	-0.199976	-0.904226	0.377339	0.016505	0.381954	0.924034	-0.979662	0.191013	-0.061457
692	2319330													9.593165	0.161965	-1.952185	-0.199267	-0.904342	0.377435	0.016382	0.382031	0.924004	-0.979808	0.190307	-0.061311
693	2319496													9.601171	0.170503	-1.959242	-0.198411	-0.904504	0.377499	0.016262	0.382066	0.923992	-0.979984	0.189469	-0.061097
694	2319663													9.589785	0.174950	-1.949987	-0.197406	-0.904710	0.377534	0.016112	0.382066	0.923995	-0.980189	0.188484	-0.060845
695	2319830													9.598592	0.170852	-1.949749	-0.196294	-0.904938	0.377566	0.015974	0.382055	0.924001	-0.980415	0.187407	-0.060540
696	2319996													9.560356	0.160267	-1.934619	-0.195049	-0.905223	0.377528	0.015809	0.381970	0.924040	-0.980666	0.186201	-0.060193
697	2320163													9.594023	0.162108	-1.922052	-0.193696	-0.905502	0.377556	0.015627	0.381947	0.924052	-0.980937	0.184885	-0.059831
698	2320330													9.628213	0.168335	-1.916618	-0.192170	-0.905817	0.377580	0.015451	0.381911	0.924070	-0.981240	0.183412	-0.059396
699	2320496													9.655227	0.152309	-1.904687	-0.190423	-0.906164	0.377632	0.015347	0.381876	0.924086	-0.981582	0.181763	-0.058811
700	2320663													9.679759	0.109912	-1.938667	-0.188371	-0.906550	0.377734	0.015404	0.381845	0.924098	-0.981977	0.179892	-0.057964
701	2320830													9.592245	0.100657	-1.897425	-0.185965	-0.907030	0.377775	0.015484	0.381729	0.924145	-0.982434	0.177709	-0.056943
702	2320996													9.566219	0.130779	-1.874657	-0.183537	-0.907504	0.377824	0.015596	0.381616	0.924189	-0.982889	0.175516	-0.055888
703	2321163													9.568334	0.154202	-1.867129	-0.181013	-0.907989	0.377877	0.015746	0.381499	0.924235	-0.983355	0.173248	-0.054760
704	2321330													9.601859	0.193952	-1.829078	-0.178425	-0.908423	0.378063	0.015989	0.381501	0.924230	-0.983824	0.170951	-0.053544
705	2321496													9.654394	0.218425	-1.823142	-0.175687	-0.908822	0.378387	0.016259	0.381634	0.924171	-0.984312	0.168517	-0.052271
706	2321663													9.692045	0.228120	-1.807347	-0.172645	-0.909180	0.378925	0.016587	0.381964	0.924028	-0.984844	0.165814	-0.050864
707	2321830													9.711341	0.231441	-1.776380	-0.169231	-0.909528	0.379631	0.016931	0.382447	0.923822	-0.985431	0.162767	-0.049323
708	2321996													9.749168	0.222940	-1.787515	-0.165437	-0.909866	0.380493	0.017292	0.383074	0.923556	-0.986069	0.159370	-0.047641
709	2322163													9.796842	0.223002	-1.789243	-0.161068	-0.910247	0.381454	0.017617	0.383787	0.923254	-0.986786	0.155427	-0.045780
710	2322330													9.738789	0.221145	-1.737987	-0.156085	-0.910674	0.382504	0.017933	0.384574	0.922920	-0.987581	0.150914	-0.043695
711	2322496													9.731914	0.239834	-1.697177	-0.150716	-0.911125	0.383583	0.018170	0.385397	0.922572	-0.988410	0.146016	-0.041531
712	2322663													9.638587	0.238672	-1.583677	-0.144968	-0.911604	0.384660	0.018241	0.386238	0.922219	-0.989268	0.140709	-0.039364
713	2322830													9.653789	0.251950	-1.511086	-0.139296	-0.912052	0.385692	0.018161	0.387071	0.921871	-0.990084	0.135418	-0.037354
714	2322996													9.718594	0.230517	-1.453864	-0.133544	-0.912472	0.386731	0.017922	0.387939	0.921511	-0.990881	0.129994	-0.035453
715	2323163													9.726242	0.200534	-1.422075	-0.127496	-0.912899	0.387763	0.017604	0.388810	0.921150	-0.991683	0.124269	-0.033501
716	2323330													9.748643	0.171122	-1.379818	-0.121223	-0.913364	0.388680	0.017187	0.389578	0.920833	-0.992477	0.118306	-0.031527
717	2323496													9.832136	0.144639	-1.332077	-0.114542	-0.913850	0.389562	0.016785	0.390306	0.920532	-0.993277	0.111979	-0.029368
718	2323663													10.005754	0.127046	-1.361960	-0.107239	-0.914388	0.390377	0.016368	0.390964	0.920260	-0.994099	0.105078	-0.026959
719	2323830													9.919708	0.196627	-1.291379	-0.098738	-0.915013	0.391155	0.016066	0.391559	0.920013	-0.994984	0.097124	-0.023961
720	2323996													9.793594	0.241036	-1.149569	-0.089694	-0.915591	0.391980	0.015940	0.392196	0.919744	-0.995842	0.088744	-0.020583
721	2324163													9.857044	0.257865	-1.005795	-0.080145	-0.916044	0.392989	0.015782	0.393042	0.919385	-0.996658	0.079887	-0.017044
722	2324330													9.929999	0.230599	-0.914438	-0.069994	-0.916401	0.394093	0.015523	0.394014	0.918973	-0.997427	0.070441	-0.013353
723	2324496													9.902106	0.225362	-0.810258	-0.059136	-0.916664	0.395260	0.015167	0.395082	0.918521	-0.998135	0.060312	-0.009460
724	2324663													9.867296	0.200016	-0.710377	-0.047714	-0.916828	0.396422	0.014664	0.396188	0.918052	-0.998753	0.049617	-0.005459
725	2324830													9.775437	0.164201	-0.563913	-0.035850	-0.916918	0.397462	0.013960	0.397219	0.917618	-0.999260	0.038445	-0.001440
726	2324997													9.835635	0.163421	-0.416280	-0.023832	-0.916922	0.398354	0.013122	0.398146	0.917228	-0.999630	0.027086	0.002543
727	2325163													9.838947	0.156684	-0.308200	-0.011323	-0.916842	0.399090	0.012336	0.398957	0.916887	-0.999860	0.015305	0.006793
728	2325330													9.922074	0.118481	-0.221794	0.001544	-0.916632	0.399729	0.011738	0.399719	0.916563	-0.999930	0.003277	0.011377
729	2325497													9.871368	0.042056	-0.199392	0.015311	-0.916316	0.400164	0.011449	0.400345	0.916293	-0.999817	-0.009448	0.016620
730	2325663													9.552218	0.085309	-0.014478	0.029101	-0.915901	0.400349	0.011234	0.400793	0.916100	-0.999513	-0.022162	0.021953
731	2325830													9.791224	0.142913	0.241297	0.042269	-0.915293	0.400564	0.010809	0.401318	0.915875	-0.999048	-0.034384	0.026857
732	2325997													9.903051	0.149260	0.418975	0.055811	-0.914419	0.400902	0.010111	0.402025	0.915573	-0.998390	-0.047046	0.031683
733	2326163													9.670541	0.171938	0.630856	0.069279	-0.913300	0.401351	0.009504	0.402904	0.915193	-0.997552	-0.059590	0.036593
734	2326330													9.699173	0.175705	0.809100	0.082294	-0.911948	0.401968	0.009224	0.404016	0.914705	-0.996565	-0.071567	0.041660
735	2326497													9.641960	0.171313	0.963486	0.095019	-0.910422	0.402621	0.009378	0.405252	0.914157	-0.995431	-0.083087	0.047045
736	2326663													9.441373	0.101683	1.121297	0.107208	-0.908772	0.403286	0.010012	0.406590	0.913556	-0.994186	-0.093903	0.052688
737	2326830													9.424477	0.051757	1.287622	0.118077	-0.907211	0.403765	0.010875	0.407767	0.913021	-0.992945	-0.103416	0.058014
738	2326997													9.691419	0.067576	1.387713	0.128178	-0.905760	0.403941	0.011732	0.408657	0.912613	-0.991682	-0.112238	0.063007
739	2327163													9.659645	0.099073	1.495917	0.137990	-0.904386	0.403788	0.012563	0.409254	0.912334	-0.990354	-0.120820	0.067835
740	2327330													9.703794	0.069405	1.548325	0.147478	-0.903081	0.403354	0.013358	0.409595	0.912170	-0.988975	-0.129137	0.072470
741	2327497													9.739821	0.070441	1.605899	0.156815	-0.901872	0.402536	0.014052	0.409575	0.912168	-0.987528	-0.137385	0.076900
742	2327663													9.884381	0.141937	1.593415	0.166465	-0.900659	0.401377	0.014584	0.409261	0.912301	-0.985939	-0.146012	0.081263
743	2327830													9.975988	0.214115	1.606776	0.176844	-0.899288	0.400008	0.015162	0.408855	0.912474	-0.984122	-0.155301	0.085939
744	2327997													10.101864	0.329074	1.606336	0.188375	-0.897589	0.398559	0.015638	0.408515	0.912618	-0.981973	-0.165682	0.090990
745	2328163													10.043160	0.478033	1.590655	0.201463	-0.895270	0.397371	0.015704	0.408589	0.912583	-0.979370	-0.177612	0.096375
746	2328330													9.847553	0.556807	1.613861	0.216055	-0.892156	0.396710	0.015140	0.409319	0.912266	-0.976264	-0.191093	0.101943
747	2328497													9.597611	0.525050	1.814741	0.231516	-0.888300	0.396641	0.013811	0.410679	0.911676	-0.972733	-0.205589	0.107347
748	2328663													9.433398	0.393337	1.990949	0.247137	-0.883906	0.397031	0.011908	0.412480	0.910889	-0.968907	-0.220386	0.112464
749	2328830													9.311213	0.248576	2.212466	0.262508	-0.879153	0.397718	0.009591	0.414530	0.909985	-0.964882	-0.235064	0.117250
750	2328997													9.171110	0.115703	2.484583	0.277032	-0.874358	0.398436	0.007062	0.416508	0.909105	-0.960835	-0.249037	0.121561
751	2329163													9.428780	0.032394	2.714126	0.290967	-0.869544	0.399038	0.004490	0.418320	0.908289	-0.956723	-0.262490	0.125621
752	2329330													9.553905	-0.042395	2.981093	0.305143	-0.864553	0.399294	0.002086	0.419897	0.907569	-0.952304	-0.276106	0.129932
753	2329497													9.443446	-0.114390	3.191812	0.319524	-0.859393	0.399183	-0.000060	0.421249	0.906945	-0.947578	-0.289815	0.134548
754	2329663													9.215666	-0.208920	3.398195	0.333731	-0.854240	0.398619	-0.001922	0.422245	0.906480	-0.942666	-0.303286	0.139274
755	2329830													8.938764	-0.178396	3.574347	0.347042	-0.849369	0.397661	-0.003471	0.422847	0.906194	-0.937843	-0.315868	0.143798
756	2329997													8.892101	-0.157649	3.750768	0.359191	-0.844851	0.396496	-0.004632	0.423230	0.906011	-0.933253	-0.327267	0.148107
757	2330163													9.073214	-0.180019	3.975490	0.370176	-0.840677	0.395261	-0.005531	0.423485	0.905886	-0.928945	-0.337524	0.152114
758	2330330													9.045928	-0.194719	4.103651	0.380684	-0.836708	0.393699	-0.006251	0.423419	0.905913	-0.924684	-0.347328	0.155959
759	2330497													8.674038	-0.143592	4.298132	0.389960	-0.833211	0.392033	-0.006755	0.423139	0.906040	-0.920807	-0.355968	0.159379
760	2330663													8.611140	-0.168157	4.360652	0.397528	-0.830395	0.390405	-0.007102	0.422671	0.906256	-0.917563	-0.363034	0.162126
761	2330830													8.723140	-0.160767	4.406533	0.403420	-0.828337	0.388728	-0.007375	0.421875	0.906624	-0.914985	-0.368617	0.164084
762	2330997													8.772560	-0.019343	4.433514	0.408152	-0.826796	0.387066	-0.007560	0.420914	0.907069	-0.912883	-0.373148	0.165546
763	2331163													8.706127	0.071237	4.449537	0.411636	-0.825671	0.385777	-0.007605	0.420177	0.907411	-0.911317	-0.376456	0.166680
764	2331330													8.820869	0.095541	4.432905	0.414069	-0.824840	0.384950	-0.007612	0.419755	0.907606	-0.910214	-0.378741	0.167529
765	2331497													8.778659	0.083692	4.408130	0.415572	-0.824237	0.384621	-0.007766	0.419634	0.907660	-0.909527	-0.380185	0.167987
766	2331663													8.848828	0.048533	4.421761	0.416090	-0.823913	0.384755	-0.008055	0.419766	0.907597	-0.909288	-0.380741	0.168023
767	2331830													8.914689	-0.033612	4.381316	0.415897	-0.823808	0.385189	-0.008466	0.420032	0.907470	-0.909372	-0.380675	0.167716
768	2331997													8.961389	-0.092251	4.333597	0.415151	-0.823909	0.385778	-0.008889	0.420353	0.907317	-0.909709	-0.380102	0.167186
769	2332163													8.974276	-0.130696	4.315426	0.413989	-0.824197	0.386410	-0.009151	0.420705	0.907151	-0.910236	-0.379087	0.166625
770	2332330													8.878853	-0.217784	4.318614	0.412316	-0.824770	0.386976	-0.009281	0.420938	0.907042	-0.910994	-0.377579	0.165904
771	2332497													8.948353	-0.202482	4.303263	0.409951	-0.825720	0.387462	-0.009192	0.421037	0.906997	-0.912061	-0.375386	0.165015
772	2332663													8.942626	-0.087072	4.252904	0.407186	-0.826847	0.387975	-0.008792	0.421216	0.906918	-0.913303	-0.372695	0.164243
773	2332830													8.892758	-0.060800	4.230972	0.403903	-0.828176	0.388571	-0.008135	0.421491	0.906796	-0.914766	-0.369418	0.163504
774	2332997													8.829310	-0.050906	4.200449	0.399994	-0.829789	0.389172	-0.007359	0.421699	0.906706	-0.916488	-0.365541	0.162571
775	2333163													8.660226	0.005782	4.283363	0.395032	-0.831858	0.389823	-0.006447	0.421814	0.906659	-0.918645	-0.360673	0.161267
776	2333330													8.858257	-0.010392	4.235060	0.388766	-0.834391	0.390709	-0.005546	0.421940	0.906607	-0.921320	-0.354624	0.159409
777	2333497													9.004750	-0.022243	4.161894	0.381577	-0.837254	0.391670	-0.004630	0.421993	0.906587	-0.924326	-0.347746	0.157146
778	2333663													9.160208	-0.044355	3.994012	0.373985	-0.840292	0.392485	-0.003681	0.421846	0.906660	-0.927427	-0.340522	0.154671
779	2333830													9.043091	-0.009124	3.840159	0.366156	-0.843457	0.393079	-0.002833	0.421402	0.906870	-0.930549	-0.333169	0.151909
780	2333997													8.894889	0.029046	3.729141	0.357562	-0.846912	0.393561	-0.002078	0.420699	0.907198	-0.933887	-0.325197	0.148666
781	2334163													8.905074	0.045548	3.695439	0.347626	-0.850790	0.394098	-0.001504	0.419805	0.907613	-0.937632	-0.316102	0.144655
782	2334330													9.205966	0.074783	3.576927	0.336747	-0.854890	0.394669	-0.001010	0.418821	0.908068	-0.941595	-0.306188	0.140173
783	2334497													9.439843	0.041018	3.347825	0.325798	-0.858896	0.395162	-0.000686	0.417752	0.908561	-0.945439	-0.296278	0.135513
784	2334663													9.273603	0.023088	3.094179	0.315053	-0.862807	0.395355	-0.000486	0.416422	0.909171	-0.949074	-0.286629	0.130776
785	2334830													9.035652	0.061896	2.921049	0.303800	-0.866814	0.395398	-0.000402	0.414897	0.909868	-0.952736	-0.276577	0.125698
786	2334997													9.119522	0.123098	2.792974	0.291533	-0.870986	0.395465	-0.000278	0.413347	0.910574	-0.956561	-0.265572	0.120263
787	2335163													9.336684	0.126880	2.692240	0.278757	-0.875068	0.395664	-0.000088	0.411972	0.911197	-0.960362	-0.254038	0.114763
788	2335330													9.649336	0.102170	2.617952	0.265912	-0.878950	0.395901	0.000169	0.410729	0.911757	-0.963997	-0.242381	0.109366
789	2335497													9.735872	0.083203	2.434109	0.253854	-0.882443	0.396045	0.000398	0.409553	0.912286	-0.967242	-0.231430	0.104318
790	2335663													9.404556	0.151749	2.415632	0.242055	-0.885702	0.396159	0.000499	0.408414	0.912797	-0.970262	-0.220750	0.099301
791	2335830													9.509689	0.158210	2.372594	0.229626	-0.888842	0.396524	0.000478	0.407513	0.913199	-0.973279	-0.209505	0.094000
792	2335997													9.582870	0.218134	2.283619	0.217030	-0.891714	0.397171	0.000475	0.406965	0.913444	-0.976165	-0.198056	0.088747
793	2336163													9.676091	0.209654	2.169676	0.204428	-0.894224	0.398212	0.000587	0.406915	0.913466	-0.978881	-0.186504	0.083710
794	2336330													9.671487	0.131115	2.024827	0.191799	-0.896424	0.399547	0.000819	0.407251	0.913316	-0.981434	-0.174846	0.078845
795	2336497													9.517420	0.129039	1.916103	0.179204	-0.898372	0.401016	0.001177	0.407810	0.913066	-0.983811	-0.163153	0.074139
796	2336663													9.567250	0.118018	1.784631	0.165922	-0.900178	0.402677	0.001680	0.408595	0.912714	-0.986138	-0.150762	0.069307
797	2336830													9.417864	0.100699	1.784722	0.152119	-0.901806	0.404483	0.002147	0.409546	0.912287	-0.988360	-0.137908	0.064236
798	2336997													9.761463	0.119186	1.617960	0.137344	-0.903286	0.406462	0.002615	0.410680	0.911776	-0.990520	-0.124164	0.058767
799	2337163													9.913852	0.070686	1.383147	0.122653	-0.904512	0.408430	0.003089	0.411883	0.911232	-0.992445	-0.110503	0.053312
800	2337330													9.762568	0.116756	1.157321	0.108439	-0.905493	0.410272	0.003603	0.413061	0.910696	-0.994097	-0.097277	0.048055
801	2337497													9.725022	0.122325	0.982543	0.094200	-0.906259	0.412093	0.004158	0.414288	0.910136	-0.995545	-0.084021	0.042794
802	2337663													9.503576	0.111683	0.885573	0.079734	-0.906815	0.413919	0.004928	0.415595	0.909537	-0.996804	-0.070481	0.037606
803	2337830													9.601239	0.012159	0.783353	0.064704	-0.907200	0.415694	0.005940	0.416909	0.908929	-0.997887	-0.056342	0.032364
804	2337997													9.956549	-0.152405	0.526572	0.049264	-0.907540	0.417065	0.007152	0.417882	0.908473	-0.998760	-0.041772	0.027077
805	2338163													10.119934	-0.229853	0.275072	0.034790	-0.907920	0.417697	0.008263	0.418197	0.908319	-0.999360	-0.028149	0.022051
806	2338330													10.025872	-0.125548	-0.025830	0.021583	-0.908431	0.417477	0.009179	0.417737	0.908522	-0.999725	-0.015777	0.017355
807	2338497													9.561267	0.038070	-0.188936	0.009211	-0.908979	0.416739	0.010094	0.416820	0.908933	-0.999907	-0.004165	0.013015
808	2338663													9.384562	0.189374	-0.301710	-0.003419	-0.909448	0.415804	0.011125	0.415747	0.909412	-0.999932	0.007735	0.008696
809	2338830													9.604475	0.256524	-0.325397	-0.017079	-0.909634	0.415059	0.012254	0.414898	0.909785	-0.999779	0.020624	0.004061
810	2338997													10.148215	0.204552	-0.469808	-0.030171	-0.909603	0.414381	0.013376	0.414165	0.910104	-0.999455	0.033002	-0.000329
811	2339163													10.231543	0.129918	-0.649338	-0.041951	-0.909498	0.413586	0.014159	0.413367	0.910454	-0.999019	0.044050	-0.004463
812	2339330													9.761086	0.123959	-0.670465	-0.052688	-0.909419	0.412530	0.014594	0.412359	0.910905	-0.998504	0.054015	-0.008454
813	2339497													9.733844	0.223725	-0.726873	-0.063858	-0.909195	0.411445	0.014983	0.411367	0.911347	-0.997847	0.064361	-0.012646
814	2339663													9.691818	0.206449	-0.773960	-0.074830	-0.908872	0.410307	0.015419	0.410357	0.911794	-0.997077	0.074556	-0.016693
815	2339830													9.676224	0.233540	-0.811685	-0.086380	-0.908326	0.409247	0.015924	0.409471	0.912184	-0.996135	0.085311	-0.020906
816	2339997													9.976024	0.154366	-0.978575	-0.097727	-0.907652	0.408188	0.016422	0.408624	0.912555	-0.995078	0.095885	-0.025028
817	2340163													9.925938	0.200992	-1.165717	-0.108434	-0.906933	0.407081	0.016871	0.407758	0.912934	-0.993960	0.105861	-0.028914
818	2340330													9.615782	0.194752	-1.214844	-0.118679	-0.906109	0.406056	0.017409	0.406984	0.913269	-0.992780	0.115455	-0.032527
819	2340497													9.502558	0.208859	-1.260538	-0.129212	-0.905119	0.405049	0.018063	0.406257	0.913580	-0.991452	0.125362	-0.036144
820	2340663													9.636518	0.180376	-1.299287	-0.140379	-0.903861	0.404139	0.018896	0.405661	0.913828	-0.989917	0.135919	-0.039867
821	2340830													9.953798	0.104756	-1.535913	-0.150987	-0.902581	0.403176	0.019640	0.405033	0.914091	-0.988341	0.145934	-0.043428
822	2340997													9.794405	0.154855	-1.626910	-0.160648	-0.901408	0.402064	0.020292	0.404253	0.914422	-0.986803	0.155059	-0.046651
823	2341163													9.562219	0.184988	-1.744843	-0.169765	-0.900263	0.400881	0.020879	0.403409	0.914782	-0.985263	0.163668	-0.049688
824	2341330													9.418048	0.229801	-1.731372	-0.178780	-0.899045	0.399694	0.021512	0.402570	0.915136	-0.983654	0.172206	-0.052632
825	2341497													9.406585	0.285282	-1.791959	-0.188527	-0.897564	0.398544	0.022341	0.401796	0.915456	-0.981814	0.181492	-0.055697
826	2341664													9.793785	0.276812	-1.905762	-0.198204	-0.895915	0.397558	0.023375	0.401169	0.915706	-0.979882	0.190789	-0.058571
827	2341830													9.888103	0.214390	-2.049045	-0.206959	-0.894324	0.396678	0.024326	0.400627	0.915918	-0.978047	0.199207	-0.061158
828	2341997													9.745343	0.224243	-2.182831	-0.214620	-0.892913	0.395783	0.025053	0.400059	0.916147	-0.976376	0.206539	-0.063491
829	2342164													9.528831	0.261929	-2.203226	-0.221584	-0.891609	0.394884	0.025741	0.399461	0.916389	-0.974801	0.213222	-0.065563
830	2342330													9.324554	0.276815	-2.251307	-0.228237	-0.890295	0.394059	0.026442	0.398924	0.916603	-0.973246	0.219623	-0.067508
831	2342497													9.312102	0.296204	-2.265330	-0.235467	-0.888745	0.393304	0.027279	0.398480	0.916771	-0.971499	0.226599	-0.069584
832	2342664													9.731362	0.229643	-2.415390	-0.242692	-0.887108	0.392606	0.028134	0.398099	0.916911	-0.969695	0.233572	-0.071658
833	2342830													9.823372	0.189691	-2.548243	-0.248774	-0.885771	0.391817	0.028798	0.397592	0.917110	-0.968133	0.239437	-0.073402
834	2342997													9.650390	0.219968	-2.618683	-0.253775	-0.884762	0.390889	0.029236	0.396918	0.917389	-0.966821	0.244238	-0.074861
835	2343164													9.562090	0.272192	-2.652357	-0.258225	-0.883944	0.389825	0.029583	0.396086	0.917737	-0.965632	0.248515	-0.076130
836	2343330													9.432844	0.327527	-2.727608	-0.262030	-0.883273	0.388805	0.029901	0.395258	0.918084	-0.964596	0.252191	-0.077158
837	2343497													9.377452	0.328423	-2.725058	-0.265872	-0.882552	0.387833	0.030172	0.394497	0.918402	-0.963536	0.255879	-0.078258
838	2343664													9.476233	0.292732	-2.792335	-0.269349	-0.881918	0.386874	0.030309	0.393759	0.918714	-0.962565	0.259181	-0.079328
839	2343830													9.514777	0.319167	-2.881682	-0.272482	-0.881390	0.385883	0.030336	0.392989	0.919043	-0.961682	0.262129	-0.080345
840	2343997													9.554379	0.382714	-2.926170	-0.274919	-0.881018	0.385001	0.030308	0.392291	0.919342	-0.960990	0.264413	-0.081147
841	2344164													9.469147	0.393893	-2.936452	-0.276698	-0.880775	0.384284	0.030200	0.391729	0.919585	-0.960482	0.266053	-0.081791
842	2344330													9.423859	0.392951	-2.962054	-0.277919	-0.880626	0.383744	0.029984	0.391334	0.919760	-0.960136	0.267125	-0.082354
843	2344497													9.356492	0.352340	-2.975362	-0.278749	-0.880535	0.383351	0.029669	0.391086	0.919876	-0.959906	0.267788	-0.082890
844	2344664													9.376226	0.310559	-2.990418	-0.279253	-0.880530	0.382994	0.029256	0.390874	0.919979	-0.959772	0.268112	-0.083392
845	2344830													9.425049	0.329611	-2.975369	-0.279320	-0.880632	0.382711	0.028768	0.390722	0.920059	-0.959767	0.268001	-0.083803
846	2344997													9.426119	0.336733	-2.953369	-0.278873	-0.880840	0.382559	0.028295	0.390653	0.920103	-0.959911	0.267416	-0.084019
847	2345164													9.337978	0.307149	-2.889407	-0.278031	-0.881127	0.382511	0.027922	0.390630	0.920124	-0.960166	0.266503	-0.084005
848	2345330													9.324165	0.300897	-2.855083	-0.277093	-0.881408	0.382544	0.027632	0.390659	0.920121	-0.960446	0.265530	-0.083894
849	2345497													9.360204	0.275140	-2.821870	-0.276076	-0.881697	0.382612	0.027389	0.390705	0.920108	-0.960745	0.264500	-0.083716
850	2345664													9.378226	0.267733	-2.787922	-0.274860	-0.882030	0.382719	0.027148	0.390772	0.920087	-0.961101	0.263286	-0.083462
851	2345830													9.376529	0.280139	-2.743288	-0.273433	-0.882427	0.382828	0.026889	0.390827	0.920071	-0.961515	0.261872	-0.083137
852	2345997													9.341242	0.315305	-2.681744	-0.271823	-0.882851	0.382997	0.026663	0.390920	0.920038	-0.961978	0.260299	-0.082722
853	2346164													9.324348	0.306539	-2.619891	-0.270261	-0.883232	0.383224	0.026471	0.391069	0.919981	-0.962423	0.258779	-0.082310
854	2346330													9.360403	0.287804	-2.568569	-0.268785	-0.883580	0.383460	0.026252	0.391242	0.919913	-0.962842	0.257325	-0.081964
855	2346497													9.366243	0.249266	-2.538643	-0.267372	-0.883933	0.383634	0.025938	0.391382	0.919863	-0.963244	0.255897	-0.081717
856	2346664													9.401027	0.236373	-2.552974	-0.266013	-0.884307	0.383715	0.025574	0.391444	0.919847	-0.963630	0.254504	-0.081514
857	2346830													9.331311	0.236471	-2.523539	-0.264572	-0.884745	0.383703	0.025202	0.391402	0.919875	-0.964037	0.253043	-0.081257
858	2346997													9.254486	0.230158	-2.508267	-0.263372	-0.885150	0.383593	0.024858	0.391273	0.919939	-0.964374	0.251822	-0.081048
859	2347164													9.315259	0.208339	-2.496162	-0.262431	-0.885509	0.383410	0.024535	0.391084	0.920028	-0.964639	0.250851	-0.080907
860	2347330													9.384551	0.198496	-2.487414	-0.261600	-0.885865	0.383156	0.024228	0.390828	0.920145	-0.964872	0.249993	-0.080778
861	2347497													9.453141	0.206268	-2.492152	-0.260712	-0.886261	0.382846	0.023925	0.390507	0.920289	-0.965120	0.249090	-0.080606
862	2347664													9.466002	0.218947	-2.478729	-0.259654	-0.886705	0.382535	0.023656	0.390163	0.920442	-0.965412	0.248046	-0.080332
863	2347830													9.426183	0.246090	-2.477918	-0.258472	-0.887168	0.382264	0.023419	0.389840	0.920585	-0.965735	0.246897	-0.079986
864	2347997													9.431781	0.277329	-2.470284	-0.257285	-0.887613	0.382031	0.023210	0.389550	0.920713	-0.966057	0.245752	-0.079623
865	2348164													9.444867	0.286383	-2.486101	-0.256031	-0.888021	0.381925	0.022988	0.389389	0.920786	-0.966395	0.244529	-0.079282
866	2348330													9.451750	0.265691	-2.483138	-0.254694	-0.888412	0.381909	0.022735	0.389323	0.920820	-0.966754	0.243210	-0.078961
867	2348497													9.453008	0.220066	-2.508696	-0.253166	-0.888835	0.381943	0.022439	0.389303	0.920836	-0.967163	0.241695	-0.078614
868	2348664													9.471779	0.205109	-2.503794	-0.251430	-0.889312	0.381979	0.022071	0.389286	0.920852	-0.967624	0.239960	-0.078250
869	2348830													9.415318	0.201005	-2.497317	-0.249546	-0.889830	0.382007	0.021688	0.389252	0.920876	-0.968120	0.238086	-0.077838
870	2348997													9.456872	0.186864	-2.519074	-0.247579	-0.890394	0.381972	0.021244	0.389162	0.920924	-0.968635	0.236116	-0.077432
871	2349164													9.486005	0.185439	-2.462314	-0.245377	-0.891033	0.381903	0.020800	0.389017	0.920996	-0.969205	0.233935	-0.076922
872	2349330													9.501464	0.188406	-2.479231	-0.242976	-0.891742	0.381785	0.020324	0.388813	0.921093	-0.969819	0.231563	-0.076348
873	2349497													9.513587	0.165561	-2.459830	-0.240333	-0.892512	0.381657	0.019842	0.388581	0.921201	-0.970488	0.228968	-0.075679
