sampleTimeFine,D4:22:CD:00:A9:12_acc_x,D4:22:CD:00:A9:12_acc_y,D4:22:CD:00:A9:12_acc_z,D4:22:CD:00:A9:12_gyro_x,D4:22:CD:00:A9:12_gyro_y,D4:22:CD:00:A9:12_gyro_z,D4:22:CD:00:A9:12_quat_w,D4:22:CD:00:A9:12_quat_x,D4:22:CD:00:A9:12_quat_y,D4:22:CD:00:A9:12_quat_z,D4:22:CD:00:A1:93_acc_x,D4:22:CD:00:A1:93_acc_y,D4:22:CD:00:A1:93_acc_z,D4:22:CD:00:A1:93_gyro_x,D4:22:CD:00:A1:93_gyro_y,D4:22:CD:00:A1:93_gyro_z,D4:22:CD:00:A1:93_quat_w,D4:22:CD:00:A1:93_quat_x,D4:22:CD:00:A1:93_quat_y,D4:22:CD:00:A1:93_quat_z
1539440,-0.22824928164482117,-0.09765580296516418,-0.5332263112068176,-0.14716622233390808,0.05517737194895744,-0.16249054670333862,0.635629415512085,-0.37848860025405884,-0.5382212996482849,-0.4037814736366272,-0.14122362434864044,-0.2252311408519745,-0.32365453243255615,0.008773857727646828,-0.051777537912130356,-0.18491274118423462,0.42602983117103577,-0.581446647644043,-0.512715220451355,-0.4664134681224823
1539607,9.732751846313477,-0.4339262545108795,1.2991752624511719,0.4042772352695465,-0.6572473645210266,0.24529920518398285,0.6357157230377197,-0.37848737835884094,-0.5383449792861938,-0.4034818708896637,9.580105781555176,-0.1735106259584427,-1.9740878343582153,-0.3118858337402344,0.1156093180179596,0.04803021252155304,0.42585185170173645,-0.5815422534942627,-0.5127588510513306,-0.46640893816947937
1539773,9.735891342163086,-0.4308471381664276,1.2921016216278076,0.4243703782558441,-0.6615887880325317,0.12215334922075272,0.6356381773948669,-0.3782804310321808,-0.5387497544288635,-0.4032576382160187,9.576035499572754,-0.1604072004556656,-1.9729399681091309,-0.3042660653591156,0.36739495396614075,0.02803950011730194,0.42583587765693665,-0.5816097259521484,-0.5126350522041321,-0.4664754867553711
1539940,9.735512733459473,-0.43362340331077576,1.2948236465454102,0.5216731429100037,-0.6343113780021667,0.18541674315929413,0.6353834271430969,-0.3782511055469513,-0.5390569567680359,-0.403276264667511,9.553199768066406,-0.13731971383094788,-1.9459716081619263,-0.262350857257843,0.33676213026046753,0.08744814991950989,0.42567622661590576,-0.5817697048187256,-0.5123770236968994,-0.46670499444007874
1540107,9.735159873962402,-0.42878422141075134,1.2853025197982788,0.5123755931854248,-0.607648491859436,0.29456526041030884,0.6352795958518982,-0.3781304359436035,-0.5393539667129517,-0.40315574407577515,9.551592826843262,-0.13337498903274536,-1.9663704633712769,-0.40767738223075867,0.29214486479759216,0.12415116280317307,0.4256546199321747,-0.5816576480865479,-0.5123358964920044,-0.4669095575809479
1540273,9.744256973266602,-0.44232290983200073,1.2861506938934326,0.3238149881362915,-0.576285719871521,0.3696745038032532,0.6351767182350159,-0.3780774474143982,-0.5395767092704773,-0.40306952595710754,9.578252792358398,-0.12925128638744354,-1.9585671424865723,-0.4283979833126068,0.23232637345790863,0.35557469725608826,0.4254165589809418,-0.5817847847938538,-0.5120951533317566,-0.4672320783138275
1540440,9.729619979858398,-0.43660807609558105,1.2899093627929688,0.19480377435684204,-0.5440649390220642,0.272461473941803,0.6350979804992676,-0.37806594371795654,-0.539743185043335,-0.40298157930374146,9.598014831542969,-0.15983164310455322,-1.9440158605575562,-0.4418574571609497,0.31118786334991455,0.477401465177536,0.42539864778518677,-0.5816953182220459,-0.5120924115180969,-0.46736282110214233
1540607,9.726700782775879,-0.4456597864627838,1.3113558292388916,0.3020441234111786,-0.5225502252578735,0.31892290711402893,0.6350414156913757,-0.3780716061592102,-0.539862334728241,-0.40290579199790955,9.605707168579102,-0.16884347796440125,-1.9403821229934692,-0.20453022420406342,0.34535524249076843,0.7026780247688293,0.42542096972465515,-0.5816853046417236,-0.5119708180427551,-0.467488169670105
1540773,9.734321594238281,-0.46346932649612427,1.2874774932861328,0.2766747772693634,-0.4880370795726776,0.30598849058151245,0.6350733041763306,-0.3780081570148468,-0.5399762988090515,-0.4027622640132904,9.581550598144531,-0.18198862671852112,-1.9305880069732666,0.025298941880464554,0.4291855990886688,0.7314538955688477,0.42557281255722046,-0.5816019773483276,-0.5119119882583618,-0.4675180912017822
1540940,9.72972297668457,-0.45022302865982056,1.3040711879730225,0.435076504945755,-0.49104663729667664,0.41041141748428345,0.6350837349891663,-0.3780254125595093,-0.5400334000587463,-0.4026530086994171,9.559731483459473,-0.16488103568553925,-1.9344992637634277,0.22447608411312103,0.34518876671791077,0.5815426707267761,0.42567917704582214,-0.5815919637680054,-0.5117809176445007,-0.4675772190093994
1541107,9.73936653137207,-0.46123814582824707,1.2997289896011353,0.5623204708099365,-0.6621907353401184,0.4596519470214844,0.6350736021995544,-0.37807947397232056,-0.5400711297988892,-0.40256768465042114,9.556931495666504,-0.15448857843875885,-1.9430214166641235,0.294834166765213,0.2184314876794815,0.5166529417037964,0.4257716238498688,-0.5815919637680054,-0.5116686224937439,-0.4676160514354706
1541273,9.753985404968262,-0.44700321555137634,1.305985927581787,0.5122219920158386,-0.6711808443069458,0.4342953562736511,0.6350836157798767,-0.37811538577079773,-0.5401168465614319,-0.4024566411972046,9.561670303344727,-0.1495427042245865,-1.9436368942260742,0.25299587845802307,0.02387744002044201,0.33038464188575745,0.4258412718772888,-0.5815765261650085,-0.5116187334060669,-0.4676261246204376
1541440,9.748507499694824,-0.4544428884983063,1.3055351972579956,0.3031710982322693,-0.6885974407196045,0.4213224947452545,0.6350938081741333,-0.3781488537788391,-0.5401614904403687,-0.40234920382499695,9.583742141723633,-0.14310193061828613,-1.95103919506073,0.08262016624212265,0.048965077847242355,0.32442963123321533,0.42591342329978943,-0.5815433859825134,-0.5115992426872253,-0.4676230549812317
1541607,9.742119789123535,-0.44909149408340454,1.285259485244751,0.4159182608127594,-0.7179367542266846,0.41036030650138855,0.635062038898468,-0.37823501229286194,-0.5401681661605835,-0.4023095965385437,9.600713729858398,-0.12899737060070038,-1.9217143058776855,-0.009771245531737804,0.047210607677698135,0.3596983551979065,0.4259466826915741,-0.5815452933311462,-0.5115514397621155,-0.4676426649093628
1541773,9.730292320251465,-0.4397481381893158,1.3204765319824219,0.44450196623802185,-0.629214346408844,0.4188380539417267,0.6350684762001038,-0.3782695531845093,-0.5402039289474487,-0.40221861004829407,9.563937187194824,-0.13369663059711456,-1.9249153137207031,-0.20579801499843597,0.162211611866951,0.3963756859302521,0.42599010467529297,-0.5815256834030151,-0.5115073323249817,-0.46767592430114746
1541940,9.73312759399414,-0.4467371702194214,1.319205641746521,0.4837534427642822,-0.6099023222923279,0.4351533353328705,0.6351073980331421,-0.3782602548599243,-0.5402581095695496,-0.40209314227104187,9.553426742553711,-0.143463134765625,-1.946211338043213,-0.3103875517845154,-0.0858922004699707,0.5152826905250549,0.4259917736053467,-0.5815573930740356,-0.5114410519599915,-0.46770742535591125
1542107,9.747368812561035,-0.44926607608795166,1.3160768747329712,0.4779522120952606,-0.7858360409736633,0.5150009393692017,0.63514643907547,-0.37825489044189453,-0.5403273105621338,-0.4019436538219452,9.577605247497559,-0.15875856578350067,-1.948596715927124,-0.28296905755996704,-0.22138336300849915,0.4228208363056183,0.425969660282135,-0.5815998315811157,-0.5113908648490906,-0.46772971749305725
1542274,9.731795310974121,-0.4488898515701294,1.290618896484375,0.5638443231582642,-0.7707117199897766,0.5317900776863098,0.6351555585861206,-0.37829095125198364,-0.5403625965118408,-0.40184780955314636,9.568550109863281,-0.175405815243721,-1.9481282234191895,-0.20966555178165436,-0.3006930947303772,0.3538842797279358,0.42591363191604614,-0.5816747546195984,-0.5113208293914795,-0.4677639901638031
1542440,9.741827011108398,-0.4433872103691101,1.290753722190857,0.5721045136451721,-0.7873088121414185,0.5303301811218262,0.6351736783981323,-0.37831127643585205,-0.5404151678085327,-0.40172940492630005,9.557832717895508,-0.16579654812812805,-1.961210012435913,0.05399797856807709,-0.09982549399137497,0.4603178799152374,0.4259505271911621,-0.5816824436187744,-0.511303722858429,-0.46773940324783325
1542607,9.73459243774414,-0.44070616364479065,1.3028162717819214,0.5738844871520996,-1.016030192375183,0.5174341797828674,0.6351422667503357,-0.3783816695213318,-0.5404663681983948,-0.4016439616680145,9.538657188415527,-0.1524716019630432,-1.9645644426345825,0.018357902765274048,-0.22281767427921295,0.38842296600341797,0.4259518086910248,-0.5817189812660217,-0.5112782120704651,-0.4677206575870514
1542774,9.764060020446777,-0.45041367411613464,1.2874696254730225,0.47837477922439575,-0.635515034198761,0.5701578855514526,0.6351586580276489,-0.37841325998306274,-0.5404946208000183,-0.4015502631664276,9.609326362609863,-0.11158481985330582,-1.9852349758148193,-0.06834748387336731,-0.2782691717147827,0.29592275619506836,0.42594674229621887,-0.5817447900772095,-0.5112797617912292,-0.4676916003227234
1542940,9.69670295715332,-0.44178831577301025,1.2475608587265015,0.6196287870407104,-0.8809359073638916,0.4883124828338623,0.6351722478866577,-0.3784198462963104,-0.5405752062797546,-0.4014139175415039,9.623384475708008,-0.12921194732189178,-1.9775925874710083,-0.4434710741043091,-0.03958442434668541,-0.2378651350736618,0.4258824288845062,-0.5817389488220215,-0.5112910866737366,-0.4677450954914093
1543107,9.768561363220215,-0.4160843789577484,1.2757186889648438,0.053178366273641586,-0.43191975355148315,0.3546910285949707,0.6351741552352905,-0.3784489333629608,-0.5405910015106201,-0.40136218070983887,9.60302734375,-0.1526183933019638,-1.9605183601379395,-0.7586609125137329,0.4326432943344116,-0.31490808725357056,0.4258100986480713,-0.5817239284515381,-0.5112506747245789,-0.46787381172180176
1543274,9.800782203674316,-0.44234466552734375,1.2770135402679443,0.2691318690776825,-0.34388893842697144,0.04384253919124603,0.6351545453071594,-0.37845146656036377,-0.5406150817871094,-0.40135830640792847,9.566512107849121,-0.1734921783208847,-1.9431077241897583,-0.49984461069107056,0.5398836731910706,0.07923929393291473,0.4257963299751282,-0.5817148685455322,-0.5111883878707886,-0.46796566247940063
1543440,9.794459342956543,-0.4142678380012512,1.2914042472839355,0.4707934260368347,0.18489165604114532,-0.14425072073936462,0.6351878046989441,-0.3783729076385498,-0.5406269431114197,-0.4013637900352478,9.550386428833008,-0.16318590939044952,-1.952269434928894,-0.04035280644893646,0.5377578735351562,0.3681633472442627,0.4258508086204529,-0.5816933512687683,-0.5111384391784668,-0.46799737215042114
1543607,9.753680229187012,-0.4815792143344879,1.2918870449066162,0.44378483295440674,0.19459888339042664,0.3255053758621216,0.6352327466011047,-0.3783489763736725,-0.5405997633934021,-0.40135180950164795,9.568723678588867,-0.14710325002670288,-1.9198271036148071,0.2949366271495819,0.6728391647338867,0.4526852071285248,0.42596369981765747,-0.5816354155540466,-0.5111111402511597,-0.46799641847610474
1543774,9.714141845703125,-0.47584888339042664,1.325005054473877,1.135916829109192,-0.15476472675800323,0.5407032370567322,0.6352916955947876,-0.37831634283065796,-0.5406206846237183,-0.40126100182533264,9.556514739990234,-0.13633903861045837,-1.9332902431488037,0.34119319915771484,0.6539626121520996,0.08667978644371033,0.4260363280773163,-0.5815686583518982,-0.5110936760902405,-0.4680323898792267
1543940,9.70276165008545,-0.42122146487236023,1.3033517599105835,0.9430019855499268,-0.23995254933834076,0.23939549922943115,0.6353381872177124,-0.37825796008110046,-0.5406686663627625,-0.4011780917644501,9.550951957702637,-0.13145780563354492,-1.930712103843689,0.3999231159687042,0.4004097282886505,0.05155195668339729,0.42609331011772156,-0.581511378288269,-0.5110999941825867,-0.46804484724998474
1544107,9.73920726776123,-0.43069013953208923,1.2806649208068848,0.5841808319091797,-0.39804694056510925,0.09876896440982819,0.6353287696838379,-0.37824925780296326,-0.5407038331031799,-0.4011535346508026,9.563790321350098,-0.10624581575393677,-1.9345356225967407,0.2494228482246399,0.2262817919254303,0.09363362193107605,0.4261183440685272,-0.5814871191978455,-0.5110928416252136,-0.4680599570274353
1544274,9.739483833312988,-0.4225638508796692,1.287921667098999,0.6860682368278503,-0.4987945258617401,0.23022620379924774,0.6353470683097839,-0.37821561098098755,-0.540770947933197,-0.40106603503227234,9.567845344543457,-0.11372696608304977,-1.9364268779754639,0.14064572751522064,-0.07646670937538147,0.39950045943260193,0.4261593520641327,-0.5814803838729858,-0.5111081600189209,-0.46801429986953735
1544440,9.746548652648926,-0.4151833653450012,1.2694677114486694,0.5726550817489624,-0.5010740160942078,0.3481854200363159,0.6353543400764465,-0.3782151937484741,-0.5408163070678711,-0.4009937047958374,9.572076797485352,-0.11268271505832672,-1.9543579816818237,0.00844578631222248,-0.2153131514787674,0.6505305171012878,0.426164448261261,-0.5815423727035522,-0.511064887046814,-0.4679798185825348
1544607,9.749438285827637,-0.44379302859306335,1.2680015563964844,0.4516991376876831,-0.3653651475906372,0.5136306285858154,0.6353603005409241,-0.37824857234954834,-0.5408226847648621,-0.4009441137313843,9.584375381469727,-0.11141122877597809,-1.974912405014038,-0.21101021766662598,-0.28789952397346497,0.8720547556877136,0.4261649549007416,-0.5816329121589661,-0.5110011100769043,-0.4679364562034607
1544774,9.733417510986328,-0.44638514518737793,1.2539814710617065,0.6398116946220398,-0.2866317331790924,0.6050935983657837,0.6353985667228699,-0.3782530426979065,-0.540839433670044,-0.4008566439151764,9.574978828430176,-0.13185590505599976,-1.960236668586731,-0.2672044336795807,-0.2153259515762329,0.9930747151374817,0.42618781328201294,-0.5817143321037292,-0.5109400153160095,-0.46788111329078674
1544940,9.739659309387207,-0.44419023394584656,1.2617924213409424,0.6251099109649658,-0.3145751357078552,0.5799162983894348,0.6354206204414368,-0.37827447056770325,-0.5408502817153931,-0.40078699588775635,9.589125633239746,-0.14029300212860107,-1.9638526439666748,-0.14471174776554108,0.0022347080521285534,1.0245399475097656,0.4262581765651703,-0.5817551612854004,-0.5108954310417175,-0.4678148329257965
1545107,9.757903099060059,-0.43715915083885193,1.2742992639541626,0.500798761844635,-0.12114807963371277,0.495855450630188,0.6354520320892334,-0.3782811760902405,-0.5408479571342468,-0.400734007358551,9.556838989257812,-0.18417249619960785,-1.9616594314575195,-0.006108628585934639,0.12342118471860886,0.9030333161354065,0.4263162314891815,-0.5817977786064148,-0.510832667350769,-0.4677777588367462
1545274,9.735212326049805,-0.44347909092903137,1.2943310737609863,0.586396336555481,-0.038406241685152054,0.7046884894371033,0.6354941129684448,-0.3783082365989685,-0.5408203601837158,-0.40067875385284424,9.57291316986084,-0.18350057303905487,-1.983519196510315,0.4421328008174896,0.20849376916885376,0.9528756737709045,0.42642906308174133,-0.5818056464195251,-0.5107973217964172,-0.4677037000656128
1545440,9.737369537353516,-0.44662636518478394,1.2913283109664917,0.7130383849143982,-0.1165890097618103,0.6844801902770996,0.6355332136154175,-0.3783308267593384,-0.540804922580719,-0.40061643719673157,9.58753490447998,-0.141108900308609,-1.9483184814453125,0.5869213342666626,0.3058476448059082,0.687143862247467,0.4265230894088745,-0.5818027853965759,-0.510762095451355,-0.46766000986099243
1545607,9.72558307647705,-0.44152531027793884,1.252254605293274,0.7680800557136536,-0.1439305692911148,0.7137810587882996,0.6356027126312256,-0.3783150017261505,-0.5408192873001099,-0.4005017578601837,9.572134017944336,-0.13108229637145996,-1.9626904726028442,0.47024279832839966,0.4206309914588928,0.27641865611076355,0.4266031086444855,-0.5817520022392273,-0.5107653141021729,-0.4676465690135956
1545774,9.733091354370117,-0.4149724245071411,1.3036881685256958,0.41757020354270935,-0.09250026196241379,0.6080774664878845,0.6356415152549744,-0.37833213806152344,-0.5408074855804443,-0.40043988823890686,9.5886812210083,-0.13201211392879486,-1.9672788381576538,0.40849053859710693,0.3434598743915558,0.3364163935184479,0.4266854524612427,-0.581703782081604,-0.5107771158218384,-0.467618465423584
1545940,9.761524200439453,-0.40230968594551086,1.2497915029525757,0.8149512410163879,-0.08051351457834244,0.3839663863182068,0.6356803178787231,-0.3783063292503357,-0.5408206582069397,-0.40038496255874634,9.5849027633667,-0.11688463389873505,-1.9339624643325806,0.405173659324646,0.28821325302124023,0.6047222018241882,0.4267767071723938,-0.5816842913627625,-0.5107645988464355,-0.4675731062889099
1546107,9.759498596191406,-0.4162847101688385,1.2557175159454346,0.44797247648239136,0.1322319507598877,0.4821015000343323,0.6357004642486572,-0.378335177898407,-0.5407710671424866,-0.4003923237323761,9.573187828063965,-0.12283153831958771,-1.9344584941864014,0.2286381870508194,0.3378891348838806,0.9357151985168457,0.42687854170799255,-0.5816965699195862,-0.5107086300849915,-0.46752607822418213
1546274,9.755144119262695,-0.4316626489162445,1.254370093345642,0.6430644392967224,-0.03183658421039581,0.7791959643363953,0.6357532739639282,-0.3783540427684784,-0.5407504439353943,-0.40031877160072327,9.546509742736816,-0.12462978810071945,-1.9272290468215942,0.05378026142716408,0.26865798234939575,1.059847116470337,0.42694199085235596,-0.5817621946334839,-0.5106013417243958,-0.46750375628471375
1546440,9.743906021118164,-0.4383929371833801,1.2928060293197632,0.4472168982028961,0.04468775540590286,0.5646895170211792,0.6358006596565247,-0.3783527612686157,-0.5407359600067139,-0.40026408433914185,9.559317588806152,-0.15110452473163605,-1.9223955869674683,-0.1517808586359024,0.23817892372608185,0.8988840579986572,0.4269860088825226,-0.5818177461624146,-0.5105096697807312,-0.4674944579601288
1546607,9.746236801147461,-0.4504587948322296,1.3013036251068115,0.2394467443227768,0.14839357137680054,0.3390032649040222,0.6357936263084412,-0.3783986270427704,-0.5406756401062012,-0.4003133773803711,9.564652442932129,-0.16375453770160675,-1.920720100402832,-0.28690066933631897,0.26645535230636597,0.6581631898880005,0.42703977227211,-0.5818237066268921,-0.5104701519012451,-0.46748101711273193
1546774,9.727405548095703,-0.4420015811920166,1.294693946838379,0.41960641741752625,0.16570773720741272,0.38308268785476685,0.6357792615890503,-0.3784596920013428,-0.5406004786491394,-0.4003799855709076,9.58088493347168,-0.1760888695716858,-1.9269856214523315,-0.22934889793395996,0.3803037405014038,0.48461148142814636,0.42708778381347656,-0.5818144083023071,-0.5104312300682068,-0.4674912393093109
1546940,9.736503601074219,-0.42469966411590576,1.2961033582687378,0.46141910552978516,0.15735802054405212,0.28611305356025696,0.6358097195625305,-0.37844425439834595,-0.5405793190002441,-0.4003749489784241,9.578198432922363,-0.1615694761276245,-1.927650809288025,-0.18223436176776886,0.4557459354400635,0.4149705469608307,0.4271298348903656,-0.5818048715591431,-0.5103813409805298,-0.46751919388771057
1547107,9.74000072479248,-0.4258011281490326,1.2783260345458984,0.5400373339653015,0.2434166818857193,0.3175910413265228,0.63585364818573,-0.3784177601337433,-0.5405534505844116,-0.40036511421203613,9.585558891296387,-0.1448793113231659,-1.9283159971237183,-0.06084296479821205,0.5571466684341431,0.3290015459060669,0.42719969153404236,-0.5817578434944153,-0.5103592872619629,-0.4675380289554596
1547274,9.746513366699219,-0.42981719970703125,1.306449294090271,0.4679888188838959,0.20307667553424835,0.31363388895988464,0.6358834505081177,-0.3784084916114807,-0.5405216217041016,-0.4003693759441376,9.558822631835938,-0.1361033022403717,-1.9242641925811768,-0.14460930228233337,0.3773711025714874,0.4694231152534485,0.4272373616695404,-0.5817617774009705,-0.5103040933609009,-0.4675590395927429
1547440,9.737430572509766,-0.4272928535938263,1.311130404472351,0.3285149037837982,0.390638530254364,0.32649150490760803,0.6359367966651917,-0.37838098406791687,-0.540477991104126,-0.4003695845603943,9.56618595123291,-0.13675059378147125,-1.9413083791732788,-0.2281579077243805,0.21749663352966309,0.5463124513626099,0.42726799845695496,-0.5817797183990479,-0.5102550387382507,-0.4675619900226593
1547607,9.742565155029297,-0.43545687198638916,1.2909321784973145,0.1632361263036728,0.29231131076812744,0.32079264521598816,0.6359459757804871,-0.3784104287624359,-0.5404080748558044,-0.4004216194152832,9.570245742797852,-0.14628475904464722,-1.9454996585845947,-0.18547433614730835,-0.015815841034054756,0.6132000088691711,0.4273018538951874,-0.5818020701408386,-0.5102339386940002,-0.467526376247406
1547774,9.740333557128906,-0.45340585708618164,1.3033058643341064,0.5068689584732056,0.4001920223236084,0.3672412931919098,0.6360025405883789,-0.37838214635849,-0.5403619408607483,-0.4004208743572235,9.596333503723145,-0.139987051486969,-1.9165037870407104,-0.08390720188617706,-0.025471828877925873,0.8045012354850769,0.4273374378681183,-0.5818539261817932,-0.5101804137229919,-0.4674876630306244
1547940,9.743022918701172,-0.45682448148727417,1.3072506189346313,0.41670578718185425,0.3490114212036133,0.4497973620891571,0.6360360980033875,-0.3783976137638092,-0.5402922630310059,-0.40044695138931274,9.606147766113281,-0.16454242169857025,-1.9442521333694458,0.0770622044801712,0.17268721759319305,0.8663687109947205,0.4274360239505768,-0.581853449344635,-0.5101580023765564,-0.4674226939678192
1548107,9.742493629455566,-0.4689483940601349,1.2740378379821777,0.5078678131103516,0.3826345205307007,0.4487280547618866,0.6361010670661926,-0.37837111949920654,-0.5402466058731079,-0.40043026208877563,9.62088394165039,-0.1699528843164444,-1.9339221715927124,0.23610424995422363,0.504871129989624,1.0052791833877563,0.4275447428226471,-0.5818719267845154,-0.5100671052932739,-0.46739956736564636
1548274,9.746613502502441,-0.4662766456604004,1.3263401985168457,0.5574924349784851,0.3315627872943878,0.5187788009643555,0.6361565589904785,-0.37836581468582153,-0.5401932597160339,-0.40041908621788025,9.566460609436035,-0.14789451658725739,-1.9190956354141235,0.36238765716552734,0.6209606528282166,1.0750482082366943,0.4277166724205017,-0.58183753490448,-0.5100196599960327,-0.4673368036746979
1548440,9.734379768371582,-0.4484715461730957,1.3015923500061035,0.5322126746177673,0.4094638228416443,0.5402806401252747,0.6362106204032898,-0.37837114930152893,-0.5401215553283691,-0.4004250764846802,9.545624732971191,-0.15546399354934692,-1.915279746055603,0.4602026343345642,0.38300591707229614,1.0495508909225464,0.4278610050678253,-0.5818289518356323,-0.5099754333496094,-0.46726348996162415
1548607,9.751456260681152,-0.4376027584075928,1.312964916229248,0.2935791611671448,0.2279338240623474,0.6592260599136353,0.6362347602844238,-0.37843120098114014,-0.5400370955467224,-0.40044379234313965,9.569254875183105,-0.1543344259262085,-1.920198917388916,0.3084985911846161,0.15008403360843658,0.9604442715644836,0.4279838800430298,-0.5818232297897339,-0.509960949420929,-0.46717408299446106
1548774,9.74129867553711,-0.4425234794616699,1.2853282690048218,0.10887317359447479,0.2074052393436432,0.6465606093406677,0.6362664103507996,-0.378481388092041,-0.53996342420578,-0.40044543147087097,9.566357612609863,-0.19606073200702667,-1.9242218732833862,0.35361534357070923,0.10353293269872665,0.9465622305870056,0.42810332775115967,-0.5818195343017578,-0.5099501609802246,-0.46708086133003235
1548940,9.729780197143555,-0.4396696388721466,1.2951020002365112,0.31494012475013733,0.1880292147397995,0.745668888092041,0.6363219618797302,-0.37851011753082275,-0.5399064421653748,-0.40040698647499084,9.55052661895752,-0.16675662994384766,-1.8912521600723267,0.5150393843650818,0.017627941444516182,1.097536325454712,0.428217351436615,-0.5818488001823425,-0.5099132657051086,-0.4669802486896515
1549107,9.728157043457031,-0.4589168131351471,1.3096610307693481,0.3281562924385071,-0.06958970427513123,0.6143269538879395,0.6363485455513,-0.3785442113876343,-0.5398800373077393,-0.4003678262233734,9.580829620361328,-0.1575392186641693,-1.9313545227050781,0.2821686863899231,-0.02921128273010254,0.8547021150588989,0.42830145359039307,-0.5818669199943542,-0.5098955631256104,-0.4668996334075928
1549274,9.745540618896484,-0.4813661277294159,1.290732502937317,0.5782771706581116,0.1809985339641571,0.7954343557357788,0.6364291906356812,-0.3785417973995209,-0.5398440957069397,-0.40029045939445496,9.611625671386719,-0.15427400171756744,-1.9146584272384644,0.04568665102124214,0.04922120273113251,0.6704956293106079,0.4283423125743866,-0.5818986892700195,-0.5098521709442139,-0.46686992049217224
1549440,9.708306312561035,-0.4355805218219757,1.2940237522125244,0.5505385994911194,0.06497301906347275,0.7083896994590759,0.6364688873291016,-0.37857648730278015,-0.5397980213165283,-0.4002567529678345,9.617770195007324,-0.11601941287517548,-1.9115549325942993,-0.401632696390152,0.0844002440571785,0.40277889370918274,0.4283561706542969,-0.5819069147109985,-0.5098319053649902,-0.4668689966201782
1549607,9.75483512878418,-0.40162232518196106,1.2980457544326782,-0.20360815525054932,0.10070273280143738,0.40329113602638245,0.6364516019821167,-0.3786552846431732,-0.5397213697433472,-0.4003131687641144,9.595840454101562,-0.16511349380016327,-1.8903223276138306,-0.7566119432449341,0.3124684989452362,0.034583546221256256,0.4283454418182373,-0.5818783640861511,-0.5098224878311157,-0.46692463755607605
1549774,9.775076866149902,-0.43723413348197937,1.318501353263855,-0.2568185329437256,0.26009052991867065,0.4070945978164673,0.636449933052063,-0.37872058153152466,-0.5396333336830139,-0.40037238597869873,9.585293769836426,-0.21052417159080505,-1.8940738439559937,-0.6119258403778076,0.3385935425758362,0.30601415038108826,0.4283357858657837,-0.5818936824798584,-0.5097581744194031,-0.4669848680496216
1549940,9.776406288146973,-0.40303856134414673,1.3215659856796265,0.2684018909931183,0.44096747040748596,0.0545230358839035,0.6364685297012329,-0.37870195508003235,-0.5395763516426086,-0.4004370868206024,9.58095932006836,-0.22686028480529785,-1.8827015161514282,-0.040621738880872726,0.3186156153678894,0.5341208577156067,0.42842262983322144,-0.5818554759025574,-0.5097554326057434,-0.46695584058761597
1550107,9.729150772094727,-0.44241270422935486,1.336103081703186,0.1333589106798172,0.5935038924217224,0.24052247405052185,0.6365052461624146,-0.3786969482898712,-0.5394903421401978,-0.40049952268600464,9.55923080444336,-0.195171520113945,-1.8828445672988892,0.36772793531417847,0.37843406200408936,0.45031607151031494,0.42853808403015137,-0.5817878842353821,-0.5097758173942566,-0.46691185235977173
1550274,9.717863082885742,-0.502555787563324,1.3662270307540894,0.6030701994895935,0.387744277715683,0.5770605206489563,0.6365476846694946,-0.37871867418289185,-0.5394092202186584,-0.40052101016044617,9.556880950927734,-0.17796280980110168,-1.8891208171844482,0.6051832437515259,0.12465059012174606,0.1122412458062172,0.42858102917671204,-0.5817534327507019,-0.5097922682762146,-0.4668973982334137
1550440,9.709305763244629,-0.46014201641082764,1.344946026802063,0.7876352667808533,0.12742957472801208,0.2855111360549927,0.6365697383880615,-0.3787075877189636,-0.539383590221405,-0.4005310535430908,9.551301956176758,-0.1561334878206253,-1.9046666622161865,0.5660342574119568,-0.0941394791007042,-0.017326992005109787,0.4286089241504669,-0.5817123055458069,-0.5098466873168945,-0.4668635427951813
1550607,9.7096529006958,-0.4541354179382324,1.3074005842208862,0.5873696208000183,-0.04147976264357567,0.07959786057472229,0.6365546584129333,-0.3787101209163666,-0.5393716096878052,-0.40056857466697693,9.556469917297363,-0.1503147929906845,-1.9003970623016357,0.3773582875728607,-0.34857597947120667,0.02819317765533924,0.42862775921821594,-0.5816785097122192,-0.5099290609359741,-0.46679845452308655
1550774,9.725871086120605,-0.4377456605434418,1.3383204936981201,0.6631447672843933,-0.063852459192276,0.2173045426607132,0.6365584135055542,-0.378706693649292,-0.5393664240837097,-0.40057286620140076,9.579865455627441,-0.11364471167325974,-1.885880708694458,0.12555983662605286,-0.4289870858192444,0.214960977435112,0.4286089539527893,-0.5817043781280518,-0.5099550485610962,-0.4667550325393677
1550940,9.723381996154785,-0.4135347306728363,1.3246164321899414,0.5342104434967041,-0.20734760165214539,0.2528933882713318,0.636557936668396,-0.3787098228931427,-0.5393763184547424,-0.4005572497844696,9.582966804504395,-0.11834757030010223,-1.9121655225753784,-0.11705003678798676,-0.5645551681518555,0.4234355390071869,0.42859214544296265,-0.5817488431930542,-0.5099791884422302,-0.4666886031627655
1551107,9.73834228515625,-0.4470331370830536,1.311445713043213,0.578354001045227,-0.12711584568023682,0.3874625265598297,0.6365959048271179,-0.3786846399307251,-0.5393950939178467,-0.40049558877944946,9.565717697143555,-0.1499013900756836,-1.9250444173812866,-0.31634244322776794,-0.5973009467124939,0.6989386081695557,0.4285804331302643,-0.5818211436271667,-0.5099769234657288,-0.46661177277565
1551274,9.7371187210083,-0.45952117443084717,1.3219808340072632,0.5591700673103333,-0.26616716384887695,0.40208736062049866,0.6365960836410522,-0.3787061870098114,-0.5393996834754944,-0.40046876668930054,9.572955131530762,-0.15428510308265686,-1.9368712902069092,-0.3774030804634094,-0.6864458918571472,0.7492802739143372,0.42857030034065247,-0.5818957686424255,-0.5099847316741943,-0.46651938557624817
1551440,9.72599983215332,-0.4231795370578766,1.3243372440338135,0.6115863919258118,-0.25699782371520996,0.4538505971431732,0.6366288065910339,-0.37869152426719666,-0.5394280552864075,-0.40039217472076416,9.590731620788574,-0.1693120002746582,-1.944464087486267,-0.2285805344581604,-0.702556312084198,0.636148989200592,0.42855384945869446,-0.5819643139839172,-0.510001540184021,-0.4664306938648224
1551607,9.750862121582031,-0.4325816035270691,1.296829342842102,0.40755563974380493,-0.26962485909461975,0.4598439931869507,0.6366207003593445,-0.37873542308807373,-0.5394182205200195,-0.4003768563270569,9.545804977416992,-0.20248687267303467,-1.9636062383651733,-0.0764923170208931,-0.7142869234085083,0.6364691853523254,0.42854753136634827,-0.5820261240005493,-0.5100273489952087,-0.4663310945034027
1551774,9.749360084533691,-0.43965891003608704,1.3138127326965332,0.5008243918418884,-0.32859814167022705,0.49672627449035645,0.6366328597068787,-0.37875306606292725,-0.5394343733787537,-0.4003191590309143,9.599202156066895,-0.19218148291110992,-1.9614864587783813,0.3338039219379425,-0.7827625274658203,0.720542848110199,0.42857712507247925,-0.5820730924606323,-0.5100790858268738,-0.4661886990070343
1551940,9.72195053100586,-0.4486841559410095,1.332265019416809,0.5030525922775269,-0.5475098490715027,0.5734618902206421,0.6366279125213623,-0.3787948489189148,-0.5394626259803772,-0.4002492427825928,9.575919151306152,-0.14950476586818695,-1.9684985876083374,0.46541479229927063,-0.6130655407905579,0.4646592140197754,0.4285922944545746,-0.5821040272712708,-0.5101252794265747,-0.46608564257621765
1552107,9.734270095825195,-0.4474497139453888,1.2873355150222778,0.4052504897117615,-0.4890488088130951,0.682930588722229,0.6366204023361206,-0.3788619935512543,-0.5394657254219055,-0.40019357204437256,9.566380500793457,-0.13689029216766357,-1.9578303098678589,0.21980176866054535,-0.40384823083877563,0.048465628176927567,0.42859968543052673,-0.5820766091346741,-0.510210394859314,-0.4660199284553528
1552274,9.730476379394531,-0.44545844197273254,1.3117705583572388,0.04924681782722473,-0.5762985944747925,0.6188220381736755,0.6366025805473328,-0.37893494963645935,-0.5394790768623352,-0.400134801864624,9.582780838012695,-0.14635249972343445,-1.973816156387329,0.1628647744655609,-0.5326033234596252,0.09533688426017761,0.4285725951194763,-0.5820896029472351,-0.5102677345275879,-0.4659658968448639
1552440,9.779518127441406,-0.4044547379016876,1.2696858644485474,0.6334469318389893,-0.35962796211242676,0.13670137524604797,0.636572539806366,-0.3789479732513428,-0.539501428604126,-0.40014007687568665,9.60118293762207,-0.1482159048318863,-1.9869908094406128,0.1634410321712494,-0.24292366206645966,0.4804494380950928,0.4286191463470459,-0.5820824503898621,-0.5103082060813904,-0.46588754653930664
1552607,9.729157447814941,-0.4262588322162628,1.3001799583435059,0.42786651849746704,-0.20006078481674194,0.4836253821849823,0.6365991830825806,-0.37894973158836365,-0.5395126342773438,-0.40008094906806946,9.600770950317383,-0.14997681975364685,-1.9452234506607056,0.1528501808643341,0.13589458167552948,0.9109988808631897,0.4287399649620056,-0.5820621252059937,-0.5103117227554321,-0.46579796075820923
1552774,9.749902725219727,-0.4478081464767456,1.3072532415390015,0.7008082270622253,-0.33375903964042664,0.7521489262580872,0.636612057685852,-0.37899982929229736,-0.5395056009292603,-0.4000224471092224,9.569567680358887,-0.14758577942848206,-1.960671067237854,-0.09686722606420517,0.5054986476898193,0.8589794635772705,0.42879578471183777,-0.5821020007133484,-0.5101953148841858,-0.46582430601119995
1552940,9.745514869689941,-0.4395015835762024,1.3573960065841675,0.2749459445476532,0.00369463162496686,0.611868143081665,0.6366428732872009,-0.37902748584747314,-0.5394724607467651,-0.3999919295310974,9.570914268493652,-0.14912733435630798,-1.9539903402328491,-0.3115912675857544,0.6130335330963135,0.5855638980865479,0.42885419726371765,-0.5820927619934082,-0.51012122631073,-0.4658632278442383
1553107,9.736063003540039,-0.4621890187263489,1.3228497505187988,0.17643946409225464,-0.027981871739029884,0.33956673741340637,0.6366381645202637,-0.37906044721603394,-0.5394397377967834,-0.400012344121933,9.556390762329102,-0.1663973480463028,-1.9558169841766357,-0.2977604269981384,0.5793784260749817,0.28775227069854736,0.42887255549430847,-0.5820826888084412,-0.5100529193878174,-0.46593382954597473
1553607,9.750919342041016,-0.4361470937728882,1.3162803649902344,0.39236733317375183,0.08816530555486679,0.4023434817790985,0.6366565227508545,-0.3791211247444153,-0.5393397808074951,-0.4000605046749115,9.58665657043457,-0.17957566678524017,-1.9551483392715454,-0.1039491593837738,0.37086552381515503,0.19055210053920746,0.42891162633895874,-0.5820380449295044,-0.5100529789924622,-0.4659535586833954
1553774,9.754939079284668,-0.4313943088054657,1.3132798671722412,0.47594162821769714,0.2439417541027069,0.5250667333602905,0.6367103457450867,-0.3791099190711975,-0.539299488067627,-0.4000396132469177,9.580233573913574,-0.17236961424350739,-1.9637025594711304,-0.01521394308656454,0.6296561360359192,0.2911843955516815,0.4289625883102417,-0.5820014476776123,-0.5100073218345642,-0.4660022556781769
1553940,9.74738597869873,-0.43147340416908264,1.31166672706604,0.4026636481285095,0.3303973972797394,0.3036065399646759,0.6367508769035339,-0.3790871202945709,-0.5392563343048096,-0.40005505084991455,9.567645072937012,-0.1450938880443573,-1.9520655870437622,0.024671431630849838,0.7236035466194153,0.2062782645225525,0.4290370047092438,-0.5819289088249207,-0.5099899768829346,-0.4660433232784271
1554107,9.742894172668457,-0.4352959394454956,1.3016607761383057,0.3283611834049225,0.5427778959274292,0.20900601148605347,0.6367659568786621,-0.37909451127052307,-0.5391635298728943,-0.40014883875846863,9.593603134155273,-0.1306578814983368,-1.9643771648406982,-0.040160711854696274,0.8409481048583984,0.10152233392000198,0.4291165769100189,-0.5818344354629517,-0.5099818706512451,-0.4660969376564026
1554274,9.739627838134766,-0.4252965450286865,1.321111798286438,0.3939681351184845,0.5821062326431274,0.37190282344818115,0.6368266344070435,-0.3790663182735443,-0.5390905141830444,-0.40017738938331604,9.627805709838867,-0.14201046526432037,-1.951000452041626,-0.20013763010501862,1.1322669982910156,0.1103203073143959,0.4292105734348297,-0.581723153591156,-0.5099531412124634,-0.4661806523799896
1554440,9.726553916931152,-0.43248069286346436,1.3342819213867188,0.38136669993400574,0.6042357087135315,0.4991339147090912,0.636888325214386,-0.3790574371814728,-0.5390008091926575,-0.40020841360092163,9.61788558959961,-0.16035877168178558,-1.9533629417419434,-0.012409352697432041,1.5767112970352173,0.4500727653503418,0.4293593466281891,-0.5816136002540588,-0.5098596811294556,-0.46628257632255554
1554607,9.732626914978027,-0.463426411151886,1.3350732326507568,0.35027286410331726,0.45406830310821533,0.48215267062187195,0.6369524598121643,-0.3790358901023865,-0.5389403104782104,-0.400208443403244,9.614376068115234,-0.1649414449930191,-1.9490797519683838,0.18708156049251556,1.935519814491272,0.704688549041748,0.4295646846294403,-0.5814903378486633,-0.5097312331199646,-0.4663877785205841
1554774,9.733842849731445,-0.4589666724205017,1.3352771997451782,0.2683890759944916,0.4998510777950287,0.37733274698257446,0.6369916796684265,-0.37903493642807007,-0.5388591289520264,-0.4002561867237091,9.586929321289062,-0.15306775271892548,-1.918459415435791,0.4144071042537689,2.2463812828063965,0.7501255869865417,0.42983365058898926,-0.5813143849372864,-0.5096187591552734,-0.46648192405700684
1554940,9.72152328491211,-0.4563455581665039,1.3279098272323608,0.07825319468975067,0.3391057252883911,0.4218091070652008,0.6370230913162231,-0.3790475130081177,-0.5387912392616272,-0.4002857804298401,9.560880661010742,-0.15261264145374298,-1.9113402366638184,0.5359649658203125,2.1759331226348877,0.8188188076019287,0.4300720989704132,-0.5811840295791626,-0.5094631910324097,-0.4665944278240204
1555107,9.745050430297852,-0.4407818615436554,1.3429051637649536,0.1322575807571411,0.1930237114429474,0.42645788192749023,0.6370496153831482,-0.37905919551849365,-0.5387428998947144,-0.4002974331378937,9.55725383758545,-0.148880273103714,-1.8947821855545044,0.5978068113327026,1.937684178352356,0.6617873907089233,0.43030086159706116,-0.5810390114784241,-0.5093576908111572,-0.46667933464050293
1555274,9.741392135620117,-0.4309186637401581,1.3381953239440918,0.21881568431854248,0.3627590537071228,0.3282587230205536,0.6370803713798523,-0.37905579805374146,-0.5386815667152405,-0.40033426880836487,9.573041915893555,-0.16683639585971832,-1.887650966644287,0.5619105696678162,1.5902091264724731,0.6178870797157288,0.43049517273902893,-0.5809191465377808,-0.5092720985412598,-0.4667428433895111
1555440,9.737293243408203,-0.4397125542163849,1.328124761581421,0.169767364859581,0.47115200757980347,0.43553751707077026,0.6371240019798279,-0.37905752658843994,-0.5386022329330444,-0.40036991238594055,9.591695785522461,-0.14990824460983276,-1.8733190298080444,0.5182152986526489,1.5649422407150269,0.5402678847312927,0.4306804835796356,-0.5807952284812927,-0.5091947317123413,-0.46681055426597595
1555607,9.729500770568848,-0.44246625900268555,1.3396437168121338,0.14738185703754425,0.4562966227531433,0.5177542567253113,0.6371755003929138,-0.3790609538555145,-0.53852379322052,-0.4003901183605194,9.61111831665039,-0.13214974105358124,-1.8631248474121094,0.47349557280540466,1.7123305797576904,0.705482542514801,0.4308907091617584,-0.5806689262390137,-0.5090993642807007,-0.4668777585029602
1555774,9.723027229309082,-0.44618886709213257,1.3409276008605957,0.10943665355443954,0.3378891348838806,0.5082647800445557,0.6372101306915283,-0.3790801763534546,-0.5384500026702881,-0.4004160165786743,9.585854530334473,-0.1138049066066742,-1.8736392259597778,0.19452200829982758,1.8019492626190186,0.7680799961090088,0.4310951232910156,-0.5805505514144897,-0.5089830160140991,-0.46696317195892334
1555940,9.720223426818848,-0.43139418959617615,1.3084019422531128,0.0022987397387623787,0.28010687232017517,0.5102113485336304,0.6372311115264893,-0.379116952419281,-0.5383720993995667,-0.400452584028244,9.579538345336914,-0.11857611685991287,-1.838823676109314,-0.21038269996643066,1.6495153903961182,0.8298321962356567,0.4312339127063751,-0.5804973840713501,-0.5088145136833191,-0.4670845866203308
1556107,9.749560356140137,-0.4501550793647766,1.349674940109253,-0.1818629801273346,0.33886241912841797,0.34611082077026367,0.637242317199707,-0.37914717197418213,-0.538292646408081,-0.40051305294036865,9.585047721862793,-0.17274466156959534,-1.8569846153259277,-0.3233475387096405,1.4333314895629883,0.9595222473144531,0.4313815236091614,-0.5804470777511597,-0.5086734890937805,-0.4671644866466522
1556274,9.739829063415527,-0.47846075892448425,1.349066972732544,0.12365170568227768,0.3019545078277588,0.531585156917572,0.637247622013092,-0.37920665740966797,-0.5381945967674255,-0.40057989954948425,9.583025932312012,-0.19936199486255646,-1.8326835632324219,-0.18582014739513397,1.5366531610488892,0.8446877002716064,0.4315125346183777,-0.5804024934768677,-0.508510172367096,-0.46727681159973145
1556440,9.694356918334961,-0.45701780915260315,1.3520748615264893,0.31591343879699707,-0.06736139208078384,0.6413099765777588,0.6372803449630737,-0.3792259097099304,-0.5381731986999512,-0.40053850412368774,9.568319320678711,-0.21022866666316986,-1.8504374027252197,-0.16052760183811188,1.2339366674423218,0.8392321467399597,0.43164321780204773,-0.5803543925285339,-0.5083930492401123,-0.4673430919647217
1556607,9.772751808166504,-0.4234229326248169,1.3401801586151123,-0.19977906346321106,0.23630918562412262,0.4076453447341919,0.6372802257537842,-0.37927576899528503,-0.5380925536155701,-0.400599867105484,9.601997375488281,-0.18844479322433472,-1.8720676898956299,0.03331571817398071,1.1271699666976929,0.6957497000694275,0.43177494406700134,-0.5802881121635437,-0.5083109736442566,-0.4673929214477539
1556774,9.766755104064941,-0.4351026117801666,1.366490364074707,-0.21168895065784454,0.4879923164844513,0.08230000734329224,0.6372756958007812,-0.3792925179004669,-0.5380017757415771,-0.4007132351398468,9.62820816040039,-0.15747417509555817,-1.840957760810852,-0.0568089634180069,1.0782880783081055,0.1372520476579666,0.43184879422187805,-0.5801991820335388,-0.5082619190216064,-0.46748846769332886
1556940,9.747568130493164,-0.40570998191833496,1.3632574081420898,0.3343673646450043,0.6845954656600952,-0.23045027256011963,0.637298583984375,-0.37922170758247375,-0.5379420518875122,-0.4008238613605499,9.633624076843262,-0.17497363686561584,-1.8575873374938965,-0.5736476182937622,1.5462068319320679,-0.38826292753219604,0.43189460039138794,-0.5800532698631287,-0.5082140564918518,-0.46767905354499817
1557107,9.729211807250977,-0.45260128378868103,1.3710893392562866,0.025862423703074455,0.6364051699638367,0.16079013049602509,0.6373428106307983,-0.3791861832141876,-0.5378658771514893,-0.40088924765586853,9.579923629760742,-0.19407081604003906,-1.83578360080719,-0.4671371877193451,1.5357567071914673,-0.36407172679901123,0.43193745613098145,-0.5799165964126587,-0.508156418800354,-0.46787163615226746
1557274,9.724679946899414,-0.45909202098846436,1.3786743879318237,0.43827807903289795,0.2947957515716553,0.4124988913536072,0.637378990650177,-0.37917718291282654,-0.5378132462501526,-0.40091097354888916,9.591577529907227,-0.1626194566488266,-1.8321211338043213,-0.20862825214862823,1.642113447189331,-0.10634392499923706,0.43202629685401917,-0.5797768831253052,-0.5080859065055847,-0.46803921461105347
1557440,9.706774711608887,-0.41824817657470703,1.3999385833740234,0.2832060158252716,0.5215194225311279,0.028859106823801994,0.6374074816703796,-0.37913185358047485,-0.537756621837616,-0.40098443627357483,9.602045059204102,-0.1278136968612671,-1.8430088758468628,-0.08114103972911835,1.744410753250122,-0.06766875088214874,0.4321284294128418,-0.5796322822570801,-0.5080059766769409,-0.468210905790329
1557607,9.713723182678223,-0.43987706303596497,1.3744902610778809,0.13598421216011047,0.34700724482536316,-0.008567447774112225,0.6374170780181885,-0.37910008430480957,-0.5377140641212463,-0.401056170463562,9.61760139465332,-0.14832167327404022,-1.8441648483276367,-0.27596402168273926,1.9092280864715576,-0.26210758090019226,0.4322165250778198,-0.5794697403907776,-0.50792396068573,-0.46841961145401
1557774,9.736170768737793,-0.4438895881175995,1.3462597131729126,0.2681969702243805,0.33078157901763916,0.01986905001103878,0.637425422668457,-0.3790709376335144,-0.5376706719398499,-0.4011287987232208,9.595525741577148,-0.14899271726608276,-1.8414664268493652,-0.3093758225440979,2.185218095779419,-0.317648708820343,0.4323076903820038,-0.5792969465255737,-0.5078145861625671,-0.468667596578598
1557940,9.740758895874023,-0.43743452429771423,1.3575283288955688,0.11810656636953354,0.3993724286556244,0.16023945808410645,0.6374365091323853,-0.37906569242477417,-0.5376020669937134,-0.4012080132961273,9.592244148254395,-0.1388780176639557,-1.8444807529449463,-0.2437945008277893,2.0997869968414307,-0.39365437626838684,0.4323917329311371,-0.5791208148002625,-0.5077208876609802,-0.4689093232154846
1558107,9.748916625976562,-0.4444581866264343,1.3438206911087036,0.1101025864481926,0.41176894307136536,0.2897244393825531,0.6374544501304626,-0.3790716528892517,-0.5375238060951233,-0.4012787938117981,9.567967414855957,-0.1483725905418396,-1.8634532690048218,-0.15028250217437744,1.9106751680374146,-0.22941292822360992,0.43246981501579285,-0.5789744257926941,-0.5076194405555725,-0.469127893447876
1558274,9.750021934509277,-0.4610734283924103,1.336414098739624,0.25040891766548157,0.5713104009628296,0.34371599555015564,0.6374980211257935,-0.3790559768676758,-0.5374382734298706,-0.4013388752937317,9.569794654846191,-0.14212340116500854,-1.8645299673080444,-0.1030270978808403,1.518532156944275,-0.14973184466362,0.43254411220550537,-0.5788403153419495,-0.5075597167015076,-0.4692894220352173
1558440,9.738612174987793,-0.4291519820690155,1.324707269668579,0.285639226436615,0.8707230091094971,0.2255774587392807,0.6375767588615417,-0.3789883852005005,-0.5373497009277344,-0.40139633417129517,9.601263046264648,-0.1348302811384201,-1.883177399635315,-0.174102321267128,1.343879222869873,0.06763673573732376,0.43259328603744507,-0.5787604451179504,-0.5074630975723267,-0.4694470763206482
1558607,9.746452331542969,-0.44522392749786377,1.331722617149353,0.2034224569797516,0.9853653907775879,0.18340612947940826,0.6376433372497559,-0.378936231136322,-0.5372353196144104,-0.4014929533004761,9.589174270629883,-0.12280842661857605,-1.8854881525039673,-0.3267156183719635,1.3709518909454346,-0.03920023888349533,0.43264028429985046,-0.578662633895874,-0.5073848366737366,-0.4696090519428253
1558774,9.753828048706055,-0.4436004161834717,1.3326475620269775,0.34397217631340027,1.1454576253890991,0.13791799545288086,0.6377329230308533,-0.37885037064552307,-0.5371224880218506,-0.40158259868621826,9.594033241271973,-0.14093300700187683,-1.8836042881011963,-0.3939489424228668,1.4037103652954102,-0.037753116339445114,0.43268364667892456,-0.5785663723945618,-0.5073009729385376,-0.4697781205177307
1558941,9.750475883483887,-0.42919862270355225,1.371968150138855,0.3079735040664673,1.2955095767974854,0.20606057345867157,0.6378370523452759,-0.3787631392478943,-0.5369911193847656,-0.40167534351348877,9.513708114624023,-0.12627191841602325,-1.8992388248443604,-0.48044297099113464,1.4828665256500244,-0.21761828660964966,0.4327313303947449,-0.5784380435943604,-0.5072441697120667,-0.4699535667896271
1559107,9.72380542755127,-0.4196680784225464,1.3772495985031128,0.5236196517944336,1.1660116910934448,0.27363964915275574,0.6379343271255493,-0.37868449091911316,-0.5368689894676208,-0.4017581045627594,9.5180082321167,-0.16520938277244568,-1.894260287284851,-0.39283475279808044,0.7484990954399109,-0.5149304866790771,0.43270760774612427,-0.5783358812332153,-0.5072616338729858,-0.47008222341537476
1559274,9.770368576049805,-0.43277767300605774,1.3490746021270752,0.15391311049461365,1.8981889486312866,0.2904416024684906,0.6380773782730103,-0.3785876929759979,-0.5366641283035278,-0.4018959403038025,9.607307434082031,-0.15307195484638214,-1.8948370218276978,-0.2548207640647888,0.773343563079834,-0.5102562308311462,0.432692289352417,-0.578229546546936,-0.5072809457778931,-0.47020652890205383
1559441,9.747750282287598,-0.43429189920425415,1.3324323892593384,0.8172308206558228,2.052236795425415,-0.0685523971915245,0.6382311582565308,-0.3784134089946747,-0.5364883542060852,-0.4020503759384155,9.675660133361816,-0.11182311177253723,-1.882673978805542,-0.1573900282382965,1.2806668281555176,-0.9101855754852295,0.4326893091201782,-0.5780577063560486,-0.5073037147521973,-0.47039586305618286
1559607,9.72859001159668,-0.40801364183425903,1.3717107772827148,0.9186058044433594,2.551863431930542,-0.47106876969337463,0.6384263634681702,-0.37814217805862427,-0.5363141298294067,-0.40222808718681335,9.713242530822754,-0.09877748787403107,-1.8773181438446045,-0.35984566807746887,2.371588706970215,-1.2963995933532715,0.4327094852924347,-0.5778089165687561,-0.5072614550590515,-0.4707283079624176
1559774,9.739360809326172,-0.45074570178985596,1.4095348119735718,0.6620051264762878,2.148374080657959,-0.019363200291991234,0.6386111378669739,-0.3779410123825073,-0.5361464023590088,-0.40234729647636414,9.672536849975586,-0.0898105800151825,-1.8473427295684814,-0.4564310908317566,3.2319960594177246,-1.0260831117630005,0.43280234932899475,-0.5775277018547058,-0.5071355700492859,-0.4711235463619232
1559941,9.737494468688965,-0.4640142321586609,1.4102182388305664,0.43035101890563965,2.1445064544677734,-0.0799628496170044,0.638766348361969,-0.3777734339237213,-0.535956621170044,-0.40251123905181885,9.647758483886719,-0.13770122826099396,-1.802096962928772,-0.34990790486335754,3.599141836166382,-0.5255085825920105,0.4329744875431061,-0.5772407650947571,-0.5069646239280701,-0.471500962972641
1560107,9.724664688110352,-0.4489395022392273,1.4244505167007446,0.28391033411026,1.9446375370025635,-0.24699603021144867,0.6388700008392334,-0.3776412904262543,-0.535768985748291,-0.40272071957588196,9.62587833404541,-0.1303241103887558,-1.7869921922683716,-0.13430021703243256,3.8125343322753906,-0.10975043475627899,0.43319690227508545,-0.5769681930541992,-0.506746232509613,-0.47186511754989624
1560274,9.749524116516113,-0.43524909019470215,1.3982398509979248,0.08506617695093155,2.206630229949951,-0.4469672441482544,0.6389851570129395,-0.3774787485599518,-0.53556889295578,-0.40295639634132385,9.590373039245605,-0.131511390209198,-1.729300856590271,-0.034116122871637344,3.8118040561676025,-0.1528053879737854,0.4334224462509155,-0.5766870975494385,-0.5065369606018066,-0.47222617268562317
1560441,9.704036712646484,-0.4350985586643219,1.4380470514297485,0.3165537416934967,2.1536247730255127,-0.5706509351730347,0.6390963792800903,-0.37729427218437195,-0.5353895425796509,-0.4031909704208374,9.602134704589844,-0.13761165738105774,-1.7269920110702515,0.31691238284111023,3.5782670974731445,-0.46041393280029297,0.43365442752838135,-0.576361358165741,-0.5064100623130798,-0.47254666686058044
1560607,9.703168869018555,-0.4152008891105652,1.3959572315216064,0.5814658999443054,1.982903242111206,-0.5306823253631592,0.6392379999160767,-0.37706437706947327,-0.5352637767791748,-0.4033486843109131,9.661833763122559,-0.10816396772861481,-1.7153953313827515,0.45382508635520935,3.820141077041626,-0.30219146609306335,0.43392738699913025,-0.576021134853363,-0.5062646865844727,-0.4728666841983795
1560774,9.723868370056152,-0.4296445846557617,1.4872758388519287,0.5960395336151123,2.161308526992798,-0.6067777276039124,0.6393696665763855,-0.37684088945388794,-0.5351088047027588,-0.40355411171913147,9.666706085205078,-0.08345978707075119,-1.6994116306304932,0.47136977314949036,4.2638936042785645,-0.39624127745628357,0.4342101216316223,-0.5756584405899048,-0.5060809850692749,-0.4732449948787689
1560941,9.693917274475098,-0.400317519903183,1.4857597351074219,0.8544331789016724,1.8804781436920166,-0.5067984461784363,0.6395204067230225,-0.37659093737602234,-0.5350081920623779,-0.4036822021007538,9.72973346710205,-0.056897830218076706,-1.6775568723678589,0.3425506353378296,4.9540910720825195,-0.2660006880760193,0.43456506729125977,-0.5752421021461487,-0.5058608651161194,-0.4736608564853668
1561107,9.699101448059082,-0.39380699396133423,1.5048673152923584,0.6203845143318176,1.6360689401626587,-0.38092491030693054,0.6396243572235107,-0.37641432881355286,-0.5348891019821167,-0.4038398563861847,9.718643188476562,-0.03878746181726456,-1.6712713241577148,-0.00416206382215023,5.771047592163086,-0.036728616803884506,0.4349636733531952,-0.5748101472854614,-0.505542516708374,-0.4741590917110443
1561274,9.709800720214844,-0.39517873525619507,1.5127785205841064,0.5720148682594299,1.4183481931686401,-0.21943680942058563,0.6397306323051453,-0.376251757144928,-0.5347893238067627,-0.40395525097846985,9.692157745361328,-0.04629938676953316,-1.6563183069229126,-0.3293793499469757,6.281944274902344,0.3334197402000427,0.4353933036327362,-0.5743929147720337,-0.5051345825195312,-0.47470468282699585
1561441,9.699075698852539,-0.37639233469963074,1.5159564018249512,0.185903400182724,1.170148253440857,-0.12938255071640015,0.6397929787635803,-0.3761571943759918,-0.534676730632782,-0.40409359335899353,9.687685012817383,-0.05744820833206177,-1.6542999744415283,-0.7343930006027222,6.738567352294922,0.512055516242981,0.43582651019096375,-0.5739885568618774,-0.5046470761299133,-0.47531449794769287
1561607,9.706175804138184,-0.40471938252449036,1.5348036289215088,-0.009258989244699478,1.0553008317947388,-0.11287516355514526,0.6398388147354126,-0.37608593702316284,-0.5345640182495117,-0.4042363166809082,9.637660026550293,-0.08128441125154495,-1.6107232570648193,-0.7400407791137695,6.912415027618408,0.7316461801528931,0.4362712502479553,-0.5736018419265747,-0.5041134357452393,-0.47593939304351807
1561774,9.722392082214355,-0.39802172780036926,1.5085848569869995,0.1508011668920517,0.9103585481643677,-0.07791382819414139,0.6398835778236389,-0.3760112226009369,-0.5344712138175964,-0.40435758233070374,9.626504898071289,-0.10407964885234833,-1.591342568397522,-0.6933742165565491,6.56422233581543,0.8118778467178345,0.4367220997810364,-0.5732200741767883,-0.5036221742630005,-0.47650542855262756
1561941,9.709166526794434,-0.3836626708507538,1.4902377128601074,-0.06608076393604279,0.7983542680740356,-0.03913620486855507,0.6399027705192566,-0.37597471475601196,-0.5343675017356873,-0.4044983685016632,9.627799034118652,-0.12715190649032593,-1.57814621925354,-0.2927532196044922,6.375860214233398,0.6475532054901123,0.4371805787086487,-0.5728129148483276,-0.5031842589378357,-0.4770369827747345
1562107,9.720659255981445,-0.4056239724159241,1.4552980661392212,0.19575144350528717,0.6973761916160583,0.045353688299655914,0.6399510502815247,-0.37590429186820984,-0.5342991948127747,-0.40457767248153687,9.609739303588867,-0.12194010615348816,-1.5717533826828003,0.05493283271789551,6.022896766662598,0.6989001035690308,0.4376314580440521,-0.5724241733551025,-0.5027734637260437,-0.47752317786216736
1562274,9.72379207611084,-0.3813976049423218,1.4616117477416992,0.3783443868160248,1.0466821193695068,-0.012883187271654606,0.6400253772735596,-0.3758012354373932,-0.5342056751251221,-0.40467914938926697,9.639007568359375,-0.12831953167915344,-1.5555170774459839,0.5150009393692017,5.658415794372559,0.4289551079273224,0.43807414174079895,-0.5720109343528748,-0.502440333366394,-0.47796303033828735
1562441,9.683061599731445,-0.39432141184806824,1.5064382553100586,0.3345467150211334,1.0744720697402954,-0.06615760922431946,0.6401044726371765,-0.37568557262420654,-0.534117579460144,-0.4047776758670807,9.676304817199707,-0.09870383888483047,-1.5434200763702393,0.669611930847168,5.70200777053833,0.3760008215904236,0.4385358393192291,-0.5715743899345398,-0.5021258592605591,-0.47839173674583435
1562607,9.692736625671387,-0.3996116816997528,1.4892776012420654,0.45983123779296875,0.8972319960594177,0.2216074913740158,0.6401978731155396,-0.3755859136581421,-0.5340410470962524,-0.4048234224319458,9.664138793945312,-0.10220259428024292,-1.5437124967575073,0.7792216539382935,5.812399387359619,0.5096350908279419,0.43902692198753357,-0.571128785610199,-0.5018050074577332,-0.4788101613521576
1562774,9.707996368408203,-0.40256360173225403,1.4801028966903687,0.5393842458724976,0.8883445262908936,0.22492435574531555,0.640286386013031,-0.37548890709877014,-0.5339627861976624,-0.4048767387866974,9.669872283935547,-0.07878436893224716,-1.5510886907577515,0.830754280090332,5.736124038696289,0.6865163445472717,0.4395162761211395,-0.5707084536552429,-0.5014652609825134,-0.4792182743549347
1562941,9.72372817993164,-0.3683883249759674,1.4836190938949585,0.4689493179321289,1.0706171989440918,0.04429075866937637,0.6403775811195374,-0.37537020444869995,-0.5338757038116455,-0.4049573242664337,9.69324016571045,-0.07520826905965805,-1.5323833227157593,0.723706066608429,5.886586666107178,0.828410804271698,0.440019428730011,-0.5702917575836182,-0.5010995268821716,-0.4796348512172699
1563107,9.718698501586914,-0.37848222255706787,1.5139044523239136,0.5124268531799316,0.9084503650665283,0.03175334259867668,0.6404391527175903,-0.37527745962142944,-0.5337917804718018,-0.4050566852092743,9.689908981323242,-0.09495280683040619,-1.529456615447998,0.5796602368354797,6.093216896057129,0.7774287462234497,0.44053447246551514,-0.5698538422584534,-0.500728189945221,-0.4800703823566437
1563274,9.731081008911133,-0.4173905849456787,1.4708994626998901,0.668408215045929,0.9850451946258545,0.17423678934574127,0.6405303478240967,-0.37516844272613525,-0.5337077379226685,-0.4051242768764496,9.690027236938477,-0.07772878557443619,-1.5166566371917725,0.5045382976531982,6.433201313018799,0.9796412587165833,0.44108128547668457,-0.569411039352417,-0.5003132224082947,-0.48052605986595154
1563441,9.685608863830566,-0.3663892447948456,1.5046926736831665,0.9228190779685974,1.031609058380127,0.21013298630714417,0.6406453847885132,-0.37503015995025635,-0.533636212348938,-0.4051646292209625,9.6720609664917,-0.09419198334217072,-1.5342967510223389,0.45354339480400085,6.81668758392334,1.0819640159606934,0.4416700601577759,-0.5689412951469421,-0.49987319111824036,-0.4809991419315338
1563607,9.75774097442627,-0.3696683347225189,1.4640930891036987,0.27174437046051025,1.2625974416732788,-0.07348284125328064,0.6407273411750793,-0.3749147653579712,-0.5335217118263245,-0.4052925705909729,9.712967872619629,-0.08428344875574112,-1.535014271736145,0.49866005778312683,7.135743141174316,1.1437928676605225,0.4422714412212372,-0.5684652328491211,-0.49939391016960144,-0.48150700330734253
1563774,9.757817268371582,-0.37800565361976624,1.5044589042663574,0.07638347148895264,2.2185399532318115,-0.13387759029865265,0.640880286693573,-0.3747429847717285,-0.5333195328712463,-0.4054756760597229,9.749306678771973,-0.08284314721822739,-1.5164226293563843,0.3452272117137909,7.808961391448975,0.767042875289917,0.4428795874118805,-0.5679246187210083,-0.4988912045955658,-0.4821067452430725
1563941,9.752124786376953,-0.3343418538570404,1.4938031435012817,0.7903247475624084,2.7227134704589844,-0.5248298645019531,0.6410586833953857,-0.37447747588157654,-0.5331100821495056,-0.40571439266204834,9.810881614685059,-0.11806461215019226,-1.4898297786712646,0.06259104609489441,8.944397926330566,0.24765567481517792,0.4435124099254608,-0.5672819018363953,-0.49834108352661133,-0.4828502833843231
1564107,9.747076988220215,-0.3799069821834564,1.513373613357544,0.30487436056137085,3.335599422454834,-0.27166110277175903,0.6412855982780457,-0.37422528862953186,-0.5328121781349182,-0.4059797525405884,9.771378517150879,-0.13845199346542358,-1.467093825340271,0.2127583771944046,10.048358917236328,0.3058989942073822,0.4442441761493683,-0.5665522217750549,-0.4977283477783203,-0.483665406703949
1564274,9.715591430664062,-0.39928847551345825,1.5507925748825073,0.5763817429542542,3.272143840789795,0.12993963062763214,0.6415502429008484,-0.3739772140979767,-0.5325179696083069,-0.40617606043815613,9.754815101623535,-0.15377801656723022,-1.4332517385482788,0.8803920745849609,10.997809410095215,0.6721479296684265,0.4451225996017456,-0.5657390356063843,-0.49706950783729553,-0.4844866394996643
1564441,9.695005416870117,-0.36617588996887207,1.551815390586853,0.6973377466201782,3.36872935295105,-0.05050824210047722,0.6418100595474243,-0.37370699644088745,-0.5322251915931702,-0.40639814734458923,9.746430397033691,-0.12586316466331482,-1.3875974416732788,1.300158977508545,11.826472282409668,0.8339691758155823,0.44610610604286194,-0.5648499131202698,-0.4963732063770294,-0.4853326380252838
1564607,9.678943634033203,-0.36278948187828064,1.573997974395752,0.46417251229286194,3.1509828567504883,-0.26057079434394836,0.642031729221344,-0.37345004081726074,-0.5319534540176392,-0.40663984417915344,9.763127326965332,-0.10745939612388611,-1.3673938512802124,1.5148447751998901,12.808809280395508,0.5293187499046326,0.44715121388435364,-0.5638570785522461,-0.49564865231513977,-0.4862651228904724
1564774,9.688093185424805,-0.3579849898815155,1.605875015258789,0.28254011273384094,3.131901979446411,-0.2636827826499939,0.6422355771064758,-0.37321582436561584,-0.5316687822341919,-0.4069051444530487,9.777446746826172,-0.09480296820402145,-1.3236957788467407,1.3406144380569458,13.791122436523438,0.4356915056705475,0.44823968410491943,-0.56280118227005,-0.4948498606681824,-0.48729848861694336
1564941,9.706530570983887,-0.36622896790504456,1.5968899726867676,0.4883893132209778,3.357792854309082,-0.09833995997905731,0.642497718334198,-0.37294065952301025,-0.5313805341720581,-0.4071200489997864,9.789563179016113,-0.08699653297662735,-1.2939399480819702,1.361872911453247,14.903496742248535,0.28648462891578674,0.4494047164916992,-0.5616443753242493,-0.49399927258491516,-0.4884215295314789
1565107,9.716063499450684,-0.37886667251586914,1.6133277416229248,0.6267619729042053,3.6072990894317627,0.03855351731181145,0.6427781581878662,-0.3726656436920166,-0.5310572385787964,-0.40735098719596863,9.82678508758545,-0.09292777627706528,-1.2673276662826538,1.255798101425171,16.15059471130371,0.4179804027080536,0.45065635442733765,-0.5604133605957031,-0.4930465817451477,-0.4896438419818878
1565274,9.704010009765625,-0.3852687478065491,1.622670292854309,0.9575883746147156,4.011761665344238,0.1446797251701355,0.6431102156639099,-0.3723470866680145,-0.5307069420814514,-0.40757453441619873,9.869935989379883,-0.11581720411777496,-1.219028115272522,1.293615460395813,17.584806442260742,0.7015005350112915,0.45202845335006714,-0.5590963959693909,-0.49197515845298767,-0.4909602403640747
1565441,9.69409465789795,-0.38081878423690796,1.5933293104171753,1.069157361984253,4.313261985778809,0.15434853732585907,0.6434873938560486,-0.37198424339294434,-0.5303453803062439,-0.40778109431266785,9.825501441955566,-0.10746395587921143,-1.1480491161346436,1.559847354888916,19.12614631652832,1.0766247510910034,0.45355236530303955,-0.5576779246330261,-0.4907849431037903,-0.4923574924468994
1565607,9.728650093078613,-0.37958812713623047,1.5897586345672607,0.8110837936401367,4.597909450531006,0.05813442915678024,0.6438748240470886,-0.37161290645599365,-0.5299527049064636,-0.40801841020584106,9.752776145935059,-0.1304093301296234,-1.0986878871917725,1.591274380683899,19.75664710998535,1.155281662940979,0.45513325929641724,-0.5562061071395874,-0.48955416679382324,-0.49378702044487
1565774,9.717449188232422,-0.37485063076019287,1.5961076021194458,0.44725534319877625,4.973377704620361,-0.03142677992582321,0.6442555785179138,-0.3712562918663025,-0.5295010805130005,-0.40832868218421936,9.728757858276367,-0.14465485513210297,-1.0556331872940063,1.7235766649246216,19.79685401916504,0.9068764448165894,0.4567055106163025,-0.5547004342079163,-0.48834681510925293,-0.4952222406864166
1565941,9.736610412597656,-0.3692767024040222,1.5892902612686157,0.6143910884857178,5.183748722076416,-0.014893787913024426,0.6446588039398193,-0.3708759844303131,-0.5290364623069763,-0.4086398780345917,9.682374000549316,-0.15140400826931,-0.9698656797409058,1.9868247509002686,19.553768157958984,0.7927590608596802,0.458269327878952,-0.5531825423240662,-0.48718056082725525,-0.4966222941875458
1566107,9.685879707336426,-0.38971832394599915,1.5809170007705688,1.078723669052124,5.349193572998047,0.08423376828432083,0.6451175808906555,-0.37043628096580505,-0.5285878777503967,-0.4088951647281647,9.645986557006836,-0.1781720519065857,-0.9072466492652893,2.284041404724121,18.859169006347656,0.6428540349006653,0.45979300141334534,-0.5516801476478577,-0.4860907793045044,-0.4979510009288788
1566274,9.72424030303955,-0.3553251624107361,1.5810034275054932,0.48923459649086,5.719527244567871,0.002311546355485916,0.6455551981925964,-0.370035856962204,-0.5280654430389404,-0.40924176573753357,9.666699409484863,-0.15258102118968964,-0.835527777671814,2.6759350299835205,18.097219467163086,0.5610148310661316,0.46128493547439575,-0.5501973628997803,-0.48508378863334656,-0.4991922676563263
1566441,9.720111846923828,-0.3736211359500885,1.5809202194213867,0.9807425141334534,6.276604652404785,-0.25364261865615845,0.6460356116294861,-0.3695462644100189,-0.5275272130966187,-0.40962010622024536,9.698182106018066,-0.10502998530864716,-0.7433739900588989,2.5530571937561035,17.24905014038086,0.2715909481048584,0.462682843208313,-0.5487603545188904,-0.4841451346874237,-0.5003901124000549
1566607,9.712891578674316,-0.3259551525115967,1.6440504789352417,1.0190590620040894,6.854133129119873,-0.6354896426200867,0.6465478539466858,-0.368980348110199,-0.5269639492034912,-0.41004714369773865,9.719961166381836,-0.10465098917484283,-0.6746513843536377,2.283022165298462,16.63522720336914,-0.27085456252098083,0.46397340297698975,-0.5473443269729614,-0.4832688868045807,-0.501591682434082
1566774,9.689508438110352,-0.371305912733078,1.687772512435913,0.746898353099823,6.7069993019104,-0.18402725458145142,0.6470445990562439,-0.36849698424339294,-0.5263644456863403,-0.4104679226875305,9.732926368713379,-0.10663838684558868,-0.6215958595275879,2.111788272857666,15.940750122070312,-0.26206937432289124,0.46519938111305237,-0.5459877252578735,-0.48242393136024475,-0.5027468204498291
1566941,9.694902420043945,-0.37339597940444946,1.720994234085083,0.7950118184089661,6.607571125030518,-0.10332164913415909,0.6475564241409302,-0.3680054247379303,-0.5257829427719116,-0.41084665060043335,9.752677917480469,-0.1162542924284935,-0.5627434849739075,1.9208323955535889,15.553253173828125,0.1507628709077835,0.4664105772972107,-0.5446980595588684,-0.4815561771392822,-0.5038543939590454
1567107,9.656885147094727,-0.3546060621738434,1.7528283596038818,0.979974091053009,6.750029563903809,-0.2794858515262604,0.6480728983879089,-0.36747831106185913,-0.5252054929733276,-0.4112427830696106,9.742591857910156,-0.11535253375768661,-0.5293058753013611,1.8337491750717163,15.075332641601562,0.4285712242126465,0.46759942173957825,-0.5434656739234924,-0.4806900918483734,-0.504909098148346
1567274,9.63870906829834,-0.3501167297363281,1.8153332471847534,0.7769291996955872,6.616074562072754,-0.6535080671310425,0.6485502123832703,-0.3669441342353821,-0.524651288986206,-0.41167429089546204,9.754714012145996,0.00862197671085596,-0.4619852304458618,1.4350998401641846,14.524337768554688,0.757412850856781,0.4687401056289673,-0.5423208475112915,-0.47980421781539917,-0.5059236288070679
1567441,9.590860366821289,-0.3598123788833618,1.8892884254455566,0.517062783241272,5.998027324676514,-0.8131648302078247,0.6489594578742981,-0.36645621061325073,-0.524149477481842,-0.4121032953262329,9.7449312210083,0.04000617563724518,-0.4095907509326935,-0.0822296142578125,14.290422439575195,1.0240731239318848,0.4697619676589966,-0.5413119792938232,-0.4788002073764801,-0.5070062875747681
1567607,9.65439224243164,-0.3412122428417206,1.870994210243225,0.6704445481300354,5.155895233154297,-0.7358145713806152,0.6493163108825684,-0.3660106062889099,-0.523730456829071,-0.41246944665908813,9.79680061340332,-0.014282742515206337,-0.38525882363319397,-1.2709925174713135,14.052728652954102,1.198578953742981,0.4706840217113495,-0.5404106974601746,-0.4777098000049591,-0.5081402659416199
1567774,9.652710914611816,-0.3166576325893402,1.8844832181930542,0.8085481524467468,5.261687278747559,-0.6251035332679749,0.6496783494949341,-0.36556652188301086,-0.523294985294342,-0.4128457307815552,9.82754135131836,-0.038883909583091736,-0.3390680253505707,-2.2560577392578125,14.300201416015625,1.5388057231903076,0.4715684652328491,-0.5395789742469788,-0.47650134563446045,-0.5093374252319336
1567941,9.650668144226074,-0.32829493284225464,1.909449815750122,0.4184795320034027,5.544209003448486,-0.7782291769981384,0.650029182434082,-0.3651331961154938,-0.522814929485321,-0.41328510642051697,9.838310241699219,-0.07849955558776855,-0.33045661449432373,-2.9407880306243896,14.588037490844727,1.6500800848007202,0.47242501378059387,-0.5387772917747498,-0.4752119183540344,-0.5105953812599182
1568107,9.64713191986084,-0.31023216247558594,1.9272130727767944,0.31670743227005005,5.439196586608887,-0.7815843224525452,0.6503865718841553,-0.36469766497612,-0.5223495364189148,-0.4136956036090851,9.848616600036621,-0.089853934943676,-0.31423792243003845,-3.355804204940796,15.105135917663574,1.6627970933914185,0.4732831120491028,-0.537963330745697,-0.47385314106941223,-0.5119196772575378
1568274,9.639150619506836,-0.2978730797767639,1.939174771308899,-0.08685267716646194,5.536973476409912,-0.8599337339401245,0.6507216095924377,-0.3642905652523041,-0.5218521356582642,-0.41415491700172424,9.85108470916748,-0.12339524179697037,-0.25445207953453064,-3.5009002685546875,15.594167709350586,1.4508004188537598,0.47414517402648926,-0.5371053218841553,-0.47246453166007996,-0.513304591178894
1568441,9.625763893127441,-0.30013301968574524,1.9624212980270386,-0.13325008749961853,5.610942363739014,-0.8025869131088257,0.6510819792747498,-0.3638722002506256,-0.521350622177124,-0.41458770632743835,9.83918285369873,-0.13933339715003967,-0.2202945351600647,-3.4774653911590576,16.094236373901367,1.2380999326705933,0.47502484917640686,-0.5361903309822083,-0.4710574150085449,-0.5147390365600586
1568607,9.622934341430664,-0.3165532946586609,1.979827642440796,-0.2990923225879669,5.398434162139893,-0.6939377784729004,0.6514195203781128,-0.36349302530288696,-0.5208508372306824,-0.4150179624557495,9.81574535369873,-0.1638309210538864,-0.18324820697307587,-3.3232502937316895,16.286226272583008,1.0018352270126343,0.4759092926979065,-0.5352309346199036,-0.4696645438671112,-0.5161914825439453
1568774,9.636996269226074,-0.3238384425640106,2.0023136138916016,-0.35054829716682434,5.395348072052002,-0.6123613715171814,0.6517492532730103,-0.3631319999694824,-0.5203385353088379,-0.4154588580131531,9.771749496459961,-0.152947336435318,-0.13922247290611267,-2.9765052795410156,16.003347396850586,0.8581478595733643,0.4767879843711853,-0.5342557430267334,-0.4683258831501007,-0.517605185508728
1568941,9.611466407775879,-0.3484354019165039,2.030489921569824,0.04348396137356758,5.034412860870361,-0.47177305817604065,0.6520780920982361,-0.36276692152023315,-0.5198754072189331,-0.4158412516117096,9.703084945678711,-0.13141559064388275,-0.09330066293478012,-2.728074789047241,15.255684852600098,0.6660779714584351,0.4776180386543274,-0.5333035588264465,-0.46707040071487427,-0.5189545154571533
1569107,9.571840286254883,-0.33785954117774963,2.0495691299438477,0.13034944236278534,4.297024250030518,-0.28126588463783264,0.652364194393158,-0.3624538779258728,-0.519475519657135,-0.41616514325141907,9.718047142028809,-0.16367526352405548,-0.04689982533454895,-2.699964761734009,14.06008243560791,0.3089213967323303,0.4783397316932678,-0.5324127674102783,-0.46592581272125244,-0.5202316641807556
1569274,9.570938110351562,-0.3206695318222046,1.9257668256759644,0.32281604409217834,3.209841251373291,-0.18127389252185822,0.652574896812439,-0.3622015416622162,-0.5191807746887207,-0.4164223074913025,9.791218757629395,-0.21710871160030365,0.010928765870630741,-2.2207376956939697,13.394036293029785,-0.28765639662742615,0.47900643944740295,-0.5314963459968567,-0.46490833163261414,-0.5214642286300659
1569441,9.661520957946777,-0.2941814661026001,1.8864383697509766,0.1837647259235382,3.2073183059692383,-0.11421982944011688,0.6527860164642334,-0.3619654178619385,-0.5188756585121155,-0.4166768193244934,9.821306228637695,-0.21031755208969116,0.06069347262382507,-1.7327004671096802,13.117009162902832,-0.7344191074371338,0.47965675592422485,-0.5305347442626953,-0.46397966146469116,-0.5226714611053467
1569607,9.680800437927246,-0.3507688045501709,1.866319179534912,0.43227195739746094,3.5595316886901855,-0.10494804382324219,0.6530507206916809,-0.3616774082183838,-0.518556535243988,-0.41690921783447266,9.837667465209961,-0.24255308508872986,0.09854363650083542,-0.9395257234573364,13.171089172363281,-0.8951003551483154,0.480358362197876,-0.5295009016990662,-0.46311792731285095,-0.5238385796546936
1569774,9.613900184631348,-0.3436358869075775,1.922051191329956,0.6789350509643555,4.225231170654297,-0.28984612226486206,0.6533575057983398,-0.3613163232803345,-0.5181969404220581,-0.4171885848045349,9.781320571899414,-0.2061677724123001,0.11736582219600677,-0.2318078726530075,13.098502159118652,-0.9058063626289368,0.48110753297805786,-0.5284205079078674,-0.4623139202594757,-0.5249509811401367
1569941,9.615270614624023,-0.31749483942985535,1.9320093393325806,0.6294512748718262,4.060131072998047,-0.4213545024394989,0.653655469417572,-0.360951691865921,-0.5178621411323547,-0.4174531400203705,9.780092239379883,-0.17907041311264038,0.14873062074184418,0.3265300691127777,12.585004806518555,-1.1213117837905884,0.48184719681739807,-0.5273239612579346,-0.46160316467285156,-0.5259994268417358
1570107,9.666254997253418,-0.30434200167655945,1.9897911548614502,0.3688293397426605,4.656280517578125,-0.7210103869438171,0.6539497971534729,-0.3605620265007019,-0.5174657702445984,-0.4178203046321869,9.826464653015137,-0.15299387276172638,0.1665116399526596,0.8414993286132812,12.11790657043457,-1.266241431236267,0.48258262872695923,-0.526215672492981,-0.46097415685653687,-0.5269858837127686
1570274,9.67086124420166,-0.30092814564704895,2.0696194171905518,0.3581744432449341,5.412905216217041,-0.9290879964828491,0.654273271560669,-0.3601180911064148,-0.5170044898986816,-0.4182676076889038,9.852232933044434,-0.11013612896203995,0.22975894808769226,1.1855933666229248,12.12397575378418,-1.42597496509552,0.48333099484443665,-0.5250704288482666,-0.4603818655014038,-0.5279592275619507
1570441,9.609970092773438,-0.31708139181137085,2.0963103771209717,0.618604302406311,5.587801933288574,-0.783364474773407,0.6546612977981567,-0.35963478684425354,-0.5165418982505798,-0.4186479151248932,9.888175010681152,-0.11792600899934769,0.23318925499916077,1.515318512916565,12.405241966247559,-1.220548152923584,0.48413756489753723,-0.5238922238349915,-0.4597780704498291,-0.5289158821105957
1570607,9.604275703430176,-0.3627411723136902,2.1109519004821777,0.6198593378067017,5.495813369750977,-0.41072526574134827,0.6550459861755371,-0.359193354845047,-0.5160635113716125,-0.41901499032974243,9.892498970031738,-0.1350131630897522,0.2829838693141937,2.232769250869751,12.993361473083496,-0.6799278855323792,0.4850778877735138,-0.5226525068283081,-0.4591454565525055,-0.5298295021057129
1570774,9.597540855407715,-0.34859803318977356,2.1155714988708496,1.6742959022521973,5.676485538482666,-0.29566025733947754,0.6555271148681641,-0.35863932967185974,-0.5156301259994507,-0.41927042603492737,9.947257995605469,-0.11454673111438751,0.34490475058555603,3.0445003509521484,13.84026050567627,0.05767343193292618,0.4861915111541748,-0.5213375687599182,-0.4584578573703766,-0.5306992530822754
1570941,9.578280448913574,-0.297547310590744,2.150115489959717,1.7848789691925049,5.726161956787109,-0.40857386589050293,0.655991792678833,-0.35807135701179504,-0.5152000784873962,-0.4195578396320343,9.874964714050293,-0.07017375528812408,0.41875043511390686,3.5851211547851562,14.830333709716797,0.41750651597976685,0.4874376058578491,-0.5199292898178101,-0.4577125608921051,-0.5315802097320557
1571107,9.574885368347168,-0.2651212811470032,2.158869981765747,1.7703561782836914,5.5724592208862305,-0.2948918342590332,0.6564614176750183,-0.35751867294311523,-0.5147783160209656,-0.41981202363967896,9.842971801757812,-0.03738535940647125,0.46840494871139526,3.630340814590454,15.235655784606934,0.5100452899932861,0.4887189269065857,-0.51848965883255,-0.45693299174308777,-0.5324798822402954
1571274,9.560725212097168,-0.2513205409049988,2.226032018661499,1.7297601699829102,5.561471462249756,-0.25546109676361084,0.6569133996963501,-0.3569779694080353,-0.5143508911132812,-0.42008906602859497,9.792869567871094,-0.009416341781616211,0.5106866359710693,3.6229381561279297,15.35937786102295,0.44199228286743164,0.4899999499320984,-0.5170329213142395,-0.4561469554901123,-0.5333920121192932
1571441,9.568680763244629,-0.23986248672008514,2.2318782806396484,1.7968014478683472,5.38523006439209,0.011199153028428555,0.6573766469955444,-0.3564596176147461,-0.5139301419258118,-0.42031925916671753,9.825370788574219,-0.007754558231681585,0.5347079038619995,3.324704170227051,15.3170804977417,0.5214813947677612,0.49125921726226807,-0.5156027674674988,-0.45533284544944763,-0.5343132019042969
1571607,9.58992862701416,-0.2560822665691376,2.199368476867676,1.7236131429672241,5.694709300994873,0.23992058634757996,0.6578876376152039,-0.3559398651123047,-0.5134653449058533,-0.4205282926559448,9.78929615020752,0.00843265000730753,0.5893145203590393,2.890145778656006,15.09821891784668,0.7251664996147156,0.4924844205379486,-0.5142307877540588,-0.45448338985443115,-0.5352299809455872
1571774,9.55808162689209,-0.24207182228565216,2.2235820293426514,1.5617793798446655,5.673040866851807,0.33341971039772034,0.658386766910553,-0.3554469347000122,-0.5129856467247009,-0.4207495152950287,9.809873580932617,-0.005854313727468252,0.6292352080345154,2.513279676437378,14.76621150970459,0.9843159914016724,0.49367696046829224,-0.5129256248474121,-0.4536071717739105,-0.5361262559890747
1571941,9.583549499511719,-0.24975089728832245,2.222799777984619,1.6349290609359741,5.548191070556641,0.48238319158554077,0.6588689088821411,-0.3549695611000061,-0.5125135779380798,-0.42097291350364685,9.777535438537598,0.01522751897573471,0.6857666969299316,2.253413200378418,14.305285453796387,1.1975802183151245,0.494833767414093,-0.5116860270500183,-0.4527260959148407,-0.5369880795478821
1572107,9.580329895019531,-0.24281726777553558,2.206735134124756,1.4664616584777832,5.32081413269043,0.6050040125846863,0.6593469977378845,-0.3545277714729309,-0.512046754360199,-0.42116475105285645,9.783594131469727,0.0017416212940588593,0.7225737571716309,1.746524691581726,13.562426567077637,1.4686779975891113,0.49592283368110657,-0.5105559825897217,-0.45183733105659485,-0.5378071665763855
1572274,9.585389137268066,-0.26000574231147766,2.240190029144287,1.2255102396011353,5.46268367767334,0.6691126823425293,0.65982985496521,-0.35410311818122864,-0.5115490555763245,-0.4213707745075226,9.756473541259766,-0.009159745648503304,0.7698947191238403,1.4085137844085693,12.817134857177734,1.76118803024292,0.49695849418640137,-0.5095251202583313,-0.4509526789188385,-0.5385705828666687
1572441,9.536809921264648,-0.26489898562431335,2.17580246925354,1.6904449462890625,4.7489471435546875,0.9487009048461914,0.6602924466133118,-0.35370072722435,-0.5111324191093445,-0.42148950695991516,9.745177268981934,-0.03288751468062401,0.7709878087043762,1.0665836334228516,12.043449401855469,2.1641907691955566,0.49794793128967285,-0.5086036324501038,-0.45006611943244934,-0.539268970489502
1572607,9.60159969329834,-0.24804063141345978,2.226872444152832,0.893953800201416,5.095576763153076,0.7954344749450684,0.6607391238212585,-0.3533385097980499,-0.5106433033943176,-0.42168617248535156,9.797697067260742,-0.06056251749396324,0.7779515385627747,0.9995424747467041,11.547701835632324,2.5187606811523438,0.4989261031150818,-0.5077470541000366,-0.4491828978061676,-0.539908230304718
1572774,9.55467700958252,-0.24956680834293365,2.2656431198120117,1.0390626192092896,5.072051525115967,0.5305479168891907,0.6611558794975281,-0.35294821858406067,-0.5101782083511353,-0.42192262411117554,9.858724594116211,-0.059617817401885986,0.7948472499847412,0.7930015325546265,11.24079704284668,2.7546277046203613,0.49988579750061035,-0.5069431662559509,-0.4482872188091278,-0.5405198335647583
1572941,9.576324462890625,-0.2462432086467743,2.267685890197754,1.01744544506073,4.964132308959961,0.44994479417800903,0.6615773439407349,-0.35255780816078186,-0.5097254514694214,-0.42213571071624756,9.848236083984375,-0.052153099328279495,0.8106425404548645,0.5204311013221741,11.521437644958496,3.0122787952423096,0.5008621215820312,-0.5061520934104919,-0.4473297894001007,-0.5411498546600342
1573107,9.597188949584961,-0.280376672744751,2.2890141010284424,0.6826745867729187,5.176179885864258,0.7298531532287598,0.6620045304298401,-0.3522084951400757,-0.5092175006866455,-0.4223702549934387,9.857034683227539,-0.09009362012147903,0.8393333554267883,0.2529831826686859,11.987577438354492,3.23393177986145,0.5018647313117981,-0.5053566694259644,-0.4463002681732178,-0.5418141484260559
1573274,9.599459648132324,-0.28475433588027954,2.355525016784668,0.8512829542160034,5.510296821594238,0.8408329486846924,0.6624796986579895,-0.35182806849479675,-0.5086827278137207,-0.4225868582725525,9.819643020629883,-0.13794636726379395,0.8440378308296204,0.15629519522190094,12.679106712341309,3.487574577331543,0.5029231309890747,-0.5045284628868103,-0.4451928436756134,-0.5425152778625488
1573441,9.544792175292969,-0.307496577501297,2.3970136642456055,0.7150233387947083,5.715518951416016,0.8052441477775574,0.662965714931488,-0.35144543647766113,-0.5081201195716858,-0.42281994223594666,9.812785148620605,-0.15397992730140686,0.894111692905426,0.28711214661598206,13.178940773010254,3.903153896331787,0.5040541887283325,-0.5036765336990356,-0.4440273940563202,-0.5432119369506836
1573607,9.542757034301758,-0.29388657212257385,2.3734359741210938,0.8315483927726746,5.658748149871826,0.7081848382949829,0.6634664535522461,-0.3510424792766571,-0.5075755715370178,-0.4230230152606964,9.813956260681152,-0.1667422354221344,0.9332051873207092,0.5098659992218018,13.4267578125,4.021548748016357,0.5052247047424316,-0.5027943849563599,-0.44285106658935547,-0.5439014434814453
1573774,9.534541130065918,-0.29254478216171265,2.3994250297546387,0.6194367408752441,5.789257526397705,0.623701274394989,0.6639422178268433,-0.3506486415863037,-0.5070093870162964,-0.4232821762561798,9.815195083618164,-0.20104195177555084,0.9643996953964233,0.5980889797210693,13.827224731445312,3.985703468322754,0.5064225196838379,-0.5018699169158936,-0.4416533410549164,-0.5446146130561829
1573941,9.540504455566406,-0.2742670476436615,2.4081509113311768,0.7162143588066101,6.047753810882568,0.542829155921936,0.6644443869590759,-0.35022062063217163,-0.5064288377761841,-0.4235437214374542,9.813335418701172,-0.2147735357284546,0.9865386486053467,0.8680726289749146,14.274870872497559,3.69339919090271,0.5076434016227722,-0.5008694529533386,-0.4404636025428772,-0.5453620553016663
1574107,9.547510147094727,-0.2924489974975586,2.4338133335113525,0.9483551383018494,6.37612247467041,0.5120043158531189,0.6649625301361084,-0.3497505784034729,-0.5058315396308899,-0.42383214831352234,9.805744171142578,-0.21781045198440552,1.0396910905838013,1.027422308921814,14.746593475341797,3.1363866329193115,0.5088595747947693,-0.49978214502334595,-0.43929049372673035,-0.5461719632148743
1574274,9.554499626159668,-0.289850115776062,2.4566774368286133,1.0083271265029907,6.680887699127197,0.4098224341869354,0.6654859185218811,-0.3492495119571686,-0.5052141547203064,-0.42416033148765564,9.776344299316406,-0.24373595416545868,1.0658286809921265,1.2204012870788574,15.010032653808594,2.5676558017730713,0.5100588798522949,-0.49862122535705566,-0.4381525218486786,-0.5470277667045593
1574441,9.539148330688477,-0.2797226309776306,2.4295268058776855,1.0730122327804565,6.984705924987793,0.2819126546382904,0.6660533547401428,-0.3487105071544647,-0.5045756697654724,-0.42447301745414734,9.796649932861328,-0.22496607899665833,1.107778549194336,1.314771294593811,15.385054588317871,2.023693084716797,0.5112431049346924,-0.49738672375679016,-0.437031626701355,-0.5479419231414795
1574607,9.524020195007324,-0.27836963534355164,2.4488046169281006,1.0611152648925781,7.3767991065979,0.23116108775138855,0.6666440963745117,-0.34814417362213135,-0.503900945186615,-0.4248119294643402,9.807250022888184,-0.22616417706012726,1.16615891456604,1.4167996644973755,15.726640701293945,1.5458238124847412,0.5124157071113586,-0.49608486890792847,-0.4359261095523834,-0.5489067435264587
1574774,9.53046989440918,-0.29755133390426636,2.441028118133545,1.1083065271377563,7.338328838348389,0.26245978474617004,0.667207658290863,-0.347578763961792,-0.503233790397644,-0.4251808226108551,9.743281364440918,-0.21549391746520996,1.232625961303711,1.2618427276611328,15.687826156616211,1.1673448085784912,0.5135415196418762,-0.49477121233940125,-0.4348362684249878,-0.5499035120010376
1574941,9.520161628723145,-0.2857120931148529,2.48315691947937,0.8892282843589783,7.683651447296143,0.060170646756887436,0.6677854061126709,-0.34700000286102295,-0.5025259256362915,-0.4255834221839905,9.731270790100098,-0.22638456523418427,1.2719987630844116,1.2431583404541016,15.479990005493164,0.826208770275116,0.5146230459213257,-0.4934517443180084,-0.43378305435180664,-0.5509091019630432
1575107,9.503222465515137,-0.28324857354164124,2.5192129611968994,0.9493412375450134,7.8945207595825195,-0.028737453743815422,0.6683816909790039,-0.346394419670105,-0.5018052458763123,-0.4259909689426422,9.750948905944824,-0.23495320975780487,1.3291875123977661,1.2128710746765137,15.238845825195312,0.5974230766296387,0.5156663060188293,-0.4921371638774872,-0.4327597916126251,-0.5519134402275085
1575274,9.506773948669434,-0.29270118474960327,2.521711826324463,0.8610287308692932,7.853682041168213,-0.09310217946767807,0.6689620018005371,-0.3457953631877899,-0.5010856986045837,-0.4264136254787445,9.756497383117676,-0.22685980796813965,1.3811193704605103,1.064765453338623,14.983510971069336,0.3759498596191406,0.5166626572608948,-0.49083808064460754,-0.4317575693130493,-0.5529226660728455
1575441,9.488129615783691,-0.30691462755203247,2.537923812866211,1.1622340679168701,7.715757369995117,-0.1687108874320984,0.6695402264595032,-0.34516966342926025,-0.5004017353057861,-0.42681601643562317,9.74081802368164,-0.20849142968654633,1.432477355003357,0.9578067064285278,14.692102432250977,0.26202449202537537,0.5176215171813965,-0.48956099152565,-0.4307747483253479,-0.553923487663269
1575608,9.486893653869629,-0.30611374974250793,2.5486249923706055,1.6164497137069702,7.700657367706299,-0.20862829685211182,0.67014080286026,-0.3444980978965759,-0.4997479319572449,-0.4271818697452545,9.738734245300293,-0.21509356796741486,1.4836136102676392,0.8140939474105835,14.425590515136719,0.07665247470140457,0.5185364484786987,-0.4883025288581848,-0.42981183528900146,-0.5549259185791016
1575774,9.485028266906738,-0.29704421758651733,2.6052334308624268,1.5509580373764038,7.951213836669922,-0.40121015906333923,0.6707382798194885,-0.343802273273468,-0.4990761876106262,-0.42759010195732117,9.720105171203613,-0.20265458524227142,1.5346426963806152,0.7185455560684204,14.185124397277832,0.103507399559021,0.5194295644760132,-0.48707008361816406,-0.42885541915893555,-0.5559127330780029
1575941,9.482865333557129,-0.30747848749160767,2.634413957595825,1.5193264484405518,7.932657718658447,-0.4960283935070038,0.6713318824768066,-0.34310269355773926,-0.49840813875198364,-0.42799970507621765,9.68159294128418,-0.21765437722206116,1.569952130317688,0.6234199404716492,13.865527153015137,0.21881583333015442,0.5203031897544861,-0.4858757555484772,-0.42790552973747253,-0.5568718314170837
1576108,9.454489707946777,-0.305372029542923,2.6683218479156494,1.5734331607818604,8.23511791229248,-0.3869951069355011,0.6719530820846558,-0.34238699078559875,-0.4977075159549713,-0.42841270565986633,9.66889476776123,-0.1934177428483963,1.5769808292388916,0.599100649356842,13.603291511535645,0.29372021555900574,0.5211631059646606,-0.4847072958946228,-0.42696648836135864,-0.5578061938285828
1576274,9.403331756591797,-0.25369417667388916,2.69970703125,1.5886726379394531,8.012287139892578,-0.46265509724617004,0.6725538372993469,-0.3416779339313507,-0.49703249335289,-0.4288196265697479,9.730798721313477,-0.20119711756706238,1.6165848970413208,0.4954715967178345,13.39420223236084,0.031113045290112495,0.5219792723655701,-0.4835454523563385,-0.4260518252849579,-0.5587499737739563
1576441,9.464964866638184,-0.2414425015449524,2.769796848297119,0.9786678552627563,8.424612998962402,-0.8435799479484558,0.6731352210044861,-0.3409755527973175,-0.496295690536499,-0.4293195903301239,9.795347213745117,-0.2080177664756775,1.6722356081008911,0.3229571580886841,13.846714973449707,-0.037919625639915466,0.5228037238121033,-0.48235374689102173,-0.4250919818878174,-0.5597391128540039
1576608,9.46622371673584,-0.2293093204498291,2.7925586700439453,1.0669164657592773,8.97751522064209,-1.2126463651657104,0.6737365126609802,-0.34019941091537476,-0.49553003907203674,-0.4298762083053589,9.8081636428833,-0.1664768010377884,1.7026902437210083,0.05338331311941147,14.728997230529785,-0.3940516412258148,0.523632824420929,-0.4810868799686432,-0.4240664839744568,-0.560831606388092
1576774,9.473388671875,-0.2171778380870819,2.8297595977783203,1.1949543952941895,9.130783081054688,-1.4472204446792603,0.6743249893188477,-0.3393840789794922,-0.4947691857814789,-0.4304739534854889,9.80951976776123,-0.16434866189956665,1.75673508644104,-0.5920380353927612,15.602749824523926,-0.8622009754180908,0.5244295597076416,-0.4797665476799011,-0.4229526221752167,-0.5620577335357666
1576941,9.443449974060059,-0.2772340774536133,2.8670730590820312,1.2093552350997925,9.309426307678223,-1.1208505630493164,0.6749588251113892,-0.33857962489128113,-0.49397197365760803,-0.43102917075157166,9.764434814453125,-0.18957985937595367,1.824452519416809,-0.651587724685669,16.637048721313477,-1.0793074369430542,0.525265097618103,-0.47835013270378113,-0.42176806926727295,-0.563373327255249
1577108,9.401053428649902,-0.2826016843318939,2.8856356143951416,2.1600794792175293,9.400202751159668,-0.8728938698768616,0.675655722618103,-0.3376924991607666,-0.49321314692497253,-0.43150216341018677,9.728623390197754,-0.19643567502498627,1.8772697448730469,-0.2671663165092468,17.274738311767578,-0.7836084961891174,0.5261877775192261,-0.47686734795570374,-0.42054322361946106,-0.5646837949752808
1577274,9.410082817077637,-0.23301739990711212,2.8727056980133057,2.6658151149749756,9.440146446228027,-1.0383391380310059,0.6763707995414734,-0.33674129843711853,-0.4924877882003784,-0.43195340037345886,9.647869110107422,-0.16692203283309937,1.9283044338226318,0.04623736813664436,17.57575225830078,-0.6042553782463074,0.5271619558334351,-0.4753435254096985,-0.4193057715892792,-0.565978467464447
1577441,9.395685195922852,-0.2177288681268692,2.8888981342315674,2.4594924449920654,9.57741641998291,-1.1505868434906006,0.6770792603492737,-0.33579137921333313,-0.49174126982688904,-0.43243318796157837,9.600146293640137,-0.1612211912870407,1.9620872735977173,0.2829630672931671,17.1796932220459,-0.5395577549934387,0.5281305909156799,-0.47383496165275574,-0.4181109666824341,-0.5672229528427124
1577608,9.352738380432129,-0.19227638840675354,2.923804521560669,2.1688008308410645,9.713241577148438,-1.170116662979126,0.6777728199958801,-0.33486008644104004,-0.490963339805603,-0.43295249342918396,9.604772567749023,-0.14546708762645721,2.0084238052368164,0.5835667252540588,16.728893280029297,-0.6516516804695129,0.5290802717208862,-0.47233065962791443,-0.4169808626174927,-0.5684234499931335
1577774,9.344076156616211,-0.18544913828372955,2.958996295928955,2.1266422271728516,9.875472068786621,-0.9989596009254456,0.6784865260124207,-0.333934485912323,-0.4901565909385681,-0.4334632456302643,9.684931755065918,-0.1590009480714798,2.0282845497131348,0.6448322534561157,16.26104736328125,-0.5729821920394897,0.5300092101097107,-0.47086209058761597,-0.41588395833969116,-0.5695787668228149
1577941,9.357769012451172,-0.2186567485332489,2.8763465881347656,2.2609426975250244,9.481561660766602,-0.9156159162521362,0.6791822910308838,-0.3330255448818207,-0.48939192295074463,-0.4339367151260376,9.71037483215332,-0.14386054873466492,2.1030051708221436,0.9521977305412292,16.258243560791016,-0.48260772228240967,0.5309635996818542,-0.46937295794487,-0.4148043990135193,-0.5707051157951355
1578108,9.4254789352417,-0.20800966024398804,2.9053637981414795,2.190302610397339,9.679253578186035,-0.6934768557548523,0.6799057722091675,-0.33212631940841675,-0.4885913133621216,-0.43439507484436035,9.660909652709961,-0.1296302229166031,2.1784229278564453,1.1089987754821777,15.87944507598877,-0.27063682675361633,0.5319204330444336,-0.4679131507873535,-0.41375038027763367,-0.5717766284942627
1578274,9.36371898651123,-0.19146384298801422,2.943071126937866,2.173321485519409,9.625926971435547,-0.6631641983985901,0.6806247234344482,-0.33123311400413513,-0.4877932369709015,-0.4348476827144623,9.606376647949219,-0.10484489053487778,2.199040174484253,1.2725104093551636,15.090265274047852,-0.11871495842933655,0.5328510403633118,-0.4665130376815796,-0.4127587080001831,-0.5727702379226685
1578441,9.382200241088867,-0.171494260430336,2.9853005409240723,1.9980536699295044,9.315654754638672,-0.498487263917923,0.6813222169876099,-0.33038821816444397,-0.48700591921806335,-0.43528011441230774,9.556960105895996,-0.09453680366277695,2.242765426635742,1.1217923164367676,13.932493209838867,-0.1542654186487198,0.5336964726448059,-0.4652164876461029,-0.4118448793888092,-0.5736948251724243
1578608,9.332873344421387,-0.1646166294813156,3.0322279930114746,1.8251546621322632,8.958984375,-0.551095724105835,0.6819766759872437,-0.32957902550697327,-0.4862454831600189,-0.4357188045978546,9.574563026428223,-0.09726322442293167,2.27213454246521,0.9284801483154297,13.062003135681152,-0.1566985696554184,0.5344743728637695,-0.4640052318572998,-0.41098105907440186,-0.5745701789855957
1578774,9.318986892700195,-0.1827990561723709,3.074000835418701,2.001600980758667,8.808587074279785,-0.48983022570610046,0.6826335191726685,-0.32876577973365784,-0.485507071018219,-0.4361281096935272,9.585399627685547,-0.08697471767663956,2.3128576278686523,0.6949048638343811,12.58016300201416,-0.09310220181941986,0.5352111458778381,-0.46285441517829895,-0.410129576921463,-0.5754203796386719
1578941,9.322959899902344,-0.15334898233413696,3.093235969543457,1.6185755729675293,8.344432830810547,-0.35596534609794617,0.6832485198974609,-0.3280281126499176,-0.4847833812236786,-0.4365251362323761,9.623686790466309,-0.106043741106987,2.3134961128234863,0.5681092739105225,12.34725570678711,0.30260783433914185,0.5359567403793335,-0.4617547392845154,-0.40925779938697815,-0.576229989528656
1579108,9.322736740112305,-0.18439705669879913,3.1394429206848145,1.3599387407302856,8.843036651611328,-0.5426692366600037,0.6838721036911011,-0.32727089524269104,-0.484002023935318,-0.43698376417160034,9.6201753616333,-0.08210164308547974,2.326324224472046,0.5454291701316833,12.690927505493164,0.5205336213111877,0.5367377400398254,-0.46063947677612305,-0.40834158658981323,-0.577045202255249
1579274,9.320771217346191,-0.137234628200531,3.157707691192627,1.8354127407073975,8.649942398071289,-0.7694056630134583,0.684490978717804,-0.32646143436431885,-0.4832802712917328,-0.43741875886917114,9.643951416015625,-0.0900382399559021,2.367352247238159,0.25732454657554626,13.352298736572266,0.2204294353723526,0.5375112891197205,-0.4594716727733612,-0.4073685109615326,-0.5779433846473694
1579441,9.32845687866211,-0.1252576857805252,3.1943519115448,1.7453843355178833,8.717777252197266,-0.6480527520179749,0.6851120591163635,-0.3256654441356659,-0.48253941535949707,-0.4378575086593628,9.614988327026367,-0.10184866935014725,2.3977367877960205,0.08614196628332138,14.023762702941895,0.21903353929519653,0.5383107662200928,-0.4582589864730835,-0.40632736682891846,-0.5788943767547607
1579608,9.340838432312012,-0.1715863049030304,3.2461187839508057,1.4038901329040527,9.177552223205566,-0.3196466267108917,0.6857700943946838,-0.3248971402645111,-0.4817138910293579,-0.438306987285614,9.597809791564941,-0.1501452773809433,2.4447474479675293,0.2568507492542267,14.450831413269043,0.2870609760284424,0.5391499400138855,-0.45699894428253174,-0.40526118874549866,-0.5798559188842773
1579774,9.281413078308105,-0.16651126742362976,3.278777599334717,1.3952330350875854,9.626324653625488,-0.3569386899471283,0.6864593625068665,-0.32409629225730896,-0.4808443784713745,-0.4387753903865814,9.589295387268066,-0.1528608202934265,2.4811110496520996,0.6363799571990967,14.989913940429688,0.6890909671783447,0.5400777459144592,-0.455685555934906,-0.40415626764297485,-0.5807965993881226
1579941,9.281587600708008,-0.16755782067775726,3.2888693809509277,1.6703132390975952,9.681967735290527,-0.5188365578651428,0.6871502995491028,-0.32325416803359985,-0.47999221086502075,-0.43924787640571594,9.560577392578125,-0.17240199446678162,2.5244266986846924,1.0786223411560059,15.505117416381836,0.8590443730354309,0.5410767793655396,-0.4543018639087677,-0.40303507447242737,-0.5817291140556335
1580108,9.241707801818848,-0.1537172943353653,3.3526558876037598,1.741645097732544,10.084908485412598,-0.6423667669296265,0.6878635287284851,-0.32236939668655396,-0.4791092574596405,-0.43974554538726807,9.571454048156738,-0.16708609461784363,2.555678606033325,1.536705493927002,15.92370319366455,0.7689898610115051,0.5421202778816223,-0.45283928513526917,-0.4019235372543335,-0.5826660990715027
1580274,9.276748657226562,-0.13360005617141724,3.347172737121582,1.9687403440475464,10.454269409179688,-0.7817384004592896,0.6886017322540283,-0.3214271664619446,-0.4782094359397888,-0.4402591288089752,9.541482925415039,-0.14440082013607025,2.596891403198242,1.8158975839614868,16.42278289794922,0.48133352398872375,0.5431839823722839,-0.451293408870697,-0.40081310272216797,-0.5836388468742371
1580441,9.250964164733887,-0.16348695755004883,3.3766157627105713,1.9986045360565186,10.678789138793945,-0.8917192816734314,0.6893489956855774,-0.32045939564704895,-0.47729232907295227,-0.44078993797302246,9.568885803222656,-0.15875592827796936,2.6552674770355225,2.081975221633911,16.907285690307617,0.2381279021501541,0.5442695617675781,-0.4496687948703766,-0.3997008502483368,-0.584643542766571
1580608,9.254191398620605,-0.17877072095870972,3.3945119380950928,2.6185860633850098,10.656341552734375,-0.7914199233055115,0.6901280879974365,-0.31943702697753906,-0.4764113128185272,-0.44126591086387634,9.614730834960938,-0.14004509150981903,2.735166072845459,2.4761810302734375,17.74492645263672,0.1459861546754837,0.5454183220863342,-0.44793379306793213,-0.3985593914985657,-0.585683286190033
1580774,9.276161193847656,-0.1444559246301651,3.359415054321289,3.033780574798584,10.780561447143555,-0.553196132183075,0.6909478902816772,-0.3183806836605072,-0.47553205490112305,-0.4416946768760681,9.549395561218262,-0.10487668216228485,2.775742292404175,2.5583343505859375,18.44159698486328,0.24236689507961273,0.5466171503067017,-0.44613543152809143,-0.3973606526851654,-0.5867517590522766
1580941,9.27125358581543,-0.1260903775691986,3.4208054542541504,3.181809425354004,11.385650634765625,-0.5628265142440796,0.6918144226074219,-0.31726929545402527,-0.47460052371025085,-0.44213950634002686,9.479331016540527,-0.09824951738119125,2.844999313354492,2.5185704231262207,18.411258697509766,0.12093691527843475,0.5477972626686096,-0.4443325996398926,-0.3961661159992218,-0.5878258347511292
1581108,9.22337818145752,-0.1078493595123291,3.4639673233032227,3.3073630332946777,11.24360179901123,-0.4009541869163513,0.6926854848861694,-0.31616443395614624,-0.47368288040161133,-0.4425511062145233,9.410196304321289,-0.09192477911710739,2.91829776763916,2.5689375400543213,17.862258911132812,0.24167528748512268,0.5489555597305298,-0.44257646799087524,-0.39500921964645386,-0.5888479351997375
1581274,9.192527770996094,-0.09569340199232101,3.4587063789367676,3.0388009548187256,11.435173034667969,-0.3666331470012665,0.6935572028160095,-0.315076619386673,-0.47272494435310364,-0.44298577308654785,9.388873100280762,-0.07614656537771225,2.9639456272125244,2.4373133182525635,16.859350204467773,0.26644274592399597,0.5500463843345642,-0.44091498851776123,-0.3939168453216553,-0.5898072719573975
1581441,9.145591735839844,-0.10641982406377792,3.4744327068328857,2.850803852081299,11.275516510009766,-0.3742017447948456,0.694406270980835,-0.31401535868644714,-0.4717711806297302,-0.44342559576034546,9.406834602355957,-0.06860736757516861,3.014791250228882,2.157942295074463,16.130807876586914,0.450956791639328,0.5510901808738708,-0.4393461346626282,-0.39284467697143555,-0.5907179117202759
1581608,9.171708106994629,-0.10064111649990082,3.4948489665985107,2.6520233154296875,10.670645713806152,-0.4013255536556244,0.6952012777328491,-0.3130109906196594,-0.47086548805236816,-0.4438524842262268,9.407857894897461,-0.06980583816766739,3.090588092803955,1.748714804649353,15.46830940246582,0.47882336378097534,0.5520696640014648,-0.4378660023212433,-0.39178666472435,-0.5916045308113098
1581774,9.151822090148926,-0.0910644680261612,3.523839235305786,2.3929762840270996,10.469085693359375,-0.2619667947292328,0.6959779858589172,-0.3120548129081726,-0.4699559509754181,-0.44427236914634705,9.413949012756348,-0.06246212497353554,3.131239652633667,1.4637731313705444,14.79461669921875,0.6361366510391235,0.5530033707618713,-0.43647313117980957,-0.3907460570335388,-0.5924491286277771
1581941,9.154396057128906,-0.09578248858451843,3.5319318771362305,2.388352870941162,9.913275718688965,-0.335103839635849,0.6967101693153381,-0.31112951040267944,-0.46910470724105835,-0.44467324018478394,9.38814926147461,-0.08306828141212463,3.1834707260131836,1.0927091836929321,14.164532661437988,0.6273643970489502,0.5538747310638428,-0.43516167998313904,-0.3897230625152588,-0.5932732820510864
1582108,9.1256103515625,-0.10209205746650696,3.5886292457580566,2.266590118408203,9.246757507324219,-0.15493126213550568,0.6974008679389954,-0.31027108430862427,-0.46830466389656067,-0.4450334906578064,9.318435668945312,-0.08564058691263199,3.2315456867218018,0.9131765365600586,13.146193504333496,0.7080571055412292,0.5546818971633911,-0.4339551031589508,-0.3887597918510437,-0.5940345525741577
1582274,9.104537010192871,-0.09638255834579468,3.60882306098938,1.968342900276184,8.652515411376953,0.11290720105171204,0.6980536580085754,-0.309499055147171,-0.46753284335136414,-0.4453587532043457,9.296218872070312,-0.09442853927612305,3.255641222000122,0.8087788820266724,11.649357795715332,1.036629557609558,0.5554245710372925,-0.4329029619693756,-0.3878858685493469,-0.594679057598114
1582441,9.064900398254395,-0.07850489765405655,3.686410665512085,1.5166882276535034,8.052818298339844,0.020342888310551643,0.698638379573822,-0.308805376291275,-0.46679604053497314,-0.4456961750984192,9.304407119750977,-0.12059319019317627,3.2901926040649414,0.772139847278595,10.238968849182129,0.8774977326393127,0.5560705661773682,-0.4319654703140259,-0.38713154196739197,-0.5952485203742981
1582608,9.068777084350586,-0.0973268672823906,3.707646131515503,1.1931359767913818,6.847371578216553,0.33103781938552856,0.6991459131240845,-0.3082432150840759,-0.4661462604999542,-0.44596970081329346,9.342556953430176,-0.1549241542816162,3.325207233428955,0.8380157351493835,9.507634162902832,0.7764427065849304,0.5566697716712952,-0.4310789704322815,-0.38644713163375854,-0.595775306224823
1582774,9.056095123291016,-0.10640077292919159,3.7468175888061523,1.4658085107803345,7.02510929107666,0.31609275937080383,0.6996760964393616,-0.30764028429985046,-0.46549612283706665,-0.44623345136642456,9.310460090637207,-0.1273779720067978,3.334399461746216,1.0558518171310425,8.937790870666504,0.6617363095283508,0.5572402477264404,-0.4302169978618622,-0.38583385944366455,-0.596262514591217
1582941,9.0728120803833,-0.08812300860881805,3.7545812129974365,1.4041459560394287,6.48516845703125,0.2449534833431244,0.7001617550849915,-0.30707359313964844,-0.46489936113357544,-0.44648414850234985,9.322957992553711,-0.14611086249351501,3.359842538833618,1.2432984113693237,8.580379486083984,0.6653860807418823,0.5578019618988037,-0.42937010526657104,-0.38526451587677,-0.5967157483100891
1583108,9.065133094787598,-0.08098926395177841,3.8078255653381348,0.9637612700462341,6.568332672119141,-0.02632986009120941,0.7006146907806396,-0.3065277636051178,-0.46427711844444275,-0.4467960596084595,9.366229057312012,-0.1118626818060875,3.3461127281188965,1.396052598953247,8.533225059509277,0.7613440752029419,0.5583783984184265,-0.4285195469856262,-0.38470524549484253,-0.5971487164497375
1583274,9.081250190734863,-0.058165278285741806,3.841491222381592,0.9864411354064941,6.539402961730957,-0.4563414752483368,0.7010387778282166,-0.3059520423412323,-0.46367761492729187,-0.44714775681495667,9.372809410095215,-0.09137587249279022,3.3743114471435547,1.1229569911956787,8.763751029968262,0.4475755989551544,0.558922529220581,-0.42765289545059204,-0.3841223418712616,-0.5976359248161316
1583441,9.100135803222656,-0.05853627622127533,3.8617818355560303,1.2369718551635742,6.644530296325684,-0.670771062374115,0.7014659643173218,-0.30532920360565186,-0.46309250593185425,-0.44750988483428955,9.401830673217773,-0.1167629212141037,3.3756370544433594,0.799993634223938,9.477566719055176,0.11044839769601822,0.5594563484191895,-0.4267308712005615,-0.38347360491752625,-0.5982121229171753
1583608,9.088403701782227,-0.08419705927371979,3.882176399230957,1.260048747062683,7.010433197021484,-0.4773310720920563,0.7019311785697937,-0.30469220876693726,-0.4624626040458679,-0.44786593317985535,9.362653732299805,-0.11500578373670578,3.381375789642334,1.003057599067688,10.480591773986816,0.17425605654716492,0.5600630044937134,-0.42570778727531433,-0.3827560544013977,-0.5988325476646423
1583774,9.066009521484375,-0.1116582378745079,3.9110512733459473,1.479447603225708,7.2734761238098145,-0.3589492440223694,0.702431321144104,-0.30402329564094543,-0.4618137776851654,-0.4482053518295288,9.330077171325684,-0.11313038319349289,3.372330665588379,1.0347213745117188,11.118840217590332,0.15304233133792877,0.5607039332389832,-0.4246244430541992,-0.3819896876811981,-0.5994909405708313
1583941,9.014226913452148,-0.06148670241236687,3.9407453536987305,1.8242199420928955,7.379846096038818,-0.4742448031902313,0.7029454112052917,-0.3033040761947632,-0.4611809551715851,-0.44853824377059937,9.34882926940918,-0.06838589906692505,3.3996012210845947,0.8655880689620972,11.903411865234375,-0.0009732830221764743,0.5613628625869751,-0.4234769940376282,-0.3811531066894531,-0.6002177596092224
1584108,9.037013053894043,-0.03692566975951195,3.9288957118988037,1.736253261566162,7.423003673553467,-0.8043413758277893,0.7034361958503723,-0.3025684058666229,-0.4605514407157898,-0.4489124119281769,9.383596420288086,-0.04452262073755264,3.452838897705078,0.24964068830013275,12.886388778686523,-0.3257680833339691,0.5620080828666687,-0.4222748577594757,-0.3802015483379364,-0.6010638475418091
1584274,9.06244945526123,-0.03545449301600456,3.9063286781311035,1.7200145721435547,7.655616760253906,-0.7218172550201416,0.7039465308189392,-0.3018241822719574,-0.459892600774765,-0.44928866624832153,9.334916114807129,-0.04075979068875313,3.4919869899749756,-0.4908421039581299,13.820026397705078,-0.7084861397743225,0.5626237392425537,-0.4210290312767029,-0.3791314363479614,-0.602037250995636
1584441,9.060117721557617,-0.030608316883444786,3.925351142883301,1.4799085855484009,8.167155265808105,-0.6937841773033142,0.7044810652732849,-0.30107244849205017,-0.45916396379470825,-0.4497002959251404,9.311013221740723,-0.06801407784223557,3.490936756134033,-1.0770148038864136,14.137253761291504,-1.020269751548767,0.5631910562515259,-0.4197843372821808,-0.3780016601085663,-0.6030852794647217
1584608,9.037729263305664,-0.05833127349615097,3.8936526775360107,1.4464839696884155,8.098526000976562,-0.6211080551147461,0.7050141096115112,-0.30033233761787415,-0.4584366977214813,-0.45010167360305786,9.279702186584473,-0.06776562333106995,3.5168747901916504,-1.5509141683578491,14.35223388671875,-1.0317442417144775,0.563737690448761,-0.4185575544834137,-0.3768121898174286,-0.6041706204414368
1584774,9.029461860656738,-0.03555366396903992,3.9305012226104736,1.1772303581237793,8.306717872619629,-0.6021803021430969,0.7055484056472778,-0.299608051776886,-0.45766863226890564,-0.4505287706851959,9.241693496704102,-0.06669989973306656,3.5852036476135254,-2.204986095428467,14.216076850891113,-1.1866884231567383,0.5642207264900208,-0.4173862040042877,-0.37558436393737793,-0.605293333530426
1584941,9.005228042602539,-0.042164552956819534,3.95629620552063,1.0477964878082275,8.245376586914062,-0.8155341148376465,0.7060588002204895,-0.2988862097263336,-0.4569070041179657,-0.45098134875297546,9.240179061889648,-0.06604540348052979,3.6019346714019775,-2.7202885150909424,14.03685188293457,-1.3469728231430054,0.5646461248397827,-0.4162626266479492,-0.37433427572250366,-0.6064439415931702
1585108,9.02303409576416,-0.04658932983875275,3.936037302017212,1.1186926364898682,8.298547744750977,-0.8851878643035889,0.7065693140029907,-0.29814839363098145,-0.4561472535133362,-0.45143887400627136,9.220965385437012,-0.10369425266981125,3.6303493976593018,-2.897143840789795,13.716512680053711,-1.3074779510498047,0.5650442838668823,-0.41518232226371765,-0.37309104204177856,-0.607578694820404
1585274,8.991305351257324,-0.05238958075642586,3.9783554077148438,1.560537338256836,8.268478393554688,-1.0122909545898438,0.7070870995521545,-0.29735857248306274,-0.4554247558116913,-0.4518783688545227,9.21603775024414,-0.15582646429538727,3.6902661323547363,-2.450265645980835,13.505513191223145,-1.342477560043335,0.565452516078949,-0.4140806794166565,-0.3719053268432617,-0.6086766719818115
1585441,8.986679077148438,-0.08639351278543472,4.0171427726745605,1.9096126556396484,7.903754234313965,-1.0837503671646118,0.7075903415679932,-0.29655203223228455,-0.4547649919986725,-0.45228487253189087,9.193215370178223,-0.16599281132221222,3.761600971221924,-1.5436656475067139,13.259812355041504,-1.393319010734558,0.5658955574035645,-0.412922203540802,-0.3708215355873108,-0.6097120642662048
1585608,8.953397750854492,-0.10321275889873505,3.985969305038452,2.625884771347046,7.12359094619751,-0.8916678428649902,0.7080842852592468,-0.2957357168197632,-0.4542238116264343,-0.4525901973247528,9.127400398254395,-0.1943027824163437,3.8059194087982178,-0.3441580533981323,12.355144500732422,-1.6196328401565552,0.5663402080535889,-0.4117320477962494,-0.3699307441711426,-0.6106447577476501
1585774,8.949761390686035,-0.1030614972114563,4.034062385559082,2.5989534854888916,7.3339104652404785,-1.126805305480957,0.7085742950439453,-0.29489290714263916,-0.4536688029766083,-0.4529297649860382,9.04902172088623,-0.16187690198421478,3.822715997695923,0.8793035745620728,11.056065559387207,-1.7517684698104858,0.5667751431465149,-0.4105484187602997,-0.3692619204521179,-0.611442506313324
1585941,8.888018608093262,-0.03316028416156769,4.0154619216918945,3.522636890411377,6.955404758453369,-1.6088364124298096,0.7090463638305664,-0.2939480245113373,-0.4532337188720703,-0.4532407224178314,9.072458267211914,-0.103670634329319,3.865755796432495,1.5863037109375,9.715585708618164,-2.133244037628174,0.5671452879905701,-0.40940436720848083,-0.3687879145145416,-0.6121518611907959
1586108,8.881673812866211,0.0022292197681963444,4.090539932250977,3.064387559890747,6.624476909637451,-1.4974725246429443,0.7094833850860596,-0.29307952523231506,-0.4527972936630249,-0.4535554051399231,9.155210494995117,-0.06783528625965118,3.898658514022827,1.9700077772140503,9.109728813171387,-2.168551206588745,0.5675017237663269,-0.40828004479408264,-0.36839914321899414,-0.6128061413764954
1586274,8.910603523254395,-0.029367025941610336,4.100425720214844,2.7376842498779297,6.656850337982178,-1.4549295902252197,0.7099105715751648,-0.29224517941474915,-0.45233362913131714,-0.45388805866241455,9.208868026733398,-0.040963415056467056,3.911318302154541,2.2588939666748047,9.358800888061523,-1.8149936199188232,0.5679190754890442,-0.4071279466152191,-0.3679937422275543,-0.6134292483329773
1586441,8.920304298400879,0.0021026665344834328,4.173252105712891,2.689096689224243,6.539774417877197,-1.3587666749954224,0.7103336453437805,-0.2914295494556427,-0.4518742859363556,-0.4542078673839569,9.227410316467285,-0.007815769873559475,3.9461498260498047,2.3873414993286133,10.318803787231445,-1.3655544519424438,0.5684342980384827,-0.4059029519557953,-0.3674931824207306,-0.6140637397766113
1586608,8.948966026306152,0.019287515431642532,4.184956073760986,2.4506428241729736,6.890361785888672,-1.570058822631836,0.7107547521591187,-0.2906014621257782,-0.45137104392051697,-0.45457956194877625,9.166372299194336,0.024286530911922455,3.969362497329712,2.118690013885498,11.297850608825684,-0.9412927031517029,0.5690220594406128,-0.40463441610336304,-0.3668617904186249,-0.6147335171699524
1586774,8.900150299072266,0.04539824649691582,4.218439102172852,2.485732078552246,7.0955963134765625,-1.5997567176818848,0.7111880779266357,-0.2897539436817169,-0.450849711894989,-0.4549601674079895,9.090635299682617,0.08773409575223923,4.012641429901123,1.47189199924469,11.824075698852539,-1.0555765628814697,0.5695880055427551,-0.40336522459983826,-0.3661349415779114,-0.615476667881012
1586941,8.855663299560547,0.07042405009269714,4.275895118713379,2.3805150985717773,7.397544860839844,-1.6051225662231445,0.7116351127624512,-0.28889644145965576,-0.45028987526893616,-0.45536068081855774,9.111661911010742,0.092665895819664,4.027986526489258,0.42604830861091614,12.141407012939453,-1.0661548376083374,0.5701064467430115,-0.40215206146240234,-0.3652878701686859,-0.6162931323051453
1587108,8.877875328063965,0.07437454909086227,4.258596897125244,2.183976173400879,7.483102321624756,-1.5662168264389038,0.7120815515518188,-0.288055419921875,-0.44970569014549255,-0.4557727575302124,9.086225509643555,0.07667282968759537,4.055442810058594,-0.3374986946582794,12.766496658325195,-0.9856796860694885,0.5706185698509216,-0.40094903111457825,-0.3643149435520172,-0.6171783208847046
1587274,8.85993480682373,0.09559327363967896,4.310408592224121,1.7244588136672974,7.902153968811035,-1.5572781562805176,0.7125357389450073,-0.2872343957424164,-0.44904643297195435,-0.45623084902763367,9.112977981567383,0.07749508321285248,4.086462497711182,-1.1177899837493896,13.323253631591797,-0.690288245677948,0.5711390376091003,-0.3997749388217926,-0.3632074296474457,-0.6181106567382812
1587441,8.869155883789062,0.09352805465459824,4.334575176239014,1.6518592834472656,8.224987983703613,-1.5324592590332031,0.7130083441734314,-0.28640034794807434,-0.4483471214771271,-0.45670443773269653,9.124999046325684,0.06308706849813461,4.128376483917236,-1.6658638715744019,14.378753662109375,-0.6237080097198486,0.5716867446899414,-0.39855319261550903,-0.3619578778743744,-0.619125247001648
1587608,8.87346363067627,0.09363289177417755,4.344820499420166,1.5252302885055542,8.355550765991211,-1.6864303350448608,0.7134729623794556,-0.2855600416660309,-0.4476313889026642,-0.45720699429512024,9.012166976928711,0.04432627931237221,4.147300720214844,-2.107900857925415,14.7957181930542,-0.5140343904495239,0.5722379684448242,-0.3973347544670105,-0.3606261610984802,-0.6201754808425903
1587774,8.838844299316406,0.07950188964605331,4.337813854217529,1.3548222780227661,8.082524299621582,-1.7034238576889038,0.7139103412628174,-0.28475385904312134,-0.44693249464035034,-0.457710325717926,8.945557594299316,-0.004058733116835356,4.213159561157227,-2.1508662700653076,14.378345489501953,-0.6351697444915771,0.5727511644363403,-0.3961493670940399,-0.3593308627605438,-0.6212111115455627
1587941,8.780660629272461,0.09465093165636063,4.3161468505859375,1.1780626773834229,7.731111526489258,-1.751973032951355,0.7143133878707886,-0.28398585319519043,-0.44625964760780334,-0.45821499824523926,8.907448768615723,-0.035455409437417984,4.228841304779053,-1.7645498514175415,13.400208473205566,-0.7955566644668579,0.5732187628746033,-0.3950100839138031,-0.3581595718860626,-0.6221809983253479
1588108,8.788601875305176,0.10097572952508926,4.338000774383545,0.9762473702430725,7.503491401672363,-1.8412461280822754,0.7146861553192139,-0.283247709274292,-0.44560006260871887,-0.4587319493293762,8.91661262512207,-0.04438545182347298,4.255071640014648,-1.1520341634750366,12.1632661819458,-0.9288321137428284,0.5736432671546936,-0.3939233720302582,-0.3571529984474182,-0.6230567097663879
1588274,8.789970397949219,0.07542593777179718,4.3232245445251465,0.7902095317840576,7.377963542938232,-1.7961549758911133,0.7150453329086304,-0.2825399339199066,-0.44493865966796875,-0.4592505097389221,8.905121803283691,-0.03312811627984047,4.292459964752197,-0.5071316957473755,10.923853874206543,-0.9617189168930054,0.5740359425544739,-0.3928925395011902,-0.3563089966773987,-0.6238288283348083
1588441,8.77094841003418,0.06880301982164383,4.339122772216797,0.7846260070800781,7.3734941482543945,-1.6670411825180054,0.7154117226600647,-0.2818412184715271,-0.444271445274353,-0.4597548246383667,8.967195510864258,0.0033785246778279543,4.354210376739502,0.06594632565975189,9.939927101135254,-1.0149931907653809,0.5744041800498962,-0.3918994963169098,-0.35560110211372375,-0.6245176792144775
1588608,8.788135528564453,0.0768231526017189,4.3658881187438965,0.8372601270675659,7.193002223968506,-1.555703043937683,0.7157748937606812,-0.28115609288215637,-0.44362160563468933,-0.4602363109588623,8.9655122756958,0.03125781938433647,4.367744445800781,0.37250474095344543,9.809415817260742,-0.9111974835395813,0.5747916102409363,-0.3908975124359131,-0.3549253046512604,-0.6251734495162964
1588774,8.795594215393066,0.08845093101263046,4.428427696228027,1.0509212017059326,6.962319850921631,-1.3154940605163574,0.7161470651626587,-0.2804796099662781,-0.44299983978271484,-0.46066877245903015,8.962249755859375,0.06344413757324219,4.3916730880737305,0.3442668616771698,9.740212440490723,-0.7997184991836548,0.5751827359199524,-0.38990911841392517,-0.354245662689209,-0.6258160471916199
1588941,8.781540870666504,0.09223690629005432,4.422025203704834,0.7996479272842407,6.883396148681641,-1.1220543384552002,0.7165162563323975,-0.2798469364643097,-0.4423609673976898,-0.46109330654144287,8.954054832458496,0.06948947161436081,4.394586563110352,0.24029205739498138,9.781052589416504,-0.4210602045059204,0.5756032466888428,-0.38894447684288025,-0.35353103280067444,-0.6264334321022034
1589108,8.775336265563965,0.10858134925365448,4.458830833435059,0.6944948434829712,6.8267011642456055,-1.1331061124801636,0.7168758511543274,-0.2792281210422516,-0.44172099232673645,-0.4615229070186615,8.903827667236328,0.0763242170214653,4.428142070770264,0.055304232984781265,9.819954872131348,-0.2567801773548126,0.5760290026664734,-0.3879995048046112,-0.35278651118278503,-0.6270474195480347
1589274,8.734367370605469,0.11445166170597076,4.5093793869018555,0.7309417128562927,6.872099876403809,-1.0977733135223389,0.7172413468360901,-0.27860456705093384,-0.44107672572135925,-0.4619477093219757,8.883111953735352,0.08811729401350021,4.446665287017822,-0.2568954825401306,9.755631446838379,-0.09768686443567276,0.5764471888542175,-0.38709402084350586,-0.3520093858242035,-0.6276594996452332
1589441,8.739763259887695,0.12150680273771286,4.501200199127197,0.7154460549354553,6.7544097900390625,-0.8316316604614258,0.7176158428192139,-0.2780073285102844,-0.4404323697090149,-0.46234050393104553,8.903234481811523,0.05141656845808029,4.471626281738281,-0.5353695750236511,9.794342994689941,-0.3554147183895111,0.5768267512321472,-0.38619425892829895,-0.35121750831604004,-0.6283082365989685
1589608,8.711968421936035,0.13118039071559906,4.535416603088379,0.5376043319702148,6.976433753967285,-0.8474220633506775,0.7179953455924988,-0.27741244435310364,-0.43975308537483215,-0.4627550542354584,8.909318923950195,0.04690119996666908,4.516632080078125,-0.6577087640762329,10.300834655761719,-0.44482868909835815,0.5772160291671753,-0.38525325059890747,-0.35037633776664734,-0.6289978623390198
