sampleTimeFine,D4:22:CD:00:A9:12_acc_x,D4:22:CD:00:A9:12_acc_y,D4:22:CD:00:A9:12_acc_z,D4:22:CD:00:A9:12_gyro_x,D4:22:CD:00:A9:12_gyro_y,D4:22:CD:00:A9:12_gyro_z,D4:22:CD:00:A9:12_quat_w,D4:22:CD:00:A9:12_quat_x,D4:22:CD:00:A9:12_quat_y,D4:22:CD:00:A9:12_quat_z,D4:22:CD:00:A1:93_acc_x,D4:22:CD:00:A1:93_acc_y,D4:22:CD:00:A1:93_acc_z,D4:22:CD:00:A1:93_gyro_x,D4:22:CD:00:A1:93_gyro_y,D4:22:CD:00:A1:93_gyro_z,D4:22:CD:00:A1:93_quat_w,D4:22:CD:00:A1:93_quat_x,D4:22:CD:00:A1:93_quat_y,D4:22:CD:00:A1:93_quat_z
768185,0.0,0.0,0.0,0.0,0.0,0.0,0.6078911423683167,-0.38440537452697754,-0.496858149766922,-0.4856261610984802,0.0,0.0,0.0,0.0,0.0,0.0,0.4073234498500824,-0.5877054929733276,-0.5250311493873596,-0.4615537226200104
768352,9.595926284790039,0.1563139259815216,2.0611915588378906,0.5083673000335693,-0.6608845591545105,0.5283195972442627,0.6079897284507751,-0.38444554805755615,-0.49707266688346863,-0.4852513372898102,9.494179725646973,0.05449424684047699,-2.3220279216766357,-0.07814435660839081,-0.0679376944899559,0.695903480052948,0.4076003134250641,-0.5875741839408875,-0.5249953269958496,-0.46151772141456604
768518,9.60875415802002,0.13932830095291138,2.076752185821533,0.5007858872413635,-0.7087161540985107,0.5917621850967407,0.6077001690864563,-0.3847396671772003,-0.49701812863349915,-0.4854368269443512,9.469371795654297,0.03838343173265457,-2.3536272048950195,-0.40206819772720337,-0.020374903455376625,0.676425039768219,0.40787550806999207,-0.5874469876289368,-0.5247175693511963,-0.4617522954940796
768685,9.613391876220703,0.15528088808059692,2.0924160480499268,0.40635189414024353,-0.7579694390296936,0.5234403610229492,0.6077514886856079,-0.3847770094871521,-0.49704042077064514,-0.48532015085220337,9.46176815032959,0.028420118615031242,-2.3511059284210205,-0.486244261264801,0.01112231332808733,0.6450366377830505,0.4081690013408661,-0.587350070476532,-0.5246703028678894,-0.46166980266571045
768852,9.615764617919922,0.1350323110818863,2.069664716720581,0.5175365805625916,-0.6920166611671448,0.5367973446846008,0.6078424453735352,-0.3847108483314514,-0.4970313310623169,-0.48526814579963684,9.448629379272461,0.012556063942611217,-2.336507797241211,-0.5076692700386047,-0.13885924220085144,0.5693895220756531,0.4082275629043579,-0.5875270366668701,-0.5244507193565369,-0.46164244413375854
769018,9.611210823059082,0.138518288731575,2.0688815116882324,0.5262961387634277,-0.6722181439399719,0.40218982100486755,0.6079020500183105,-0.3847087025642395,-0.4970386028289795,-0.48518773913383484,9.45217227935791,0.005257254932075739,-2.354503631591797,-0.44414982199668884,-0.2974402606487274,0.5834764838218689,0.40831995010375977,-0.5876976251602173,-0.5242680907249451,-0.4615510106086731
769185,9.611808776855469,0.13674646615982056,2.039000988006592,0.6156333684921265,-0.6273190379142761,0.4001152217388153,0.6079133152961731,-0.3847569525241852,-0.4970325231552124,-0.4851416051387787,9.455352783203125,0.012967327609658241,-2.3536272048950195,-0.2312442809343338,-0.3168034851551056,0.5401270389556885,0.40847259759902954,-0.5877916216850281,-0.5242189764976501,-0.46135202050209045
769352,9.618256568908691,0.1363961547613144,2.059366226196289,0.4898620843887329,-0.5522865653038025,0.2770845890045166,0.6079390048980713,-0.38477611541748047,-0.49710747599601746,-0.48501724004745483,9.495193481445312,0.02493348903954029,-2.353573799133301,-0.26136475801467896,-0.17456334829330444,0.47367486357688904,0.408525288105011,-0.5879469513893127,-0.5240936279296875,-0.4612497091293335
769518,9.608850479125977,0.12463082373142242,2.043745279312134,0.2943987548351288,-0.4322527050971985,0.25838732719421387,0.6079555153846741,-0.38480737805366516,-0.497158408164978,-0.4849194884300232,9.51716423034668,0.030061598867177963,-2.3710145950317383,-0.23885120451450348,0.08037904649972916,0.3404375910758972,0.4085749387741089,-0.5880400538444519,-0.5239928364753723,-0.4612017869949341
769685,9.630510330200195,0.1301843523979187,2.0559473037719727,0.2566072344779968,-0.3858809471130371,0.24970462918281555,0.6079371571540833,-0.384884774684906,-0.49718034267425537,-0.4848586320877075,9.493718147277832,0.035468824207782745,-2.3563880920410156,-0.3498694598674774,0.33482837677001953,0.31832101941108704,0.4086432158946991,-0.5880680084228516,-0.5239359736442566,-0.46117016673088074
769852,9.61739730834961,0.13697588443756104,2.064880609512329,0.25498080253601074,-0.25852179527282715,0.1913972944021225,0.6079386472702026,-0.38493213057518005,-0.49720489978790283,-0.48479387164115906,9.492706298828125,0.04166996851563454,-2.341114044189453,-0.5175173282623291,0.4116024374961853,0.3024539351463318,0.40863972902297974,-0.5881401896476746,-0.523813784122467,-0.4612200856208801
770018,9.59664535522461,0.13056017458438873,2.0866310596466064,0.41564929485321045,-0.31675225496292114,0.1876322478055954,0.6079395413398743,-0.3849666714668274,-0.49723657965660095,-0.484732985496521,9.44587230682373,0.0643109381198883,-2.358876943588257,-0.6054072976112366,0.40665921568870544,0.33781227469444275,0.40866976976394653,-0.5881538987159729,-0.5237447023391724,-0.4612542390823364
770185,9.607227325439453,0.1352062225341797,2.0920095443725586,0.45502880215644836,-0.3984951674938202,0.2402535080909729,0.60797518491745,-0.3849702477455139,-0.49728071689605713,-0.4846401512622833,9.481977462768555,0.03517656400799751,-2.3341166973114014,-0.673319399356842,0.45582276582717896,0.4855719208717346,0.4086555540561676,-0.5882076025009155,-0.5236334800720215,-0.4613247215747833
770352,9.60993766784668,0.1339680254459381,2.059194564819336,0.3873216211795807,-0.4782915711402893,0.22242707014083862,0.6079900860786438,-0.38499030470848083,-0.4973076283931732,-0.4845779240131378,9.411808967590332,-0.0032126002479344606,-2.3449230194091797,-0.3629831373691559,0.3228544592857361,0.9196815490722656,0.4087223410606384,-0.5882441997528076,-0.5235500931739807,-0.4613136649131775
770519,9.6327543258667,0.12940548360347748,2.091212034225464,0.5457618236541748,-0.5009075403213501,0.34842872619628906,0.6079996228218079,-0.38502606749534607,-0.49733060598373413,-0.4845139682292938,9.48183536529541,-0.0074503496289253235,-2.373000144958496,-0.08622515201568604,-0.00699226651340723,0.9571273326873779,0.40881040692329407,-0.588282585144043,-0.5235148668289185,-0.4612267017364502
770685,9.604766845703125,0.09714052081108093,2.0408127307891846,0.5091100335121155,-0.28769463300704956,0.5252203941345215,0.6080344319343567,-0.38506314158439636,-0.49731510877609253,-0.48445674777030945,9.488301277160645,0.00806434266269207,-2.355741024017334,0.09127724915742874,-0.06203394755721092,0.5004273056983948,0.4089026153087616,-0.5882628560066223,-0.5235596299171448,-0.461119145154953
770852,9.579285621643066,0.09532023221254349,2.0215513706207275,-0.0046102856285870075,-0.5518896579742432,0.5512428879737854,0.6080344319343567,-0.38516414165496826,-0.49729645252227783,-0.48439541459083557,9.542036056518555,0.018220946192741394,-2.3659331798553467,0.07058219611644745,0.27786576747894287,-0.1793144941329956,0.408938467502594,-0.5882115364074707,-0.523593008518219,-0.46111488342285156
771019,9.693978309631348,0.16179510951042175,2.069304943084717,0.30384984612464905,-0.20326238870620728,0.04701851308345795,0.6080690622329712,-0.38515472412109375,-0.49732494354248047,-0.48433032631874084,9.538150787353516,0.016424227505922318,-2.344273805618286,0.334380179643631,0.7890055775642395,-0.06533799320459366,0.4090496897697449,-0.5881096720695496,-0.5236124396324158,-0.46112409234046936
771352,9.621129035949707,0.15560786426067352,2.130410671234131,1.0689650774002075,0.2995212972164154,0.3497990071773529,0.6081559062004089,-0.38505613803863525,-0.49738240242004395,-0.4842407703399658,9.505897521972656,0.0635586678981781,-2.3134870529174805,0.3193327486515045,1.1981685161590576,0.2860874533653259,0.40919262170791626,-0.5880323648452759,-0.5235435962677002,-0.4611741900444031
771519,9.56740951538086,0.12453068792819977,2.1130270957946777,0.6262497305870056,-0.04667914658784866,0.4312218427658081,0.6082069277763367,-0.3850443363189697,-0.49738284945487976,-0.48418545722961426,9.462688446044922,0.0787021592259407,-2.3115074634552,-0.04917638376355171,1.3650352954864502,0.5386030077934265,0.4093444049358368,-0.5879610776901245,-0.5234367251396179,-0.4612516462802887
771685,9.604248046875,0.12725934386253357,2.1392300128936768,0.3568553328514099,-0.3809504806995392,0.14451324939727783,0.6082155108451843,-0.3850436806678772,-0.49741214513778687,-0.4841451644897461,9.410460472106934,0.0603235624730587,-2.3040690422058105,-0.3065328001976013,1.2078886032104492,0.4951639473438263,0.409437358379364,-0.587924599647522,-0.5233080983161926,-0.46136143803596497
771852,9.563943862915039,0.11978863924741745,2.0899927616119385,0.3767947852611542,-0.5834572315216064,0.11366275697946548,0.6082025766372681,-0.38506025075912476,-0.4974469542503357,-0.4841125011444092,9.415216445922852,0.03504488244652748,-2.3018839359283447,-0.27983155846595764,0.8100336194038391,0.4413260221481323,0.4095100164413452,-0.587890625,-0.5232291221618652,-0.4614298939704895
772019,9.58232307434082,0.1429940164089203,2.060228109359741,0.9734171032905579,-0.622913658618927,0.3505418300628662,0.6082577109336853,-0.3850242495536804,-0.4975275993347168,-0.48398905992507935,9.456683158874512,0.018968328833580017,-2.2904746532440186,-0.07253517210483551,0.4593189060688019,0.5730137228965759,0.4095630943775177,-0.5879001021385193,-0.5231478214263916,-0.46146300435066223
772185,9.584404945373535,0.15959696471691132,2.0491528511047363,1.2191197872161865,-0.40815117955207825,0.4154316186904907,0.6083574891090393,-0.3849426507949829,-0.4976164996623993,-0.48383715748786926,9.470132827758789,0.015227491036057472,-2.3074190616607666,0.0805327296257019,0.17300735414028168,0.5045893788337708,0.40963980555534363,-0.5878759026527405,-0.5231395363807678,-0.4614349901676178
772352,9.584278106689453,0.14754357933998108,2.064851999282837,0.6119577884674072,-0.18912415206432343,0.37872856855392456,0.6084200739860535,-0.38490965962409973,-0.4976392686367035,-0.4837610721588135,9.479796409606934,0.05268118157982826,-2.3177649974823,0.14442360401153564,-0.18561522662639618,0.27038687467575073,0.40966224670410156,-0.5878760814666748,-0.5231515765190125,-0.46140116453170776
772519,9.61688232421875,0.15806478261947632,2.0421037673950195,0.3925594091415405,-0.30003994703292847,0.2933101952075958,0.6084375381469727,-0.3849155604839325,-0.49764907360076904,-0.48372435569763184,9.502045631408691,0.07113798707723618,-2.307647705078125,0.008932429365813732,-0.4700826406478882,0.28027334809303284,0.4096667766571045,-0.5878843665122986,-0.5231935381889343,-0.4613390564918518
772685,9.642377853393555,0.16735577583312988,2.0508010387420654,0.21511465311050415,-0.1607452929019928,0.3444972038269043,0.6084682941436768,-0.3849186301231384,-0.4976453483104706,-0.48368707299232483,9.480185508728027,0.0869697853922844,-2.3178508281707764,-0.11227327585220337,-0.558382511138916,0.38149479031562805,0.40966036915779114,-0.5879099369049072,-0.523226797580719,-0.4612744450569153
772852,9.62427806854248,0.15255743265151978,2.0750906467437744,0.34422823786735535,0.06827705353498459,0.48224231600761414,0.6084688901901245,-0.3849667012691498,-0.4975776970386505,-0.4837177097797394,9.485428810119629,0.053144391626119614,-2.329162359237671,-0.21700358390808105,-0.8018695712089539,0.7153562307357788,0.4096308648586273,-0.5879982113838196,-0.5232229232788086,-0.4611925184726715
773019,9.610274314880371,0.16149777173995972,2.0470967292785645,0.5827721357345581,-0.17140017449855804,0.4738157391548157,0.6085414886474609,-0.3849301338195801,-0.4976106286048889,-0.4836215674877167,9.444668769836426,0.04649977758526802,-2.340157985687256,-0.16379322111606598,-0.9354142546653748,0.931898832321167,0.4096252918243408,-0.5880908370018005,-0.5232333540916443,-0.4610675573348999
773185,9.600017547607422,0.13545243442058563,2.049002170562744,0.5636394619941711,-0.0058396952226758,0.6064510941505432,0.608596920967102,-0.38492995500564575,-0.4975941479206085,-0.48356887698173523,9.445111274719238,0.040266238152980804,-2.3220083713531494,0.027463216334581375,-1.0648736953735352,0.6158381700515747,0.4095926582813263,-0.5881704092025757,-0.523278534412384,-0.4609437882900238
773352,9.608902931213379,0.14332327246665955,2.054713487625122,0.4064158797264099,-0.579359233379364,0.45082828402519226,0.6086634993553162,-0.3848989009857178,-0.497685045003891,-0.4834161698818207,9.454010009765625,0.03153500333428383,-2.336050510406494,0.19085943698883057,-1.2087786197662354,0.4315420091152191,0.40957891941070557,-0.5882042646408081,-0.5233948826789856,-0.4607805907726288
773519,9.60257339477539,0.18277542293071747,2.049003839492798,0.8543563485145569,-0.04679439961910248,0.35239869356155396,0.6087517738342285,-0.38481971621513367,-0.49773916602134705,-0.4833123981952667,9.487027168273926,0.0523197278380394,-2.3532567024230957,0.43265610933303833,-1.2563284635543823,0.41287028789520264,0.4095636308193207,-0.5882461667060852,-0.5235097408294678,-0.4606100916862488
773685,9.58079719543457,0.15844082832336426,2.0378596782684326,0.724205493927002,0.09029117971658707,0.6779873967170715,0.6088603138923645,-0.384768545627594,-0.4977531433105469,-0.48320212960243225,9.493452072143555,0.0717904344201088,-2.359924554824829,0.46024104952812195,-1.014198899269104,0.5920695662498474,0.4095751941204071,-0.5882899761199951,-0.523591160774231,-0.46045127511024475
773852,9.604126930236816,0.16953107714653015,2.0781495571136475,0.6970815658569336,0.2577085494995117,0.48559752106666565,0.6089398264884949,-0.3847198784351349,-0.4977427124977112,-0.48315128684043884,9.493480682373047,0.09015221148729324,-2.3491392135620117,0.27363964915275574,-0.6469767689704895,0.6584576964378357,0.4095994532108307,-0.5883274078369141,-0.5236313939094543,-0.4603360891342163
774019,9.616786003112793,0.1532333344221115,2.0995912551879883,0.13230879604816437,0.15840815007686615,0.6536808609962463,0.6090215444564819,-0.38470903038978577,-0.4977155923843384,-0.48308485746383667,9.494386672973633,0.0690494105219841,-2.3733999729156494,0.04636538773775101,-0.3927963674068451,0.7195567488670349,0.4096154272556305,-0.588377058506012,-0.5236239433288574,-0.46026697754859924
774185,9.591519355773926,0.15024009346961975,2.0791285037994385,0.2614736258983612,0.1392882615327835,0.657599687576294,0.6090704202651978,-0.3847283124923706,-0.4976665675640106,-0.48305845260620117,9.485909461975098,0.051502734422683716,-2.3747246265411377,0.14362961053848267,-0.22498194873332977,0.899537205696106,0.4096701741218567,-0.5884156823158264,-0.5236077308654785,-0.46018731594085693
774352,9.597158432006836,0.14237242937088013,2.08461332321167,0.646458089351654,0.08710239082574844,0.7253580689430237,0.6091544032096863,-0.3847093880176544,-0.4976547360420227,-0.4829799234867096,9.488128662109375,0.029600268229842186,-2.364835023880005,0.2537129521369934,-0.046166885644197464,0.7871614098548889,0.40976154804229736,-0.5884028673171997,-0.5236266255378723,-0.4601007401943207
774519,9.61574935913086,0.14782312512397766,2.0833280086517334,0.680343747138977,0.015937501564621925,0.657446026802063,0.6092621088027954,-0.3846547603607178,-0.49768006801605225,-0.4828612506389618,9.473709106445312,0.0386623777449131,-2.363393783569336,0.35444775223731995,0.07219579815864563,0.6374936103820801,0.40984562039375305,-0.5883831977844238,-0.5236380100250244,-0.46003812551498413
774685,9.610630989074707,0.17468781769275665,2.0723612308502197,0.77569979429245,0.005513133481144905,0.72040194272995,0.6093494892120361,-0.3846273720264435,-0.49768590927124023,-0.4827669560909271,9.461926460266113,0.05890372395515442,-2.369666337966919,0.4422736167907715,0.0415630042552948,0.557505190372467,0.409932941198349,-0.5883509516716003,-0.5236683487892151,-0.45996707677841187
774852,9.616265296936035,0.16675949096679688,2.0848195552825928,0.5434694886207581,0.0527813695371151,0.7327216863632202,0.6094285845756531,-0.3846162259578705,-0.4976723790168762,-0.4826899468898773,9.461864471435547,0.07606950402259827,-2.3691515922546387,0.34751948714256287,0.0009540729806758463,0.7351292371749878,0.41000741720199585,-0.5883554220199585,-0.5236638188362122,-0.4599001109600067
775019,9.614585876464844,0.1596895456314087,2.0590052604675293,0.36434704065322876,0.18443064391613007,0.7908368110656738,0.6095324754714966,-0.38459312915802,-0.497648686170578,-0.4826013743877411,9.478885650634766,0.07456697523593903,-2.369224786758423,0.29762595891952515,0.024402497336268425,0.7957929372787476,0.41009408235549927,-0.588352382183075,-0.5236654877662659,-0.45982488989830017
775185,9.619102478027344,0.1597248762845993,2.030918836593628,0.1482655107975006,0.41421499848365784,0.8173332214355469,0.6096352338790894,-0.3845823407173157,-0.4975833296775818,-0.4825475811958313,9.476106643676758,0.06850647181272507,-2.3825483322143555,-0.01648177206516266,0.1893610805273056,0.9229087233543396,0.4101506471633911,-0.5883930325508118,-0.523596465587616,-0.4598011076450348
775352,9.61483097076416,0.1469324231147766,2.046619176864624,0.1893739104270935,0.3400918245315552,0.7622660398483276,0.6097107529640198,-0.3845894932746887,-0.4975167512893677,-0.4825151562690735,9.468684196472168,0.04379136487841606,-2.3726401329040527,-0.09073298424482346,0.18083204329013824,0.9838926196098328,0.4102257490158081,-0.5884178876876831,-0.5235472917556763,-0.4597581624984741
775519,9.616096496582031,0.1433781385421753,2.0730278491973877,0.31414616107940674,0.25234270095825195,0.9124459624290466,0.6098281145095825,-0.38457098603248596,-0.497484028339386,-0.4824153482913971,9.472053527832031,0.022217633202672005,-2.3775672912597656,0.11253579705953598,0.3150297701358795,1.1163229942321777,0.410329133272171,-0.5884413123130798,-0.5234823822975159,-0.4597098231315613
775685,9.619515419006348,0.1458953619003296,2.0630249977111816,0.4062238037586212,0.2892121970653534,1.0248088836669922,0.6099637746810913,-0.3845471739768982,-0.49745047092437744,-0.48229721188545227,9.462509155273438,0.005499908700585365,-2.349822759628296,0.4043668806552887,0.2585281729698181,1.26237952709198,0.41047248244285583,-0.5884525179862976,-0.5234394669532776,-0.45961636304855347
775852,9.61829948425293,0.12816719710826874,2.075941562652588,0.4089387357234955,0.21279670298099518,1.183441162109375,0.6101526021957397,-0.3844911754131317,-0.4974534213542938,-0.4820999801158905,9.46821403503418,-0.020683806389570236,-2.3696703910827637,0.7082103490829468,0.284845232963562,1.2097198963165283,0.4106356203556061,-0.5884470343589783,-0.5234115719795227,-0.4595095217227936
776019,9.621222496032715,0.13679763674736023,2.054870128631592,0.38760337233543396,0.2081223875284195,1.0900572538375854,0.6102767586708069,-0.3844895362854004,-0.49741506576538086,-0.48198381066322327,9.47877311706543,-0.024562714621424675,-2.348740816116333,0.960751473903656,0.2835261821746826,1.1662935018539429,0.4108266830444336,-0.5884147882461548,-0.5234141945838928,-0.4593769311904907
776185,9.617952346801758,0.11993085592985153,2.0679244995117188,0.20678412914276123,0.24954451620578766,1.0431156158447266,0.6104124188423157,-0.3844749927520752,-0.497381329536438,-0.48185834288597107,9.476690292358398,0.0032561984844505787,-2.3545589447021484,1.2002943754196167,0.26528993248939514,1.0906847715377808,0.4110318720340729,-0.5883657932281494,-0.5234377980232239,-0.45922935009002686
776352,9.602776527404785,0.11692573130130768,2.0941622257232666,0.2911715805530548,0.24993513524532318,1.0422894954681396,0.6105729341506958,-0.3844326436519623,-0.4973694980144501,-0.48170098662376404,9.480561256408691,0.01136324368417263,-2.3474721908569336,1.223870873451233,0.4074404537677765,1.0184698104858398,0.4112282991409302,-0.5883203744888306,-0.5234379172325134,-0.4591115713119507
776519,9.611818313598633,0.11190934479236603,2.097939968109131,0.18758101761341095,0.23329968750476837,1.0117721557617188,0.6107041239738464,-0.38441982865333557,-0.49733656644821167,-0.48157885670661926,9.47552490234375,0.011268215253949165,-2.3667659759521484,1.0880721807479858,0.5810689330101013,0.9087193012237549,0.4114202558994293,-0.5882619619369507,-0.5234288573265076,-0.4590245187282562
776685,9.610634803771973,0.12412072718143463,2.103178024291992,0.3332660496234894,0.34631574153900146,1.0045236349105835,0.6108339428901672,-0.384403795003891,-0.49728965759277344,-0.48147547245025635,9.489842414855957,0.020344361662864685,-2.3329005241394043,0.9286845326423645,0.7679904103279114,0.9496228694915771,0.4116029441356659,-0.5882185697555542,-0.5233781933784485,-0.458974152803421
776852,9.610679626464844,0.10878219455480576,2.108124017715454,0.5244136452674866,0.24399298429489136,0.9885157942771912,0.6109873056411743,-0.3843548893928528,-0.49728259444236755,-0.48132720589637756,9.485384941101074,0.037257879972457886,-2.3103692531585693,0.6665897369384766,0.8336101174354553,0.9752867817878723,0.4117996394634247,-0.5881543755531311,-0.523341715335846,-0.4589217007160187
777019,9.600255012512207,0.11351335048675537,2.1011416912078857,0.46702831983566284,0.2084425389766693,0.9327825307846069,0.6111688613891602,-0.3842708468437195,-0.49730709195137024,-0.4811384677886963,9.477190017700195,0.02416898123919964,-2.330686569213867,0.3941858410835266,0.8964380025863647,0.9780016541481018,0.4119817316532135,-0.5880976319313049,-0.523287296295166,-0.45889297127723694
777185,9.60802173614502,0.13229615986347198,2.0900206565856934,0.3395027220249176,0.3113415539264679,0.8230575919151306,0.6113085746765137,-0.3842189610004425,-0.4972914457321167,-0.4810187518596649,9.463037490844727,0.0073246946558356285,-2.3275139331817627,0.10969278961420059,0.9196431636810303,0.7262672781944275,0.41211190819740295,-0.5880512595176697,-0.5232179164886475,-0.4589146375656128
777352,9.600298881530762,0.12970198690891266,2.1228582859039307,0.2929900586605072,0.19243460893630981,0.7073138356208801,0.6114578247070312,-0.3841407597064972,-0.4973129332065582,-0.4808690845966339,9.44225788116455,0.014047970063984394,-2.316183090209961,-0.07199729979038239,0.7129742503166199,0.8023241758346558,0.4122197926044464,-0.5880311727523804,-0.5231467485427856,-0.45892462134361267
777519,9.61262321472168,0.1299629509449005,2.071943759918213,0.4073635935783386,0.1681281477212906,0.6787942051887512,0.6116240620613098,-0.3840370774269104,-0.49735698103904724,-0.480694979429245,9.466689109802246,0.004355990793555975,-2.3356173038482666,-0.2186812460422516,0.4873136579990387,0.841742217540741,0.41226914525032043,-0.5880738496780396,-0.5230352282524109,-0.45895281434059143
777685,9.614629745483398,0.11264337599277496,2.062548875808716,0.3689573407173157,0.17197008430957794,0.646496593952179,0.6117686033248901,-0.38395214080810547,-0.4973864257335663,-0.4805484712123871,9.450732231140137,-0.003472497221082449,-2.3385748863220215,-0.22485385835170746,0.29170942306518555,0.7271509170532227,0.4123075604438782,-0.5881074070930481,-0.5229602456092834,-0.45896056294441223
777852,9.612298965454102,0.11139171570539474,2.068478584289551,0.5583504438400269,0.3139028251171112,0.579160749912262,0.6119226813316345,-0.3838423192501068,-0.49741557240486145,-0.4804096221923828,9.436981201171875,-0.00208492879755795,-2.3107128143310547,-0.33369505405426025,-0.18004447221755981,0.746053159236908,0.4123011827468872,-0.588181734085083,-0.5229035019874573,-0.4589357078075409
778019,9.607743263244629,0.11331969499588013,2.0668537616729736,0.6868365406990051,0.12029644101858139,0.5012981295585632,0.612055778503418,-0.3837382197380066,-0.49746865034103394,-0.480268269777298,9.435417175292969,-0.0006042959284968674,-2.311178207397461,-0.3284444510936737,-0.505172073841095,0.8214825391769409,0.41227421164512634,-0.5882851481437683,-0.522857666015625,-0.4588797390460968
778185,9.61436653137207,0.08763478696346283,2.071021318435669,1.232310175895691,-0.057923126965761185,0.3710448145866394,0.612226665019989,-0.3835582435131073,-0.4976069927215576,-0.4800510108470917,9.464495658874512,-0.01661987416446209,-2.3320672512054443,-0.3366148769855499,-0.7924312949180603,0.6506713628768921,0.41221874952316284,-0.588388979434967,-0.5228497385978699,-0.4588053226470947
778352,9.612563133239746,0.11541522294282913,2.0730831623077393,1.4685875177383423,0.01682114228606224,0.328899085521698,0.6124162077903748,-0.38334619998931885,-0.49775996804237366,-0.47982004284858704,9.470673561096191,-0.0114109693095088,-2.350339889526367,-0.2926378846168518,-0.9225565195083618,0.5117737650871277,0.4121500253677368,-0.5884864330291748,-0.5228665471076965,-0.4587229788303375
778519,9.605257987976074,0.10488863289356232,2.085923910140991,1.2489327192306519,0.16505464911460876,0.3248266577720642,0.6126211285591125,-0.3831250071525574,-0.49789875745773315,-0.4795910120010376,9.549118041992188,0.006243940442800522,-2.346169948577881,-0.4610413908958435,-0.6279850006103516,0.468142569065094,0.4121090769767761,-0.5885453224182129,-0.5228874087333679,-0.45866045355796814
778685,9.622827529907227,0.12059837579727173,2.078090190887451,0.9528372287750244,0.3970288634300232,0.13818691670894623,0.612812340259552,-0.38290131092071533,-0.4980059266090393,-0.4794138967990875,9.528518676757812,0.03231460973620415,-2.3550291061401367,-0.6530342102050781,-0.10583166778087616,0.20991528034210205,0.41204771399497986,-0.5885912179946899,-0.5228520631790161,-0.4586968719959259
778852,9.585171699523926,0.15818554162979126,2.129625082015991,0.7303269505500793,0.5545597672462463,0.07044132798910141,0.6129790544509888,-0.3827011287212372,-0.49807244539260864,-0.47929152846336365,9.531846046447754,0.018567271530628204,-2.359152317047119,-0.8746224641799927,0.4612782597541809,0.24149572849273682,0.41203442215919495,-0.5885894298553467,-0.522794246673584,-0.45877712965011597
779019,9.638718605041504,0.1301635503768921,2.1888821125030518,0.415918231010437,0.2815795838832855,0.18179252743721008,0.6131258010864258,-0.3825453519821167,-0.4981425702571869,-0.47915539145469666,9.50112533569336,-0.007318495307117701,-2.382087469100952,-0.8851365447044373,0.8141700625419617,0.48235756158828735,0.4120751619338989,-0.5885688662528992,-0.5227099061012268,-0.45886293053627014
779185,9.57748031616211,0.1132187768816948,2.146521806716919,0.22744716703891754,0.47694048285484314,0.2973698377609253,0.6132643818855286,-0.3824213743209839,-0.49815845489501953,-0.47906044125556946,9.501070022583008,-0.011451423168182373,-2.3706002235412598,-0.8897980451583862,1.020442008972168,0.31835946440696716,0.412101686000824,-0.5885435938835144,-0.5226035714149475,-0.45899271965026855
779352,9.606722831726074,0.1056089773774147,2.109536647796631,-0.1392434537410736,0.2609613835811615,0.10056185722351074,0.6133858561515808,-0.38229724764823914,-0.49820396304130554,-0.4789566397666931,9.473020553588867,0.018332408741116524,-2.33992338180542,-0.860573947429657,1.142320156097412,-0.2969280779361725,0.4120972454547882,-0.5884636640548706,-0.5225424766540527,-0.4591684937477112
779519,9.691689491271973,0.15572594106197357,2.1249430179595947,0.11350907385349274,0.035825762897729874,-0.3427235186100006,0.6134507060050964,-0.3821587562561035,-0.49829262495040894,-0.4788917899131775,9.494782447814941,-0.0015949985245242715,-2.3362014293670654,-0.7459955811500549,1.286711573600769,-0.9235939979553223,0.4120740294456482,-0.5883167386054993,-0.522537350654602,-0.45938345789909363
779685,9.602982521057129,0.15695981681346893,2.0944573879241943,0.833853542804718,0.5534968972206116,-0.34910112619400024,0.6136155128479004,-0.38189491629600525,-0.4984044134616852,-0.4787748157978058,9.489542961120605,0.0005626031779684126,-2.3255455493927,-0.4678672254085541,1.5688867568969727,-0.5988633632659912,0.41209980845451355,-0.588179349899292,-0.5224829316139221,-0.4595980942249298
779852,9.601877212524414,0.12560304999351501,2.1189093589782715,1.1663062572479248,1.0253852605819702,0.2960507869720459,0.6138689517974854,-0.3816237151622772,-0.4984549880027771,-0.47861361503601074,9.5089750289917,0.05836483836174011,-2.333719253540039,-0.2832508385181427,1.887764573097229,-0.1947077363729477,0.4122053384780884,-0.5880259275436401,-0.5224032402038574,-0.45979031920433044
780019,9.594490051269531,0.13105051219463348,2.137660264968872,0.6410922408103943,1.1928025484085083,0.5216858983039856,0.6141208410263062,-0.38140419125556946,-0.49844104051589966,-0.4784799814224243,9.484607696533203,0.10230935364961624,-2.318000316619873,-0.4689045548439026,2.1155385971069336,0.027207091450691223,0.41233786940574646,-0.5878720879554749,-0.5222932696342468,-0.45999303460121155
780185,9.586365699768066,0.1399756520986557,2.146810293197632,-0.08817172050476074,1.3476057052612305,0.05070674046874046,0.6143298149108887,-0.38118499517440796,-0.4984033703804016,-0.47842562198638916,9.482255935668945,0.06811482459306717,-2.3038535118103027,-0.6811057925224304,2.2943921089172363,0.273396372795105,0.4124758243560791,-0.5877432227134705,-0.5221309065818787,-0.46021825075149536
780352,9.594432830810547,0.1100272610783577,2.128790855407715,-0.22724869847297668,1.55989670753479,0.03445548564195633,0.6145164966583252,-0.38099175691604614,-0.4983145594596863,-0.4784323275089264,9.474803924560547,0.037069786339998245,-2.306342124938965,-0.5790902972221375,2.4253880977630615,0.4516735374927521,0.41264307498931885,-0.587613582611084,-0.52195143699646,-0.46043750643730164
780519,9.60472297668457,0.1318378895521164,2.143789052963257,0.21814978122711182,1.3640620708465576,0.3176935613155365,0.6147329211235046,-0.38079360127449036,-0.498257577419281,-0.4783712327480316,9.488310813903809,0.004793762695044279,-2.2920687198638916,-0.21743901073932648,2.4541895389556885,0.616183876991272,0.41285213828086853,-0.5874747633934021,-0.521777868270874,-0.4606238007545471
780685,9.562942504882812,0.13393785059452057,2.109511137008667,0.501746416091919,1.164551854133606,0.34191033244132996,0.6150063276290894,-0.3805292546749115,-0.4982799291610718,-0.4782068729400635,9.485795974731445,0.005447015631943941,-2.2702219486236572,0.16898618638515472,2.3157403469085693,0.5781235098838806,0.4130765497684479,-0.5873244404792786,-0.5216356515884399,-0.46077537536621094
780852,9.5841646194458,0.13374044001102448,2.124520778656006,0.1665145605802536,0.9059532284736633,0.35841768980026245,0.6152152419090271,-0.3803431987762451,-0.4982789158821106,-0.4780871868133545,9.468775749206543,0.022984692826867104,-2.2549495697021484,0.5306246876716614,1.9903950691223145,0.40986084938049316,0.41330385208129883,-0.5871525406837463,-0.5215612649917603,-0.4608750641345978
781019,9.591769218444824,0.1502867490053177,2.128916025161743,0.10737483948469162,0.467886358499527,0.28734248876571655,0.6153677105903625,-0.38020461797714233,-0.49830394983291626,-0.47797515988349915,9.468478202819824,0.05060760676860809,-2.250058650970459,0.6814706921577454,1.3964749574661255,0.14496147632598877,0.4134780168533325,-0.5869946479797363,-0.5215509533882141,-0.460931658744812
781185,9.608134269714355,0.1530154049396515,2.097287893295288,0.07240070402622223,0.32200929522514343,0.28529348969459534,0.6155260801315308,-0.38005951046943665,-0.4983547031879425,-0.4778337776660919,9.467598915100098,0.09061162173748016,-2.2182178497314453,0.5105059146881104,0.9209110140800476,0.027104636654257774,0.41358792781829834,-0.5868756771087646,-0.5215609669685364,-0.4609731435775757
781352,9.62334156036377,0.1652098000049591,2.103135108947754,0.1681409776210785,0.19685281813144684,0.34097549319267273,0.6156701445579529,-0.37993282079696655,-0.4984097182750702,-0.47769150137901306,9.505789756774902,0.1113240122795105,-2.2139077186584473,0.18318840861320496,0.3512077033519745,0.20836570858955383,0.41363656520843506,-0.5868297219276428,-0.5215655565261841,-0.4609827995300293
781519,9.605155944824219,0.16854307055473328,2.1480917930603027,0.6114839911460876,0.07503880560398102,0.36934158205986023,0.6158378720283508,-0.37977010011672974,-0.4985106289386749,-0.47749942541122437,9.461313247680664,0.0739559605717659,-2.2279269695281982,-0.10029934346675873,-0.0052121845073997974,0.7297250628471375,0.41368409991264343,-0.5868456959724426,-0.5215482711791992,-0.4609394073486328
781685,9.61137580871582,0.14772239327430725,2.1147043704986572,0.6431796550750732,-0.006211079657077789,0.5098527669906616,0.6159796714782715,-0.379652202129364,-0.49858853220939636,-0.47732898592948914,9.424193382263184,0.09732916951179504,-2.221957206726074,-0.2717251181602478,-0.48187732696533203,0.6506842374801636,0.4136570394039154,-0.5869179368019104,-0.5215319395065308,-0.4608902633190155
781852,9.606146812438965,0.15783332288265228,2.1386475563049316,0.5879458785057068,-0.450335294008255,0.5697993040084839,0.6160765290260315,-0.37958818674087524,-0.49868863821029663,-0.4771500527858734,9.449213981628418,0.047324251383543015,-2.237675189971924,-0.35380104184150696,-0.9679680466651917,0.5709391236305237,0.413581907749176,-0.5870190262794495,-0.5215485692024231,-0.4608100354671478
782019,9.583271026611328,0.18509526550769806,2.112535238265991,1.0451709032058716,-0.18000604212284088,0.41872280836105347,0.6162191033363342,-0.37944120168685913,-0.4988139867782593,-0.47695180773735046,9.479899406433105,0.031191395595669746,-2.2578418254852295,-0.25433409214019775,-1.2443162202835083,0.6256734728813171,0.41351866722106934,-0.5871129631996155,-0.5216103792190552,-0.46067723631858826
782185,9.579957008361816,0.15308777987957,2.1541643142700195,0.6470727920532227,0.056828174740076065,0.6554481983184814,0.6164186596870422,-0.37928247451782227,-0.4989143908023834,-0.476715087890625,9.516854286193848,0.030235569924116135,-2.263256072998047,0.031023383140563965,-1.0416812896728516,0.7048678398132324,0.4134761393070221,-0.5872093439102173,-0.5216415524482727,-0.460557222366333
782352,9.60295295715332,0.17180457711219788,2.1606693267822266,0.3746177852153778,0.0667530968785286,0.6124060153961182,0.6165798306465149,-0.3791656792163849,-0.4989805817604065,-0.4765302538871765,9.522141456604004,0.020092645660042763,-2.2663261890411377,0.1437576711177826,-0.6603081822395325,0.6524770855903625,0.41346919536590576,-0.5872684717178345,-0.5216625332832336,-0.4604642689228058
782519,9.582356452941895,0.14845193922519684,2.1904056072235107,-0.07804188877344131,0.10578684508800507,0.4703836143016815,0.6166984438896179,-0.3790867030620575,-0.49901145696640015,-0.47640731930732727,9.523633003234863,0.01891813613474369,-2.2705841064453125,0.12310103327035904,-0.24170702695846558,0.5302788615226746,0.4134850800037384,-0.5872902274131775,-0.521668553352356,-0.4604153335094452
782685,9.570127487182617,0.14101700484752655,2.2015132904052734,0.16761590540409088,-0.0791560485959053,0.4739565849304199,0.6168360114097595,-0.37897905707359314,-0.49908995628356934,-0.4762326776981354,9.53380012512207,0.056243013590574265,-2.2659027576446533,0.3097151517868042,0.28163081407546997,0.47989869117736816,0.413551926612854,-0.5872631669044495,-0.5216582417488098,-0.460401326417923
782852,9.569602012634277,0.13506977260112762,2.1942355632781982,0.4279177486896515,-0.18123546242713928,0.5229408740997314,0.6169716715812683,-0.37887105345726013,-0.49918249249458313,-0.4760458171367645,9.509954452514648,0.05467663332819939,-2.2777721881866455,0.21014578640460968,0.5254637002944946,0.5366308689117432,0.4136338233947754,-0.5872281193733215,-0.5216237902641296,-0.46041157841682434
783019,9.5844144821167,0.1639154553413391,2.215674877166748,0.40617257356643677,-0.41995862126350403,0.4024074971675873,0.6170633435249329,-0.37879034876823425,-0.49928730726242065,-0.47588133811950684,9.483858108520508,0.07612677663564682,-2.2874960899353027,0.1737501472234726,0.5645231604576111,0.472714364528656,0.4137096703052521,-0.5871889591217041,-0.5215885043144226,-0.46043336391448975
783185,9.594368934631348,0.1641097068786621,2.16919207572937,0.40084514021873474,-0.6611278057098389,0.4287373423576355,0.6171281337738037,-0.3787393569946289,-0.4994027018547058,-0.4757169187068939,9.456165313720703,0.06546970456838608,-2.2642502784729004,0.011557729914784431,0.3942498564720154,0.42228296399116516,0.41375496983528137,-0.587166428565979,-0.5215578675270081,-0.46045610308647156
783352,9.602113723754883,0.17323260009288788,2.1672656536102295,0.47285526990890503,-0.6152682900428772,0.5540091395378113,0.6172121167182922,-0.3786836266517639,-0.4995146691799164,-0.4755345284938812,9.467275619506836,0.06820542365312576,-2.2599270343780518,-0.11826663464307785,0.006076612509787083,0.6146343350410461,0.41377320885658264,-0.5871908664703369,-0.521527111530304,-0.4604434072971344
783685,9.60777759552002,0.14323067665100098,2.0982465744018555,0.4385470151901245,-0.33959874510765076,0.5805950164794922,0.6173902153968811,-0.3785683810710907,-0.49969857931137085,-0.475201815366745,9.472663879394531,0.05761636793613434,-2.262423515319824,-0.21957768499851227,-0.2088843584060669,0.6438840627670288,0.4137671887874603,-0.5872385501861572,-0.5214991569519043,-0.460419625043869
783852,9.603144645690918,0.154434934258461,2.1101796627044678,0.4946517050266266,-0.3960620164871216,0.6679984927177429,0.6174917221069336,-0.3785099387168884,-0.4997815489768982,-0.4750291705131531,9.470727920532227,0.05200581252574921,-2.264063596725464,-0.29879772663116455,-0.4993707835674286,0.8520128130912781,0.41374608874320984,-0.5873258709907532,-0.5214661359786987,-0.46036478877067566
784019,9.606215476989746,0.13913513720035553,2.104116916656494,0.40023043751716614,-0.4669707119464874,0.7002192139625549,0.6175906658172607,-0.3784608542919159,-0.49986758828163147,-0.47484907507896423,9.47818660736084,0.03830061852931976,-2.2723517417907715,-0.16801932454109192,-0.7353790998458862,0.9081303477287292,0.4137220084667206,-0.587424635887146,-0.5214518308639526,-0.46027660369873047
784185,9.60863971710205,0.11666442453861237,2.094200372695923,0.29711368680000305,-0.5252395868301392,0.7714735865592957,0.6176877617835999,-0.3784266412258148,-0.4999508261680603,-0.4746624827384949,9.466997146606445,0.0005800412036478519,-2.2807185649871826,0.08908737450838089,-1.0239444971084595,1.2001789808273315,0.41371744871139526,-0.5875489711761475,-0.5214476585388184,-0.4601267874240875
784352,9.603896141052246,0.1087099015712738,2.1115658283233643,0.29019826650619507,-0.4582752287387848,0.8650496602058411,0.6177887320518494,-0.37840235233306885,-0.5000172853469849,-0.47448036074638367,9.466181755065918,-0.013794507831335068,-2.2885940074920654,0.466477632522583,-1.305274248123169,1.3210453987121582,0.4137319326400757,-0.5876782536506653,-0.5214754343032837,-0.4599166214466095
784519,9.618026733398438,0.1088634580373764,2.0876643657684326,0.1969040185213089,-0.5061838030815125,0.856981635093689,0.6178739666938782,-0.37839582562446594,-0.500076949596405,-0.4743114709854126,9.493157386779785,-0.024712638929486275,-2.3084797859191895,0.8952085971832275,-1.3692675828933716,1.304076910018921,0.41377678513526917,-0.5877853035926819,-0.5215368866920471,-0.45966988801956177
784685,9.59883975982666,0.11060827225446701,2.129257917404175,0.3695336580276489,-0.5563206672668457,0.9142773747444153,0.617965817451477,-0.3783848285675049,-0.500147819519043,-0.4741259813308716,9.493773460388184,-0.0019042717758566141,-2.2981789112091064,1.0804909467697144,-1.2436245679855347,1.148492455482483,0.41383546590805054,-0.5878622531890869,-0.5216151475906372,-0.4594298005104065
784852,9.607074737548828,0.12466271221637726,2.119638204574585,0.3942883014678955,-0.554732620716095,0.8252860307693481,0.6180707812309265,-0.37834620475769043,-0.5002391934394836,-0.4739234149456024,9.492563247680664,-0.0016715574311092496,-2.323315143585205,1.2033934593200684,-1.0685745477676392,1.0432372093200684,0.4139121472835541,-0.5879105925559998,-0.5217018723487854,-0.45920053124427795
785019,9.58768367767334,0.12557955086231232,2.1198043823242188,0.43373188376426697,-0.3970993161201477,0.7181480526924133,0.6181603670120239,-0.3783077001571655,-0.5003079771995544,-0.47376465797424316,9.525391578674316,0.02660788595676422,-2.332319498062134,1.202638030052185,-0.7584177255630493,0.926328182220459,0.41400283575057983,-0.5879308581352234,-0.521778404712677,-0.4590059220790863
785185,9.590523719787598,0.11409983783960342,2.1140644550323486,0.47092148661613464,-0.465421199798584,0.7164576649665833,0.6182636618614197,-0.3782525956630707,-0.5003990530967712,-0.47357770800590515,9.510233879089355,0.0445660799741745,-2.325317621231079,0.9823431372642517,-0.4375033676624298,0.8524097800254822,0.4140944182872772,-0.5879362225532532,-0.5218286514282227,-0.45885929465293884
785352,9.592607498168945,0.1381886601448059,2.1524341106414795,0.35099002718925476,-0.45324230194091797,0.7249739170074463,0.6183562874794006,-0.3782135248184204,-0.5004761219024658,-0.4734065532684326,9.520560264587402,0.05042121931910515,-2.338935613632202,0.6383261680603027,-0.06066368147730827,0.8276039958000183,0.41418522596359253,-0.5879323482513428,-0.5218387246131897,-0.45877060294151306
785519,9.606526374816895,0.13313879072666168,2.143878698348999,0.1996701955795288,-0.3528021275997162,0.6988617181777954,0.6184390783309937,-0.3781861364841461,-0.5005292892456055,-0.4732639789581299,9.496620178222656,0.04728942736983299,-2.327423572540283,0.2868814170360565,0.25761890411376953,0.8014917969703674,0.4142656624317169,-0.5879285931587219,-0.5218064188957214,-0.45873966813087463
785685,9.587657928466797,0.12975910305976868,2.134734630584717,0.27712303400039673,-0.4052313268184662,0.6143141984939575,0.6185198426246643,-0.3781452178955078,-0.5005999803543091,-0.47311630845069885,9.489816665649414,0.015921274200081825,-2.3158302307128906,-0.026150565594434738,0.3987704813480377,0.7116936445236206,0.41432318091392517,-0.5879274606704712,-0.5217525959014893,-0.4587503671646118
785852,9.600385665893555,0.14517256617546082,2.1275572776794434,0.28090083599090576,-0.38184690475463867,0.544826865196228,0.6186039447784424,-0.37809044122695923,-0.5006775856018066,-0.4729680120944977,9.476727485656738,0.016894003376364708,-2.312404155731201,-0.24691924452781677,0.565919041633606,0.5343897938728333,0.41436073184013367,-0.5879167318344116,-0.5216874480247498,-0.4588044583797455
786019,9.607280731201172,0.14243318140506744,2.121180772781372,0.192844420671463,-0.27492672204971313,0.4420432150363922,0.6186772584915161,-0.37803515791893005,-0.500740110874176,-0.4728502035140991,9.483756065368652,0.0015755904605612159,-2.2918076515197754,-0.421226441860199,0.5651634335517883,0.4567961096763611,0.41437941789627075,-0.5879084467887878,-0.5216197967529297,-0.4588749408721924
786185,9.606376647949219,0.13132168352603912,2.1163747310638428,0.29537203907966614,-0.20902523398399353,0.38095688819885254,0.6187602281570435,-0.37795743346214294,-0.5008100867271423,-0.4727296531200409,9.482563972473145,0.006619559600949287,-2.310011863708496,-0.47208043932914734,0.4478316009044647,0.35768771171569824,0.41437801718711853,-0.5879034996032715,-0.5215643644332886,-0.4589455723762512
786352,9.615978240966797,0.12888650596141815,2.124789237976074,0.27924883365631104,-0.021220121532678604,0.2931693494319916,0.6188347935676575,-0.3778773546218872,-0.5008549690246582,-0.4726485311985016,9.487789154052734,0.00618683872744441,-2.2878570556640625,-0.5208213925361633,0.5318540930747986,0.2360786348581314,0.4143707752227783,-0.5878861546516418,-0.5215117931365967,-0.45903417468070984
786519,9.597757339477539,0.12227767705917358,2.1090753078460693,0.40779897570610046,0.0036177937872707844,0.34288355708122253,0.61891770362854,-0.3777914047241211,-0.5009006857872009,-0.47256025671958923,9.502150535583496,-0.009841722436249256,-2.32258939743042,-0.5098719000816345,0.48397114872932434,0.2521762251853943,0.41435879468917847,-0.5878755450248718,-0.521457850933075,-0.4591198265552521
786685,9.609516143798828,0.1229964941740036,2.132331371307373,0.4407753646373749,0.03250891715288162,0.3432677686214447,0.6190142631530762,-0.3776898682117462,-0.5009540319442749,-0.4724581837654114,9.47584056854248,0.0053396341390907764,-2.3206405639648438,-0.5006642937660217,0.48623785376548767,0.22091592848300934,0.4143473207950592,-0.5878596901893616,-0.5214098691940308,-0.4592050015926361
786852,9.611936569213867,0.13238047063350677,2.1080775260925293,0.5331218838691711,0.035326313227415085,0.13670137524604797,0.619111955165863,-0.3775538504123688,-0.5010330677032471,-0.47235506772994995,9.47981071472168,0.025995450094342232,-2.3001198768615723,-0.48322200775146484,0.4144327640533447,0.04266435652971268,0.41432100534439087,-0.5878323912620544,-0.521384596824646,-0.45929214358329773
787019,9.59057331085205,0.14450038969516754,2.130279064178467,0.4226544201374054,0.12681488692760468,0.15405400097370148,0.6192086935043335,-0.3774252235889435,-0.5010934472084045,-0.4722670912742615,9.479499816894531,0.04442683979868889,-2.320525646209717,-0.587888240814209,0.4729832410812378,0.12490672618150711,0.4142921566963196,-0.5878170728683472,-0.521338164806366,-0.4593904912471771
787186,9.600732803344727,0.13208363950252533,2.129624366760254,0.38481155037879944,0.09415867179632187,0.23264652490615845,0.619307816028595,-0.3773058354854584,-0.5011511445045471,-0.4721711575984955,9.477771759033203,0.0387621633708477,-2.3079662322998047,-0.6247065663337708,0.3818277418613434,0.20722596347332,0.41426023840904236,-0.5878138542175293,-0.5212908983230591,-0.45947718620300293
787352,9.58273696899414,0.1291082352399826,2.0946919918060303,0.23915216326713562,-0.11348986625671387,0.23532307147979736,0.619387149810791,-0.37721025943756104,-0.5012201070785522,-0.47207027673721313,9.487495422363281,0.0509856641292572,-2.2878284454345703,-0.6031278371810913,0.34262746572494507,0.42360201478004456,0.4142433702945709,-0.5878255367279053,-0.5212321281433105,-0.4595440626144409
787519,9.621725082397461,0.13171172142028809,2.127185344696045,0.05899243801832199,-0.010373142547905445,0.2002720683813095,0.6194388270378113,-0.37714502215385437,-0.5012513399124146,-0.47202154994010925,9.478856086730957,0.03540787845849991,-2.2803843021392822,-0.6737164855003357,0.35517770051956177,0.5157821774482727,0.4142249524593353,-0.5878497362136841,-0.5211577415466309,-0.45961421728134155
787686,9.617337226867676,0.12358657270669937,2.107187271118164,0.3320622444152832,-0.019311975687742233,0.39168861508369446,0.6195324659347534,-0.3770540952682495,-0.5013034343719482,-0.4719160795211792,9.45837116241455,-0.004622871056199074,-2.3121094703674316,-0.5165440440177917,0.2310713529586792,0.7557602524757385,0.41422849893569946,-0.5878878831863403,-0.5210840106010437,-0.4596455991268158
787852,9.558905601501465,0.09271317720413208,2.106768846511841,0.1217435747385025,-0.021130478009581566,0.5470552444458008,0.6196167469024658,-0.3770018517971039,-0.5013264417648315,-0.4718226492404938,9.5014066696167,-0.039830178022384644,-2.3039748668670654,-0.15190891921520233,0.05609821155667305,0.9880802631378174,0.4142642021179199,-0.587934672832489,-0.5210243463516235,-0.4596213102340698
788019,9.678354263305664,0.1359638273715973,2.142470121383667,0.17492833733558655,0.028065113350749016,0.3341240882873535,0.6197091341018677,-0.3769088685512543,-0.5013733506202698,-0.47172582149505615,9.485979080200195,0.002664274536073208,-2.2896487712860107,0.2966527044773102,0.10750290006399155,0.6680623888969421,0.41431981325149536,-0.5879279375076294,-0.5210176706314087,-0.4595873951911926
788186,9.637955665588379,0.15695613622665405,2.1389687061309814,0.03454512730240822,-0.04328545928001404,-0.16712285578250885,0.6197497844696045,-0.3768010139465332,-0.5014411211013794,-0.4716864228248596,9.50279426574707,0.03316932171583176,-2.2817025184631348,0.46846267580986023,0.3939552903175354,-0.26258140802383423,0.41434958577156067,-0.5878207087516785,-0.5210852026939392,-0.45962104201316833
788352,9.59033489227295,0.1438799500465393,2.1244637966156006,1.0639835596084595,0.5224030017852783,0.021994907408952713,0.6198989748954773,-0.3765769898891449,-0.5015167593955994,-0.47158893942832947,9.511120796203613,0.05499669164419174,-2.2859535217285156,0.33293306827545166,0.5474393963813782,-0.6332867741584778,0.4143557548522949,-0.587681233882904,-0.5211683511734009,-0.459699422121048
788519,9.580830574035645,0.14240238070487976,2.169314384460449,0.9882979393005371,0.33884957432746887,0.5824776291847229,0.6200498938560486,-0.37643274664878845,-0.5015578269958496,-0.47146186232566833,9.535975456237793,0.09201212972402573,-2.2811901569366455,0.19383050501346588,0.8556370139122009,-0.19568102061748505,0.4144000709056854,-0.5875648260116577,-0.521183967590332,-0.45979082584381104
788686,9.591781616210938,0.16215243935585022,2.209723949432373,0.35821282863616943,0.012185242958366871,0.5669563412666321,0.620157778263092,-0.37634900212287903,-0.5015988945960999,-0.47134312987327576,9.515114784240723,0.1381603330373764,-2.250670909881592,-0.19254347681999207,1.1782163381576538,0.4830235242843628,0.41447773575782776,-0.5875040292739868,-0.5210931897163391,-0.4599013030529022
788852,9.566414833068848,0.11664514988660812,2.1493005752563477,-0.13278904557228088,-0.13243047893047333,0.23661653697490692,0.6202110648155212,-0.37628889083862305,-0.5016413927078247,-0.47127580642700195,9.47701644897461,0.1018366739153862,-2.2359931468963623,-0.7304998636245728,1.285456657409668,0.7909906506538391,0.41454023122787476,-0.5874878168106079,-0.5209378600120544,-0.4600416421890259
789019,9.579543113708496,0.12219185382127762,2.154521942138672,0.2865484654903412,-0.4961819648742676,0.4335269331932068,0.6202739477157593,-0.37623029947280884,-0.5017342567443848,-0.47114098072052,9.4504976272583,0.04380779340863228,-2.2406153678894043,-0.9815683364868164,1.0429683923721313,0.9461139440536499,0.414572536945343,-0.5875140428543091,-0.520767331123352,-0.46017199754714966
789186,9.579524040222168,0.13586053252220154,2.164524793624878,0.7023194432258606,-0.3740222454071045,0.5097246766090393,0.6203654408454895,-0.3761398196220398,-0.5018334984779358,-0.4709870219230652,9.453238487243652,-0.02474188432097435,-2.226572275161743,-0.5996061563491821,0.6924201250076294,1.103542447090149,0.4146201014518738,-0.5875535011291504,-0.5206289887428284,-0.4602353274822235
789352,9.569669723510742,0.12680158019065857,2.154686450958252,0.5213912725448608,-0.2881428599357605,0.5193038582801819,0.6204591989517212,-0.3760544955730438,-0.5019161105155945,-0.4708435535430908,9.468194961547852,-0.038605790585279465,-2.2310428619384766,0.0830811858177185,0.42011868953704834,1.0189179182052612,0.41470056772232056,-0.587562620639801,-0.5205606818199158,-0.46022841334342957
789519,9.579354286193848,0.1384778916835785,2.134462833404541,0.1970961093902588,-0.3512653112411499,0.461790531873703,0.6205267310142517,-0.3759981691837311,-0.5019851922988892,-0.4707258641719818,9.470632553100586,-0.009242458269000053,-2.2323310375213623,0.5919927358627319,0.09744992852210999,0.8197280764579773,0.41478773951530457,-0.5875466465950012,-0.5205636620521545,-0.4601668119430542
789686,9.608686447143555,0.12749893963336945,2.147136926651001,0.04636538773775101,-0.40918847918510437,0.34596994519233704,0.6205695867538452,-0.3759549856185913,-0.5020521879196167,-0.47063231468200684,9.489690780639648,0.028829729184508324,-2.231231927871704,0.8821205496788025,-0.2096911519765854,0.5441097617149353,0.41485854983329773,-0.5875120162963867,-0.5206288695335388,-0.4600735008716583
789852,9.60355281829834,0.1323516070842743,2.140671491622925,0.1744801253080368,-0.3277401328086853,0.4494580924510956,0.6206377744674683,-0.3758963942527771,-0.5021191835403442,-0.4705179035663605,9.494569778442383,0.04575486481189728,-2.237105131149292,0.8347370624542236,-0.5348827838897705,0.30506646633148193,0.41488364338874817,-0.5874845385551453,-0.5207300186157227,-0.45997169613838196
790019,9.604769706726074,0.13674433529376984,2.148972272872925,0.5793144702911377,-0.31667542457580566,0.5343897938728333,0.6207253336906433,-0.3758161664009094,-0.5022007822990417,-0.47037947177886963,9.485672950744629,0.094447560608387,-2.2367262840270996,0.5809920430183411,-0.7495428919792175,0.4403911232948303,0.41488316655158997,-0.5874922871589661,-0.5208203792572021,-0.45985978841781616
790186,9.589770317077637,0.13843317329883575,2.15547776222229,0.7926938533782959,-0.41723087430000305,0.6678575873374939,0.6208313703536987,-0.3757273852825165,-0.5023027658462524,-0.47020137310028076,9.503912925720215,0.09204797446727753,-2.2496225833892822,0.2133345752954483,-0.9670073986053467,0.7212343811988831,0.4148503839969635,-0.5875603556632996,-0.5208724737167358,-0.4597434103488922
790352,9.609527587890625,0.12661822140216827,2.1580801010131836,0.7144342064857483,-0.3019096851348877,0.8407816290855408,0.6209505200386047,-0.37565308809280396,-0.5023771524429321,-0.4700239896774292,9.464832305908203,0.059883732348680496,-2.247394561767578,0.03724726662039757,-1.259453296661377,1.0659172534942627,0.41480162739753723,-0.5876854062080383,-0.5208998918533325,-0.4595964848995209
790519,9.604620933532715,0.16188335418701172,2.1105616092681885,0.4630712568759918,-0.7864763140678406,0.8041427135467529,0.6210145354270935,-0.3756352663040161,-0.5024771690368652,-0.46984681487083435,9.443143844604492,0.05625604838132858,-2.292569637298584,-0.07790102064609528,-1.5405012369155884,0.8962585926055908,0.41471004486083984,-0.5878227949142456,-0.5209514498710632,-0.45944496989250183
790686,9.581462860107422,0.15785923600196838,2.1181230545043945,0.5863707661628723,-0.49186626076698303,0.5627430081367493,0.6210931539535522,-0.3755646347999573,-0.5025750398635864,-0.46969449520111084,9.482977867126465,0.006299453787505627,-2.298236846923828,-0.12358126789331436,-1.625125765800476,0.89250648021698,0.414607435464859,-0.5879678130149841,-0.521006166934967,-0.4592900276184082
790852,9.605585098266602,0.1498713195323944,2.1397905349731445,0.40706896781921387,-0.3284060060977936,0.8213800191879272,0.6211879849433899,-0.3755212128162384,-0.5026291608810425,-0.4695459008216858,9.506373405456543,-0.0037225184496492147,-2.3014137744903564,0.1575372964143753,-1.61823570728302,0.9061964154243469,0.41452789306640625,-0.5880985856056213,-0.5210756659507751,-0.4591154456138611
791019,9.61298656463623,0.15133795142173767,2.1335132122039795,0.32092076539993286,-0.46999311447143555,0.6371991634368896,0.621269166469574,-0.3754661977291107,-0.5027115941047668,-0.46939408779144287,9.504987716674805,0.009085861966013908,-2.330656051635742,0.39627331495285034,-1.3464341163635254,0.8769981265068054,0.4144885241985321,-0.5881929993629456,-0.5211490988731384,-0.4589466452598572
791186,9.607745170593262,0.11901260167360306,2.1556625366210938,0.1376362293958664,-0.5327696800231934,0.4772862195968628,0.621310293674469,-0.3754352331161499,-0.5027845501899719,-0.4692862033843994,9.49775218963623,0.02623237483203411,-2.325348138809204,0.3566504716873169,-1.062888741493225,0.7225663065910339,0.4144614636898041,-0.5882536172866821,-0.5212225914001465,-0.4588099718093872
791352,9.61072063446045,0.12192720919847488,2.1474766731262207,0.16445273160934448,-0.5443466305732727,0.5048583149909973,0.6213598251342773,-0.37539809942245483,-0.5028634071350098,-0.46916577219963074,9.497840881347656,0.037214264273643494,-2.3212316036224365,0.46175211668014526,-0.8120505213737488,0.6256862282752991,0.4144482910633087,-0.588291585445404,-0.5212875604629517,-0.45869919657707214
791519,9.586921691894531,0.1349342167377472,2.1365835666656494,0.4138307273387909,-0.48819082975387573,0.46460792422294617,0.6214231252670288,-0.3753325939178467,-0.5029553771018982,-0.4690357446670532,9.502058029174805,0.047434814274311066,-2.323765754699707,0.3344954252243042,-0.4810961186885834,0.5160766243934631,0.4144412875175476,-0.5883069038391113,-0.5213336944580078,-0.4586334824562073
791686,9.592568397521973,0.14608806371688843,2.1518826484680176,0.5205076336860657,-0.38471555709838867,0.358187198638916,0.6214925050735474,-0.37524229288101196,-0.5030511021614075,-0.46891355514526367,9.487749099731445,0.057348061352968216,-2.331533432006836,0.07137618958950043,-0.24186070263385773,0.4208998680114746,0.4144270420074463,-0.5883101224899292,-0.5213616490364075,-0.45861056447029114
791852,9.610383033752441,0.14471787214279175,2.125561237335205,0.5349916219711304,-0.5823431015014648,0.3290143311023712,0.6215437054634094,-0.37516412138938904,-0.503165066242218,-0.46878597140312195,9.471613883972168,0.045854128897190094,-2.344350576400757,-0.22039726376533508,-0.16274307668209076,0.37644901871681213,0.41439124941825867,-0.5883206725120544,-0.5213711857795715,-0.4586183726787567
792019,9.606243133544922,0.14719311892986298,2.130568504333496,0.42109203338623047,-0.3520977795124054,0.3767692446708679,0.6216123700141907,-0.37507957220077515,-0.5032510757446289,-0.46867015957832336,9.470526695251465,0.05062836781144142,-2.3333680629730225,-0.42803943157196045,-0.09367845207452774,0.3630664348602295,0.41433796286582947,-0.588342010974884,-0.5213598608970642,-0.4586520493030548
792186,9.607094764709473,0.15030084550380707,2.1129019260406494,0.24243062734603882,-0.2634522318840027,0.4123452603816986,0.6216751933097839,-0.37501272559165955,-0.503311038017273,-0.4685761332511902,9.48473834991455,0.05456577241420746,-2.3367080688476562,-0.7050023078918457,-0.07434085011482239,0.4148680865764618,0.41426628828048706,-0.5883812308311462,-0.5213262438774109,-0.4587045907974243
792352,9.614465713500977,0.12361179292201996,2.1196787357330322,0.16460640728473663,-0.24985186755657196,0.4639035761356354,0.6217402219772339,-0.374953031539917,-0.5033635497093201,-0.46848127245903015,9.487990379333496,0.033396825194358826,-2.3126609325408936,-0.8015623092651367,0.016027146950364113,0.5176903009414673,0.41419529914855957,-0.5884325504302979,-0.521267294883728,-0.45876994729042053
792519,9.606289863586426,0.12870055437088013,2.119260549545288,0.4091949164867401,-0.11626884341239929,0.48602014780044556,0.6218299865722656,-0.37486323714256287,-0.5034196972846985,-0.46837353706359863,9.488648414611816,0.014183652587234974,-2.3412811756134033,-0.7646927237510681,0.1566152721643448,0.678281843662262,0.41414979100227356,-0.5884825587272644,-0.5211907625198364,-0.4588339030742645
792686,9.61656665802002,0.12447327375411987,2.1187031269073486,0.3941473960876465,-0.13476121425628662,0.48285701870918274,0.6219155788421631,-0.3747774362564087,-0.5034753084182739,-0.4682687819004059,9.487310409545898,0.0055459593422710896,-2.338888168334961,-0.5121771097183228,0.2734219431877136,0.7351164817810059,0.414141446352005,-0.5885100960731506,-0.5211236476898193,-0.45888230204582214
792852,9.611021041870117,0.11258615553379059,2.121413230895996,0.5270005464553833,-0.11794648319482803,0.46596547961235046,0.6220090389251709,-0.37467628717422485,-0.5035399794578552,-0.46815598011016846,9.494531631469727,-0.027509132400155067,-2.3042142391204834,-0.14450684189796448,0.33003881573677063,0.7815266847610474,0.4141748249530792,-0.5885115265846252,-0.5210781693458557,-0.458901971578598
793019,9.596939086914062,0.10055924206972122,2.1170616149902344,0.5458130240440369,-0.14640218019485474,0.5846546292304993,0.6221137046813965,-0.37457939982414246,-0.5036053657531738,-0.4680241048336029,9.494291305541992,-0.020910851657390594,-2.329854726791382,0.3895115554332733,0.3475579619407654,0.9093853831291199,0.4142643213272095,-0.5884886980056763,-0.52105712890625,-0.4588744640350342
793186,9.609909057617188,0.09940783679485321,2.135056495666504,0.5910705924034119,-0.1019001230597496,0.5592596530914307,0.6222177147865295,-0.3744783401489258,-0.5036675333976746,-0.4678998589515686,9.493739128112793,-0.0036900818813592196,-2.3143041133880615,0.6708030104637146,0.4517247974872589,0.7757254838943481,0.41437801718711853,-0.5884302854537964,-0.521061897277832,-0.4588412642478943
793352,9.609236717224121,0.10314493626356125,2.124971389770508,0.6214985847473145,-0.04690966010093689,0.5706189274787903,0.6223308444023132,-0.3743686378002167,-0.5037280917167664,-0.46777188777923584,9.482746124267578,0.01325799711048603,-2.3228602409362793,0.822904109954834,0.49360156059265137,0.789953351020813,0.41450318694114685,-0.5883671045303345,-0.5210663080215454,-0.4588042199611664
793519,9.591673851013184,0.11631971597671509,2.135281801223755,0.5598487854003906,-0.042209725826978683,0.48468831181526184,0.6224331855773926,-0.3742598295211792,-0.503787100315094,-0.4676591157913208,9.486942291259766,0.04617038369178772,-2.3092002868652344,0.8070754408836365,0.6376217603683472,0.6837630867958069,0.4146299362182617,-0.5882876515388489,-0.5210697650909424,-0.4587877094745636
793686,9.605522155761719,0.11407025903463364,2.123599052429199,0.6226382851600647,-0.020221225917339325,0.4595622420310974,0.622535228729248,-0.3741456866264343,-0.5038466453552246,-0.4675504267215729,9.503340721130371,0.054266273975372314,-2.2954421043395996,0.5968976020812988,0.8188444375991821,0.7403287291526794,0.41475602984428406,-0.5882123708724976,-0.5210441946983337,-0.45879918336868286
793852,9.590725898742676,0.134036123752594,2.1423733234405518,0.6788837909698486,0.1387631893157959,0.3323311507701874,0.6226468086242676,-0.3740023374557495,-0.5039054751396179,-0.46745315194129944,9.505814552307129,0.04370967298746109,-2.307732582092285,0.3029918074607849,1.0539945363998413,0.7155739665031433,0.4148728549480438,-0.5881366729736328,-0.5209875106811523,-0.45885488390922546
794019,9.581643104553223,0.13206933438777924,2.1410610675811768,0.6914211511611938,-0.11445034295320511,0.38597697019577026,0.6227452754974365,-0.3738774359226227,-0.5039860010147095,-0.46733522415161133,9.498703002929688,0.04140296205878258,-2.2992942333221436,-0.03224639222025871,1.238149881362915,0.7260111570358276,0.41497427225112915,-0.5880705118179321,-0.5208957195281982,-0.45895224809646606
794186,9.59455680847168,0.14220429956912994,2.140542507171631,0.7090427279472351,-0.14907871186733246,0.41827458143234253,0.622844398021698,-0.37375524640083313,-0.5040689706802368,-0.46721139550209045,9.494280815124512,0.02647165022790432,-2.2830498218536377,-0.3693351447582245,1.238892674446106,0.707211434841156,0.4150364398956299,-0.5880327820777893,-0.5207719802856445,-0.459084689617157
794352,9.618087768554688,0.13804517686367035,2.1361186504364014,0.5846930742263794,-0.24169422686100006,0.4156620502471924,0.622930109500885,-0.373649537563324,-0.5041522979736328,-0.46709156036376953,9.486441612243652,0.031434278935194016,-2.2611262798309326,-0.4630904197692871,1.254042625427246,0.514693558216095,0.41508838534355164,-0.5879737734794617,-0.5206703543663025,-0.4592285454273224
794519,9.593565940856934,0.1551036834716797,2.1352639198303223,0.47263750433921814,-0.2199106365442276,0.34445875883102417,0.6230052709579468,-0.3735481798648834,-0.5042291283607483,-0.4669894874095917,9.490349769592285,0.03920204937458038,-2.2490880489349365,-0.6888151168823242,1.045030117034912,0.38098251819610596,0.41509565711021423,-0.5879322290420532,-0.5205775499343872,-0.4593803882598877
794686,9.609426498413086,0.14703592658042908,2.125039577484131,0.6350861191749573,-0.15016725659370422,0.3254413306713104,0.6230940222740173,-0.37342438101768494,-0.5043126940727234,-0.46687987446784973,9.490056991577148,0.03500688448548317,-2.2710154056549072,-0.6072514653205872,0.9062860608100891,0.3930204510688782,0.4150991439819336,-0.5878964066505432,-0.520496666431427,-0.45951467752456665
794852,9.611189842224121,0.14507243037223816,2.1308510303497314,0.5994908213615417,-0.1817733347415924,0.23997816443443298,0.6231749057769775,-0.3732967674732208,-0.5044033527374268,-0.46677595376968384,9.50163745880127,0.03616027534008026,-2.2563540935516357,-0.514187753200531,0.8512444496154785,0.4216170310974121,0.4151049554347992,-0.5878639221191406,-0.5204192399978638,-0.45963868498802185
795019,9.602621078491211,0.13837061822414398,2.1376993656158447,0.5009268522262573,-0.27461937069892883,0.12457378208637238,0.6232331991195679,-0.3731783330440521,-0.5045000314712524,-0.4666883647441864,9.486895561218262,0.0336286798119545,-2.2484428882598877,-0.5880419611930847,0.7046501636505127,0.3733499348163605,0.4150945842266083,-0.5878363847732544,-0.5203561186790466,-0.45975473523139954
795186,9.593347549438477,0.12274616211652756,2.1565816402435303,0.32702934741973877,-0.5092188119888306,0.18020455539226532,0.6232672333717346,-0.3730968236923218,-0.5046020150184631,-0.46659785509109497,9.490997314453125,0.02334549091756344,-2.2417216300964355,-0.4713761806488037,0.5872928500175476,0.4564119279384613,0.41509267687797546,-0.5878133177757263,-0.5203035473823547,-0.45984548330307007
795352,9.597074508666992,0.13799895346164703,2.1246252059936523,0.3112775385379791,-0.5542844533920288,0.23621954023838043,0.6233022809028625,-0.3730221688747406,-0.5047048330307007,-0.4664994776248932,9.479742050170898,0.029825568199157715,-2.2469096183776855,-0.44924673438072205,0.36474406719207764,0.5173189043998718,0.4150766432285309,-0.5878115296363831,-0.5202568769454956,-0.45991507172584534
795519,9.591119766235352,0.1357814371585846,2.140993118286133,0.37441286444664,-0.623067319393158,0.16164815425872803,0.6233305931091309,-0.37294065952301025,-0.5048223733901978,-0.4663996398448944,9.476019859313965,0.027372291311621666,-2.255571126937866,-0.3265747129917145,0.17481306195259094,0.4768892526626587,0.41504958271980286,-0.5878164172172546,-0.5202280879020691,-0.4599657952785492
795686,9.575570106506348,0.14838041365146637,2.1283011436462402,0.41147440671920776,-0.6778016686439514,0.18676139414310455,0.6233580708503723,-0.3728616237640381,-0.5049455761909485,-0.4662927985191345,9.488067626953125,0.021224791184067726,-2.2275049686431885,-0.34621965885162354,-0.007594164926558733,0.5046149492263794,0.4150201976299286,-0.5878236889839172,-0.5202214121818542,-0.45999056100845337
795852,9.582380294799805,0.146351158618927,2.1217098236083984,0.5265522599220276,-0.7282074689865112,0.2554546594619751,0.6233925819396973,-0.37278035283088684,-0.5050773024559021,-0.46616899967193604,9.466360092163086,0.007899842225015163,-2.230923891067505,-0.05833291634917259,-0.23033501207828522,0.4099504351615906,0.41498494148254395,-0.5878291726112366,-0.5202463865280151,-0.45998716354370117
796019,9.591276168823242,0.14070925116539001,2.1248950958251953,0.34188467264175415,-0.7330226302146912,0.3301284611225128,0.6234229803085327,-0.3727199137210846,-0.5051940679550171,-0.4660501480102539,9.485617637634277,0.040357500314712524,-2.248272180557251,-0.0739438608288765,-0.48698705434799194,0.42113038897514343,0.4149474799633026,-0.5878332257270813,-0.5203076004981995,-0.4599463939666748
796186,9.581962585449219,0.14351023733615875,2.1350419521331787,0.45961347222328186,-0.6536744832992554,0.42193716764450073,0.6234707832336426,-0.3726509213447571,-0.5053057670593262,-0.4659201502799988,9.472076416015625,0.048784032464027405,-2.2514350414276123,-0.012319708243012428,-0.7089850902557373,0.509891152381897,0.41488948464393616,-0.5878714323043823,-0.5203602910041809,-0.4598904252052307
796352,9.618611335754395,0.14376379549503326,2.1307079792022705,0.4044308662414551,-0.767369270324707,0.4602665901184082,0.6235097050666809,-0.3725973069667816,-0.5054217576980591,-0.46578511595726013,9.470728874206543,0.026041705161333084,-2.2622828483581543,-0.09972304850816727,-0.9152827262878418,0.6604170799255371,0.4148171842098236,-0.5879408121109009,-0.520405650138855,-0.45981565117836
796519,9.552724838256836,0.10942374169826508,2.1127331256866455,0.4186331629753113,-0.5830858945846558,0.6108180284500122,0.6235740780830383,-0.3725396692752838,-0.5055146813392639,-0.46564432978630066,9.471150398254395,-0.0179842971265316,-2.288203001022339,0.20328159630298615,-1.1568615436553955,0.9594325423240662,0.4147699177265167,-0.588033139705658,-0.5204574465751648,-0.45968157052993774
796686,9.638043403625488,0.1419970691204071,2.1154229640960693,0.1597912460565567,-0.537264883518219,0.4811922311782837,0.6236170530319214,-0.3724948465824127,-0.5055912137031555,-0.4655393958091736,9.50048828125,0.013587277382612228,-2.297959089279175,0.43450021743774414,-1.1654291152954102,0.8610156774520874,0.41473743319511414,-0.5881019830703735,-0.5205367207527161,-0.4595329761505127
796852,9.661456108093262,0.16974468529224396,2.136225938796997,0.32047247886657715,-0.7417565584182739,0.002849412616342306,0.6236240267753601,-0.37241095304489136,-0.5057253241539001,-0.4654514491558075,9.547893524169922,0.051600776612758636,-2.304161548614502,0.4010116159915924,-0.926590621471405,0.12261439859867096,0.41467058658599854,-0.5881008505821228,-0.5206627249717712,-0.45945194363594055
797019,9.599799156188965,0.20273420214653015,2.1376781463623047,0.8790726065635681,-0.27811551094055176,-0.007850292138755322,0.6236975789070129,-0.3722405433654785,-0.5058583617210388,-0.46534478664398193,9.553984642028809,0.030029412358999252,-2.298095941543579,0.24371123313903809,-0.36080607771873474,-0.2636443078517914,0.4146176278591156,-0.5880297422409058,-0.520791232585907,-0.4594449996948242
797186,9.571380615234375,0.13291119039058685,2.1724863052368164,1.0276392698287964,-0.2654116153717041,0.5824648141860962,0.6238158941268921,-0.3721027374267578,-0.5059653520584106,-0.46518000960350037,9.550472259521484,0.030737699940800667,-2.3156261444091797,0.19001422822475433,0.11008977890014648,0.08867757022380829,0.4146002233028412,-0.5879782438278198,-0.5208337903022766,-0.4594784677028656
797352,9.561203002929688,0.14255543053150177,2.181349515914917,0.44798529148101807,-0.6341960430145264,0.4758646786212921,0.6238676905632019,-0.37203532457351685,-0.506071150302887,-0.4650493264198303,9.519852638244629,0.07576195150613785,-2.295288562774658,0.03763145953416824,0.575139582157135,0.589264988899231,0.4146346151828766,-0.5879466533660889,-0.5207910537719727,-0.4595363438129425
797519,9.577608108520508,0.11967114359140396,2.145602226257324,-0.31817373633384705,-0.9590803384780884,0.1693831831216812,0.6238319277763367,-0.37203824520111084,-0.5061694979667664,-0.46498802304267883,9.453819274902344,0.08201984316110611,-2.2774453163146973,-0.41061002016067505,0.5499238967895508,0.8410634994506836,0.41465336084365845,-0.5879532098770142,-0.5207093358039856,-0.45960375666618347
797686,9.588431358337402,0.1057538390159607,2.079246759414673,-0.13196943700313568,-1.060020089149475,0.30224907398223877,0.6238072514533997,-0.37204137444496155,-0.5062815546989441,-0.464896559715271,9.419923782348633,0.0237366184592247,-2.2587461471557617,-0.679069459438324,0.26886290311813354,0.7440937161445618,0.41462400555610657,-0.5879834890365601,-0.5206392407417297,-0.45967090129852295
797852,9.598949432373047,0.12743276357650757,2.080124855041504,0.6446268558502197,-1.112065076828003,0.30301743745803833,0.6238237023353577,-0.3719744384288788,-0.506453275680542,-0.46474096179008484,9.416343688964844,-0.03110942803323269,-2.2505788803100586,-0.49916592240333557,-0.1878819614648819,0.5415101051330566,0.41455769538879395,-0.5880224108695984,-0.5206210017204285,-0.4597013294696808
798019,9.579937934875488,0.12384328991174698,2.0599000453948975,1.0158699750900269,-0.6862793564796448,0.3646928071975708,0.6238942742347717,-0.37185102701187134,-0.5066071152687073,-0.46457722783088684,9.472193717956543,-0.03144942596554756,-2.279977321624756,-0.17086230218410492,-0.5883620977401733,0.5820165276527405,0.41449329257011414,-0.5880700349807739,-0.5206469297409058,-0.4596691429615021
798186,9.603163719177246,0.1397165209054947,2.0823068618774414,0.8909826874732971,-0.43927061557769775,0.43137550354003906,0.6239832043647766,-0.3717244267463684,-0.5067287683486938,-0.46442651748657227,9.505176544189453,-0.013850650750100613,-2.296837091445923,0.1870303452014923,-0.6858825087547302,0.363924503326416,0.4144420623779297,-0.5880810022354126,-0.5207270383834839,-0.4596105217933655
798352,9.629178047180176,0.15262538194656372,2.08152437210083,0.5867036581039429,-0.4096238613128662,0.2894170880317688,0.6240472793579102,-0.37161383032798767,-0.5068342089653015,-0.4643138647079468,9.51974868774414,0.028433118015527725,-2.285159111022949,0.3107396364212036,-0.7539737820625305,0.2587074339389801,0.4143995940685272,-0.5880694389343262,-0.5208417773246765,-0.4595334529876709
798519,9.633641242980957,0.13982971012592316,2.1069512367248535,0.4192862808704376,-0.475909560918808,0.4357936680316925,0.6241083741188049,-0.37153205275535583,-0.5069277286529541,-0.4641949534416199,9.52010726928711,0.040532734245061874,-2.302455186843872,0.2731402516365051,-0.7252364158630371,0.2918887436389923,0.4143353998661041,-0.5880863666534424,-0.5209205150604248,-0.4594806432723999
798686,9.62692928314209,0.12060443311929703,2.1281936168670654,0.5021817684173584,-0.5085145235061646,0.41972169280052185,0.624167263507843,-0.37144723534584045,-0.5070281028747559,-0.46407419443130493,9.491676330566406,0.05863191932439804,-2.2993760108947754,0.13292349874973297,-0.59348464012146,0.43672850728034973,0.41428616642951965,-0.5881050229072571,-0.5209795236587524,-0.4594340920448303
798852,9.597872734069824,0.13668683171272278,2.098806142807007,0.726344108581543,-0.8498036861419678,0.4052249491214752,0.6242133975028992,-0.3713623881340027,-0.5071762204170227,-0.4639180302619934,9.505995750427246,0.03774050623178482,-2.338310956954956,0.009956937283277512,-0.4756662845611572,0.8517695665359497,0.4142618477344513,-0.5881555676460266,-0.5209869146347046,-0.45938315987586975
799019,9.606781005859375,0.12840187549591064,2.1161675453186035,0.6379290223121643,-0.756919264793396,0.5347099304199219,0.6242702603340149,-0.371288925409317,-0.5073028206825256,-0.46376195549964905,9.453296661376953,0.01961171068251133,-2.3023135662078857,0.103981152176857,-0.5579982399940491,1.0624339580535889,0.4142645299434662,-0.5882088541984558,-0.5210025906562805,-0.45929479598999023
799186,9.613158226013184,0.15163716673851013,2.0544865131378174,0.33648043870925903,-1.3445385694503784,0.1507115215063095,0.624241054058075,-0.3712545335292816,-0.507482647895813,-0.4636319875717163,9.426315307617188,-0.0005943133728578687,-2.326580286026001,0.1102050393819809,-0.7015830874443054,0.7324783802032471,0.414231538772583,-0.588249683380127,-0.5210518836975098,-0.45921632647514343
799352,9.578375816345215,0.14694513380527496,2.064028024673462,0.4916677474975586,-0.8399684429168701,0.11354749649763107,0.6242557168006897,-0.3711681365966797,-0.5076302289962769,-0.46351996064186096,9.463139533996582,-0.019130082800984383,-2.31200909614563,0.20470310747623444,-0.9204820990562439,0.45668086409568787,0.4141685962677002,-0.5882818698883057,-0.5211408138275146,-0.45913100242614746
799519,9.587872505187988,0.15228921175003052,2.0797040462493896,-0.00028173968894407153,-0.4783811867237091,0.12116727977991104,0.6242707371711731,-0.37110254168510437,-0.5077114701271057,-0.4634631276130676,9.491799354553223,-0.01332795899361372,-2.3064117431640625,0.3279001712799072,-0.9377193450927734,0.3260304629802704,0.4141046404838562,-0.588299572467804,-0.521248459815979,-0.45904383063316345
799686,9.632411003112793,0.15186364948749542,2.0845139026641846,-0.3506762683391571,-0.5053001046180725,-0.12404229491949081,0.6242479085922241,-0.37105274200439453,-0.5077845454216003,-0.46345362067222595,9.515175819396973,0.027236128225922585,-2.3177433013916016,0.3562278151512146,-0.6080327033996582,0.0993964821100235,0.4140477478504181,-0.5882822871208191,-0.5213508009910583,-0.4590010643005371
799852,9.59646224975586,0.15380194783210754,2.1018800735473633,-0.40437328815460205,-0.2974402904510498,-0.29646700620651245,0.6242269277572632,-0.37097975611686707,-0.5078454613685608,-0.4634735882282257,9.521892547607422,0.03790069743990898,-2.327817440032959,-0.017621537670493126,-0.29603156447410583,-0.2101137936115265,0.4139636754989624,-0.588240921497345,-0.5214385986328125,-0.4590302109718323
800019,9.595576286315918,0.1564662605524063,2.1246280670166016,0.1692551225423813,-0.5752228498458862,-0.4642045795917511,0.6242059469223022,-0.3708597421646118,-0.5079799890518188,-0.46345043182373047,9.49854564666748,0.06826979666948318,-2.336486339569092,-0.4026700556278229,-0.14206083118915558,-0.4315996468067169,0.413844496011734,-0.588193953037262,-0.5215122103691101,-0.4591139554977417
800186,9.601025581359863,0.1612425446510315,2.0800023078918457,0.7051240801811218,-0.686881422996521,-0.41090455651283264,0.624207615852356,-0.3707042336463928,-0.5081562995910645,-0.4633794128894806,9.513507843017578,0.0890316590666771,-2.34556245803833,-0.9163071513175964,0.18995018303394318,-0.5812546014785767,0.41369614005088806,-0.5881443619728088,-0.5215446949005127,-0.4592743515968323
800352,9.604608535766602,0.18252401053905487,2.106135368347168,1.1167073249816895,-0.5716498494148254,-0.3772238492965698,0.624241054058075,-0.37050697207450867,-0.5083473920822144,-0.4632825553417206,9.490242004394531,0.12313612550497055,-2.302088737487793,-1.4084678888320923,0.32220137119293213,-0.6613967418670654,0.4135003983974457,-0.5881198048591614,-0.5215317010879517,-0.45949676632881165
800519,9.611721992492676,0.18921765685081482,2.078768730163574,1.1114119291305542,-0.613257646560669,-0.25647276639938354,0.6242819428443909,-0.3703185021877289,-0.5085375905036926,-0.4631694257259369,9.484455108642578,0.10545708984136581,-2.306009292602539,-1.767250418663025,0.4709726572036743,-0.4879986643791199,0.4133017957210541,-0.5881134271621704,-0.5214782953262329,-0.45974427461624146
800686,9.616137504577637,0.18789911270141602,2.0866782665252686,1.024411916732788,-0.5246890187263489,-0.18588417768478394,0.6243274807929993,-0.37013882398605347,-0.5087088942527771,-0.4630635678768158,9.479493141174316,0.09132753312587738,-2.3060693740844727,-1.9456043243408203,0.4633272886276245,-0.24561293423175812,0.41310134530067444,-0.588138222694397,-0.5213906764984131,-0.4599919021129608
800852,9.58990478515625,0.16574887931346893,2.0978634357452393,0.931476354598999,-0.5427331924438477,-0.015559716150164604,0.6243820190429688,-0.3699767589569092,-0.5088695883750916,-0.4629429876804352,9.470004081726074,0.08349768817424774,-2.292994737625122,-1.916354775428772,0.22934246063232422,-0.049035508185625076,0.4129044711589813,-0.5881847143173218,-0.5213103890419006,-0.46020036935806274
801019,9.616646766662598,0.17509549856185913,2.0844593048095703,0.848952054977417,-0.6025643944740295,0.08067359775304794,0.624430239200592,-0.36983728408813477,-0.5090218186378479,-0.4628217816352844,9.474454879760742,0.06821590662002563,-2.288477659225464,-1.7342742681503296,0.19744187593460083,0.2334277182817459,0.41273757815361023,-0.5882454514503479,-0.5212178826332092,-0.4603770673274994
801186,9.619159698486328,0.15774601697921753,2.0739214420318604,0.749036967754364,-0.5452046394348145,0.23119942843914032,0.6244886517524719,-0.3697126805782318,-0.5091552138328552,-0.4626958966255188,9.476405143737793,0.034178074449300766,-2.2892954349517822,-1.1403414011001587,0.036427661776542664,0.5428163409233093,0.4126396179199219,-0.588293731212616,-0.5211607813835144,-0.4604679346084595
801352,9.61065673828125,0.15197807550430298,2.1015188694000244,0.486276239156723,-0.40740838646888733,0.34668707847595215,0.6245495676994324,-0.3696126639842987,-0.5092511177062988,-0.46258819103240967,9.471301078796387,0.03159496933221817,-2.2935609817504883,-0.5028542280197144,-0.0662984773516655,0.7238341569900513,0.41259095072746277,-0.5883349776268005,-0.5211247205734253,-0.46049943566322327
801519,9.594538688659668,0.16208086907863617,2.084563970565796,0.40779897570610046,-0.4307287037372589,0.4100656807422638,0.6246088147163391,-0.36952587962150574,-0.5093403458595276,-0.46247926354408264,9.459137916564941,0.025555429980158806,-2.2940595149993896,0.13818690180778503,-0.2732362747192383,0.8842335939407349,0.412601500749588,-0.5883533358573914,-0.5211422443389893,-0.46044671535491943
801686,9.615374565124512,0.14457197487354279,2.0663034915924072,0.24774521589279175,-0.4778817296028137,0.5101856589317322,0.6246626377105713,-0.3694640100002289,-0.5094176530838013,-0.4623706340789795,9.47259521484375,0.03539612516760826,-2.315908670425415,0.7232705950737,-0.32920005917549133,0.9807679057121277,0.4126599431037903,-0.5883526802062988,-0.5211883783340454,-0.46034303307533264
801852,9.606246948242188,0.15307240188121796,2.0684139728546143,0.18037104606628418,-0.3847539722919464,0.6022762656211853,0.6247254610061646,-0.36940959095954895,-0.5094765424728394,-0.4622642993927002,9.463639259338379,0.03735992684960365,-2.2932047843933105,1.2588322162628174,-0.46689391136169434,1.011259913444519,0.4127545952796936,-0.5883325934410095,-0.5212748050689697,-0.46018606424331665
802019,9.59417724609375,0.144332155585289,2.0855939388275146,0.21855956315994263,-0.4233778417110443,0.6708413362503052,0.6247931122779846,-0.3693581223487854,-0.5095388293266296,-0.4621453285217285,9.4663667678833,0.051199231296777725,-2.332512378692627,1.4783967733383179,-0.6357840299606323,1.1060906648635864,0.41285476088523865,-0.5883253812789917,-0.5213692784309387,-0.45999839901924133
802186,9.620973587036133,0.17438119649887085,2.044544219970703,0.3877698481082916,-0.35358327627182007,0.7130767107009888,0.6248770356178284,-0.36929064989089966,-0.5096030831336975,-0.4620148837566376,9.47122573852539,0.05877130851149559,-2.3274781703948975,1.5590001344680786,-0.631289005279541,1.067838191986084,0.41295307874679565,-0.5883172154426575,-0.5214642286300659,-0.459812730550766
802352,9.617108345031738,0.17613893747329712,2.061586856842041,0.36751019954681396,-0.2668971121311188,0.702562689781189,0.6249648332595825,-0.3692191243171692,-0.5096583962440491,-0.4618924558162689,9.480104446411133,0.08174016326665878,-2.3312010765075684,1.491715431213379,-0.689724326133728,0.9033662676811218,0.4130387604236603,-0.588294506072998,-0.5215837955474854,-0.4596291780471802
802519,9.616811752319336,0.18089331686496735,2.0453169345855713,0.5727575421333313,0.03734971210360527,0.825452446937561,0.6250953078269958,-0.36911627650260925,-0.5096942186355591,-0.4617585837841034,9.485047340393066,0.08817335218191147,-2.3360068798065186,1.2179157733917236,-0.7611581683158875,0.8158989548683167,0.4130794107913971,-0.5882974863052368,-0.5216845273971558,-0.4594745635986328
802686,9.617269515991211,0.18847541511058807,2.082412004470825,0.47393104434013367,0.26112788915634155,0.8934414982795715,0.6252383589744568,-0.36901578307151794,-0.5096971392631531,-0.4616420567035675,9.524266242980957,0.0948130339384079,-2.362459182739258,0.9276726841926575,-0.5435655117034912,0.8701209425926208,0.4131286144256592,-0.5882918238639832,-0.5217658281326294,-0.45934510231018066
802852,9.604021072387695,0.1767646223306656,2.1052968502044678,0.6337413787841797,0.3072051405906677,0.9244198799133301,0.6253988146781921,-0.36889585852622986,-0.5097078084945679,-0.46150875091552734,9.508183479309082,0.09973769634962082,-2.3417716026306152,0.598921000957489,-0.12650112807750702,0.8703516125679016,0.4131934344768524,-0.5882636904716492,-0.5218165516853333,-0.4592651128768921
803019,9.609984397888184,0.16777561604976654,2.0997378826141357,0.6823928356170654,0.16321054100990295,0.889561116695404,0.6255474090576172,-0.36877989768981934,-0.5097354054450989,-0.4613693356513977,9.49704360961914,0.0808807983994484,-2.343014717102051,0.23326122760772705,0.06207877770066261,0.833891749382019,0.41322919726371765,-0.5882525444030762,-0.5218231678009033,-0.45923975110054016
803186,9.599331855773926,0.17957738041877747,2.1153688430786133,0.7079670429229736,0.34078341722488403,1.0900061130523682,0.6257231831550598,-0.3686653673648834,-0.5097371339797974,-0.46122071146965027,9.485194206237793,0.08286421746015549,-2.3569116592407227,0.029281718656420708,0.3525523543357849,0.9028283953666687,0.4132595360279083,-0.5882556438446045,-0.5217748284339905,-0.45926347374916077
803352,9.608243942260742,0.17903047800064087,2.104745626449585,0.8063582181930542,0.38096967339515686,0.9993243217468262,0.625903308391571,-0.3685297667980194,-0.5097482800483704,-0.46107232570648193,9.482210159301758,0.0497392974793911,-2.3251876831054688,-0.09123244881629944,0.5786869525909424,0.9717778563499451,0.4133011996746063,-0.5882557034492493,-0.5216996073722839,-0.4593113660812378
803519,9.60316276550293,0.17799998819828033,2.098400354385376,0.6015334725379944,0.6250331401824951,0.9901678562164307,0.6260896921157837,-0.36839559674263,-0.5097238421440125,-0.46095338463783264,9.492884635925293,0.035154033452272415,-2.330772876739502,-0.052454814314842224,0.7357056140899658,1.1528468132019043,0.4133814573287964,-0.5882436633110046,-0.5216168165206909,-0.4593486785888672
803686,9.602745056152344,0.1611078381538391,2.1177501678466797,0.41851791739463806,0.5628582239151001,0.9691268801689148,0.6262609958648682,-0.36827966570854187,-0.5096945762634277,-0.4608457684516907,9.491705894470215,0.03804495558142662,-2.3194963932037354,0.017179718241095543,0.9486239552497864,1.1299747228622437,0.4134979546070099,-0.5881934762001038,-0.5215482115745544,-0.45938602089881897
803853,9.603360176086426,0.16603794693946838,2.0792675018310547,0.21689473092556,0.6011748909950256,0.9305797815322876,0.6264208555221558,-0.3681774437427521,-0.5096495151519775,-0.4607599079608917,9.492412567138672,0.039228279143571854,-2.301241636276245,0.04138372093439102,1.0297521352767944,1.0905823707580566,0.4135969281196594,-0.5881595015525818,-0.5214503407478333,-0.4594515562057495
804019,9.586562156677246,0.1657591462135315,2.1123499870300293,0.18849025666713715,0.5589523315429688,0.9047109484672546,0.6265736818313599,-0.3680792450904846,-0.5096073746681213,-0.4606771171092987,9.481034278869629,0.048189252614974976,-2.3164103031158447,0.11291999369859695,1.107806921005249,1.0780833959579468,0.4137733578681946,-0.5880396366119385,-0.5214385390281677,-0.4594593644142151
804186,9.600566864013672,0.14977732300758362,2.0756325721740723,0.18613387644290924,0.5028477311134338,1.0031533241271973,0.62673020362854,-0.3679906129837036,-0.5095659494400024,-0.4605807960033417,9.485343933105469,0.04683610796928406,-2.31799054145813,0.16648894548416138,0.9609821438789368,1.1478650569915771,0.41388797760009766,-0.5879994630813599,-0.5213568210601807,-0.4595002233982086
804353,9.607791900634766,0.15333451330661774,2.0677731037139893,0.28469157218933105,0.45420923829078674,1.1320621967315674,0.6268975734710693,-0.36790505051612854,-0.5095293521881104,-0.4604618549346924,9.442973136901855,0.041332487016916275,-2.295131206512451,0.3051432967185974,0.5557506680488586,1.3399090766906738,0.41399410367012024,-0.5879950523376465,-0.521289587020874,-0.4594864845275879
804519,9.657198905944824,0.13793446123600006,2.0782315731048584,0.2408810555934906,0.46194422245025635,1.1811105012893677,0.6270692348480225,-0.36782342195510864,-0.5094889998435974,-0.46033811569213867,9.495729446411133,0.007016571704298258,-2.304046392440796,0.29437315464019775,0.29129964113235474,1.498003602027893,0.41410061717033386,-0.5880085229873657,-0.5212380886077881,-0.45943161845207214
804686,9.5953369140625,0.0924430713057518,2.0402584075927734,0.25263726711273193,0.7604346871376038,1.5492033958435059,0.6272838115692139,-0.3677528202533722,-0.5093991160392761,-0.46020159125328064,9.428533554077148,-0.013543535955250263,-2.316620349884033,0.8021193146705627,-0.006083016283810139,1.9579052925109863,0.4142594039440155,-0.5880456566810608,-0.5211998820304871,-0.45928457379341125
804853,9.609889030456543,0.1184123232960701,2.0378077030181885,-0.22213895618915558,0.5987160801887512,1.3764840364456177,0.6274487376213074,-0.36772453784942627,-0.5093010663986206,-0.4601077735424042,9.485832214355469,-0.039103977382183075,-2.3270859718322754,1.0523682832717896,-0.26422062516212463,1.93130624294281,0.4144341051578522,-0.5880647897720337,-0.521216630935669,-0.45908331871032715
805019,9.697539329528809,0.14817523956298828,2.082047939300537,-0.004917638376355171,0.6369174718856812,0.9900782108306885,0.627602219581604,-0.3676452934741974,-0.509235143661499,-0.46003466844558716,9.478312492370605,-0.0315389521420002,-2.292200803756714,1.448443055152893,-0.2981318235397339,1.3464019298553467,0.4145890474319458,-0.5880320072174072,-0.5212963223457336,-0.4588949382305145
805186,9.620525360107422,0.15446388721466064,2.076129198074341,0.23148119449615479,0.7148056626319885,0.8380411863327026,0.6277643442153931,-0.3675275444984436,-0.5091867446899414,-0.459961473941803,9.500814437866211,-0.030461372807621956,-2.3191559314727783,1.638213872909546,-0.21085652709007263,0.6202627420425415,0.41473275423049927,-0.5879108309745789,-0.5214636921882629,-0.4587303698062897
805353,9.594070434570312,0.139597088098526,2.1385531425476074,0.7599864602088928,1.182429552078247,1.0911331176757812,0.628004789352417,-0.3673499822616577,-0.5091166496276855,-0.4598522186279297,9.54594612121582,-0.02145996131002903,-2.3369698524475098,1.6855653524398804,0.26917025446891785,0.6360465288162231,0.41492265462875366,-0.5877506136894226,-0.5216097235679626,-0.45859774947166443
805519,9.551451683044434,0.11218376457691193,2.19266676902771,0.28426894545555115,0.8609389662742615,1.1060525178909302,0.6281965970993042,-0.3672390580177307,-0.5090427994728088,-0.4597606658935547,9.554994583129883,0.03745145723223686,-2.294343948364258,1.438543677330017,0.8865259289741516,0.7415196299552917,0.41512271761894226,-0.5875978469848633,-0.5216640830039978,-0.45855048298835754
805686,9.587764739990234,0.12414682656526566,2.214491844177246,0.16411976516246796,0.4782082736492157,0.7866621017456055,0.6283354163169861,-0.3671378195285797,-0.5090146660804749,-0.4596830904483795,9.537989616394043,0.06067720800638199,-2.286433458328247,0.8464420437812805,1.5691940784454346,0.7899661064147949,0.4152906835079193,-0.5874803066253662,-0.5215867757797241,-0.45863693952560425
805853,9.566414833068848,0.10959644615650177,2.157364845275879,0.0332004576921463,0.058006349951028824,0.7533654570579529,0.6284350156784058,-0.36707305908203125,-0.5090180039405823,-0.45959511399269104,9.465343475341797,0.03251814469695091,-2.265462875366211,0.203627347946167,1.613606333732605,0.8478763699531555,0.41543978452682495,-0.5873697400093079,-0.5214964151382446,-0.45874637365341187
806019,9.578354835510254,0.11693095415830612,2.1437888145446777,0.4253949224948883,-0.16285835206508636,0.8335332274436951,0.6285445094108582,-0.3669930696487427,-0.5090631246566772,-0.4594590365886688,9.441216468811035,-0.007698962464928627,-2.2340054512023926,-0.24305172264575958,1.3151673078536987,0.8372600078582764,0.41552525758743286,-0.5873072743415833,-0.5213925838470459,-0.45886680483818054
806186,9.58470630645752,0.1197671890258789,2.119339942932129,0.7351548671722412,-0.11379722505807877,0.7696167826652527,0.6286648511886597,-0.3668825328350067,-0.509123682975769,-0.4593157470226288,9.46635627746582,-0.040239956229925156,-2.24562668800354,-0.30950385332107544,1.0188924074172974,0.8301268219947815,0.415565550327301,-0.5872869491577148,-0.5212811827659607,-0.45898282527923584
806353,9.583747863769531,0.11338836699724197,2.128005027770996,0.5984342694282532,0.06005537137389183,0.6822262406349182,0.6287875771522522,-0.3667634427547455,-0.5091658234596252,-0.45919615030288696,9.487266540527344,-0.03223276883363724,-2.2446134090423584,-0.29359835386276245,0.6590467095375061,0.7794392108917236,0.4156150817871094,-0.5872424840927124,-0.5212457180023193,-0.459035187959671
806519,9.609075546264648,0.12658700346946716,2.1074411869049072,0.5179976224899292,0.02396707981824875,0.6254044771194458,0.6288996338844299,-0.366649866104126,-0.5092088580131531,-0.45908573269844055,9.45633316040039,-0.021764494478702545,-2.2412874698638916,-0.17466580867767334,0.4110261797904968,0.44336220622062683,0.415681391954422,-0.5871279239654541,-0.52132248878479,-0.45903438329696655
806686,9.632153511047363,0.12771715223789215,2.109715223312378,0.3467255234718323,-0.04746032878756523,0.5881636142730713,0.6289949417114258,-0.3665536642074585,-0.5092492699623108,-0.4589870870113373,9.470226287841797,0.001755917794071138,-2.2207210063934326,-0.11491136997938156,-0.16794247925281525,0.4031374454498291,0.41566240787506104,-0.5870952606201172,-0.5213853120803833,-0.45902204513549805
806853,9.59947395324707,0.10422856360673904,2.133937120437622,0.3980277478694916,0.09161023050546646,0.6146472096443176,0.6291058659553528,-0.3664444386959076,-0.5092796683311462,-0.4588882327079773,9.45600700378418,0.00948410201817751,-2.234757661819458,-0.20915329456329346,-0.4879603087902069,0.23136590421199799,0.41563746333122253,-0.587033748626709,-0.5215238332748413,-0.458965927362442
807019,9.581640243530273,0.09463593363761902,2.11916184425354,0.6080774664878845,-0.01783924363553524,0.6526435017585754,0.6292182207107544,-0.3663310706615448,-0.5093285441398621,-0.4587706923484802,9.521333694458008,-0.006899895612150431,-2.258199691772461,-0.1728729009628296,-0.7146711349487305,0.49550968408584595,0.41554325819015503,-0.5870876312255859,-0.5215626955032349,-0.4589381515979767
807186,9.584396362304688,0.11355173587799072,2.1499764919281006,0.5545982122421265,0.041960008442401886,0.6126237511634827,0.6293346285820007,-0.3662099242210388,-0.5093744397163391,-0.45865657925605774,9.492549896240234,-0.015196364372968674,-2.2601327896118164,-0.05767979472875595,-0.813766598701477,0.5961291790008545,0.4154941737651825,-0.5871080160140991,-0.5216524600982666,-0.4588544964790344
807353,9.618285179138184,0.11610550433397293,2.1093828678131104,0.4228464365005493,-0.5438088178634644,0.34712252020835876,0.6293814182281494,-0.3661220371723175,-0.5094779133796692,-0.4585476517677307,9.449637413024902,0.007422036025673151,-2.2500030994415283,-0.11738299578428268,-1.0877457857131958,0.35134854912757874,0.41536495089530945,-0.5871748924255371,-0.5217268466949463,-0.45880141854286194
807519,9.58459758758545,0.12554681301116943,2.121488332748413,0.7558371424674988,-0.4742191433906555,0.3376713991165161,0.6294484734535217,-0.3660005033016205,-0.5095962285995483,-0.45842108130455017,9.437078475952148,-0.01654944382607937,-2.2851650714874268,-0.02851973846554756,-1.4938991069793701,0.2480013370513916,0.4152064323425293,-0.5872545838356018,-0.5218413472175598,-0.4587126076221466
807686,9.589340209960938,0.12079738080501556,2.0902042388916016,0.7848307490348816,-0.29176706075668335,0.4742383360862732,0.6295444369316101,-0.36586907505989075,-0.5096963047981262,-0.45828312635421753,9.472902297973633,-0.011439907364547253,-2.3082664012908936,0.12810832262039185,-1.7530101537704468,0.17249514162540436,0.4150937795639038,-0.5872715711593628,-0.5220616459846497,-0.458542138338089
807853,9.609970092773438,0.13287416100502014,2.1130197048187256,0.5893033742904663,-0.2086794674396515,0.20539464056491852,0.6296135783195496,-0.36573514342308044,-0.5097864270210266,-0.458194762468338,9.49561882019043,0.02185351401567459,-2.3028600215911865,-0.009963341057300568,-1.714155673980713,0.289007306098938,0.4149014949798584,-0.5873924493789673,-0.5221598148345947,-0.45844966173171997
808019,9.61119270324707,0.11604434996843338,2.1115214824676514,-0.12246712297201157,-0.04802381619811058,0.053729042410850525,0.6296464204788208,-0.36564457416534424,-0.5098224878311157,-0.45818179845809937,9.479530334472656,0.03929224610328674,-2.313828468322754,-0.3619970977306366,-1.5939935445785522,0.23602740466594696,0.41473159193992615,-0.5874691009521484,-0.5222919583320618,-0.45835477113723755
808186,9.589789390563965,0.1335892230272293,2.119750499725342,-0.0066080763936042786,-0.08596901595592499,0.018754897639155388,0.6296806335449219,-0.3655429780483246,-0.5098719000816345,-0.4581608772277832,9.482136726379395,0.03923087194561958,-2.3404812812805176,-0.5918455123901367,-1.425462007522583,0.01460564136505127,0.4145503342151642,-0.5875195860862732,-0.5224310159683228,-0.45829567313194275
808353,9.589924812316895,0.14651721715927124,2.131498336791992,0.4348716139793396,-0.1461588591337204,-0.03227199986577034,0.6297250986099243,-0.3654070496559143,-0.5099547505378723,-0.45811590552330017,9.494257926940918,0.037736810743808746,-2.3395557403564453,-0.7957737445831299,-1.1890056133270264,-0.11092859506607056,0.41442281007766724,-0.5874864459037781,-0.522632360458374,-0.45822370052337646
808519,9.612794876098633,0.15365174412727356,2.133293390274048,0.48228079080581665,-0.05372263863682747,-0.07144662737846375,0.629783034324646,-0.3652501702308655,-0.510039746761322,-0.45806682109832764,9.524651527404785,0.03436671942472458,-2.373769760131836,-0.9003376960754395,-0.822167694568634,-0.1637292057275772,0.41420507431030273,-0.5875513553619385,-0.5226739645004272,-0.45828989148139954
808686,9.615727424621582,0.15459229052066803,2.1364333629608154,0.37110239267349243,-0.30623820424079895,-0.2062462419271469,0.6298066973686218,-0.36511069536209106,-0.510147213935852,-0.45802563428878784,9.520757675170898,0.029997892677783966,-2.3723814487457275,-1.0507738590240479,-0.35144463181495667,-0.34276193380355835,0.41400229930877686,-0.5875756740570068,-0.5226980447769165,-0.4584145247936249
808853,9.614306449890137,0.14430321753025055,2.110154867172241,0.3560485243797302,-0.4033871591091156,-0.23167964816093445,0.6298140287399292,-0.3649844825267792,-0.510258674621582,-0.4579920172691345,9.503984451293945,0.030551500618457794,-2.3808858394622803,-1.069919228553772,-0.02640669234097004,-0.2834429144859314,0.4138917028903961,-0.5875093936920166,-0.522780179977417,-0.45850542187690735
809019,9.612502098083496,0.15232139825820923,2.1211843490600586,0.318794846534729,-0.45605969429016113,-0.2699706554412842,0.6298196911811829,-0.36485472321510315,-0.5103800296783447,-0.4579523801803589,9.497838020324707,0.0435105562210083,-2.3642616271972656,-1.0322942733764648,0.19339510798454285,-0.4026060700416565,0.4137651026248932,-0.5874490737915039,-0.5228263735771179,-0.45864447951316833
809186,9.623026847839355,0.1418323814868927,2.1137888431549072,0.39413461089134216,-0.4716322422027588,-0.30654558539390564,0.6298222541809082,-0.3647202253341675,-0.5105070471763611,-0.4579145014286041,9.501321792602539,0.06393749266862869,-2.3300299644470215,-1.053873062133789,0.3904207944869995,-0.33359262347221375,0.4136825501918793,-0.5873518586158752,-0.5228874087333679,-0.45877373218536377
809353,9.619640350341797,0.15202130377292633,2.1259806156158447,0.534607470035553,-0.45996570587158203,-0.09748192876577377,0.6298528909683228,-0.3645809590816498,-0.5106361508369446,-0.45783936977386475,9.469282150268555,0.07363591343164444,-2.3520126342773438,-0.9399219751358032,0.4103858768939972,-0.3367941677570343,0.4135375916957855,-0.5873296856880188,-0.5228611826896667,-0.4589625597000122
809519,9.605539321899414,0.14543719589710236,2.080705404281616,0.5285757184028625,-0.5414780974388123,0.08009731769561768,0.6298903226852417,-0.364459365606308,-0.5107638835906982,-0.45774224400520325,9.452045440673828,0.06895406544208527,-2.349653959274292,-0.9281274080276489,0.32550540566444397,0.006819380912929773,0.4135154187679291,-0.5872184634208679,-0.522946834564209,-0.4590272903442383
809686,9.621660232543945,0.14983592927455902,2.1105737686157227,0.5008755326271057,-0.3971761465072632,0.22562865912914276,0.6299428939819336,-0.36434558033943176,-0.5108660459518433,-0.45764634013175964,9.454130172729492,0.05833315849304199,-2.32085919380188,-0.7378377914428711,0.12269122153520584,0.3808160126209259,0.4134024679660797,-0.5872700810432434,-0.5228769183158875,-0.45914262533187866
809853,9.603267669677734,0.14548726379871368,2.081749677658081,0.4309912919998169,-0.16949202120304108,0.3825704753398895,0.6300183534622192,-0.3642355501651764,-0.5109339356422424,-0.45755431056022644,9.450958251953125,0.03186042606830597,-2.3367435932159424,-0.3003857135772705,-0.009258991107344627,0.649979829788208,0.41332191228866577,-0.5873392820358276,-0.5228047370910645,-0.45920881628990173
810019,9.616360664367676,0.14602726697921753,2.075680732727051,0.300340861082077,0.01507947500795126,0.4631480276584625,0.63010573387146,-0.36413130164146423,-0.5109720230102539,-0.4574742913246155,9.483043670654297,0.02547798864543438,-2.3363418579101562,0.0362611785531044,-0.057500507682561874,0.909846305847168,0.41337835788726807,-0.587303876876831,-0.5228566527366638,-0.4591442942619324
810186,9.622243881225586,0.14543351531028748,2.1212306022644043,0.23233918845653534,0.2440185695886612,0.6011108160018921,0.6302151083946228,-0.36402902007102966,-0.5109771490097046,-0.45739930868148804,9.508735656738281,0.016765741631388664,-2.331787586212158,0.3932637870311737,0.11993786692619324,0.9035199284553528,0.4134265184402466,-0.5872936844825745,-0.5228561162948608,-0.4591147303581238
810353,9.590682983398438,0.1478082239627838,2.144390344619751,0.42928802967071533,0.09537529200315475,0.6211015582084656,0.6303229331970215,-0.3639225363731384,-0.5110061764717102,-0.4573030471801758,9.500179290771484,0.030326828360557556,-2.3441834449768066,0.7172260880470276,0.3803165555000305,0.9017783403396606,0.413528174161911,-0.5872396230697632,-0.522869348526001,-0.45907723903656006
810519,9.602517127990723,0.13731563091278076,2.1244208812713623,0.3869630694389343,0.029153652489185333,0.7334772944450378,0.6304347515106201,-0.36382856965065,-0.5110352635383606,-0.4571911692619324,9.511808395385742,0.025615105405449867,-2.3427529335021973,0.9752227663993835,0.6735563278198242,0.9700105786323547,0.4136151671409607,-0.5872278809547424,-0.5227952599525452,-0.45909807085990906
810686,9.594667434692383,0.1526075005531311,2.1387972831726074,0.3750914931297302,0.006934638135135174,0.6232273578643799,0.6305374503135681,-0.36372846364974976,-0.5110716819763184,-0.4570883810520172,9.491636276245117,0.04539016634225845,-2.303053140640259,1.1070256233215332,0.7613054513931274,0.9727638959884644,0.4137774109840393,-0.587137758731842,-0.5227974057197571,-0.4590647220611572
810853,9.600436210632324,0.13711737096309662,2.1328325271606445,0.46664413809776306,-0.07473785430192947,0.7242310047149658,0.6306427717208862,-0.36363616585731506,-0.5111140012741089,-0.45696935057640076,9.483122825622559,0.0786251574754715,-2.317909002304077,0.9343833327293396,0.8239925503730774,1.0248985290527344,0.4138881266117096,-0.5871089696884155,-0.5227223038673401,-0.4590873718261719
811019,9.597667694091797,0.1589767187833786,2.1285014152526855,0.3751171827316284,-0.11670425534248352,0.6999118328094482,0.6307433843612671,-0.36354783177375793,-0.5111591815948486,-0.45685043931007385,9.472681045532227,0.03485745191574097,-2.304722785949707,0.8390527963638306,0.7709486484527588,0.9892456531524658,0.4140208959579468,-0.5870447754859924,-0.5226941704750061,-0.45908182859420776
811186,9.598885536193848,0.15324829518795013,2.141359806060791,0.43348851799964905,-0.14863049983978271,0.707160234451294,0.63084477186203,-0.3634570240974426,-0.5112104415893555,-0.456725150346756,9.486899375915527,0.06743264943361282,-2.281432867050171,0.6390560865402222,0.6548335552215576,1.0288556814193726,0.4142043888568878,-0.5869189500808716,-0.522750973701477,-0.45901232957839966
811353,9.60483169555664,0.15157057344913483,2.1236624717712402,0.37675637006759644,-0.22870859503746033,0.6229072213172913,0.6309291124343872,-0.3633731007575989,-0.5112678408622742,-0.4566110074520111,9.470946311950684,0.05598737299442291,-2.2809829711914062,0.29223451018333435,0.4721124470233917,0.8318043947219849,0.41425517201423645,-0.5868977308273315,-0.5227152109146118,-0.45903435349464417
811519,9.605937004089355,0.14213642477989197,2.1052379608154297,0.31894853711128235,-0.10963515937328339,0.6472521424293518,0.6310195922851562,-0.36328989267349243,-0.5113081336021423,-0.4565070867538452,9.457813262939453,0.05734093114733696,-2.3127975463867188,0.10097166895866394,0.14565300941467285,0.7792855501174927,0.41424524784088135,-0.5869240164756775,-0.5226703882217407,-0.45906078815460205
811686,9.603328704833984,0.16298922896385193,2.103968620300293,0.28826451301574707,-0.027239104732871056,0.6637594699859619,0.6311159133911133,-0.3632050156593323,-0.5113382339477539,-0.45640796422958374,9.476177215576172,0.050610460340976715,-2.2879676818847656,-0.1702219694852829,-0.06805293262004852,0.7548637986183167,0.41413700580596924,-0.5870441198348999,-0.5225494503974915,-0.4591425955295563
811853,9.615140914916992,0.15642687678337097,2.1208302974700928,0.15830570459365845,0.061143919825553894,0.5454416871070862,0.6311983466148376,-0.3631235361099243,-0.5113534331321716,-0.45634156465530396,9.50436782836914,0.03982464596629143,-2.3082737922668457,-0.30882513523101807,0.0028878317680209875,0.5804926753044128,0.41408562660217285,-0.5870691537857056,-0.5225256681442261,-0.45918405055999756
812019,9.5776948928833,0.1476365625858307,2.1459710597991943,0.2408810257911682,0.07867580652236938,0.4338598847389221,0.6312869191169739,-0.36301618814468384,-0.5113847851753235,-0.45626935362815857,9.504624366760254,0.03750719130039215,-2.28527569770813,-0.40255478024482727,0.04732586815953255,0.4807952046394348,0.41400057077407837,-0.5871146321296692,-0.5224728584289551,-0.4592626094818115
812186,9.590980529785156,0.1532762497663498,2.1347596645355225,0.3312426209449768,-0.17793141305446625,0.4408905804157257,0.6313638091087341,-0.36291560530662537,-0.511447012424469,-0.45617324113845825,9.494443893432617,0.039667289704084396,-2.275973320007324,-0.5368037223815918,0.05331924185156822,0.4671948552131653,0.41395366191864014,-0.5871099233627319,-0.5224756002426147,-0.4593077301979065
812353,9.586020469665527,0.14252616465091705,2.144157886505127,0.4639291763305664,-0.2084873616695404,0.542982816696167,0.6314497590065002,-0.3628152310848236,-0.5115134119987488,-0.4560598134994507,9.486518859863281,0.029113903641700745,-2.2956032752990723,-0.5682945251464844,0.0745009332895279,0.5295617580413818,0.41382721066474915,-0.5872044563293457,-0.52236407995224,-0.4594278931617737
812519,9.595492362976074,0.1412956267595291,2.135986566543579,0.2619859278202057,-0.29769641160964966,0.4699994623661041,0.6315120458602905,-0.3627355098724365,-0.5115770697593689,-0.45596542954444885,9.486920356750488,0.031455300748348236,-2.286728620529175,-0.5525427460670471,-0.07472504675388336,0.7373960018157959,0.41373178362846375,-0.5872928500175476,-0.5222792625427246,-0.4594971537590027
812686,9.620662689208984,0.14018017053604126,2.1222500801086426,0.20114296674728394,-0.22983556985855103,0.5385774374008179,0.6315815448760986,-0.3626611530780792,-0.5116274952888489,-0.4558718502521515,9.466050148010254,-0.008971493691205978,-2.307927370071411,-0.35572198033332825,-0.25229787826538086,0.9332690834999084,0.41353633999824524,-0.5875285267829895,-0.522052526473999,-0.4596293568611145
812853,9.556222915649414,0.11331570148468018,2.1141715049743652,0.03916822001338005,-0.23842862248420715,0.7268691658973694,0.6316549181938171,-0.3626154363155365,-0.5116585493087769,-0.45577141642570496,9.477787017822266,-0.0345955416560173,-2.3034541606903076,0.011058283969759941,-0.4358769655227661,1.1462773084640503,0.41345590353012085,-0.5876762866973877,-0.521949291229248,-0.45963022112846375
813019,9.636140823364258,0.10399968177080154,2.125415086746216,-0.05963916331529617,-0.2755798399448395,0.6887702941894531,0.6317161321640015,-0.3625805974006653,-0.5116870403289795,-0.45568230748176575,9.485910415649414,-0.03478909283876419,-2.303098678588867,0.5553921461105347,-0.5460243225097656,1.1303588151931763,0.4134136438369751,-0.5877965688705444,-0.5218912363052368,-0.4595804214477539
813186,9.66008186340332,0.15174593031406403,2.126004934310913,-0.19383689761161804,-0.5862874984741211,0.0337127149105072,0.6317037343978882,-0.3625301420688629,-0.5117696523666382,-0.4556468725204468,9.490532875061035,0.010148655623197556,-2.3025739192962646,0.7551968097686768,-0.33899685740470886,0.26833784580230713,0.4134250283241272,-0.5877368450164795,-0.5220074653625488,-0.4595142900943756
813353,9.603704452514648,0.16255652904510498,2.106278896331787,0.6918694376945496,-0.008695511147379875,0.014631254598498344,0.6317775845527649,-0.36236101388931274,-0.5118572115898132,-0.4555806815624237,9.498520851135254,0.01744869165122509,-2.302194118499756,0.7079669833183289,-0.37169149518013,-0.22404706478118896,0.4133783280849457,-0.5876660943031311,-0.5221406817436218,-0.4594954252243042
813519,9.57848072052002,0.12081502377986908,2.1336164474487305,0.958267092704773,-0.056744933128356934,0.5567752718925476,0.6319025754928589,-0.36220550537109375,-0.5119422674179077,-0.455435574054718,9.510729789733887,0.0444379523396492,-2.287538766860962,0.6118297576904297,-0.2558964788913727,-0.035319916903972626,0.41339346766471863,-0.5875524878501892,-0.5223063230514526,-0.459438681602478
813686,9.596607208251953,0.14968864619731903,2.1888551712036133,0.8317660093307495,-0.12177557498216629,0.7332723736763,0.6320281028747559,-0.3620786964893341,-0.5120156407356262,-0.4552796483039856,9.526816368103027,0.10074891149997711,-2.2983176708221436,0.29783084988594055,0.025004396215081215,0.5794937014579773,0.41340556740760803,-0.5875296592712402,-0.5223320722579956,-0.4594278037548065
813853,9.57239818572998,0.12387266755104065,2.156567335128784,0.15852339565753937,-0.3051881194114685,0.5022842288017273,0.632085919380188,-0.3620123267173767,-0.5120705366134644,-0.4551902115345001,9.476062774658203,0.1153612956404686,-2.281588077545166,-0.294686883687973,0.24385207891464233,0.7023577690124512,0.4132959246635437,-0.5876458287239075,-0.5221723318099976,-0.4595596194267273
814019,9.599163055419922,0.11240421235561371,2.144526958465576,0.45706501603126526,-0.5222301483154297,0.6142885684967041,0.6321523785591125,-0.36193954944610596,-0.5121603012084961,-0.45505478978157043,9.44571304321289,0.03645211085677147,-2.2852609157562256,-0.6277160048484802,0.09362081438302994,0.9150328636169434,0.4131917655467987,-0.5877721309661865,-0.5220212936401367,-0.45966318249702454
814186,9.594642639160156,0.12123306840658188,2.1302521228790283,0.7378442287445068,-0.5615328550338745,0.807856559753418,0.632243812084198,-0.3618578612804413,-0.5122621655464172,-0.45487821102142334,9.443879127502441,-0.019340109080076218,-2.2899959087371826,-0.41445192694664,-0.0607917457818985,1.128028154373169,0.4131476879119873,-0.5878674387931824,-0.5219258666038513,-0.45968928933143616
814353,9.57232666015625,0.1276939958333969,2.1232025623321533,0.6384413242340088,-0.385189414024353,0.7514573931694031,0.6323391795158386,-0.3617696762084961,-0.5123440027236938,-0.45472368597984314,9.466279983520508,-0.04722028225660324,-2.312648057937622,0.12484269589185715,-0.3102594316005707,1.1135441064834595,0.41315728425979614,-0.5879150629043579,-0.5219172835350037,-0.4596293866634369
814519,9.602776527404785,0.12309988588094711,2.1071481704711914,0.20369137823581696,-0.365774929523468,0.47121602296829224,0.6323950290679932,-0.36169883608818054,-0.5124101638793945,-0.4546276032924652,9.495511054992676,-0.03487253934144974,-2.2958483695983887,0.6480205059051514,-0.4171924293041229,0.8228911757469177,0.4132186472415924,-0.5878777503967285,-0.522018551826477,-0.4595070779323578
814686,9.60628604888916,0.1254175901412964,2.127146005630493,0.13746975362300873,-0.3640589118003845,0.4700634479522705,0.6324472427368164,-0.36163434386253357,-0.5124717950820923,-0.4545370042324066,9.483202934265137,-0.008273867890238762,-2.280444383621216,0.9072849750518799,-0.5501223206520081,0.4793608784675598,0.4131527245044708,-0.5879403352737427,-0.5220250487327576,-0.4594789743423462
814853,9.617469787597656,0.1309179663658142,2.092695951461792,0.24792450666427612,-0.39448678493499756,0.5503079891204834,0.6325091123580933,-0.3615667223930359,-0.5125398635864258,-0.4544278383255005,9.497353553771973,0.02593463845551014,-2.2954494953155518,0.9736988544464111,-0.7435879707336426,0.1752869337797165,0.41317152976989746,-0.5878592729568481,-0.5222191214561462,-0.4593452215194702
815019,9.602008819580078,0.1302812248468399,2.123276472091675,0.45296698808670044,-0.3413020372390747,0.5279993414878845,0.6325830817222595,-0.36147645115852356,-0.5126169323921204,-0.4543096125125885,9.486334800720215,0.08354591578245163,-2.3243420124053955,0.6329345703125,-0.6860489845275879,0.1461140364408493,0.4131808578968048,-0.5877732038497925,-0.5224112868309021,-0.45922863483428955
815186,9.611356735229492,0.14180999994277954,2.124537706375122,0.7084152102470398,-0.42211008071899414,0.38218629360198975,0.632655680179596,-0.36135631799697876,-0.5127266645431519,-0.45418038964271545,9.49400806427002,0.06495465338230133,-2.318619728088379,0.11088377237319946,-0.7081910967826843,0.38176366686820984,0.4131341874599457,-0.5877662301063538,-0.5225176215171814,-0.4591583013534546
815353,9.620984077453613,0.11731073260307312,2.1022322177886963,0.685453474521637,-0.38224390149116516,0.5246953368186951,0.6327372789382935,-0.3612486720085144,-0.5128220319747925,-0.45404475927352905,9.443720817565918,0.05313555896282196,-2.3482134342193604,-0.20659203827381134,-0.994221031665802,0.6877586245536804,0.4130171835422516,-0.5878682732582092,-0.5225404500961304,-0.459106981754303
815519,9.624466896057129,0.13781669735908508,2.0623903274536133,0.5789687037467957,-0.8033679723739624,0.5315467715263367,0.6327833533287048,-0.36117804050445557,-0.512949526309967,-0.45389264822006226,9.458820343017578,0.04972980171442032,-2.355360507965088,-0.4339558780193329,-1.1635080575942993,0.6056057810783386,0.41292303800582886,-0.5879198312759399,-0.5226432681083679,-0.4590086340904236
815686,9.590316772460938,0.18947888910770416,2.0888235569000244,0.7711406946182251,-0.2874128818511963,0.28050386905670166,0.6328630447387695,-0.3610351085662842,-0.5130570530891418,-0.4537737965583801,9.46967601776123,0.025878507643938065,-2.3536856174468994,-0.6287661790847778,-1.2590306997299194,0.3873729109764099,0.41267862915992737,-0.588100016117096,-0.522614598274231,-0.4590301811695099
815853,9.60895824432373,0.14764729142189026,2.1024415493011475,0.16929355263710022,-0.38092488050460815,0.3692263066768646,0.6329079270362854,-0.3609622120857239,-0.5131275653839111,-0.4536891579627991,9.481101989746094,0.0020853704772889614,-2.366245746612549,-0.4970400631427765,-1.2759734392166138,0.4009219706058502,0.41251152753829956,-0.5881989598274231,-0.5226794481277466,-0.45897966623306274
816019,9.628036499023438,0.14506885409355164,2.071711301803589,0.15107010304927826,-0.31531792879104614,0.2768796682357788,0.6329508423805237,-0.36087965965270996,-0.5131959319114685,-0.45361772179603577,9.491945266723633,0.010447460226714611,-2.3737502098083496,-0.3740094304084778,-1.1034718751907349,0.35740602016448975,0.41246744990348816,-0.5881593227386475,-0.5228770971298218,-0.45884522795677185
816186,9.614168167114258,0.13842783868312836,2.111417770385742,0.2156781256198883,-0.3015254735946655,0.1842513531446457,0.6329904794692993,-0.3607850670814514,-0.513271152973175,-0.4535525441169739,9.509571075439453,0.014078579843044281,-2.3640053272247314,-0.2658086121082306,-0.8503289222717285,0.36414214968681335,0.4124065339565277,-0.5881487131118774,-0.5230076909065247,-0.4587644934654236
816353,9.61282730102539,0.12819668650627136,2.1237056255340576,0.43379589915275574,-0.29358553886413574,0.13361506164073944,0.6330406069755554,-0.36066412925720215,-0.5133641362190247,-0.4534735679626465,9.507225036621094,0.014909207820892334,-2.3559303283691406,-0.21993626654148102,-0.4657669961452484,0.14616528153419495,0.4123453199863434,-0.5881149768829346,-0.5231125354766846,-0.45874321460723877
816519,9.616056442260742,0.13152243196964264,2.1261696815490723,0.6698039770126343,-0.2625557482242584,0.20326876640319824,0.6331092715263367,-0.3605254888534546,-0.5134655237197876,-0.4533731937408447,9.506613731384277,0.02241566777229309,-2.3576791286468506,-0.22026923298835754,-0.02812274731695652,0.01103267166763544,0.4123425781726837,-0.5880029201507568,-0.5232463479042053,-0.4587368071079254
816686,9.593883514404297,0.13753379881381989,2.1410927772521973,0.8146567940711975,-0.27597683668136597,0.14035119116306305,0.6331807374954224,-0.3603694438934326,-0.5135810971260071,-0.4532666802406311,9.491479873657227,0.06261223554611206,-2.3589556217193604,-0.28634998202323914,0.29323336482048035,0.12791623175144196,0.4122755229473114,-0.5879859924316406,-0.5232298970222473,-0.4588373303413391
816853,9.604266166687012,0.16102230548858643,2.1215384006500244,0.7111045718193054,-0.4372856020927429,0.06807214766740799,0.6332301497459412,-0.3602278232574463,-0.5137085318565369,-0.4531656801700592,9.468323707580566,0.04970570653676987,-2.3573036193847656,-0.40845853090286255,0.5162175297737122,0.10362257808446884,0.41223379969596863,-0.5879366993904114,-0.5232200622558594,-0.45894941687583923
817019,9.604973793029785,0.16998745501041412,2.0950279235839844,0.4605995714664459,-0.2898460924625397,0.15614141523838043,0.6332839131355286,-0.36010536551475525,-0.5138017535209656,-0.4530821442604065,9.460705757141113,0.07730687409639359,-2.3647491931915283,-0.4476843774318695,0.43458986282348633,0.20663686096668243,0.4121789038181305,-0.5879146456718445,-0.5231906175613403,-0.4590604603290558
817186,9.609973907470703,0.15955963730812073,2.10146164894104,0.33120420575141907,-0.2244953066110611,0.25080594420433044,0.6333413124084473,-0.3599981963634491,-0.5138752460479736,-0.4530036449432373,9.465679168701172,0.06309433281421661,-2.3514187335968018,-0.609031617641449,0.49152687191963196,0.3560229241847992,0.4120108485221863,-0.588038980960846,-0.5229894518852234,-0.4592813551425934
817353,9.601615905761719,0.14799050986766815,2.1010570526123047,0.28691983222961426,0.06711167097091675,0.3059116303920746,0.6334225535392761,-0.35987913608551025,-0.5139167904853821,-0.452937513589859,9.482762336730957,0.06704606115818024,-2.348013401031494,-0.6342089176177979,0.5621412396430969,0.6119194030761719,0.4119560420513153,-0.5880736708641052,-0.5228793025016785,-0.45941147208213806
817519,9.612712860107422,0.13789139688014984,2.1223037242889404,0.26038509607315063,0.04432917758822441,0.35323113203048706,0.6335029602050781,-0.3597685694694519,-0.5139555335044861,-0.4528689682483673,9.485054969787598,0.04007085785269737,-2.3361315727233887,-0.46230921149253845,0.6585217118263245,0.6729416251182556,0.4119606018066406,-0.5880582928657532,-0.5228123068809509,-0.45950332283973694
817686,9.5977783203125,0.14634913206100464,2.1355857849121094,0.5455312132835388,-0.04469415545463562,0.5326352119445801,0.6336008906364441,-0.3596540093421936,-0.5140097141265869,-0.45276159048080444,9.49158763885498,0.013208064250648022,-2.3361120223999023,-0.27260878682136536,0.7939617037773132,0.7703595161437988,0.4120115339756012,-0.5880147218704224,-0.5227586030960083,-0.45957455039024353
817853,9.61992359161377,0.13683778047561646,2.1259360313415527,0.6468167304992676,-0.0019081459613516927,0.6448318362236023,0.6337172389030457,-0.35953283309936523,-0.5140625834465027,-0.4526349604129791,9.477895736694336,0.007432316895574331,-2.3255276679992676,0.1622372269630432,0.684659481048584,0.886116087436676,0.41209015250205994,-0.5879715085029602,-0.5227190256118774,-0.4596043825149536
818019,9.597179412841797,0.1397414207458496,2.1210174560546875,0.5138739943504333,-0.059703197330236435,0.6790887117385864,0.6338250041007996,-0.35942983627319336,-0.5141105055809021,-0.45251142978668213,9.469343185424805,0.014875741675496101,-2.33337140083313,0.6438840627670288,0.5786997079849243,0.8994476795196533,0.4122220575809479,-0.587885856628418,-0.5227410793304443,-0.4595705568790436
818186,9.608064651489258,0.1356344223022461,2.11039662361145,0.5825160145759583,-0.02800748497247696,0.6412843465805054,0.6339357495307922,-0.35931605100631714,-0.5141616463661194,-0.45238837599754333,9.47459888458252,0.02428494021296501,-2.3220584392547607,0.9058763384819031,0.4119994640350342,1.0584768056869507,0.4123378098011017,-0.587849497795105,-0.5227301120758057,-0.45952552556991577
818353,9.62338638305664,0.1455158144235611,2.116492986679077,0.42778974771499634,-0.06459523737430573,0.6937903761863708,0.634040117263794,-0.3592219352722168,-0.5142039656639099,-0.4522688090801239,9.460200309753418,0.017076672986149788,-2.3252720832824707,1.0858696699142456,0.329718679189682,1.0250393152236938,0.41242715716362,-0.5878434181213379,-0.5226962566375732,-0.45949169993400574
