sampleTimeFine,D4:22:CD:00:A9:12_acc_x,D4:22:CD:00:A9:12_acc_y,D4:22:CD:00:A9:12_acc_z,D4:22:CD:00:A9:12_gyro_x,D4:22:CD:00:A9:12_gyro_y,D4:22:CD:00:A9:12_gyro_z,D4:22:CD:00:A9:12_quat_w,D4:22:CD:00:A9:12_quat_x,D4:22:CD:00:A9:12_quat_y,D4:22:CD:00:A9:12_quat_z,D4:22:CD:00:A1:93_acc_x,D4:22:CD:00:A1:93_acc_y,D4:22:CD:00:A1:93_acc_z,D4:22:CD:00:A1:93_gyro_x,D4:22:CD:00:A1:93_gyro_y,D4:22:CD:00:A1:93_gyro_z,D4:22:CD:00:A1:93_quat_w,D4:22:CD:00:A1:93_quat_x,D4:22:CD:00:A1:93_quat_y,D4:22:CD:00:A1:93_quat_z
3838716,-0.23537223041057587,-0.17550648748874664,0.10892398655414581,-0.10563931614160538,0.06441467255353928,-0.12011818587779999,0.6123251914978027,-0.3873899579048157,-0.5020419359207153,-0.47216612100601196,-0.03396691009402275,-0.3779796063899994,0.37511274218559265,-0.005012562498450279,-0.037639643996953964,-0.18252424895763397,0.3485755920410156,-0.6496086716651917,-0.5259774923324585,-0.4240890145301819
3838883,9.6439208984375,0.00194087706040591,1.9471566677093506,0.7854262590408325,-0.26991304755210876,0.18914979696273804,0.612611711025238,-0.38694795966148376,-0.502240002155304,-0.47194623947143555,8.941549301147461,-0.05770333483815193,-3.8751602172851562,-0.7582511305809021,-0.8272645473480225,0.05807039514183998,0.3484913110733032,-0.6497042179107666,-0.5257471203804016,-0.4242975115776062
3839049,9.65036678314209,0.014000851660966873,1.9618178606033325,0.6447932124137878,-0.029992468655109406,0.2192510962486267,0.6128555536270142,-0.3866516351699829,-0.5022484064102173,-0.47186362743377686,8.960677146911621,-0.0434826985001564,-3.8592958450317383,-0.5198737382888794,-0.2998606860637665,0.02057339996099472,0.3483085334300995,-0.6498042941093445,-0.5256635546684265,-0.4243977665901184
3839216,9.664116859436035,0.018850188702344894,1.9636739492416382,0.6482765674591064,0.11700521409511566,0.0833757296204567,0.6131008267402649,-0.38628095388412476,-0.502235472202301,-0.47186222672462463,8.944659233093262,-0.04142678529024124,-3.8578693866729736,-0.33022454380989075,0.042395420372486115,0.08169810473918915,0.34817495942115784,-0.6497873663902283,-0.525582492351532,-0.4246334731578827
3839383,9.650802612304688,0.021553801372647285,1.9907673597335815,0.5665848851203918,0.2562614381313324,0.14480778574943542,0.6132180094718933,-0.3860439360141754,-0.5021578669548035,-0.4719868004322052,8.960573196411133,-0.028734825551509857,-3.848006248474121,-0.2323583960533142,0.6118553280830383,0.20306389033794403,0.34815555810928345,-0.6496778726577759,-0.5255568027496338,-0.4248487949371338
3839549,9.614750862121582,-0.004842628724873066,1.9875202178955078,0.4904383718967438,0.3317676782608032,0.039437152445316315,0.6133291721343994,-0.3858160078525543,-0.502027153968811,-0.4721675217151642,8.988908767700195,-0.02340621128678322,-3.847445487976074,0.010610060766339302,1.1663446426391602,0.28364142775535583,0.34824034571647644,-0.6494826078414917,-0.5255411267280579,-0.42509719729423523
3839716,9.610738754272461,-0.013446539640426636,2.018801212310791,0.36058199405670166,0.5034624934196472,-0.029736345633864403,0.6135087609291077,-0.38559868931770325,-0.5018819570541382,-0.47226613759994507,8.971736907958984,-0.01984315738081932,-3.8148562908172607,0.1232675239443779,1.7254060506820679,0.25275254249572754,0.34837085008621216,-0.6492630839347839,-0.5254731178283691,-0.42540955543518066
3839883,9.628405570983887,-0.008597202599048615,2.0146169662475586,0.4933197498321533,0.3726455569267273,0.11407255381345749,0.6137906908988953,-0.38534489274024963,-0.5017623901367188,-0.4722338318824768,8.957310676574707,-0.023921707645058632,-3.8225343227386475,0.30395227670669556,1.980008840560913,0.21050433814525604,0.3485633134841919,-0.6490026712417603,-0.52540123462677,-0.4257381856441498
3840049,9.630422592163086,-0.007413477636873722,2.0195021629333496,0.6537961363792419,0.34924834966659546,0.1449998915195465,0.613935112953186,-0.3852505683898926,-0.5015506744384766,-0.47234827280044556,8.97846508026123,-0.02939845249056816,-3.783520221710205,0.4600873589515686,2.3171489238739014,0.0735916942358017,0.3487685024738312,-0.648747980594635,-0.5253046751022339,-0.42607712745666504
3840216,9.625845909118652,0.003067156532779336,2.0079948902130127,0.9606490135192871,0.2487313151359558,0.20849376916885376,0.6141975522041321,-0.3850313723087311,-0.501474916934967,-0.47226613759994507,8.945999145507812,-0.005301342811435461,-3.791808843612671,0.6174646019935608,2.541503429412842,0.23989495635032654,0.3490492105484009,-0.6484770178794861,-0.5251824259757996,-0.4264102876186371
3840383,9.624276161193848,0.03512386605143547,2.0203285217285156,0.9660917520523071,0.2801196575164795,0.24857763946056366,0.6143575310707092,-0.38491392135620117,-0.5013527274131775,-0.4722834825515747,8.983957290649414,0.019876547157764435,-3.760802984237671,0.6292336583137512,2.332132577896118,0.41974735260009766,0.34924623370170593,-0.6483216285705566,-0.5249645709991455,-0.4267534017562866
3840549,9.635650634765625,0.04809261113405228,2.0234179496765137,0.7114759683609009,0.21754784882068634,0.3292064368724823,0.6145432591438293,-0.38475480675697327,-0.5012910962104797,-0.472236692905426,8.897682189941406,0.015256826765835285,-3.7471306324005127,0.5523955225944519,2.2644636631011963,0.8902014493942261,0.3495129644870758,-0.6481278538703918,-0.5247954726219177,-0.4270372688770294
3840716,9.63564682006836,0.01660790666937828,1.9843266010284424,0.5663544535636902,0.05179528146982193,0.5369510650634766,0.6146579384803772,-0.3846767842769623,-0.5012083649635315,-0.47223907709121704,8.916725158691406,-0.047891031950712204,-3.755932092666626,0.5974097847938538,1.3403316736221313,1.3456207513809204,0.3497314155101776,-0.6480291485786438,-0.5246421098709106,-0.4271963834762573
3840883,9.63585090637207,0.029875636100769043,2.0165016651153564,0.2571066915988922,-0.041069962084293365,0.6029805541038513,0.6147289872169495,-0.38466209173202515,-0.5011250376701355,-0.47224685549736023,8.83002758026123,-0.05652671307325363,-3.735363245010376,1.0013734102249146,1.0480396747589111,1.9311015605926514,0.3500264883041382,-0.6479769349098206,-0.5244843363761902,-0.4272279143333435
3841049,9.680892944335938,-0.006997024640440941,1.9524290561676025,-0.1265651434659958,-0.23771142959594727,0.9002671837806702,0.6148217916488647,-0.38467177748680115,-0.5010624527931213,-0.47218450903892517,8.817036628723145,-0.03667194023728371,-3.7229864597320557,0.9281594157218933,-0.5008947849273682,1.4088329076766968,0.3501516282558441,-0.6480242609977722,-0.5244208574295044,-0.4271315932273865
3841216,9.606474876403809,-0.0503084659576416,1.9123377799987793,-0.2919079661369324,-0.11711408197879791,1.0986119508743286,0.6148779988288879,-0.3847636580467224,-0.5009559988975525,-0.47214964032173157,8.90619945526123,-0.07825320214033127,-3.754423141479492,0.6494804620742798,-0.7685603499412537,0.7384974360466003,0.35018864274024963,-0.6480578780174255,-0.5244213342666626,-0.4270496070384979
3841383,9.731012344360352,-0.032513827085494995,1.8964948654174805,0.5314698815345764,-1.0631446838378906,0.46134236454963684,0.6148446798324585,-0.38484394550323486,-0.5010260343551636,-0.47205299139022827,8.953949928283691,-0.1264735758304596,-3.7815747261047363,0.8592228293418884,-1.0973503589630127,0.4879026710987091,0.3502182364463806,-0.6480859518051147,-0.5244778394699097,-0.42691314220428467
3841549,9.649858474731445,0.07246115058660507,1.9502774477005005,0.6883732676506042,-0.037471380084753036,0.08514301478862762,0.6148917078971863,-0.38479533791542053,-0.5010839700698853,-0.4719700515270233,8.950571060180664,-0.08608315885066986,-3.7757489681243896,1.0573241710662842,-0.9984726309776306,0.25836169719696045,0.35026541352272034,-0.6481029391288757,-0.5245423913002014,-0.426769495010376
3841716,9.554381370544434,-0.025762997567653656,1.9055105447769165,0.6489424705505371,0.17398065328598022,0.35777735710144043,0.6149910688400269,-0.3847116529941559,-0.5011449456214905,-0.4718441069126129,9.074430465698242,-0.0008289269171655178,-3.755466938018799,0.843727171421051,-0.5644142627716064,-0.16276870667934418,0.3503178358078003,-0.6480576992034912,-0.524632453918457,-0.42668429017066956
3841883,9.694991111755371,0.017591362819075584,2.0071964263916016,0.3954920470714569,0.3973362147808075,0.6109204888343811,0.615020215511322,-0.3847559690475464,-0.5010854005813599,-0.47183313965797424,9.097488403320312,0.050424974411726,-3.750093460083008,0.22683247923851013,0.8064863085746765,-0.334028035402298,0.3503943085670471,-0.6479471921920776,-0.5246184468269348,-0.42680665850639343
3842049,9.611807823181152,0.04105128347873688,2.0136656761169434,0.39864251017570496,0.10957753658294678,0.4719075858592987,0.6150667667388916,-0.38475579023361206,-0.5010933876037598,-0.47176414728164673,9.032578468322754,0.034437622874975204,-3.7330985069274902,-0.4882548451423645,1.532414197921753,-0.2254045456647873,0.3504687249660492,-0.6478112936019897,-0.5245343446731567,-0.4270550012588501
3842216,9.58005142211914,0.06602393835783005,2.0912623405456543,0.23456747829914093,-0.165842205286026,0.13940350711345673,0.6150717735290527,-0.3847470283508301,-0.5011371970176697,-0.4717182219028473,8.983673095703125,0.029361138120293617,-3.719914197921753,-0.8568089008331299,1.8935790061950684,0.26671144366264343,0.350563108921051,-0.6477014422416687,-0.524368166923523,-0.427348256111145
3842383,9.612515449523926,0.016714811325073242,2.0910069942474365,0.12009153515100479,-0.8704347014427185,0.1860058307647705,0.6150270700454712,-0.384786456823349,-0.5012230277061462,-0.471653014421463,8.93895149230957,-0.02018573135137558,-3.7084062099456787,-1.1410201787948608,1.7059276103973389,0.8254908919334412,0.3506286144256592,-0.6476799845695496,-0.524116039276123,-0.42763638496398926
3842549,9.591224670410156,0.010849242098629475,2.0819690227508545,0.40195930004119873,-1.4481933116912842,0.438265323638916,0.614962100982666,-0.38487207889556885,-0.5013400912284851,-0.471543550491333,8.910021781921387,-0.027275480329990387,-3.717069387435913,-0.994080126285553,1.4343433380126953,1.189921259880066,0.35072043538093567,-0.6476850509643555,-0.5238668322563171,-0.42785829305648804
3842716,9.593253135681152,0.022108910605311394,2.0507586002349854,0.504089891910553,-1.7505383491516113,0.4357680380344391,0.6149095892906189,-0.38494008779525757,-0.5015021562576294,-0.47138431668281555,8.94780158996582,-0.04273347184062004,-3.7140679359436035,-0.796388566493988,0.9842513203620911,1.1135059595108032,0.3507794737815857,-0.6477200388908386,-0.5236428380012512,-0.4280311167240143
3842883,9.633554458618164,-0.03284870460629463,2.0120162963867188,0.08580894768238068,-1.6608554124832153,0.365602046251297,0.6148152947425842,-0.3850553035736084,-0.501609742641449,-0.47129854559898376,8.922133445739746,-0.10207640379667282,-3.721811294555664,-0.3467063009738922,0.8834139704704285,0.7720755934715271,0.3508448898792267,-0.647725522518158,-0.5234705209732056,-0.4281802773475647
3843049,9.60834789276123,-0.010666116140782833,1.984877586364746,0.2074052393436432,-1.3503527641296387,0.40627506375312805,0.6147854328155518,-0.3851134181022644,-0.5017178058624268,-0.47117507457733154,8.972847938537598,-0.13451902568340302,-3.747196674346924,0.24399298429489136,0.2510620653629303,0.637532114982605,0.3509317934513092,-0.6477133631706238,-0.523404598236084,-0.42820775508880615
3843216,9.644662857055664,-0.01537072379142046,1.9925674200057983,0.2430196851491928,-1.0689716339111328,0.3113415837287903,0.6147558093070984,-0.38516131043434143,-0.5017964839935303,-0.4710909128189087,8.885956764221191,-0.10569693893194199,-3.745631694793701,1.0839487314224243,0.22181236743927002,0.5846290588378906,0.35110539197921753,-0.6476535201072693,-0.5234054327011108,-0.4281553030014038
3843383,9.607383728027344,0.004394741263240576,1.9117969274520874,0.23534871637821198,-1.0479437112808228,0.6827513575553894,0.6146853566169739,-0.38530978560447693,-0.5017967820167542,-0.47106102108955383,8.881265640258789,-0.03983596712350845,-3.729928970336914,1.3604122400283813,-0.7915477156639099,0.04292048513889313,0.3511975109577179,-0.6476032137870789,-0.5235304832458496,-0.42800283432006836
3843549,9.634227752685547,-0.02708953619003296,1.9701013565063477,0.10792550444602966,-0.9220700263977051,0.5845394134521484,0.6146361827850342,-0.3854258060455322,-0.5018123388290405,-0.47101375460624695,8.938247680664062,-0.027056792750954628,-3.7547447681427,1.2534663677215576,-1.233507752418518,-0.11187629401683807,0.35122740268707275,-0.6475827693939209,-0.5236797332763672,-0.4278261959552765
3843716,9.678963661193848,-0.016845908015966415,1.8856407403945923,0.4070049822330475,-1.8195260763168335,0.4161231219768524,0.6145526766777039,-0.38553935289382935,-0.5019590854644775,-0.47087323665618896,8.933959007263184,-0.017659910023212433,-3.7467257976531982,1.1615550518035889,-1.5015829801559448,-0.052237097173929214,0.3512486517429352,-0.6475651264190674,-0.5238640904426575,-0.4276100695133209
3843883,9.660290718078613,0.024615146219730377,1.922661304473877,0.7706670165061951,-1.1114503145217896,0.19064174592494965,0.6145037412643433,-0.3855798542499542,-0.5020701289176941,-0.47078558802604675,8.95248031616211,0.0014263576595112681,-3.757556200027466,1.006700873374939,-1.5955815315246582,0.1801789402961731,0.35122862458229065,-0.6476173996925354,-0.5239766240119934,-0.4274095594882965
3844049,9.657662391662598,-0.00356839201413095,1.9300113916397095,0.5767403841018677,-1.2890360355377197,0.30274850130081177,0.6144510507583618,-0.385642409324646,-0.5021935701370239,-0.47067129611968994,8.98133659362793,0.03336015343666077,-3.77724027633667,0.5568265318870544,-1.346408486366272,0.41362589597702026,0.35120975971221924,-0.6476782560348511,-0.5240489840507507,-0.42724379897117615
3844216,9.658720016479492,-0.016456609591841698,1.9197015762329102,0.41993945837020874,-1.2904703617095947,0.4391745924949646,0.6143734455108643,-0.38575631380081177,-0.5022807121276855,-0.4705863296985626,8.974637031555176,0.025548025965690613,-3.7959306240081787,-0.05707789584994316,-1.0833019018173218,0.6249690651893616,0.35115838050842285,-0.6477736830711365,-0.5240478515625,-0.4271427094936371
3844383,9.6231689453125,0.00035716273123398423,1.9522548913955688,0.48357415199279785,-0.9780592918395996,0.4660678803920746,0.6143372654914856,-0.3858320116996765,-0.5023556351661682,-0.470491498708725,8.925823211669922,-0.007861977443099022,-3.8194730281829834,-0.5764394998550415,-0.9616288542747498,0.5817604660987854,0.3510686159133911,-0.647875189781189,-0.5240270495414734,-0.4270881116390228
3844549,9.609868049621582,0.04103787988424301,1.9603919982910156,0.1961996704339981,-1.0634520053863525,0.24975581467151642,0.6142512559890747,-0.3859369456768036,-0.5024200677871704,-0.47044897079467773,8.909527778625488,-0.0283049363642931,-3.8156726360321045,-0.8540810346603394,-1.0330754518508911,0.45896032452583313,0.3509383499622345,-0.6479851007461548,-0.5240098237991333,-0.4270496368408203
3844716,9.652018547058105,9.58897071541287e-05,1.9420377016067505,0.1837647259235382,-1.2551759481430054,0.2428276091814041,0.6141616106033325,-0.3860407769680023,-0.5025116205215454,-0.4703831672668457,8.953136444091797,-0.05665566027164459,-3.8181517124176025,-1.0693557262420654,-0.8951895236968994,0.3065391778945923,0.35078030824661255,-0.6480957269668579,-0.5239781737327576,-0.42705047130584717
3844883,9.641254425048828,0.0017061778344213963,1.9054291248321533,0.36069726943969727,-1.1252683401107788,0.28476840257644653,0.6141114830970764,-0.38610440492630005,-0.5026159882545471,-0.47028473019599915,8.99644660949707,-0.05681659281253815,-3.8270933628082275,-1.053027629852295,-0.4905727803707123,0.14082501828670502,0.3506438732147217,-0.6481698751449585,-0.5239423513412476,-0.42709389328956604
3845050,9.65606689453125,0.006156236864626408,1.9032782316207886,0.5620514750480652,-0.8100783824920654,0.24044561386108398,0.61407071352005,-0.3861487805843353,-0.502692461013794,-0.4702199101448059,8.989956855773926,-0.03697926923632622,-3.829007863998413,-1.1567846536636353,0.10038256645202637,0.06814898550510406,0.35054728388786316,-0.6481974720954895,-0.5238903164863586,-0.4271950125694275
3845216,9.639409065246582,0.012910529971122742,1.914048433303833,0.3210360109806061,-0.8264449834823608,0.2357713282108307,0.6140213012695312,-0.3862081468105316,-0.5027615427970886,-0.47016170620918274,8.914899826049805,-0.005028764717280865,-3.806586980819702,-1.3193228244781494,0.33423933386802673,0.012838365510106087,0.3504381775856018,-0.6482292413711548,-0.5238051414489746,-0.4273408055305481
3845383,9.631987571716309,0.01883779466152191,1.9141943454742432,0.07327152788639069,-1.1283290386199951,0.11870844662189484,0.6138880848884583,-0.38634389638900757,-0.5028156042098999,-0.47016641497612,8.925370216369629,-0.020182045176625252,-3.8220784664154053,-1.4302387237548828,0.3525652289390564,0.24896183609962463,0.35036495327949524,-0.6482451558113098,-0.5237390398979187,-0.42745769023895264
3845550,9.666833877563477,-0.0012769674649462104,1.908037781715393,0.14219531416893005,-1.2100849151611328,0.02549104206264019,0.6137506365776062,-0.38646697998046875,-0.5028915405273438,-0.47016340494155884,8.932513236999512,-0.04091344401240349,-3.835707664489746,-1.2150793075561523,0.4508539140224457,0.5504361391067505,0.3503091335296631,-0.648302435874939,-0.5236110091209412,-0.42757341265678406
3845716,9.663606643676758,-0.00440905662253499,1.9171957969665527,0.36923912167549133,-1.167337417602539,0.22962427139282227,0.6136841177940369,-0.38653790950775146,-0.503002405166626,-0.4700734317302704,8.93665599822998,-0.020565727725625038,-3.823908805847168,-1.191246747970581,0.4345899224281311,0.5726935863494873,0.3502536416053772,-0.6483643054962158,-0.5234814882278442,-0.42768365144729614
3845883,9.657541275024414,-0.00014424526307266206,1.9153952598571777,0.24529920518398285,-0.8806670308113098,0.292260080575943,0.6136115193367004,-0.3866313397884369,-0.5030553936958313,-0.4700344502925873,8.982502937316895,-0.048489026725292206,-3.821239948272705,-0.9135279655456543,0.7087482213973999,0.46967923641204834,0.35024842619895935,-0.6483751535415649,-0.5233813524246216,-0.4277939796447754
3846050,9.662654876708984,-0.023295115679502487,1.878678321838379,0.31814172863960266,-0.6650080680847168,0.07457777857780457,0.6135389804840088,-0.38669317960739136,-0.5031023621559143,-0.47002798318862915,9.029624938964844,-0.03800731152296066,-3.791393280029297,-0.5879267454147339,1.3125804662704468,0.2859850227832794,0.35032975673675537,-0.648293137550354,-0.5233193039894104,-0.42792755365371704
3846216,9.657544136047363,-0.012402286753058434,1.9029749631881714,0.688450038433075,-0.35561951994895935,0.0645119845867157,0.6135321259498596,-0.38667649030685425,-0.5031672716140747,-0.46998131275177,9.02059555053711,-0.041011109948158264,-3.768495559692383,-0.18320761620998383,1.8497040271759033,0.2647008001804352,0.35044533014297485,-0.6482095718383789,-0.5231893062591553,-0.4281185269355774
3846383,9.658424377441406,0.005396157968789339,1.9592429399490356,0.5604378581047058,-0.21915505826473236,0.06087498366832733,0.613520622253418,-0.3866698443889618,-0.503205418586731,-0.46996110677719116,8.942540168762207,-0.009488208219408989,-3.758993148803711,0.00889400951564312,2.046448230743408,0.42912155389785767,0.35061943531036377,-0.6480991840362549,-0.5230659246444702,-0.428293913602829
3846550,9.618779182434082,0.01123984344303608,1.9678250551223755,0.7246792316436768,-0.44414982199668884,0.1496742069721222,0.6134713292121887,-0.38670939207077026,-0.5032382011413574,-0.46995750069618225,8.981369972229004,0.03013967163860798,-3.7305548191070557,0.03895051032304764,1.9312422275543213,0.6054393649101257,0.3508383333683014,-0.6479591131210327,-0.522993803024292,-0.4284147322177887
3846716,9.63569164276123,0.016269532963633537,1.951507568359375,0.5329170227050781,-0.6526244282722473,0.3259408175945282,0.6134640574455261,-0.38673317432403564,-0.5033108592033386,-0.4698696434497833,8.864276885986328,-0.006371696945279837,-3.7296037673950195,0.17036926746368408,1.7427456378936768,0.989488959312439,0.3510521352291107,-0.6478844285011292,-0.5228633880615234,-0.42851173877716064
3846883,9.647287368774414,0.02810027077794075,1.9403659105300903,0.6316539645195007,-0.9885604977607727,0.43058153986930847,0.6134294867515564,-0.3867950737476349,-0.5034005641937256,-0.4697677791118622,8.914935111999512,-0.03682439774274826,-3.722728967666626,0.6104850172996521,0.824735164642334,1.5585901737213135,0.35129261016845703,-0.6478631496429443,-0.5227842926979065,-0.4284431040287018
3847050,9.660813331604004,0.031213078647851944,1.953518271446228,0.3699049949645996,-0.8432725071907043,0.4186587631702423,0.6133714318275452,-0.3868887722492218,-0.503444492816925,-0.4697193503379822,8.761929512023926,-0.017756905406713486,-3.716252088546753,0.871094286441803,0.11339381337165833,1.6576859951019287,0.35148367285728455,-0.6479131579399109,-0.5227075815200806,-0.42830440402030945
3847216,9.657188415527344,-0.029832741245627403,1.8783526420593262,-0.20534983277320862,-1.1798362731933594,0.7789270281791687,0.6132941842079163,-0.3870681822299957,-0.5034692287445068,-0.4696459174156189,8.895212173461914,0.013067387044429779,-3.727027416229248,0.5660982131958008,-1.3675003051757812,0.9708043336868286,0.35150203108787537,-0.6480044722557068,-0.5227711200714111,-0.4280736744403839
3847383,9.633872985839844,-0.014421134255826473,1.810299038887024,-0.36938637495040894,-1.0690101385116577,0.39820703864097595,0.6131877303123474,-0.3872300386428833,-0.5034927725791931,-0.4696262776851654,8.964174270629883,-0.07580336928367615,-3.749913215637207,0.2770846486091614,-1.6331298351287842,0.48278024792671204,0.35142505168914795,-0.6481097936630249,-0.5228514671325684,-0.427879273891449
3847550,9.74834156036377,0.004650614690035582,1.8096970319747925,0.3842737078666687,-1.3982739448547363,-0.24093863368034363,0.6130231618881226,-0.38733577728271484,-0.5036084055900574,-0.46963006258010864,9.046770095825195,-0.09489432722330093,-3.754195213317871,0.8548431396484375,-1.372162103652954,0.5909938812255859,0.3514394760131836,-0.6481665372848511,-0.5229575634002686,-0.4276517331600189
3847716,9.6524076461792,0.07463017851114273,1.8637597560882568,0.7251404523849487,-0.07452015578746796,-0.41979217529296875,0.6130066514015198,-0.3872596025466919,-0.5036789178848267,-0.4696385860443115,9.035951614379883,-0.03562258929014206,-3.7160284519195557,1.0291374921798706,-0.7403607368469238,0.216075137257576,0.35151150822639465,-0.6481282711029053,-0.5230990648269653,-0.42747732996940613
3847883,9.66549015045166,-0.016407638788223267,1.9113397598266602,0.2394595444202423,0.42780256271362305,0.0510525181889534,0.6130341291427612,-0.38722264766693115,-0.5036489963531494,-0.46966540813446045,9.071578979492188,0.020913660526275635,-3.7440099716186523,0.6255581974983215,-0.0004610285977832973,-0.12915202975273132,0.3515639305114746,-0.6480587720870972,-0.5231831669807434,-0.42743661999702454
3848050,9.657830238342285,0.025923926383256912,1.9573190212249756,0.05009203404188156,0.31515783071517944,0.2341320812702179,0.6130296587944031,-0.3872518241405487,-0.5035837292671204,-0.4697171449661255,9.047451972961426,0.04517526179552078,-3.7012181282043457,-0.06841151416301727,0.9943041801452637,-0.3748418390750885,0.3516092002391815,-0.6479455828666687,-0.5231935381889343,-0.42755845189094543
3848216,9.580229759216309,0.05119340866804123,1.996403455734253,0.4843169152736664,-0.3215033710002899,0.04772285744547844,0.6129550337791443,-0.38730964064598083,-0.5035849213600159,-0.46976542472839355,8.9229736328125,0.05085308477282524,-3.6969690322875977,-0.6187259554862976,1.3827080726623535,-0.10172083228826523,0.35165494680404663,-0.6478482484817505,-0.5231329202651978,-0.4277421534061432
3848383,9.580587387084961,0.06872755289077759,2.0084266662597656,0.20498481392860413,-0.6728455424308777,-0.14685039222240448,0.6128902435302734,-0.3873317241668701,-0.5036610960960388,-0.46975019574165344,8.918171882629395,0.023357469588518143,-3.691147804260254,-0.9809151887893677,0.9764778017997742,0.26846593618392944,0.3516559302806854,-0.6478245854377747,-0.5230331420898438,-0.42789945006370544
3848550,9.626758575439453,0.0261605866253376,1.9911614656448364,0.1962893307209015,-1.2444186210632324,0.2024235725402832,0.6127927899360657,-0.3874332904815674,-0.5037544369697571,-0.46969348192214966,8.965006828308105,0.002630415838211775,-3.6992835998535156,-1.1888902187347412,0.8211238980293274,0.7872766852378845,0.35164570808410645,-0.6478743553161621,-0.5228617191314697,-0.4280420243740082
3848716,9.571325302124023,0.008721324615180492,1.9715492725372314,0.48582810163497925,-1.4751378297805786,0.5515246391296387,0.6127129197120667,-0.3875562846660614,-0.5038619041442871,-0.46958106756210327,8.988767623901367,-0.01716858707368374,-3.7138848304748535,-1.2254524230957031,0.7435302138328552,0.9887717962265015,0.35166528820991516,-0.6479130983352661,-0.5227129459381104,-0.42814871668815613
3848883,9.590970993041992,0.011404359713196754,1.9546618461608887,0.43656203150749207,-1.2363890409469604,0.34319090843200684,0.6126204133033752,-0.3876662850379944,-0.5039436221122742,-0.4695230722427368,8.9635009765625,-0.03137831762433052,-3.7126121520996094,-1.13454008102417,0.7660694122314453,0.823454737663269,0.351667195558548,-0.6479548811912537,-0.5225570201873779,-0.42827436327934265
3849050,9.626493453979492,0.01048771757632494,1.9329997301101685,0.07594805955886841,-1.094725251197815,0.35350003838539124,0.6125335693359375,-0.3877836763858795,-0.5039985775947571,-0.46948057413101196,8.9398193359375,-0.10646995157003403,-3.7445857524871826,-0.6094413995742798,0.1862107366323471,0.6253917813301086,0.3516634404659271,-0.6479898691177368,-0.5224830508232117,-0.4283149540424347
3849216,9.67246150970459,0.030830854550004005,1.9199875593185425,0.2332228422164917,-0.9460819363594055,0.2366037368774414,0.6124576926231384,-0.3878691792488098,-0.5040562748908997,-0.4694470465183258,8.915120124816895,-0.10111726075410843,-3.7413065433502197,0.19258826971054077,-0.15183207392692566,0.7023577690124512,0.35170820355415344,-0.6480198502540588,-0.5224577784538269,-0.42826327681541443
3849383,9.616228103637695,0.0275166854262352,1.8994094133377075,0.38792353868484497,-1.078819751739502,0.46797603368759155,0.6123661994934082,-0.3879994750022888,-0.5040979385375977,-0.469414085149765,8.824780464172363,-0.04553598165512085,-3.7460780143737793,0.5450126528739929,-1.292801022529602,0.3471929430961609,0.35168907046318054,-0.6480632424354553,-0.5225627422332764,-0.42808523774147034
3849550,9.643176078796387,-0.0072916653007268906,1.8663755655288696,0.44217121601104736,-1.1436326503753662,0.7660951018333435,0.6123603582382202,-0.38807836174964905,-0.504188060760498,-0.46925944089889526,8.881988525390625,-0.04287070408463478,-3.7601373195648193,0.6442810893058777,-2.2066879272460938,-0.1479133516550064,0.35159778594970703,-0.6480982303619385,-0.5227963328361511,-0.4278221130371094
3849716,9.675004959106445,-0.02246011793613434,1.8435641527175903,0.16618157923221588,-1.6105520725250244,0.4158669710159302,0.6122716665267944,-0.38819828629493713,-0.5043134093284607,-0.4691413938999176,8.921586036682129,-0.06068802252411842,-3.7666139602661133,0.9666552543640137,-2.575984477996826,-0.01123116910457611,0.35151851177215576,-0.6481487154960632,-0.5230583548545837,-0.4274904429912567
3849883,9.757022857666016,0.05951035022735596,1.8131606578826904,0.9842897057533264,-0.9393073916435242,-0.021220121532678604,0.6122434139251709,-0.38817355036735535,-0.5044557452201843,-0.4690457880496979,8.944808006286621,-0.0011263107880949974,-3.780313491821289,1.089493751525879,-2.680650472640991,0.0985768660902977,0.35143646597862244,-0.6482238173484802,-0.523303210735321,-0.4271441102027893
3850050,9.643060684204102,0.004380853846669197,1.8367829322814941,0.4740206301212311,-0.5281209945678711,0.12868459522724152,0.6122005581855774,-0.3882043659687042,-0.5044987797737122,-0.46902990341186523,8.950414657592773,0.046729978173971176,-3.7853620052337646,0.7846130728721619,-2.4952406883239746,0.1862107217311859,0.35132578015327454,-0.648332417011261,-0.523483395576477,-0.4268494248390198
3850216,9.677471160888672,0.00590789457783103,1.813913106918335,0.1666170060634613,-0.5990554094314575,0.28460192680358887,0.612101137638092,-0.38832715153694153,-0.5044817328453064,-0.46907615661621094,8.910162925720215,0.06498277187347412,-3.8249878883361816,0.24366003274917603,-2.372709274291992,0.3784980773925781,0.35119393467903137,-0.6484630107879639,-0.5236214399337769,-0.42659005522727966
3850383,9.64411449432373,0.026849882677197456,1.859137773513794,0.21070927381515503,-0.43253442645072937,0.16117431223392487,0.6120695471763611,-0.3883589208126068,-0.504512369632721,-0.4690580368041992,8.925145149230957,0.0315403938293457,-3.8359289169311523,-0.4116857349872589,-2.452441692352295,0.665244996547699,0.3510102331638336,-0.6486538052558899,-0.5236968398094177,-0.4263586103916168
3850550,9.624492645263672,0.04374416917562485,1.8679925203323364,0.054126035422086716,-0.49420982599258423,0.01523315254598856,0.6120136380195618,-0.3883990943431854,-0.5045456290245056,-0.4690621495246887,8.920914649963379,0.008958795107901096,-3.8466739654541016,-0.6895579695701599,-2.2714879512786865,0.7756102681159973,0.35084351897239685,-0.6488267779350281,-0.5237722992897034,-0.42614004015922546
3850716,9.66201400756836,0.035676244646310806,1.851212978363037,-0.10196414589881897,-0.5926778316497803,-0.008221675641834736,0.6119252443313599,-0.3884732127189636,-0.5045666694641113,-0.4690934717655182,8.93410873413086,-0.009357060305774212,-3.845912218093872,-1.0161069631576538,-2.158766269683838,0.8158861398696899,0.35063332319259644,-0.6490402221679688,-0.5237841606140137,-0.42597320675849915
3850883,9.640954971313477,0.016708016395568848,1.8429806232452393,-0.04459170624613762,-0.4060508906841278,0.17298175394535065,0.6117966175079346,-0.38861775398254395,-0.5045073628425598,-0.4692053496837616,8.966116905212402,-0.043741144239902496,-3.8970131874084473,-1.0728776454925537,-1.7867037057876587,0.610613226890564,0.35047879815101624,-0.649161696434021,-0.5238633751869202,-0.42581796646118164
3851216,9.663416862487793,0.04748114198446274,1.8518062829971313,-0.056104615330696106,-0.1813507229089737,-0.13264815509319305,0.6116257309913635,-0.38874104619026184,-0.504485011100769,-0.4693499207496643,8.967703819274902,-0.05532451346516609,-3.8879354000091553,-0.9456977844238281,-1.2636666297912598,0.36446231603622437,0.35032081604003906,-0.6492747068405151,-0.5238869190216064,-0.42574670910835266
3851383,9.652112007141113,0.03834766894578934,1.865943431854248,-0.06611919403076172,0.053831495344638824,-0.07085754722356796,0.6116235256195068,-0.3887171149253845,-0.5044912099838257,-0.4693659245967865,8.971637725830078,-0.032239288091659546,-3.8688318729400635,-0.7039650082588196,-0.7177062034606934,0.05112934857606888,0.3502083420753479,-0.6493170857429504,-0.5239287614822388,-0.42572319507598877
3851550,9.66252326965332,0.038873009383678436,1.8671413660049438,-0.22417514026165009,0.27061739563941956,-0.13267378509044647,0.6115574836730957,-0.3887600302696228,-0.5044151544570923,-0.46949830651283264,8.946043014526367,-0.02420019544661045,-3.877077102661133,-0.5566151738166809,-0.13664373755455017,-0.11824101954698563,0.3501114845275879,-0.6493424773216248,-0.523917555809021,-0.4257778823375702
3851716,9.667847633361816,0.022927064448595047,1.881231665611267,-0.23746812343597412,0.22397662699222565,-0.07261200994253159,0.6115193367004395,-0.38878071308135986,-0.5043627023696899,-0.4695869982242584,8.952322959899902,-0.015413453802466393,-3.85813045501709,-0.4642429053783417,0.3954792320728302,-0.2063487023115158,0.35009127855300903,-0.6492828130722046,-0.5239444971084595,-0.4258522391319275
3851883,9.662333488464355,0.022415554150938988,1.8735893964767456,0.05265330523252487,0.263906866312027,-0.06583744287490845,0.6114982962608337,-0.3887762427330017,-0.5043237805366516,-0.4696599245071411,8.963913917541504,0.004996195435523987,-3.856424570083618,-0.43435293436050415,0.8785219192504883,-0.10061948746442795,0.35012152791023254,-0.6491939425468445,-0.5239464044570923,-0.42596057057380676
3852050,9.673369407653809,0.027729911729693413,1.8971993923187256,0.24711771309375763,0.4650689661502838,0.07462900131940842,0.6115064024925232,-0.3887577950954437,-0.5042669773101807,-0.46972569823265076,9.023157119750977,0.012979854829609394,-3.8344850540161133,-0.44274112582206726,1.6260799169540405,-0.08028300851583481,0.35020712018013,-0.6490626931190491,-0.5239056944847107,-0.4261404275894165
3852216,9.655418395996094,0.042238883674144745,1.9084141254425049,0.3472121059894562,0.6337669491767883,0.003092733444646001,0.611517071723938,-0.3887247145175934,-0.5041971802711487,-0.4698140323162079,8.994024276733398,0.020489756017923355,-3.8105931282043457,-0.32329630851745605,2.399327278137207,0.12435605376958847,0.35037028789520264,-0.6488988995552063,-0.5238057971000671,-0.42637816071510315
3852383,9.625093460083008,0.019079066812992096,1.9562604427337646,0.37609049677848816,0.6339463591575623,0.05109092965722084,0.6115478873252869,-0.3886755108833313,-0.5041393041610718,-0.4698767364025116,9.01033878326416,0.046996671706438065,-3.7907004356384277,-0.43385347723960876,2.521909475326538,0.25573641061782837,0.3505384922027588,-0.6487447619438171,-0.5236780047416687,-0.4266311824321747
3852550,9.63761043548584,0.03775044530630112,1.9250116348266602,0.5018487572669983,0.38961395621299744,0.208224818110466,0.6115905046463013,-0.38863062858581543,-0.5041114091873169,-0.46988824009895325,8.983593940734863,0.024305468425154686,-3.7478744983673096,-0.4108661115169525,3.128917694091797,0.5106595754623413,0.3507833182811737,-0.648554801940918,-0.5235167145729065,-0.42691707611083984
3852716,9.630451202392578,0.05898238718509674,1.9657195806503296,0.29201680421829224,0.432848185300827,0.22673000395298004,0.6116265654563904,-0.3886013925075531,-0.5040647387504578,-0.4699155390262604,8.903772354125977,-0.04767831042408943,-3.7309389114379883,0.08924105018377304,2.757661819458008,1.1813410520553589,0.35106751322746277,-0.6484389305114746,-0.5233094692230225,-0.42711371183395386
3852883,9.667825698852539,0.011783602647483349,1.9481961727142334,-0.10452542454004288,-0.26433584094047546,0.5813633799552917,0.6116092205047607,-0.38868531584739685,-0.5040284991264343,-0.46990767121315,8.78841781616211,-0.029009157791733742,-3.735361099243164,0.541343629360199,1.7750306129455566,1.490870475769043,0.3513466715812683,-0.6483752727508545,-0.5231619477272034,-0.42716124653816223
3853050,9.62631893157959,-0.03973570466041565,1.8327499628067017,-0.3419167101383209,-0.33596178889274597,0.7137170433998108,0.611562967300415,-0.3888259530067444,-0.5039578080177307,-0.4699273109436035,8.799747467041016,0.004106605891138315,-3.7540409564971924,0.7102081179618835,0.3940961956977844,0.9303621649742126,0.3515073359012604,-0.6483389139175415,-0.5231577157974243,-0.42708951234817505
3853216,9.69917106628418,0.011297238990664482,1.8091460466384888,0.07598646730184555,-0.5365732312202454,0.09315977990627289,0.61151522397995,-0.38886362314224243,-0.503995418548584,-0.4699179530143738,8.899211883544922,-0.05119403079152107,-3.7455103397369385,0.6849027276039124,-0.6307126879692078,0.3083576560020447,0.3515418469905853,-0.6483278870582581,-0.5232537984848022,-0.42696014046669006
3853383,9.720708847045898,0.11914227902889252,1.84657883644104,0.7119241952896118,0.042036838829517365,-0.6396003365516663,0.6114680767059326,-0.3887815475463867,-0.5040442943572998,-0.4699949026107788,8.947404861450195,-0.0940333753824234,-3.754664421081543,1.1346875429153442,-0.9171907901763916,0.2744337022304535,0.3515927493572235,-0.6483124494552612,-0.5233912467956543,-0.42677316069602966
3853550,9.696784973144531,0.02463061921298504,1.8495972156524658,-0.026880526915192604,1.048065185546875,-0.14285482466220856,0.61150062084198,-0.38871610164642334,-0.5039384365081787,-0.4701201617717743,8.955090522766113,-0.03134334832429886,-3.748584270477295,1.7334226369857788,-0.8972256183624268,0.14958456158638,0.35169509053230286,-0.6482546925544739,-0.5235774517059326,-0.42654797434806824
3853716,9.649956703186035,0.01516452245414257,1.878948450088501,-0.10697143524885178,1.5282649993896484,0.14758676290512085,0.6115644574165344,-0.3886669874191284,-0.5037523508071899,-0.47027719020843506,8.997637748718262,0.048383112996816635,-3.7566001415252686,1.4957369565963745,-0.7172837257385254,-0.21235491335391998,0.3517734110355377,-0.6481615900993347,-0.5237844586372375,-0.42637088894844055
3853883,9.648689270019531,0.03176970034837723,1.9327350854873657,0.19085943698883057,1.3986262083053589,0.021636327728629112,0.6116316318511963,-0.38858580589294434,-0.5036092400550842,-0.4704100787639618,9.031033515930176,0.08086681365966797,-3.766526222229004,0.9246377348899841,-0.08029581606388092,-0.4226864278316498,0.3518301546573639,-0.6480448246002197,-0.523939311504364,-0.4263112246990204
3854050,9.57845401763916,0.10145144164562225,1.95955228805542,0.27355003356933594,1.2127037048339844,-0.19336308538913727,0.6117041707038879,-0.38846245408058167,-0.5035244822502136,-0.4705083668231964,8.997419357299805,0.08044677972793579,-3.7469425201416016,0.3209207057952881,0.528217077255249,-0.10411561280488968,0.3518848121166229,-0.6479576230049133,-0.523979902267456,-0.42634856700897217
3854216,9.655294418334961,0.07720615714788437,1.987265706062317,0.2272166758775711,0.9464853405952454,0.036683786660432816,0.6117565035820007,-0.3883923888206482,-0.5034353733062744,-0.47059357166290283,8.942545890808105,0.08733632415533066,-3.7467074394226074,-0.25435975193977356,0.7696425318717957,0.27782735228538513,0.3519340753555298,-0.647904098033905,-0.5239483118057251,-0.4264281094074249
3854383,9.626953125,0.0364198237657547,1.951164722442627,0.30427244305610657,0.5683521628379822,0.2664553225040436,0.6117783188819885,-0.3883821666240692,-0.5033524036407471,-0.47066226601600647,8.953272819519043,0.07507442682981491,-3.755357503890991,-0.649474024772644,0.8767162561416626,0.9312329292297363,0.3520008623600006,-0.6479051113128662,-0.5238360166549683,-0.42650964856147766
3854550,9.567745208740234,0.04835747554898262,1.9545189142227173,0.4281482696533203,0.5431749820709229,0.4158414304256439,0.6117962598800659,-0.38839438557624817,-0.5032550096511841,-0.4707329571247101,8.948298454284668,0.058356352150440216,-3.7427732944488525,-0.9956807494163513,0.7567079067230225,1.442705512046814,0.35205909609794617,-0.6479669213294983,-0.5236638784408569,-0.42657896876335144
3854716,9.613110542297363,0.03138450160622597,1.9454991817474365,0.39577385783195496,0.4444507956504822,0.4648897349834442,0.6118388175964355,-0.388386607170105,-0.5031862854957581,-0.47075748443603516,8.941659927368164,0.008376145735383034,-3.739691734313965,-0.891910970211029,0.7090555429458618,1.563443899154663,0.35211795568466187,-0.6480497717857361,-0.5234712362289429,-0.4266408681869507
3854883,9.66130256652832,0.05532614514231682,1.9543548822402954,0.5012853145599365,0.6441657543182373,0.37464338541030884,0.6119188070297241,-0.388324111700058,-0.5031307935714722,-0.4707643389701843,8.92061996459961,-0.07829094678163528,-3.782383918762207,-0.5872479677200317,0.5382061004638672,1.433408498764038,0.35220977663993835,-0.64808589220047,-0.5233578681945801,-0.4266493320465088
3855050,9.655348777770996,0.029234761372208595,1.9458966255187988,0.6077829003334045,0.8704283237457275,0.5194319486618042,0.6120223999023438,-0.38825610280036926,-0.5030469298362732,-0.470775306224823,9.018509864807129,-0.09989628940820694,-3.791034698486328,0.20648320019245148,0.4635707139968872,1.6213544607162476,0.35234934091567993,-0.6481415033340454,-0.5232287049293518,-0.4266078770160675
3855216,9.626032829284668,0.007787703536450863,1.902203917503357,0.4557843506336212,0.9195790886878967,1.0306614637374878,0.6121423840522766,-0.38825052976608276,-0.5029075741767883,-0.47077304124832153,8.903600692749023,-0.06807660311460495,-3.761047601699829,1.0554544925689697,0.4182874262332916,1.365790843963623,0.3525409996509552,-0.6481485366821289,-0.5231642127037048,-0.426518052816391
3855383,9.640721321105957,0.02222595177590847,1.976501226425171,0.29485979676246643,1.0288301706314087,0.9515054225921631,0.6122701168060303,-0.3882305324077606,-0.5027638673782349,-0.4707769453525543,8.947795867919922,-0.04261316359043121,-3.749079942703247,1.3538169860839844,-0.040570516139268875,0.6481741666793823,0.3526979684829712,-0.6480937004089355,-0.5232350826263428,-0.4263847768306732
3855550,9.746302604675293,0.06489982455968857,1.928654432296753,0.7731257677078247,0.610024094581604,0.49237218499183655,0.6123750805854797,-0.3881496787071228,-0.5027256011962891,-0.4707479178905487,8.936230659484863,-0.055144984275102615,-3.7408621311187744,1.629819393157959,-0.10129823535680771,0.4322079122066498,0.3528560698032379,-0.6480199694633484,-0.5233362317085266,-0.4262417256832123
3855716,9.63768482208252,0.039592843502759933,1.936743974685669,0.44351592659950256,0.852051317691803,0.6039795279502869,0.6124799847602844,-0.3880961239337921,-0.5026321411132812,-0.47075536847114563,8.928940773010254,-0.023396914824843407,-3.742929458618164,1.907691478729248,-0.32460254430770874,0.5957065224647522,0.3530500531196594,-0.6479377150535583,-0.5234760046005249,-0.4260343015193939
3855883,9.641490936279297,0.016170458868145943,1.9314955472946167,0.6147240400314331,0.6809840202331543,1.031711459159851,0.6126124262809753,-0.3880688548088074,-0.5025423169136047,-0.4707013666629791,8.933698654174805,0.0436994805932045,-3.749018907546997,1.8285738229751587,-0.4011460840702057,0.7921303510665894,0.35323676466941833,-0.6478863954544067,-0.5235872864723206,-0.4258207380771637
3856050,9.64901065826416,0.028141427785158157,1.930859923362732,0.7023451328277588,0.5422143936157227,1.071283221244812,0.612723708152771,-0.3880658745765686,-0.5024533271789551,-0.4706539511680603,8.936059951782227,0.03768082708120346,-3.7465527057647705,1.3645998239517212,-0.5839567184448242,1.1081398725509644,0.3533940613269806,-0.6478819251060486,-0.5236647725105286,-0.42560192942619324
3856216,9.59967041015625,0.0468250997364521,1.9310743808746338,0.7497157454490662,0.5142838358879089,0.9345881342887878,0.6128281950950623,-0.3880484402179718,-0.5023794174194336,-0.4706113338470459,8.927216529846191,0.03263954073190689,-3.765491485595703,0.7548382878303528,-0.5854038596153259,1.3288956880569458,0.3534843623638153,-0.6479533910751343,-0.5236490964889526,-0.4254375994205475
3856383,9.624726295471191,0.04788640886545181,1.9270031452178955,0.4949462413787842,0.5057932138442993,1.064880132675171,0.6129224300384521,-0.38806799054145813,-0.5022779107093811,-0.4705808162689209,8.957423210144043,-0.006651696749031544,-3.7844088077545166,0.4127550423145294,-0.8913987278938293,1.73725163936615,0.35355067253112793,-0.6480828523635864,-0.5236012935638428,-0.425244003534317
3856550,9.630047798156738,0.0278529841452837,1.9323902130126953,0.6013798117637634,0.45141738653182983,1.1391953229904175,0.6130416393280029,-0.3880678415298462,-0.5021993517875671,-0.47050952911376953,8.95695972442627,-0.02991603873670101,-3.773826837539673,0.17408309876918793,-0.5941377878189087,1.9016083478927612,0.3536425232887268,-0.6481989622116089,-0.5235326290130615,-0.42507490515708923
3856716,9.646478652954102,0.03543929383158684,1.9559767246246338,0.3465590476989746,0.5562118291854858,1.114146113395691,0.6131156086921692,-0.38812020421028137,-0.5020651817321777,-0.4705130457878113,8.936250686645508,-0.06341362744569778,-3.799333095550537,0.05110373720526695,-0.6583744883537292,1.8628053665161133,0.35368841886520386,-0.6483554840087891,-0.5234219431877136,-0.4249342978000641
3856883,9.655675888061523,0.020571451634168625,1.9319294691085815,0.31077805161476135,0.4318365156650543,1.0488336086273193,0.6131861209869385,-0.38816553354263306,-0.5019538998603821,-0.4705025255680084,8.97070026397705,-0.09914371371269226,-3.8271303176879883,0.23256970942020416,-0.6022570133209229,1.4688818454742432,0.3537513017654419,-0.6484439373016357,-0.5233887434005737,-0.4247879385948181
3857050,9.646836280822754,0.01135396771132946,1.9614790678024292,0.20622706413269043,0.5743840336799622,0.9203348159790039,0.6132805943489075,-0.3881707489490509,-0.5018534660339355,-0.4704822301864624,8.950523376464844,-0.1054912731051445,-3.805548667907715,0.3929179608821869,-0.427373468875885,1.286980390548706,0.3538282513618469,-0.6485036015510559,-0.5233687162399292,-0.4246574938297272
3857216,9.664082527160645,0.02404465526342392,1.9479992389678955,0.22054454684257507,0.6676909923553467,0.8081254363059998,0.6133512258529663,-0.3881852626800537,-0.5017322301864624,-0.47050750255584717,8.962129592895508,-0.09870963543653488,-3.804957389831543,0.6082183718681335,-0.15477754175662994,0.8183705806732178,0.3539116680622101,-0.6485068798065186,-0.5233833193778992,-0.42456501722335815
3857383,9.652109146118164,0.00756335724145174,1.9473015069961548,0.020445337519049644,0.6600328683853149,0.6534631848335266,0.6134114861488342,-0.38819363713264465,-0.5016168355941772,-0.4705449640750885,8.951131820678711,-0.08713698387145996,-3.8062381744384766,0.7028828859329224,0.1847763955593109,0.6858376264572144,0.354031503200531,-0.6484615802764893,-0.5234148502349854,-0.4244953691959381
3857550,9.634591102600098,0.008849523030221462,1.9578337669372559,-0.069768987596035,0.7052136063575745,0.5743327140808105,0.6134534478187561,-0.3882131576538086,-0.5014862418174744,-0.4706135094165802,8.991629600524902,-0.06095867231488228,-3.8000805377960205,0.7110533118247986,0.5341207981109619,0.5641389489173889,0.3541802167892456,-0.6483734846115112,-0.5234549641609192,-0.42445632815361023
3857716,9.626943588256836,0.0013183827977627516,1.9561774730682373,0.042036838829517365,0.681406557559967,0.5263729691505432,0.6135127544403076,-0.38820332288742065,-0.5013815760612488,-0.4706559479236603,8.98627758026123,-0.05032312124967575,-3.801227569580078,0.4778112769126892,1.1892808675765991,0.43795791268348694,0.35434773564338684,-0.6482484936714172,-0.5234577059745789,-0.42450401186943054
3857883,9.6378812789917,-0.003680216381326318,1.9909189939498901,0.19641737639904022,0.8123515248298645,0.5720916390419006,0.6136232018470764,-0.3881417512893677,-0.5012981295585632,-0.4706513285636902,8.986666679382324,-0.026549074798822403,-3.802992343902588,0.20785345137119293,1.7100765705108643,0.5536633133888245,0.3545301854610443,-0.6481214165687561,-0.5233967900276184,-0.4246208667755127
3858050,9.617637634277344,0.013195804320275784,1.989266037940979,0.1927163302898407,0.9621217250823975,0.5711054801940918,0.61371248960495,-0.38810428977012634,-0.5011741518974304,-0.47069793939590454,9.051675796508789,-0.022634336724877357,-3.7756593227386475,-0.18949556350708008,2.235764741897583,0.8300371170043945,0.3547230362892151,-0.6480140089988708,-0.5232445597648621,-0.4248111844062805
3858216,9.623032569885254,-0.011473768390715122,2.0019147396087646,0.2036401480436325,1.0015782117843628,0.5882276296615601,0.6138010621070862,-0.3880695700645447,-0.501041829586029,-0.4707518517971039,9.021341323852539,-0.04997019097208977,-3.7745184898376465,-0.5458962321281433,3.1332719326019287,0.956909716129303,0.35495421290397644,-0.6478834748268127,-0.52300626039505,-0.42511072754859924
3858383,9.609539985656738,0.01822158508002758,2.002261161804199,0.29895785450935364,0.8615792989730835,0.6269668936729431,0.6138864755630493,-0.3880399167537689,-0.500924825668335,-0.4707895517349243,8.97652816772461,-0.08916104584932327,-3.7558822631835938,-0.4603370428085327,3.1229755878448486,1.3145909309387207,0.35522085428237915,-0.6477680802345276,-0.5227500796318054,-0.42537885904312134
3858550,9.678858757019043,0.0008438026998192072,2.0517094135284424,-0.15487998723983765,0.5444555878639221,0.679562509059906,0.6139261722564697,-0.38807663321495056,-0.5008012652397156,-0.4708390235900879,8.921468734741211,-0.1109461560845375,-3.757772445678711,-0.1880740523338318,2.9499616622924805,1.3863961696624756,0.35549888014793396,-0.6476606726646423,-0.5225051045417786,-0.4256109297275543
3858716,9.591529846191406,-0.039976995438337326,1.9390785694122314,-0.3476283550262451,0.341116338968277,0.8959641456604004,0.6139624714851379,-0.38815179467201233,-0.5006762742996216,-0.4708627462387085,8.813404083251953,-0.09603793174028397,-3.720324754714966,-0.062328506261110306,2.0114614963531494,1.1310888528823853,0.3556978404521942,-0.6475903391838074,-0.5223344564437866,-0.42576125264167786
3858883,9.679251670837402,-0.04882238060235977,1.8963267803192139,0.3836462199687958,-0.24884018301963806,0.4462948739528656,0.6139641404151917,-0.3881717324256897,-0.5006774663925171,-0.4708426594734192,8.904404640197754,-0.11542496085166931,-3.721231698989868,-0.11507786810398102,1.200230360031128,0.3980534076690674,0.35579854249954224,-0.6475002765655518,-0.5222935080528259,-0.4258643388748169
3859050,9.742707252502441,0.06313483417034149,1.9387320280075073,0.8555473685264587,0.07466742396354675,-0.325562983751297,0.6139761805534363,-0.38805779814720154,-0.5007368326187134,-0.4708576202392578,8.967951774597168,-0.1545959860086441,-3.7172460556030273,0.15894600749015808,0.771038293838501,0.06552368402481079,0.35585448145866394,-0.6474183797836304,-0.522296130657196,-0.4259386658668518
3859216,9.58349895477295,-0.02190420590341091,1.938827633857727,0.490848183631897,1.1241222620010376,-0.16581661999225616,0.6140584349632263,-0.3879118859767914,-0.5006722807884216,-0.4709392189979553,8.980623245239258,-0.11687470972537994,-3.718230724334717,0.4793480634689331,0.7441321611404419,-0.013882082886993885,0.35593685507774353,-0.6473122239112854,-0.5223317742347717,-0.42598751187324524
3859383,9.663376808166504,-0.02640562690794468,1.9594084024429321,0.5039234161376953,1.3645997047424316,0.11697958409786224,0.6141662001609802,-0.3877815008163452,-0.500561535358429,-0.47102412581443787,9.029637336730957,-0.04336296021938324,-3.682743787765503,0.33672377467155457,0.8138243556022644,-0.2715074419975281,0.3560009300708771,-0.6471825838088989,-0.5223879218101501,-0.42606213688850403
3859550,9.630118370056152,0.02792302705347538,2.0195200443267822,-0.05646319314837456,0.5981782078742981,0.10599175095558167,0.6141878366470337,-0.3877507150173187,-0.5004830956459045,-0.4711045026779175,9.08696460723877,0.008397397585213184,-3.654041290283203,-0.051993779838085175,1.3542394638061523,-0.4955160915851593,0.35605308413505554,-0.6470248103141785,-0.5224094986915588,-0.4262317419052124
3859716,9.582279205322266,0.0916403979063034,2.051884651184082,-0.6319037079811096,0.08794760704040527,-0.20016323029994965,0.6141073107719421,-0.3877957761287689,-0.5004182457923889,-0.4712413549423218,9.013129234313965,-0.0006403615698218346,-3.680123805999756,-0.5820485353469849,1.8176372051239014,-0.5716882348060608,0.3560868501663208,-0.6468573808670044,-0.5223836898803711,-0.4264892339706421
3859883,9.602922439575195,0.041947461664676666,2.074202299118042,-0.9596565365791321,-0.6422512531280518,-0.18885521590709686,0.6139662265777588,-0.38790860772132874,-0.5004041194915771,-0.47134697437286377,8.953349113464355,-0.025570927187800407,-3.662360906600952,-0.6808878779411316,1.6744619607925415,-0.27410703897476196,0.3561200499534607,-0.6467236280441284,-0.5223342776298523,-0.42672473192214966
3860050,9.599346160888672,0.010981617495417595,2.015599012374878,-0.5262768864631653,-1.109311580657959,-0.10703546553850174,0.6138022541999817,-0.3880399763584137,-0.5004405975341797,-0.4714137017726898,8.936899185180664,-0.024222804233431816,-3.6685917377471924,-0.8268163800239563,1.4323710203170776,0.0834909975528717,0.3561314642429352,-0.6466538310050964,-0.5222358703613281,-0.4269413948059082
3860216,9.608743667602539,0.014891072176396847,2.0146944522857666,-0.5078742504119873,-0.8842912912368774,-0.11017303168773651,0.6136502027511597,-0.38815993070602417,-0.5004531741142273,-0.4714996814727783,8.96745491027832,-0.030506296083331108,-3.684452533721924,-0.7207925319671631,1.2146501541137695,0.41941434144973755,0.35615935921669006,-0.6466140151023865,-0.522128164768219,-0.42711031436920166
3860383,9.608975410461426,0.007674540858715773,2.0023863315582275,-0.5437063574790955,-0.5516847372055054,-0.2046198546886444,0.6135547161102295,-0.3882100582122803,-0.5004727244377136,-0.4715619683265686,9.008947372436523,-0.07207272946834564,-3.6885008811950684,-0.38448506593704224,1.1928539276123047,0.6214601397514343,0.35623157024383545,-0.6465698480606079,-0.5220277905464172,-0.42723941802978516
3860550,9.64748477935791,0.0032794810831546783,1.998355746269226,-0.3837294578552246,0.04382973536849022,-0.16638009250164032,0.6134898066520691,-0.3882330656051636,-0.5004274249076843,-0.47167566418647766,9.028642654418945,-0.06270424276590347,-3.704554796218872,-0.08503416180610657,1.4306550025939941,0.4303637742996216,0.35634303092956543,-0.6464754939079285,-0.5219584703445435,-0.4273739457130432
3860716,9.635186195373535,0.006759092211723328,2.0164942741394043,-0.23371589183807373,0.03855351731181145,-0.23892807960510254,0.6134347915649414,-0.38823002576828003,-0.5004027485847473,-0.4717758893966675,9.044758796691895,-0.1165333017706871,-3.720808744430542,0.6157227754592896,1.8420331478118896,0.46089407801628113,0.3565490245819092,-0.6463263630867004,-0.5219022631645203,-0.42749664187431335
3860883,9.613421440124512,0.013560977764427662,2.0304667949676514,-0.27513161301612854,0.16235247254371643,0.16693714261054993,0.6134064197540283,-0.3882606327533722,-0.5003337860107422,-0.4718608260154724,8.996407508850098,-0.09823592752218246,-3.7228457927703857,1.401341438293457,2.618943452835083,0.49704647064208984,0.356896311044693,-0.646083414554596,-0.521860659122467,-0.4276248812675476
3861050,9.6392240524292,-0.014111788012087345,2.0119597911834717,-0.4377979040145874,0.07455217093229294,0.30081480741500854,0.6133962869644165,-0.3882949948310852,-0.500274121761322,-0.4719087481498718,8.943041801452637,-0.06398943066596985,-3.7193703651428223,1.8334146738052368,2.093844413757324,0.3252620995044708,0.3572279214859009,-0.6458437442779541,-0.5218810439109802,-0.4276847541332245
3861216,9.624553680419922,-0.018789393827319145,1.9342095851898193,-0.283558189868927,-0.568909227848053,0.21764390170574188,0.6133283376693726,-0.3883686363697052,-0.5002750158309937,-0.471935510635376,8.995964050292969,-0.0368829220533371,-3.7386670112609863,1.7851346731185913,2.1522417068481445,-0.005532343406230211,0.35754433274269104,-0.6455713510513306,-0.5219355225563049,-0.4277651906013489
3861383,9.72299575805664,0.041912760585546494,1.966807246208191,0.3891145586967468,0.37332433462142944,-0.03347579762339592,0.6133365631103516,-0.38831257820129395,-0.5002418160438538,-0.47200605273246765,8.988703727722168,-0.04079294204711914,-3.705604076385498,1.7749792337417603,2.251093626022339,0.00939345732331276,0.3578607141971588,-0.6453020572662354,-0.521973192691803,-0.4278610050678253
3861550,9.650395393371582,0.011229290626943111,2.0034878253936768,0.3738878071308136,0.4389568269252777,0.23224957287311554,0.6133668422698975,-0.3882732391357422,-0.5001866817474365,-0.4720577299594879,9.007697105407715,0.0024461192078888416,-3.66567325592041,1.5971759557724,2.360933780670166,0.17939774692058563,0.3581812083721161,-0.6450446248054504,-0.5219826102256775,-0.42796939611434937
3861717,9.657261848449707,0.01195526123046875,1.9856139421463013,0.12385661154985428,0.5659958124160767,0.42789214849472046,0.6134299039840698,-0.3882351815700531,-0.5001125335693359,-0.472085565328598,9.051450729370117,0.041548412293195724,-3.6767380237579346,1.2692054510116577,2.826995372772217,0.3751172125339508,0.35851535201072693,-0.6447923183441162,-0.5219258069992065,-0.4281390607357025
3861883,9.604145050048828,0.04306391626596451,2.00810170173645,0.2519841194152832,0.7844849228858948,0.3386959433555603,0.6134777665138245,-0.3881976902484894,-0.5000059604644775,-0.47216716408729553,9.041096687316895,0.022444747388362885,-3.6849520206451416,0.6616208553314209,3.5187690258026123,0.42403748631477356,0.358852356672287,-0.644525945186615,-0.5217985510826111,-0.4284129738807678
3862050,9.604652404785156,0.06108877435326576,2.0067529678344727,-0.14435316622257233,0.5488736629486084,0.2989834249019623,0.613503098487854,-0.38818809390068054,-0.4999115765094757,-0.472242146730423,9.01469898223877,-0.014147053472697735,-3.67384934425354,0.3070002496242523,3.803800344467163,0.61903977394104,0.3591637909412384,-0.644303560256958,-0.5215789675712585,-0.42875391244888306
3862217,9.620952606201172,0.04085816815495491,1.996628761291504,-0.24383290112018585,0.33220311999320984,0.3694952130317688,0.6135231256484985,-0.3881952166557312,-0.49983498454093933,-0.47229132056236267,9.011738777160645,-0.022491533309221268,-3.662186622619629,0.04137092083692551,4.0070624351501465,0.6769117712974548,0.3594794273376465,-0.6440736651420593,-0.5213431715965271,-0.42912113666534424
3862383,9.628501892089844,0.047631505876779556,1.9814119338989258,-0.2562934458255768,0.27070701122283936,0.542047917842865,0.6135389804840088,-0.3882307708263397,-0.4997446835041046,-0.47233709692955017,8.990781784057617,-0.03171040117740631,-3.6574180126190186,-0.10274534672498703,4.151710033416748,0.8179992437362671,0.35980674624443054,-0.6438457369804382,-0.5210868120193481,-0.42949995398521423
3862550,9.636974334716797,0.0411229245364666,1.96380615234375,-0.280190110206604,0.48038536310195923,0.45989522337913513,0.6135687828063965,-0.3882415294647217,-0.4996436834335327,-0.4723961353302002,9.015922546386719,-0.042451731860637665,-3.6468772888183594,-0.17347480356693268,4.033942222595215,0.7522897720336914,0.36012259125709534,-0.6436131000518799,-0.520852267742157,-0.42986825108528137
3862717,9.639373779296875,0.0027393747586756945,1.9788585901260376,-0.17334674298763275,0.4589219093322754,0.39197033643722534,0.6135684847831726,-0.38826924562454224,-0.4995321035385132,-0.4724917709827423,9.02566146850586,-0.04940977320075035,-3.6223347187042236,-0.20509368181228638,4.083400249481201,0.7664151787757874,0.3604331612586975,-0.6433870792388916,-0.5206027626991272,-0.4302486181259155
3862883,9.639934539794922,0.013757669366896152,1.9795558452606201,-0.09265394508838654,0.5319309234619141,0.44186386466026306,0.613592267036438,-0.38827741146087646,-0.49942547082901,-0.4725668430328369,9.031111717224121,-0.04094710573554039,-3.5714752674102783,-0.24850726127624512,3.9436967372894287,0.5108646154403687,0.3607098460197449,-0.6431551575660706,-0.5203779339790344,-0.4306352138519287
3863050,9.64552116394043,0.036302078515291214,1.9516292810440063,-0.06862923502922058,0.5160127282142639,0.39781007170677185,0.6136311292648315,-0.38826343417167664,-0.4993387460708618,-0.4726196229457855,9.018204689025879,-0.07802057266235352,-3.529991865158081,-0.13590100407600403,3.849595785140991,0.19608445465564728,0.3609762191772461,-0.6428915858268738,-0.5202043652534485,-0.431015282869339
3863217,9.597755432128906,0.011664986610412598,1.9155346155166626,-0.7845809459686279,-0.369463175535202,0.38004761934280396,0.6135760545730591,-0.3883596956729889,-0.49929362535476685,-0.47265973687171936,8.928980827331543,-0.11838929355144501,-3.5074052810668945,0.17248229682445526,3.2438673973083496,-0.24487018585205078,0.3611903190612793,-0.6426241993904114,-0.5201120972633362,-0.431345671415329
3863383,9.657916069030762,-0.04168010875582695,1.8575185537338257,-2.904019355773926,-2.1196815967559814,0.6038642525672913,0.6132701635360718,-0.3888009488582611,-0.4992314279079437,-0.4727596342563629,8.922121047973633,-0.16242380440235138,-3.515718698501587,0.812863826751709,1.8307509422302246,-0.3857272267341614,0.3613491654396057,-0.6424003839492798,-0.5201482176780701,-0.43150267004966736
3863550,9.623255729675293,-0.011811824515461922,1.94868803024292,-1.2074466943740845,-1.8904989957809448,0.34089863300323486,0.6130515933036804,-0.38906311988830566,-0.4992755353450775,-0.4727807939052582,8.946938514709473,-0.13930374383926392,-3.5198755264282227,1.7065036296844482,0.7803484797477722,-0.4171668589115143,0.3615143597126007,-0.6421895623207092,-0.5203033685684204,-0.43149107694625854
3863717,9.626766204833984,0.0018299403600394726,1.9961187839508057,-0.5398901104927063,-0.8980452418327332,0.0341225191950798,0.6129216551780701,-0.3891753852367401,-0.49929454922676086,-0.47283682227134705,9.002713203430176,-0.08159000426530838,-3.522867202758789,2.2483277320861816,0.0012486192863434553,-0.5581263303756714,0.3616527020931244,-0.6419985890388489,-0.52053302526474,-0.4313824474811554
3863883,9.660584449768066,-0.0047134412452578545,2.01857590675354,0.20192411541938782,-0.032028678804636,0.015937499701976776,0.6128931641578674,-0.38916274905204773,-0.49928635358810425,-0.4728928208351135,9.13365364074707,-0.03911416977643967,-3.551806926727295,2.424197196960449,-0.007222781889140606,-0.6215561628341675,0.36180105805397034,-0.6417954564094543,-0.5207775831222534,-0.4312646985054016
3864050,9.624667167663574,0.006668299902230501,2.039966106414795,0.4348844587802887,0.815963089466095,0.08962523937225342,0.6129419207572937,-0.38907837867736816,-0.4992122948169708,-0.4729771614074707,9.139564514160156,-0.04838506132364273,-3.568615198135376,2.2558836936950684,0.42768728733062744,-0.5867869257926941,0.3619753420352936,-0.6415692567825317,-0.5209949016571045,-0.43119263648986816
3864217,9.653594970703125,0.0006330569740384817,2.079676866531372,0.7227967977523804,1.305306315422058,0.08683344721794128,0.6130451560020447,-0.3889315724372864,-0.4991164207458496,-0.47306540608406067,9.198780059814453,-0.044318605214357376,-3.592475414276123,2.2864904403686523,1.1588016748428345,-0.001536761992610991,0.36225199699401855,-0.6413317918777466,-0.5211312770843506,-0.4311487674713135
3864383,9.602364540100098,-0.021120786666870117,2.098437786102295,0.7322350740432739,1.3827848434448242,0.5826184749603271,0.6131865978240967,-0.3888159394264221,-0.49898403882980347,-0.47311654686927795,9.088738441467285,0.007902290672063828,-3.544987678527832,1.9606971740722656,2.124490261077881,0.283231645822525,0.36258062720298767,-0.6410802006721497,-0.5211590528488159,-0.43121302127838135
3864550,9.613612174987793,-0.028010999783873558,2.0510265827178955,0.817730188369751,0.8763449788093567,0.34566259384155273,0.6132625341415405,-0.3887283205986023,-0.49890056252479553,-0.4731781482696533,9.118852615356445,-0.001542986137792468,-3.5599701404571533,1.349206566810608,2.4818897247314453,0.06239893659949303,0.36285048723220825,-0.6408364772796631,-0.5211309194564819,-0.431382417678833
3864717,9.700150489807129,0.05717075988650322,2.0768589973449707,1.1261199712753296,-0.5841232538223267,-0.18936750292778015,0.6132380962371826,-0.38864991068840027,-0.4990183711051941,-0.47314995527267456,9.128643989562988,-0.05342024192214012,-3.582580327987671,0.8779585361480713,3.4613709449768066,-0.118010513484478,0.3631404638290405,-0.6405392289161682,-0.521041989326477,-0.4316873550415039
3864883,9.577229499816895,0.07365979999303818,2.1137185096740723,0.6797930598258972,0.5509867668151855,-0.19586032629013062,0.613264799118042,-0.38853734731674194,-0.49900010228157043,-0.4732271134853363,9.081155776977539,-0.10666190087795258,-3.5680718421936035,1.2835869789123535,4.252367973327637,0.16903740167617798,0.36355677247047424,-0.6401813626289368,-0.5209243297576904,-0.4320097267627716
3865050,9.61976146697998,0.01887522265315056,2.0236542224884033,0.3984631597995758,0.4463973045349121,0.19584108889102936,0.6133113503456116,-0.3884691894054413,-0.49896177649497986,-0.47326332330703735,9.12563705444336,-0.06747488677501678,-3.5580408573150635,1.5950757265090942,4.682366847991943,0.023570086807012558,0.36401212215423584,-0.6397808194160461,-0.5208009481430054,-0.4323681592941284
3865217,9.672986030578613,0.0318961925804615,2.0856833457946777,0.26591745018959045,0.5628327131271362,0.4348844587802887,0.6133699417114258,-0.3884269595146179,-0.49888619780540466,-0.4733017086982727,9.185957908630371,-0.012034011073410511,-3.5058915615081787,1.5503431558609009,5.8679656982421875,-0.005634794011712074,0.36455589532852173,-0.6393012404441833,-0.5206205248832703,-0.432836651802063
3865383,9.597790718078613,0.088063083589077,2.0923526287078857,0.4141637980937958,1.1503881216049194,0.17996123433113098,0.6134666204452515,-0.38830751180648804,-0.4987861216068268,-0.4733799397945404,9.151277542114258,0.03429771587252617,-3.4483554363250732,1.1016472578048706,7.036405563354492,-0.2988618016242981,0.3651241064071655,-0.6387503147125244,-0.520374059677124,-0.4334666430950165
3865550,9.598526000976562,0.07212747633457184,2.072495937347412,-0.38212868571281433,1.3951557874679565,0.017730392515659332,0.6135448813438416,-0.38820990920066833,-0.49863412976264954,-0.47351858019828796,9.154326438903809,0.011134601198136806,-3.438288688659668,0.5434567332267761,7.674007892608643,-0.17640750110149384,0.3656976819038391,-0.6381953954696655,-0.5200491547584534,-0.43418988585472107
3865717,9.60044002532959,0.02015032432973385,2.0515477657318115,0.13995419442653656,1.555452823638916,0.33977171778678894,0.6136606931686401,-0.3881024420261383,-0.49846524000167847,-0.47363436222076416,9.123741149902344,0.01986232027411461,-3.4089765548706055,0.3354303538799286,7.9871745109558105,0.2879187762737274,0.3663053512573242,-0.637663722038269,-0.5196530222892761,-0.4349324107170105
3865883,9.531745910644531,0.0298478901386261,2.0385451316833496,0.2900318205356598,1.011567234992981,0.5747426152229309,0.6137617230415344,-0.38803601264953613,-0.49834156036376953,-0.47368818521499634,9.048318862915039,0.0064617907628417015,-3.377058982849121,0.022814517840743065,7.761604309082031,0.8788167834281921,0.36690908670425415,-0.6372009515762329,-0.5192011594772339,-0.4356411397457123
3866050,9.621467590332031,0.0034653448965400457,2.0311999320983887,-0.2931501567363739,0.3687908351421356,0.5951943397521973,0.6137929558753967,-0.38805854320526123,-0.49824059009552,-0.4737354815006256,9.019737243652344,-0.031019756570458412,-3.373650074005127,-0.1839248239994049,6.736711502075195,1.1256591081619263,0.3674295246601105,-0.6368334293365479,-0.5187652111053467,-0.43625858426094055
3866217,9.630232810974121,0.004809998907148838,2.011051654815674,-0.12839645147323608,0.4421328008174896,0.6672428250312805,0.6138333678245544,-0.38807713985443115,-0.4981316328048706,-0.47378233075141907,9.054228782653809,-0.034773219376802444,-3.3444225788116455,-0.16223083436489105,5.920228004455566,1.2752498388290405,0.36790141463279724,-0.6365244388580322,-0.5183637142181396,-0.43678879737854004
3866383,9.650962829589844,0.0020341977942734957,2.0316638946533203,-0.13345496356487274,0.9994009733200073,0.6164143681526184,0.6139084696769714,-0.3880557417869568,-0.4979742467403412,-0.47386810183525085,9.012666702270508,-0.10193615406751633,-3.333766460418701,0.10910368710756302,4.830432891845703,1.260804295539856,0.36832308769226074,-0.6362617611885071,-0.5180477499961853,-0.43719083070755005
3866550,9.640363693237305,0.016147755086421967,2.045424222946167,0.04658308997750282,1.1670106649398804,0.7003856301307678,0.6140268445014954,-0.3879985213279724,-0.49782100319862366,-0.4739226698875427,9.081214904785156,-0.11291682720184326,-3.3555681705474854,0.49225690960884094,3.975404977798462,1.3519729375839233,0.36871781945228577,-0.636042594909668,-0.5177892446517944,-0.4374830424785614
3866717,9.613134384155273,-0.03552674129605293,1.9833624362945557,-0.24516476690769196,1.0562613010406494,1.0391649007797241,0.6141316294670105,-0.38801056146621704,-0.497629314661026,-0.4739781618118286,9.013998985290527,-0.09339926391839981,-3.335373640060425,1.001770257949829,3.0070784091949463,1.0960763692855835,0.3690727651119232,-0.6358365416526794,-0.5176412463188171,-0.4376586675643921
3866883,9.613813400268555,-0.009890275076031685,1.9812850952148438,-0.015277974307537079,1.0685681104660034,0.8162190914154053,0.6142372488975525,-0.38798290491104126,-0.4974669814109802,-0.47403430938720703,9.032612800598145,-0.0898975059390068,-3.3450675010681152,1.069016456604004,2.125425100326538,0.6114456057548523,0.36933448910713196,-0.6356481909751892,-0.5175871849060059,-0.43777504563331604
3867050,9.707294464111328,0.042339712381362915,1.97870934009552,0.7477179765701294,0.9458834528923035,0.5884197950363159,0.6143661141395569,-0.38787445425987244,-0.4973852038383484,-0.4740419089794159,9.071824073791504,-0.08918490260839462,-3.362640857696533,1.2313882112503052,1.6086632013320923,0.3807904124259949,0.3695560097694397,-0.6354685425758362,-0.5175905227661133,-0.4378448724746704
3867217,9.612122535705566,0.011375918053090572,2.0069870948791504,0.6517856121063232,0.8641533851623535,0.571272075176239,0.6144818663597107,-0.3877790570259094,-0.49730560183525085,-0.4740535318851471,9.110552787780762,-0.03181283921003342,-3.3635175228118896,1.2377527952194214,1.377495527267456,0.3633609116077423,0.3697594702243805,-0.6353020071983337,-0.517608642578125,-0.43789350986480713
3867383,9.610249519348145,0.030991513282060623,2.02264404296875,0.681086540222168,0.7253836989402771,0.647482693195343,0.6145837903022766,-0.3877067267894745,-0.4972277283668518,-0.47406211495399475,9.150765419006348,0.0070542399771511555,-3.3297860622406006,0.7225534319877625,1.4242134094238281,0.38089287281036377,0.3699200451374054,-0.6351611018180847,-0.5175905823707581,-0.43798375129699707
3867550,9.618444442749023,0.02386142686009407,2.026139497756958,0.5905711650848389,0.8341607451438904,0.5883429050445557,0.6146912574768066,-0.38762322068214417,-0.49714332818984985,-0.47407954931259155,9.20234203338623,0.029547490179538727,-3.317037343978882,-0.04420751333236694,1.834464430809021,0.45110997557640076,0.3700452744960785,-0.6350393891334534,-0.5174964070320129,-0.4381657540798187
3867717,9.613308906555176,0.05087946355342865,2.0673344135284424,0.22156904637813568,0.8113526105880737,0.541049063205719,0.6147711277008057,-0.38757193088531494,-0.4970375597476959,-0.4741290211677551,9.21037483215332,0.04315783455967903,-3.328275680541992,-0.7213561534881592,2.5525295734405518,0.681381106376648,0.37017688155174255,-0.6349241733551025,-0.5173004269599915,-0.4384526014328003
3867883,9.621171951293945,0.04147295653820038,2.0895798206329346,-0.18745936453342438,0.8733354806900024,0.5189581513404846,0.6148314476013184,-0.3875501751899719,-0.49689993262290955,-0.47421279549598694,9.197537422180176,0.010707184672355652,-3.341459035873413,-1.5670875310897827,3.0304884910583496,1.0803759098052979,0.370290607213974,-0.6348538994789124,-0.5169878602027893,-0.43882688879966736
3868050,9.613846778869629,0.014630263671278954,2.074042797088623,0.25713232159614563,0.6336517930030823,0.43188777565956116,0.6148816347122192,-0.387509822845459,-0.4968099892139435,-0.47427499294281006,9.209800720214844,-0.028323575854301453,-3.32484769821167,-1.9209012985229492,3.467940330505371,1.4180279970169067,0.3704250752925873,-0.6347999572753906,-0.5165978074073792,-0.4392507076263428
3868217,9.630104064941406,0.00994900893419981,2.1115965843200684,0.09190476685762405,0.6794856190681458,0.4332195222377777,0.6149577498435974,-0.3874511122703552,-0.4967288374900818,-0.4743092656135559,9.209132194519043,-0.07489971071481705,-3.3196427822113037,-1.9085428714752197,4.128017902374268,1.7600085735321045,0.3706313967704773,-0.6347285509109497,-0.5161411762237549,-0.4397163987159729
3868383,9.644916534423828,-0.007023671176284552,2.083444833755493,-0.09664952754974365,0.5281658172607422,0.45450374484062195,0.6149985790252686,-0.3874356150627136,-0.496634840965271,-0.4743673801422119,9.24811840057373,-0.12186221778392792,-3.314680814743042,-1.5257614850997925,4.835287570953369,1.5919640064239502,0.3709164261817932,-0.6345768570899963,-0.5156878232955933,-0.4402264356613159
3868550,9.619283676147461,-0.00979934073984623,2.118108034133911,-0.5940481424331665,0.569543182849884,0.4022922217845917,0.6150140762329102,-0.3874550461769104,-0.49650806188583374,-0.47446417808532715,9.23090648651123,-0.13324874639511108,-3.2950351238250732,-0.966725766658783,5.886548042297363,1.279271125793457,0.37131235003471375,-0.6343034505844116,-0.515242874622345,-0.4408077299594879
3868717,9.603800773620605,0.007452453952282667,2.1257383823394775,-0.8633784651756287,0.7758278846740723,0.3591861128807068,0.6150123476982117,-0.38749364018440247,-0.4963357448577881,-0.4746150076389313,9.209213256835938,-0.16580107808113098,-3.281510591506958,-0.33229920268058777,6.4466471672058105,1.0179320573806763,0.3717922866344452,-0.6339392066001892,-0.5148323178291321,-0.44140636920928955
3868883,9.608603477478027,-0.0022557300981134176,2.130631685256958,-0.6855623126029968,0.8424720764160156,0.462149053812027,0.6150496602058411,-0.38750311732292175,-0.4961765706539154,-0.4747254252433777,9.184003829956055,-0.13129061460494995,-3.2726218700408936,0.32394304871559143,7.086105823516846,0.7859577536582947,0.37236618995666504,-0.6334799528121948,-0.51445072889328,-0.4420260488986969
3869050,9.599507331848145,-0.010661576874554157,2.12764835357666,-0.6068288683891296,0.9282106757164001,0.35394829511642456,0.6150856614112854,-0.3874959349632263,-0.4960172772407532,-0.474851131439209,9.203829765319824,-0.11337707936763763,-3.2613272666931152,0.8910852670669556,7.328070640563965,0.49872419238090515,0.37298819422721863,-0.6329559087753296,-0.514114499092102,-0.44264355301856995
3869217,9.60197925567627,-0.010055437684059143,2.1161701679229736,-0.5486496686935425,0.8227631449699402,0.4233587384223938,0.615114688873291,-0.3875024914741516,-0.49586158990859985,-0.4749707579612732,9.218765258789062,-0.06891434639692307,-3.224214792251587,1.2328611612319946,7.765881538391113,0.574230432510376,0.37367913126945496,-0.632389485836029,-0.5137693285942078,-0.44327035546302795
3869383,9.610133171081543,-0.027117954567074776,2.111067771911621,-0.6288173794746399,1.2901692390441895,0.3304230570793152,0.6151666641235352,-0.38747692108154297,-0.49566343426704407,-0.4751310646533966,9.27100658416748,-0.0537107028067112,-3.2305803298950195,1.3497703075408936,8.339579582214355,0.48260095715522766,0.37441718578338623,-0.6317718625068665,-0.5134086608886719,-0.4439454674720764
3869550,9.617635726928711,-0.018446173518896103,2.1379683017730713,-0.5021882653236389,1.6567127704620361,0.5655860304832458,0.6152828931808472,-0.38741838932037354,-0.4954387843608856,-0.47526273131370544,9.30034351348877,-0.02838551253080368,-3.1905922889709473,1.2852518558502197,9.240852355957031,0.4382013976573944,0.37521111965179443,-0.6310967803001404,-0.5129963159561157,-0.4447116255760193
3869717,9.605224609375,-0.004915537778288126,2.136227607727051,-0.4875505268573761,1.8405221700668335,0.5910834074020386,0.6153952479362488,-0.38736554980278015,-0.49518176913261414,-0.47542804479599,9.364204406738281,-0.05993267893791199,-3.155003786087036,1.2929999828338623,9.847105979919434,0.7432615756988525,0.37607112526893616,-0.6304018497467041,-0.5125245451927185,-0.4455142319202423
3869883,9.612000465393066,-0.009209743700921535,2.09367036819458,-0.24223212897777557,1.366687297821045,0.7205941081047058,0.6154944896697998,-0.38733386993408203,-0.4949754774570465,-0.4755401611328125,9.268349647521973,-0.0778234601020813,-3.1209471225738525,1.3308172225952148,10.773070335388184,0.8759738802909851,0.37700995802879333,-0.629654049873352,-0.5119900107383728,-0.44639185070991516
3870050,9.622493743896484,0.005293520167469978,2.141671895980835,0.2280234694480896,1.3572875261306763,0.9865819811820984,0.6156436204910278,-0.38727495074272156,-0.4947918653488159,-0.47558626532554626,9.232918739318848,-0.12039275467395782,-3.1106717586517334,1.7976347208023071,10.45512866973877,1.3911352157592773,0.37799951434135437,-0.6289387941360474,-0.5114540457725525,-0.44717708230018616
3870217,9.628320693969727,-0.00156554882414639,2.1320436000823975,-0.42976832389831543,0.8142340779304504,1.3043203353881836,0.6157390475273132,-0.38733547925949097,-0.49459293484687805,-0.47562023997306824,9.150145530700684,-0.14228788018226624,-3.063377618789673,2.4925200939178467,10.477179527282715,1.8289844989776611,0.37908416986465454,-0.6282126903533936,-0.5109238028526306,-0.447885125875473
3870383,9.57115364074707,-0.04982477053999901,2.061948776245117,-0.7965294122695923,0.8392577171325684,1.3164353370666504,0.6158157587051392,-0.3874277174472809,-0.4943656623363495,-0.47568222880363464,9.057024002075195,-0.09990323334932327,-3.051431655883789,2.5960593223571777,8.818614959716797,1.426979899406433,0.3800269365310669,-0.6275589466094971,-0.5105262994766235,-0.44845572113990784
3870550,9.703815460205078,-0.048471830785274506,2.0183115005493164,0.17806588113307953,0.18420012295246124,0.6149672865867615,0.6158602833747864,-0.38742050528526306,-0.4943101108074188,-0.47568798065185547,9.192365646362305,-0.10262985527515411,-3.013338088989258,2.3588085174560547,7.959936618804932,0.8722599148750305,0.38084858655929565,-0.6269306540489197,-0.5102130174636841,-0.4489935040473938
3870717,9.67520809173584,0.07936035096645355,2.097641706466675,0.19279319047927856,1.325706958770752,0.0249403677880764,0.6159377098083496,-0.387298583984375,-0.49418091773986816,-0.475821316242218,9.233295440673828,-0.14687412977218628,-2.9771854877471924,2.4258368015289307,7.236170768737793,0.772844135761261,0.38161325454711914,-0.6263399124145508,-0.5099502205848694,-0.44946715235710144
3870883,9.556209564208984,-0.05202268809080124,2.0630698204040527,-0.3082231879234314,1.9500036239624023,0.3387727737426758,0.6160708665847778,-0.38718491792678833,-0.4939567744731903,-0.47597408294677734,9.257491111755371,-0.08457151800394058,-2.948761463165283,2.4636409282684326,7.295426845550537,0.7182377576828003,0.38238346576690674,-0.6257367134094238,-0.509692907333374,-0.4499441683292389
3871050,9.642401695251465,-0.029162807390093803,2.0985584259033203,0.11167778074741364,1.9684321880340576,0.7301220297813416,0.6162335872650146,-0.3870796859264374,-0.49372223019599915,-0.47609245777130127,9.306888580322266,-0.03548360988497734,-2.9095773696899414,2.0119738578796387,7.00518274307251,0.49991509318351746,0.3830736577510834,-0.6251628994941711,-0.5094387531280518,-0.45044225454330444
3871217,9.587515830993652,0.0017649398650974035,2.159226417541504,0.4964445233345032,1.808160424232483,0.6421168446540833,0.6163951754570007,-0.3869491219520569,-0.49352988600730896,-0.4761888086795807,9.365443229675293,-0.0026616742834448814,-2.8781394958496094,1.3038467168807983,7.423477649688721,0.0994093120098114,0.38370266556739807,-0.6245709657669067,-0.5091502070426941,-0.45105382800102234
3871383,9.588810920715332,0.0524594821035862,2.194540500640869,0.3796890377998352,1.9646027088165283,0.290006160736084,0.6165691614151001,-0.38676607608795166,-0.49335774779319763,-0.47629067301750183,9.346977233886719,-0.02167852409183979,-2.8610289096832275,0.4739822745323181,7.903472423553467,-0.10161840170621872,0.384286105632782,-0.6239699125289917,-0.508807897567749,-0.4517746567726135
3871550,9.575362205505371,0.03066655807197094,2.227320671081543,-0.22873418033123016,1.7381607294082642,0.5153722167015076,0.6166935563087463,-0.3866811692714691,-0.49314066767692566,-0.47642338275909424,9.326147079467773,-0.08264005184173584,-2.822711229324341,0.05986969545483589,8.004687309265137,0.28545355796813965,0.3848641514778137,-0.6234126091003418,-0.5083972215652466,-0.45251375436782837
3871717,9.54560661315918,-0.019880617037415504,2.1593871116638184,-0.35272520780563354,1.6101740598678589,0.8078179955482483,0.6168318390846252,-0.38662824034690857,-0.4929167628288269,-0.4765188694000244,9.294238090515137,-0.06141189858317375,-2.807527542114258,-0.1308809071779251,7.766994953155518,0.807933509349823,0.38544127345085144,-0.6229190230369568,-0.507939338684082,-0.4532160460948944
3871883,9.55763053894043,-0.023867430165410042,2.2018823623657227,-0.11048037558794022,1.3366178274154663,0.9966732859611511,0.6169756054878235,-0.3865871727466583,-0.4927222430706024,-0.47656723856925964,9.29681396484375,-0.06339950859546661,-2.7808096408843994,-0.3808096647262573,7.439984321594238,1.2222574949264526,0.3859982192516327,-0.6224905252456665,-0.5074451565742493,-0.45388373732566833
3872050,9.575493812561035,-0.013548974879086018,2.1817080974578857,-0.3667866587638855,1.1666520833969116,0.8159758448600769,0.6170818209648132,-0.386566698551178,-0.49253594875335693,-0.47663888335227966,9.357731819152832,-0.07690881937742233,-2.7703633308410645,-0.5229346752166748,7.312100887298584,1.2161873579025269,0.386523962020874,-0.6220840811729431,-0.5069400072097778,-0.4545578062534332
3872217,9.589839935302734,-0.03820215165615082,2.2239503860473633,-0.24504955112934113,1.6806477308273315,0.5357216596603394,0.6172059774398804,-0.38648438453674316,-0.49232348799705505,-0.4767645597457886,9.333995819091797,-0.14568616449832916,-2.765291690826416,-0.54315584897995,7.462126731872559,1.2716643810272217,0.3870701491832733,-0.6216647028923035,-0.5064283609390259,-0.4552364647388458
3872383,9.576650619506836,-0.01736808381974697,2.2133865356445312,-0.25178566575050354,1.5860856771469116,0.4471784830093384,0.617312490940094,-0.3864063024520874,-0.49212023615837097,-0.476899653673172,9.393525123596191,-0.16899645328521729,-2.7700021266937256,0.06116953492164612,7.195753574371338,1.3525874614715576,0.38765662908554077,-0.6212341785430908,-0.5059636831283569,-0.455841600894928
3872550,9.540037155151367,-0.10286535322666168,2.16115140914917,-0.2276584804058075,1.4183608293533325,0.8023881912231445,0.617437481880188,-0.3863597512245178,-0.491916298866272,-0.476985901594162,9.289667129516602,-0.17661209404468536,-2.722360610961914,0.6856583952903748,7.264998435974121,1.167702317237854,0.3882921636104584,-0.6207495331764221,-0.5055524110794067,-0.4564167857170105
3872717,9.562716484069824,-0.058837730437517166,2.2238593101501465,0.17349402606487274,1.3164223432540894,0.8233395218849182,0.6175909638404846,-0.3862774074077606,-0.49175557494163513,-0.4770195782184601,9.283782958984375,-0.18178017437458038,-2.7566075325012207,1.0382429361343384,6.501701354980469,0.43954601883888245,0.3888550400733948,-0.6202415823936462,-0.5052727460861206,-0.45693761110305786
3872883,9.649628639221191,-0.002904210239648819,2.1381325721740723,1.0276902914047241,0.8867948651313782,0.22460415959358215,0.6176950335502625,-0.3861241638660431,-0.49170932173728943,-0.4770565330982208,9.294681549072266,-0.17950439453125,-2.742694854736328,1.3606171607971191,5.9688544273376465,-0.0007427683449350297,0.38937821984291077,-0.619718074798584,-0.5050837397575378,-0.45741069316864014
3873050,9.573807716369629,-0.019108915701508522,2.1708173751831055,1.41180419921875,1.7109861373901367,0.22124892473220825,0.617874026298523,-0.3858826160430908,-0.49161309003829956,-0.47711944580078125,9.33299732208252,-0.16606664657592773,-2.710998058319092,1.5087611675262451,5.702431678771973,-0.4901374876499176,0.3898625373840332,-0.6191678047180176,-0.5049634575843811,-0.45787593722343445
3873217,9.628961563110352,-0.021979564800858498,2.1880111694335938,1.121983289718628,1.60599946975708,0.43215665221214294,0.618053138256073,-0.3856830894947052,-0.4915000796318054,-0.47716522216796875,9.414216995239258,-0.12703685462474823,-2.706580638885498,1.4745811223983765,5.7163004875183105,-0.6187004446983337,0.3903360366821289,-0.6186087727546692,-0.5048513412475586,-0.45835161209106445
3873383,9.612762451171875,-0.016632897779345512,2.2189433574676514,0.31916624307632446,1.8762519359588623,0.5731801390647888,0.6182096600532532,-0.38555294275283813,-0.4912945032119751,-0.4772794544696808,9.444615364074707,-0.09204348176717758,-2.663862466812134,1.3686596155166626,6.3386759757995605,-0.5809729695320129,0.3908478915691376,-0.6180166006088257,-0.5046930313110352,-0.4588884711265564
3873550,9.55952262878418,0.01696527563035488,2.196808338165283,0.29384806752204895,2.141906976699829,0.30244117975234985,0.6183725595474243,-0.3853798806667328,-0.4910840094089508,-0.4774245321750641,9.442474365234375,-0.041690170764923096,-2.6370928287506104,0.8918920755386353,6.929934501647949,-0.6091598272323608,0.39135801792144775,-0.6174091696739197,-0.5044713616371155,-0.45951491594314575
3873717,9.569697380065918,0.006373510230332613,2.1931610107421875,0.2127966731786728,1.85622239112854,0.16678346693515778,0.618486762046814,-0.38523420691490173,-0.4908927381038666,-0.4775910973548889,9.454381942749023,-0.0784020945429802,-2.6589162349700928,0.35990333557128906,7.43253231048584,-0.5842770934104919,0.3918581008911133,-0.6167991161346436,-0.504182755947113,-0.4602239429950714
3873883,9.563992500305176,-0.015430831350386143,2.2507567405700684,0.2181113362312317,1.4427056312561035,0.16309528052806854,0.6185831427574158,-0.3851076662540436,-0.49074679613113403,-0.4777182936668396,9.396795272827148,-0.09687954187393188,-2.6481473445892334,0.2824760973453522,7.754405975341797,-0.17866140604019165,0.3924013376235962,-0.6162007451057434,-0.5038338899612427,-0.4609439969062805
3874050,9.592764854431152,-0.016029851511120796,2.249058246612549,0.32588958740234375,1.1526931524276733,0.1815236210823059,0.6186753511428833,-0.3849866986274719,-0.4906386435031891,-0.4778072237968445,9.40356731414795,-0.06280640512704849,-2.629624366760254,0.12589284777641296,7.828120231628418,-0.05265972018241882,0.39294373989105225,-0.6156149506568909,-0.5034584403038025,-0.4616742730140686
3874217,9.607563972473145,-0.010494229383766651,2.2240474224090576,0.019484862685203552,1.195069432258606,0.08657733350992203,0.6187222003936768,-0.38490134477615356,-0.49049490690231323,-0.4779631793498993,9.412677764892578,-0.08542739599943161,-2.6036369800567627,-0.16799373924732208,7.809819221496582,0.0063455477356910706,0.39346158504486084,-0.6150506138801575,-0.5030587315559387,-0.46242040395736694
3874383,9.584266662597656,-0.03329802677035332,2.242732286453247,0.06207877770066261,1.27597975730896,-0.04203043505549431,0.6187891364097595,-0.3847815692424774,-0.49036747217178345,-0.47810351848602295,9.430806159973145,-0.11329210549592972,-2.5758981704711914,-0.08482927829027176,8.07497501373291,0.09514479339122772,0.39401158690452576,-0.6144694089889526,-0.5026411414146423,-0.46317851543426514
3874550,9.571102142333984,-0.029996706172823906,2.230567693710327,0.3636811375617981,1.4422703981399536,-0.061022259294986725,0.6188774108886719,-0.3846268057823181,-0.4902426302433014,-0.47824183106422424,9.399252891540527,-0.10727019608020782,-2.5646517276763916,-0.0699739009141922,8.063077926635742,-0.042491473257541656,0.3945521116256714,-0.6138772964477539,-0.5022368431091309,-0.4639415144920349
3874717,9.595791816711426,-0.032653022557497025,2.22477126121521,0.2593093812465668,1.5100030899047852,-0.1037314310669899,0.6189619898796082,-0.38447320461273193,-0.49010729789733887,-0.4783945679664612,9.382163047790527,-0.13236545026302338,-2.538817882537842,0.09715539216995239,7.802890777587891,-0.19828075170516968,0.39507734775543213,-0.6132808923721313,-0.5018719434738159,-0.46467718482017517
3874883,9.607597351074219,-0.04496639594435692,2.207890033721924,0.5311881899833679,1.677830457687378,-0.019030235707759857,0.6190868020057678,-0.38428419828414917,-0.4899759292602539,-0.47851958870887756,9.394887924194336,-0.11132456362247467,-2.526432752609253,0.40405958890914917,7.655540943145752,-0.246355801820755,0.3956156075000763,-0.6126729249954224,-0.5015401840209961,-0.4653792381286621
3875050,9.589713096618652,-0.02977111004292965,2.2332918643951416,0.534466564655304,1.9128907918930054,-0.0969952866435051,0.6192318797111511,-0.3840673267841339,-0.4898330271244049,-0.47865214943885803,9.44347095489502,-0.11368340253829956,-2.49784779548645,0.5105700492858887,7.546085357666016,-0.36604395508766174,0.3961465358734131,-0.6120567321777344,-0.5012320280075073,-0.4660697281360626
3875217,9.601362228393555,-0.029194483533501625,2.2603776454925537,0.6643422245979309,2.335263729095459,-0.1055755540728569,0.6194010376930237,-0.3838174641132355,-0.48965394496917725,-0.4788168668746948,9.568931579589844,-0.10120286792516708,-2.4639832973480225,0.6059901714324951,8.24483871459961,-0.2942900061607361,0.39674124121665955,-0.6113923788070679,-0.5008831024169922,-0.46681055426597595
3875383,9.582175254821777,-0.0030753929167985916,2.324320077896118,-0.050341758877038956,2.503314971923828,-0.12103281915187836,0.6195410490036011,-0.3836192190647125,-0.48941078782081604,-0.47904300689697266,9.566673278808594,-0.09404107183218002,-2.428640842437744,0.704650342464447,9.293474197387695,-0.2477773129940033,0.397423654794693,-0.610653281211853,-0.5004753470420837,-0.467633992433548
3875550,9.577852249145508,-0.01707489788532257,2.331562042236328,-0.316829115152359,2.3948452472686768,-0.1022074818611145,0.6196611523628235,-0.3834521472454071,-0.489158570766449,-0.47927895188331604,9.633586883544922,-0.04471730813384056,-2.41377592086792,0.6411949396133423,10.329010963439941,-0.22747929394245148,0.39817652106285095,-0.6098474860191345,-0.5000006556510925,-0.4685519337654114
3875717,9.59199333190918,-0.02666660211980343,2.313660144805908,0.13568970561027527,2.225109815597534,0.08401606231927872,0.6198113560676575,-0.38326677680015564,-0.48894456028938293,-0.47945132851600647,9.584217071533203,-0.06237763911485672,-2.3911075592041016,0.5694538354873657,11.74106502532959,-0.5329236388206482,0.3990037739276886,-0.6089256405830383,-0.4994651973247528,-0.46961718797683716
3875883,9.572626113891602,0.021737148985266685,2.365446090698242,0.3039267063140869,2.0672714710235596,0.005321037955582142,0.6199405789375305,-0.3830801844596863,-0.48875296115875244,-0.47962871193885803,9.531981468200684,-0.15816937386989594,-2.3466553688049316,1.0062273740768433,12.327957153320312,-0.1197778508067131,0.3999391496181488,-0.6079662442207336,-0.49888747930526733,-0.4706771969795227
3876050,9.574533462524414,-0.042476583272218704,2.327432155609131,-0.14700409770011902,1.742540955543518,0.3078070282936096,0.6200536489486694,-0.38297170400619507,-0.4885479211807251,-0.4797784090042114,9.40195369720459,-0.1529790759086609,-2.321453332901001,1.8526250123977661,12.71528434753418,0.2687734067440033,0.4010031223297119,-0.6069574356079102,-0.49830901622772217,-0.47168561816215515
3876217,9.507696151733398,-0.05185309797525406,2.2800872325897217,-0.5923193097114563,1.772469162940979,0.5932605266571045,0.6201581954956055,-0.38292407989501953,-0.48829010128974915,-0.4799436926841736,9.46194839477539,-0.0791914090514183,-2.2960925102233887,2.170081853866577,12.01517391204834,0.05696908012032509,0.4020286798477173,-0.6059611439704895,-0.4978102147579193,-0.47261953353881836
3876383,9.575021743774414,-0.03050019033253193,2.226865768432617,-0.23974767327308655,1.2292110919952393,0.09561861306428909,0.6202176213264465,-0.3828425109386444,-0.488137811422348,-0.4800868332386017,9.461099624633789,-0.01271031703799963,-2.278651714324951,1.8308411836624146,11.576539993286133,-0.38055360317230225,0.4029610753059387,-0.6049812436103821,-0.49735093116760254,-0.4735632836818695
3876550,9.578981399536133,0.0627424418926239,2.2704551219940186,0.03950118646025658,2.0646591186523438,-0.7514126300811768,0.6202888488769531,-0.3826201856136322,-0.4879748821258545,-0.48033758997917175,9.501538276672363,-0.061180420219898224,-2.2262697219848633,1.4903461933135986,11.4423189163208,0.27944111824035645,0.40389764308929443,-0.6040765643119812,-0.49681705236434937,-0.4744797945022583
3876717,9.589240074157715,-0.029462415724992752,2.2651450634002686,-0.7192046046257019,2.771595001220703,-0.8256766200065613,0.6203534007072449,-0.38241592049598694,-0.4876953065395355,-0.4807007610797882,9.505868911743164,0.008897757157683372,-2.1839849948883057,1.4053887128829956,11.249186515808105,0.45990827679634094,0.4048239588737488,-0.6032015681266785,-0.4962715804576874,-0.4753735363483429
3876883,9.559015274047852,-0.029887311160564423,2.3028433322906494,-0.2837631106376648,2.8353066444396973,-0.41318413615226746,0.6204929351806641,-0.382187157869339,-0.4874268174171448,-0.48097461462020874,9.52735424041748,-0.01125766709446907,-2.137329578399658,0.8946967720985413,10.982992172241211,0.2511006295681,0.4056703746318817,-0.6023582220077515,-0.4957239627838135,-0.47629210352897644
3877050,9.55173110961914,0.010310857556760311,2.3046774864196777,0.006243095733225346,2.267063617706299,-0.4215594530105591,0.6206102967262268,-0.3819703161716461,-0.4872314929962158,-0.48119327425956726,9.577220916748047,-0.018215615302324295,-2.0911552906036377,0.8054364323616028,11.206347465515137,0.41345953941345215,0.406534880399704,-0.6015145182609558,-0.4951416254043579,-0.47722598910331726
3877217,9.520465850830078,0.05681925639510155,2.3392493724823,-0.1274872124195099,2.5789620876312256,-0.4470697045326233,0.6207315921783447,-0.3817477822303772,-0.48699504137039185,-0.4814527630805969,9.567909240722656,-0.09176069498062134,-2.036449909210205,1.0895967483520508,11.235905647277832,0.6944053769111633,0.40744462609291077,-0.6006702184677124,-0.49455156922340393,-0.4781244397163391
3877383,9.556928634643555,0.011033260263502598,2.3201825618743896,-0.11834347248077393,1.6953365802764893,-0.31860917806625366,0.6207860708236694,-0.3816017508506775,-0.4868255853652954,-0.48166969418525696,9.45902156829834,-0.25850749015808105,-2.021897792816162,3.2294745445251465,11.199638366699219,1.8657516241073608,0.40861931443214417,-0.5997840762138367,-0.4940086901187897,-0.4787951409816742
3877550,9.49746322631836,-0.12356332689523697,2.2215585708618164,2.886186361312866,-0.2435639649629593,-0.5988889336585999,0.6208654046058655,-0.381291925907135,-0.48706498742103577,-0.4815709888935089,9.35303783416748,-0.2865174412727356,-2.0239734649658203,6.3813371658325195,9.697478294372559,3.1043567657470703,0.41004684567451477,-0.5989029407501221,-0.49366459250450134,-0.4790327548980713
3877717,9.521129608154297,-0.09488166123628616,2.2714009284973145,7.5442914962768555,-0.06045877933502197,-0.25984087586402893,0.6212283372879028,-0.3805786073207855,-0.487589955329895,-0.4811355173587799,9.372443199157715,-0.33841586112976074,-2.00016713142395,9.682600021362305,7.775476455688477,3.837867021560669,0.41167429089546204,-0.598010241985321,-0.4935991168022156,-0.4788195490837097
3877883,9.571102142333984,-0.006325726397335529,2.338566780090332,6.471439361572266,1.4708926677703857,-0.2889752984046936,0.6216424703598022,-0.3798508644104004,-0.487904816865921,-0.4808565378189087,9.47420597076416,-0.26134276390075684,-1.9712647199630737,12.17737865447998,6.272982597351074,3.554410696029663,0.41339021921157837,-0.5970508456230164,-0.49381956458091736,-0.4783107042312622
3878050,9.55676555633545,0.014805358834564686,2.3921871185302734,4.499043941497803,2.9628584384918213,-0.08699353784322739,0.6220623254776001,-0.37921464443206787,-0.4879325330257416,-0.4807876944541931,9.568225860595703,-0.21473748981952667,-1.948895812034607,13.405421257019043,5.223848342895508,2.2127530574798584,0.4150428771972656,-0.5959921479225159,-0.4943026304244995,-0.47770053148269653
3878217,9.571151733398438,0.11617342382669449,2.3619418144226074,2.006044387817383,3.8103952407836914,0.1501096487045288,0.6224273443222046,-0.3787575364112854,-0.4876989424228668,-0.48091235756874084,9.777806282043457,-0.14004464447498322,-1.9362192153930664,13.702849388122559,5.219532489776611,1.0830402374267578,0.41664084792137146,-0.594832181930542,-0.494902104139328,-0.4771343767642975
3878384,9.556957244873047,0.1079726293683052,2.3183913230895996,-1.2267074584960938,4.069980144500732,1.0335299968719482,0.622708797454834,-0.3786298632621765,-0.48717379570007324,-0.481180876493454,9.668951988220215,-0.013997722417116165,-1.8805017471313477,12.97426986694336,6.189166069030762,0.24815523624420166,0.4181858003139496,-0.5935860872268677,-0.4954622685909271,-0.4767530858516693
3878550,9.572864532470703,0.0968000590801239,2.377492666244507,-1.7931578159332275,3.58925461769104,1.2562580108642578,0.622913122177124,-0.37861594557762146,-0.4866286516189575,-0.48147881031036377,9.612357139587402,0.06693127006292343,-1.8660279512405396,10.73236083984375,6.26625919342041,-1.0593290328979492,0.4194500148296356,-0.5923740267753601,-0.4959735870361328,-0.4766184687614441
3878717,9.62381362915039,0.12644369900226593,2.4066519737243652,-0.20905084908008575,2.2601478099823,0.8804045915603638,0.623110294342041,-0.37851306796073914,-0.4863460659980774,-0.48159006237983704,9.54552173614502,0.10343551635742188,-1.8486205339431763,8.217690467834473,6.333465099334717,-1.4196995496749878,0.4204753637313843,-0.5912821888923645,-0.4963366985321045,-0.4766925275325775
3878884,9.528373718261719,0.11459910124540329,2.4676284790039062,0.4925258457660675,2.2242519855499268,0.8273094296455383,0.6233306527137756,-0.3783474266529083,-0.4861163794994354,-0.4816669523715973,9.540928840637207,0.15139757096767426,-1.8082939386367798,5.432921886444092,6.3387274742126465,-1.0818549394607544,0.4212832748889923,-0.5903828740119934,-0.4964771866798401,-0.47694748640060425
3879050,9.51170539855957,0.09778300672769547,2.50504469871521,0.30929258465766907,2.217259645462036,1.1018904447555542,0.6235517859458923,-0.3782220482826233,-0.4858558475971222,-0.4817420244216919,9.610849380493164,0.18222138285636902,-1.7748878002166748,2.3919003009796143,6.585251331329346,-0.6662889719009399,0.42187514901161194,-0.5896811485290527,-0.4963560998439789,-0.4774183928966522
3879217,9.500452041625977,0.11356651782989502,2.496184825897217,-0.5117417573928833,2.4604902267456055,1.236997365951538,0.6237614154815674,-0.37815991044044495,-0.4855108857154846,-0.4818672239780426,9.650379180908203,0.17647355794906616,-1.7970560789108276,-0.6789926886558533,7.301432132720947,-0.22801706194877625,0.4222842752933502,-0.5891479849815369,-0.4959404766559601,-0.4781464636325836
3879384,9.43776798248291,0.07357180118560791,2.4789412021636963,-1.0392993688583374,2.5518124103546143,0.8984742760658264,0.6239058375358582,-0.378122478723526,-0.4851318597793579,-0.48209142684936523,9.661544799804688,0.12361342459917068,-1.7559618949890137,-3.311248540878296,7.81886100769043,0.4085673987865448,0.42254766821861267,-0.5887845158576965,-0.49525555968284607,-0.47907015681266785
3879550,9.453292846679688,0.034464266151189804,2.496246337890625,-0.9754340648651123,1.9610430002212524,0.6477132439613342,0.6240301132202148,-0.37808653712272644,-0.4848386347293854,-0.4822534918785095,9.678844451904297,0.032555870711803436,-1.777620792388916,-5.33406400680542,8.492348670959473,1.0085067749023438,0.42272672057151794,-0.588539719581604,-0.49433672428131104,-0.4801607131958008
3879717,9.493481636047363,0.025045495480298996,2.5118963718414307,-0.5103458762168884,1.9276437759399414,0.49839112162590027,0.6241587996482849,-0.3780032694339752,-0.4845857322216034,-0.4824066162109375,9.698293685913086,-0.08608163893222809,-1.7528421878814697,-6.45385217666626,9.03278923034668,1.4832127094268799,0.42288047075271606,-0.5883584022521973,-0.4932651221752167,-0.4813484847545624
3879884,9.526747703552246,0.029078610241413116,2.5246403217315674,-0.23890246450901031,2.532680034637451,0.5799291729927063,0.6243376135826111,-0.377864807844162,-0.48428666591644287,-0.4825839400291443,9.732802391052246,-0.1313822865486145,-1.7512938976287842,-7.02536153793335,9.702458381652832,1.6997425556182861,0.4230472445487976,-0.5881788730621338,-0.4920923113822937,-0.4826200604438782
3880050,9.539827346801758,0.030809588730335236,2.526191234588623,-1.1742523908615112,2.9776105880737305,0.5427522659301758,0.6245031952857971,-0.3777724802494049,-0.48388704657554626,-0.48284271359443665,9.754236221313477,-0.1608700007200241,-1.7146151065826416,-7.075781345367432,10.741568565368652,1.7909114360809326,0.4232892096042633,-0.5879340171813965,-0.4908425807952881,-0.48397698998451233
3880217,9.545450210571289,0.01576128788292408,2.537748098373413,-1.7999967336654663,3.2949652671813965,0.4189789593219757,0.6246321797370911,-0.3777121603488922,-0.48341524600982666,-0.48319554328918457,9.723264694213867,-0.1978304535150528,-1.6749069690704346,-7.274727821350098,11.584226608276367,1.6773062944412231,0.42356500029563904,-0.5876316428184509,-0.48953476548194885,-0.48542535305023193
3880384,9.535401344299316,-0.0033668118994683027,2.5672833919525146,-2.2702198028564453,3.543087959289551,0.2538410425186157,0.6247631907463074,-0.37765753269195557,-0.4829038679599762,-0.4835801124572754,9.746938705444336,-0.21587693691253662,-1.6601040363311768,-7.050873756408691,12.615692138671875,1.3773815631866455,0.42391079664230347,-0.5872187614440918,-0.4882025122642517,-0.4869621694087982
3880550,9.521110534667969,0.01229410246014595,2.5196878910064697,-2.9388270378112793,3.529923439025879,0.3705069422721863,0.6248636245727539,-0.37767332792282104,-0.48233866691589355,-0.4840020537376404,9.666476249694824,-0.20366770029067993,-1.6211729049682617,-7.011250972747803,13.12008285522461,1.1307311058044434,0.4242768883705139,-0.5867477059364319,-0.48686057329177856,-0.4885520339012146
3880717,9.49283504486084,-0.022363882511854172,2.550905227661133,-2.955219030380249,3.5051817893981934,0.46535083651542664,0.6249570250511169,-0.37770208716392517,-0.4817655682563782,-0.48442932963371277,9.665901184082031,-0.1841890811920166,-1.6011121273040771,-6.956862926483154,13.58564567565918,0.7829616069793701,0.42465418577194214,-0.5862128734588623,-0.4855208992958069,-0.4901966154575348
3880884,9.482073783874512,-0.03829304501414299,2.5737955570220947,-2.793449640274048,3.6770942211151123,0.4188893139362335,0.625072717666626,-0.37769851088523865,-0.48119238018989563,-0.4848524034023285,9.652445793151855,-0.19408190250396729,-1.5249757766723633,-6.781134605407715,13.900157928466797,0.42967259883880615,0.42504164576530457,-0.5856170654296875,-0.48420199751853943,-0.4918747842311859
3881050,9.484244346618652,-0.0232192762196064,2.5465569496154785,-2.5874850749969482,3.761692523956299,0.3497222661972046,0.6251857876777649,-0.37767016887664795,-0.4806244671344757,-0.48529186844825745,9.688478469848633,-0.2010611742734909,-1.5096075534820557,-6.780123233795166,14.084800720214844,0.040179960429668427,0.42541250586509705,-0.5849776268005371,-0.4829022288322449,-0.4935899078845978
3881217,9.480107307434082,-0.016052890568971634,2.575688362121582,-2.2984330654144287,4.097692966461182,0.23391442000865936,0.6253484487533569,-0.37757745385169983,-0.4800581932067871,-0.48571470379829407,9.667530059814453,-0.18909691274166107,-1.4513955116271973,-6.46746826171875,14.448616027832031,-0.1249004453420639,0.42582178115844727,-0.5842781662940979,-0.48161375522613525,-0.4953213334083557
3881384,9.456095695495605,-0.030746620148420334,2.54301118850708,-1.8653217554092407,3.9250245094299316,0.322803258895874,0.6254944801330566,-0.37747490406036377,-0.4795222878456116,-0.4861356019973755,9.685291290283203,-0.12405228614807129,-1.4313150644302368,-6.41451358795166,14.089282989501953,-0.2929326891899109,0.42619645595550537,-0.5835866332054138,-0.4803629517555237,-0.49702611565589905
3881550,9.488204002380371,-0.03405512496829033,2.5186076164245605,-1.3341656923294067,3.7635371685028076,0.045481760054826736,0.62566077709198,-0.37730956077575684,-0.47905948758125305,-0.48650607466697693,9.735260963439941,-0.10487496107816696,-1.4027931690216064,-6.41087532043457,13.755481719970703,-0.40610238909721375,0.4265379011631012,-0.5829081535339355,-0.4791402518749237,-0.4987066984176636
3881717,9.514274597167969,-0.018576188012957573,2.517463207244873,-1.2427027225494385,3.7376937866210938,0.15208181738853455,0.625840961933136,-0.3771434724330902,-0.4786011278629303,-0.48685422539711,9.638205528259277,-0.142531618475914,-1.372589349746704,-6.183422565460205,13.433799743652344,-0.3573742210865021,0.4268777370452881,-0.58223956823349,-0.47794774174690247,-0.5003387331962585
3881884,9.551102638244629,-0.04022188112139702,2.5476787090301514,-1.1216953992843628,3.408224582672119,0.12015558034181595,0.6260111927986145,-0.376985639333725,-0.47818493843078613,-0.48716652393341064,9.60998249053955,-0.19904911518096924,-1.3358380794525146,-5.5151472091674805,12.363263130187988,0.348685085773468,0.42724934220314026,-0.5816540718078613,-0.4768083393573761,-0.5017873048782349
3882050,9.545974731445312,-0.11116594821214676,2.5320377349853516,-1.4597573280334473,3.326263427734375,0.3685859441757202,0.6261779069900513,-0.37688085436820984,-0.4777393043041229,-0.48747050762176514,9.535527229309082,-0.1962488293647766,-1.309921145439148,-4.364649772644043,11.151756286621094,0.9286849498748779,0.4276754856109619,-0.5811241865158081,-0.47577741742134094,-0.503015398979187
3882217,9.488950729370117,-0.10618662089109421,2.449584484100342,-1.1414299011230469,2.723097085952759,0.20921091735363007,0.6263079643249512,-0.3767792582511902,-0.4773796498775482,-0.48773401975631714,9.508657455444336,-0.13840211927890778,-1.2940149307250977,-3.6646790504455566,9.288954734802246,0.9963407516479492,0.4280359745025635,-0.5806905031204224,-0.47490647435188293,-0.5040315389633179
3882384,9.56118106842041,-0.07703760266304016,2.490288019180298,0.0721573755145073,2.6134490966796875,-0.40620455145835876,0.6264342665672302,-0.37653765082359314,-0.4771454334259033,-0.4879874289035797,9.552695274353027,-0.18634028732776642,-1.2508786916732788,-3.3105826377868652,7.787023544311523,0.7972402572631836,0.4283072054386139,-0.5803303122520447,-0.4741710424423218,-0.504907488822937
3882550,9.500143051147461,-0.008919005282223225,2.51474928855896,0.08311960846185684,3.197777509689331,-0.8107699751853943,0.6265859007835388,-0.3762214481830597,-0.4768853783607483,-0.4882907271385193,9.63890552520752,-0.19772163033485413,-1.2472946643829346,-2.333688497543335,6.800626277923584,0.7385101914405823,0.42858821153640747,-0.5799773931503296,-0.4735729396343231,-0.5056353807449341
3882717,9.468365669250488,-0.10976449400186539,2.5486414432525635,0.3247114419937134,3.3274166584014893,-0.6099024415016174,0.6267650127410889,-0.3758911192417145,-0.47661715745925903,-0.4885772466659546,9.73020076751709,-0.18491221964359283,-1.194191575050354,-1.3745440244674683,6.631109237670898,0.1476636379957199,0.4288947582244873,-0.5795361995697021,-0.47310516238212585,-0.5063187479972839
3882884,9.495000839233398,-0.044503603130578995,2.56428861618042,0.4330531656742096,3.256033420562744,-0.09320461004972458,0.6269755959510803,-0.37559351325035095,-0.476333349943161,-0.48881271481513977,9.846774101257324,-0.18566854298114777,-1.1422563791275024,-0.5597273111343384,7.411952495574951,-0.11370761692523956,0.42930424213409424,-0.5789684057235718,-0.4726699888706207,-0.5070273280143738
3883050,9.457610130310059,0.034981582313776016,2.669128894805908,0.4621363580226898,3.7574408054351807,-0.09412667155265808,0.6272180080413818,-0.37525761127471924,-0.47600576281547546,-0.48907899856567383,9.86479377746582,-0.11442050337791443,-1.117469072341919,-0.12867823243141174,8.689079284667969,-0.4893948435783386,0.4298100173473358,-0.578252911567688,-0.47221753001213074,-0.5078363418579102
3883217,9.44629192352295,0.051244594156742096,2.674393653869629,-0.05178888142108917,3.8136608600616455,-0.16356270015239716,0.627447247505188,-0.37495750188827515,-0.4756423830986023,-0.4893680214881897,9.850199699401855,-0.10534624755382538,-1.1062836647033691,0.13160449266433716,9.912904739379883,-0.7264787554740906,0.43040362000465393,-0.5774133205413818,-0.47172674536705017,-0.5087443590164185
3883384,9.448689460754395,0.015202121809124947,2.7299811840057373,0.3234691619873047,3.4640982151031494,-0.028173966333270073,0.6276729106903076,-0.3746585547924042,-0.4753287434577942,-0.4896126091480255,9.781893730163574,-0.07985108345746994,-1.0775413513183594,0.4152781069278717,10.737020492553711,-0.6833599805831909,0.43107983469963074,-0.5764965415000916,-0.47120049595832825,-0.5096981525421143
3883550,9.438039779663086,-0.0037775319069623947,2.7723824977874756,0.6661927103996277,3.4223239421844482,0.2638172209262848,0.627941370010376,-0.37434956431388855,-0.4750285744667053,-0.48979589343070984,9.792060852050781,-0.08204980194568634,-1.0412403345108032,0.392162561416626,11.368231773376465,-0.49360811710357666,0.4318103492259979,-0.5755459070205688,-0.4706158936023712,-0.5106932520866394
3883717,9.438411712646484,0.02205042541027069,2.7631587982177734,0.16369716823101044,3.571223735809326,0.407248318195343,0.6282033324241638,-0.37408506870269775,-0.47467076778411865,-0.4900090992450714,9.78521728515625,-0.03770611062645912,-1.0026473999023438,0.361606627702713,11.966635704040527,-0.2817397713661194,0.43259376287460327,-0.5745654106140137,-0.46997225284576416,-0.5117258429527283
3883884,9.457411766052246,-0.0022726773750036955,2.7793853282928467,-0.3104899823665619,4.357059478759766,0.467207670211792,0.6284961104393005,-0.373812735080719,-0.4742026925086975,-0.490294486284256,9.856427192687988,-0.026550935581326485,-0.9627985954284668,0.26126888394355774,12.518668174743652,-0.08505981415510178,0.433419793844223,-0.5735616087913513,-0.4692686200141907,-0.5127976536750793
3884050,9.440912246704102,0.016228536143898964,2.788419485092163,-0.1772783398628235,4.783230304718018,0.255851686000824,0.6288185119628906,-0.37348249554634094,-0.4737168252468109,-0.4906023144721985,9.86237621307373,-0.054983217269182205,-0.8872275948524475,0.19424043595790863,13.438807487487793,-0.13581141829490662,0.4342976212501526,-0.5724877119064331,-0.4685046672821045,-0.5139523148536682
3884217,9.410443305969238,-0.014885853976011276,2.787754535675049,0.38679659366607666,4.50292444229126,0.2675951421260834,0.6291617751121521,-0.37311819195747375,-0.47329843044281006,-0.49084311723709106,9.858213424682617,-0.11271187663078308,-0.8601807355880737,0.5252336263656616,13.59743881225586,0.5709394812583923,0.43526509404182434,-0.5714266896247864,-0.4676946699619293,-0.5150511860847473
3884384,9.39798641204834,-0.06293272227048874,2.730053186416626,1.045798420906067,3.452892780303955,0.67253178358078,0.6294893622398376,-0.37279924750328064,-0.47299790382385254,-0.4909553527832031,9.7039213180542,-0.05020417645573616,-0.8362612724304199,0.8190114498138428,13.903678894042969,1.0859599113464355,0.43631500005722046,-0.5703567862510681,-0.4668424725532532,-0.516120970249176
3884550,9.463406562805176,-0.015943747013807297,2.7850608825683594,0.6885397434234619,3.321000099182129,0.8463395833969116,0.6297874450683594,-0.3725346624851227,-0.47267329692840576,-0.49108633399009705,9.68604564666748,-0.022724227979779243,-0.7984194159507751,0.8394885659217834,12.467646598815918,1.2967524528503418,0.4372832477092743,-0.5694053769111633,-0.4660637080669403,-0.5170549750328064
3884717,9.459153175354004,-0.0252043716609478,2.6850087642669678,1.388432502746582,2.7308454513549805,0.3780498504638672,0.6300583481788635,-0.37221455574035645,-0.4724792242050171,-0.49116846919059753,9.820466041564941,0.04355787858366966,-0.759294331073761,0.8353137969970703,11.234599113464355,1.3477472066879272,0.43817004561424255,-0.5685485005378723,-0.46535754203796387,-0.5178825259208679
3884884,9.431466102600098,-0.07265917211771011,2.734290838241577,2.3029210567474365,2.869781494140625,-0.11676828563213348,0.6303655505180359,-0.3717661499977112,-0.4723657965660095,-0.49122297763824463,9.709311485290527,-0.016537019982933998,-0.694475531578064,1.4211148023605347,10.48855209350586,1.8352466821670532,0.4390900433063507,-0.5677415728569031,-0.46470171213150024,-0.5185767412185669
3885050,9.35637378692627,-0.17764925956726074,2.755434989929199,5.286097526550293,1.3357857465744019,-0.12346603721380234,0.6307228803634644,-0.3711537718772888,-0.47260579466819763,-0.49099647998809814,9.72866153717041,-0.2043241262435913,-0.653777539730072,3.030463933944702,9.079187393188477,3.079435348510742,0.44014063477516174,-0.5670207738876343,-0.46415361762046814,-0.5189655423164368
3885217,9.445893287658691,-0.08055450767278671,2.72143816947937,5.523475646972656,0.5971280932426453,0.3954152762889862,0.6310690641403198,-0.3706092834472656,-0.4729004502296448,-0.49067890644073486,9.747987747192383,-0.24996571242809296,-0.6476308703422546,5.357365608215332,8.329656600952148,4.932527542114258,0.44147196412086487,-0.5663314461708069,-0.46367475390434265,-0.5190154314041138
3885384,9.470725059509277,0.006326884962618351,2.7190167903900146,3.554563045501709,1.1337400674819946,0.9081176519393921,0.6313889026641846,-0.37024232745170593,-0.4729783236980438,-0.4904695451259613,9.7356538772583,-0.18685585260391235,-0.6416322588920593,6.933597564697266,7.71396541595459,6.270266056060791,0.4429920017719269,-0.5656762719154358,-0.46324247121810913,-0.5188208222389221
3885550,9.417513847351074,0.018357282504439354,2.725554943084717,2.4425487518310547,1.2944848537445068,1.193455696105957,0.6316832304000854,-0.369985967874527,-0.47294679284095764,-0.49031463265419006,9.735952377319336,-0.13063041865825653,-0.6330309510231018,7.483797550201416,6.869412899017334,6.217556476593018,0.44449546933174133,-0.5650441646575928,-0.4629088342189789,-0.5185214281082153
3885717,9.446779251098633,0.00715990224853158,2.752619743347168,2.432969331741333,1.2081959247589111,1.196606159210205,0.631950318813324,-0.36973702907562256,-0.4729214310646057,-0.49018269777297974,9.745960235595703,-0.11692527681589127,-0.6386067271232605,6.758572578430176,6.508464813232422,5.0328521728515625,0.44582462310791016,-0.5644050240516663,-0.4626399278640747,-0.5183164477348328
3885884,9.43491268157959,0.044649362564086914,2.7980973720550537,2.087953805923462,1.3030781745910645,1.2323486804962158,0.6322121620178223,-0.3695160746574402,-0.47286057472229004,-0.4900698959827423,9.775299072265625,-0.13013087213039398,-0.6042999029159546,5.703802585601807,6.219181537628174,3.628340721130371,0.44694074988365173,-0.5637603402137756,-0.46242469549179077,-0.5182487368583679
3886050,9.429841041564941,0.09105236083269119,2.811781644821167,1.644520878791809,1.3909552097320557,1.3877919912338257,0.6324772834777832,-0.3693399727344513,-0.47275233268737793,-0.4899650514125824,9.749553680419922,-0.15344716608524323,-0.6108141541481018,4.572578430175781,6.232127666473389,2.3652496337890625,0.4478691518306732,-0.5631023049354553,-0.46222636103630066,-0.5183396935462952
3886217,9.435409545898438,0.12225507199764252,2.7948904037475586,1.4845314025878906,1.2577694654464722,1.4962235689163208,0.6327269673347473,-0.3691953718662262,-0.472638875246048,-0.48986098170280457,9.748424530029297,-0.10509993135929108,-0.5936772227287292,3.0761821269989014,6.2337164878845215,1.0408682823181152,0.44857460260391235,-0.562451958656311,-0.4620230197906494,-0.5186169743537903
3886384,9.422815322875977,0.12627209722995758,2.8234188556671143,1.2088490724563599,1.1684319972991943,1.391160249710083,0.6329407691955566,-0.36907535791397095,-0.4725194275379181,-0.4897907078266144,9.777970314025879,-0.08527803421020508,-0.5596873760223389,1.35135817527771,6.312243938446045,-0.10318076610565186,0.44905734062194824,-0.5618306994438171,-0.46177780628204346,-0.5190908312797546
3886550,9.42463207244873,0.10355263948440552,2.8410491943359375,1.1141844987869263,1.415902018547058,1.2057113647460938,0.6331540942192078,-0.36893224716186523,-0.47238126397132874,-0.48975613713264465,9.759819030761719,-0.07934051752090454,-0.5549067258834839,-0.5007666945457458,6.55602502822876,-0.8310297131538391,0.44934937357902527,-0.5612623691558838,-0.4614359736442566,-0.5197563171386719
3886717,9.420459747314453,0.08935646712779999,2.8485817909240723,0.5423937439918518,2.1131179332733154,0.9749411344528198,0.6333845853805542,-0.36877676844596863,-0.47215041518211365,-0.4897976815700531,9.824556350708008,-0.059926629066467285,-0.5384215712547302,-2.126929998397827,6.95400857925415,-1.1196335554122925,0.44951292872428894,-0.5607501864433289,-0.46096858382225037,-0.5205820202827454
3886884,9.412307739257812,0.05404594913125038,2.8678810596466064,0.6422833204269409,2.5913970470428467,0.5814146995544434,0.6336049437522888,-0.3685495853424072,-0.471903920173645,-0.48992133140563965,9.884150505065918,-0.038059163838624954,-0.5101020336151123,-3.0785446166992188,7.640149116516113,-0.8563224077224731,0.44966378808021545,-0.5602648258209229,-0.4603623151779175,-0.5215097665786743
3887050,9.366039276123047,-0.00668738130480051,2.8645029067993164,0.28388479351997375,2.462923765182495,0.3645007610321045,0.6337974667549133,-0.3683498501777649,-0.4716551899909973,-0.49006187915802,9.859116554260254,0.01550897303968668,-0.4790111184120178,-4.061919689178467,8.084798812866211,-0.5942019820213318,0.44978323578834534,-0.5598265528678894,-0.45963054895401,-0.5225220322608948
3887217,9.3825044631958,-0.08797553181648254,2.847632646560669,1.4552303552627563,2.169811725616455,0.04308696463704109,0.6339966654777527,-0.3680410385131836,-0.47153353691101074,-0.49015331268310547,9.829012870788574,-0.14974017441272736,-0.4608093798160553,-4.427501678466797,8.474020957946777,-0.10542189329862595,0.449934720993042,-0.5594137907028198,-0.4588051438331604,-0.5235579609870911
3887384,9.410383224487305,-0.08895422518253326,2.891771078109741,1.6870123147964478,2.0904250144958496,0.19503429532051086,0.6342320442199707,-0.36772775650024414,-0.47142720222473145,-0.4901861548423767,9.88185977935791,-0.17236456274986267,-0.4553582966327667,-4.2761054039001465,8.895273208618164,0.9765548706054688,0.45020830631256104,-0.5590301752090454,-0.45787477493286133,-0.5245461463928223
3887550,9.425052642822266,-0.024232475087046623,2.9070355892181396,1.5410584211349487,2.4217894077301025,0.25978320837020874,0.6344842910766602,-0.3674093782901764,-0.4712755084037781,-0.4902443289756775,9.891751289367676,-0.23526443541049957,-0.4660354256629944,-3.3981916904449463,9.71303653717041,1.9604412317276,0.4506818950176239,-0.5585909485816956,-0.4568767547607422,-0.5254766941070557
3887717,9.415526390075684,-0.03492116183042526,2.9372243881225586,0.6948533058166504,3.1668758392333984,0.43950748443603516,0.6347447037696838,-0.36712661385536194,-0.47098568081855774,-0.49039751291275024,9.907784461975098,-0.22849172353744507,-0.4174501299858093,-2.907555103302002,10.436724662780762,2.3371918201446533,0.4512713849544525,-0.5580883026123047,-0.4558370113372803,-0.5264071226119995
3887884,9.402922630310059,0.007301998324692249,2.9237773418426514,0.593478262424469,3.2595808506011963,0.3106116056442261,0.6349968910217285,-0.36683782935142517,-0.4706863760948181,-0.4905746281147003,9.94619083404541,-0.18989989161491394,-0.39917370676994324,-2.721773147583008,11.496360778808594,2.1620779037475586,0.4519317150115967,-0.5574793815612793,-0.45475468039512634,-0.5274209380149841
3888050,9.43244743347168,0.011687489226460457,2.9497416019439697,-0.02886551059782505,3.4002201557159424,0.47877177596092224,0.6352269649505615,-0.36660659313201904,-0.47032099962234497,-0.49079999327659607,9.935545921325684,-0.19674399495124817,-0.3604820668697357,-2.7404322624206543,12.711966514587402,1.6103289127349854,0.4526272118091583,-0.5567401051521301,-0.4536343216896057,-0.5285689234733582
3888217,9.407059669494629,0.019222699105739594,2.907534122467041,-0.37187081575393677,2.914027452468872,0.8130815625190735,0.63545161485672,-0.36646637320518494,-0.46995702385902405,-0.4909627437591553,9.80597972869873,-0.2055874764919281,-0.3061453402042389,-2.9150474071502686,13.178351402282715,1.0625243186950684,0.45329567790031433,-0.5559385418891907,-0.45251256227493286,-0.5298000574111938
3888384,9.445396423339844,0.0435292012989521,2.94223952293396,-0.6486928462982178,2.739271879196167,0.9262769818305969,0.6356434226036072,-0.36637020111083984,-0.46958398818969727,-0.49114298820495605,9.788612365722656,-0.22615863382816315,-0.3008570969104767,-3.225639581680298,12.880511283874512,0.5663034915924072,0.45387956500053406,-0.5551456212997437,-0.451424777507782,-0.5310580730438232
3888550,9.438850402832031,0.006079234182834625,2.9023749828338623,-0.9984085559844971,2.8029706478118896,1.1586096286773682,0.6358318328857422,-0.36631643772125244,-0.4691683053970337,-0.49133622646331787,9.66804027557373,-0.22651204466819763,-0.2678505480289459,-3.3397951126098633,12.586016654968262,0.0675855353474617,0.45439475774765015,-0.5543484687805176,-0.4503861367702484,-0.532330334186554
