sampleTimeFine,W4_acc_x,W4_acc_y,W4_acc_z,W4_gyro_x,W4_gyro_y,W4_gyro_z,W4_quat_w,W4_quat_x,W4_quat_y,W4_quat_z,W5_acc_x,W5_acc_y,W5_acc_z,W5_gyro_x,W5_gyro_y,W5_gyro_z,W5_quat_w,W5_quat_x,W5_quat_y,W5_quat_z
295048,0,0,0,0,0,0,0.699053109,-0.334599346,-0.465119153,-0.42782262,0,0,0,0,0,0,0.398901016,-0.582111418,-0.517193198,-0.484288663
295215,9.174222946,-0.64757961,3.39080596,0.35266763,-0.426080078,0.035531219,0.698202729,-0.335315466,-0.465192705,-0.428569973,9.546672821,0.267637223,-2.126744509,-0.736006558,-0.981760383,0.567225218,0.398675054,-0.582988024,-0.516673028,-0.483975381
295382,9.209452629,-0.711468577,3.361552715,0.285523981,-0.407946289,0.370955139,0.698478401,-0.334698886,-0.465485126,-0.428285301,9.56699276,0.26766023,-2.125102282,-0.448747277,-0.852685153,0.584641874,0.398947507,-0.58368969,-0.516441166,-0.483152032
295548,9.196260452,-0.707940757,3.367422581,0.478887022,-0.578398764,0.428673327,0.698530257,-0.334767878,-0.465480953,-0.42815128,9.562632561,0.280046105,-2.123245955,-0.114988208,-0.535241425,0.6683442,0.399334341,-0.584191263,-0.516272247,-0.482406199
295715,9.22190094,-0.680605888,3.353845835,0.440660059,-0.2664105,0.262165189,0.698435247,-0.335069984,-0.465260684,-0.428309351,9.553236008,0.284945071,-2.139390707,0.175658271,-0.265385956,0.607321918,0.399671137,-0.584436655,-0.516224205,-0.481881082
295882,9.193248749,-0.683903158,3.360401154,0.01482335,-0.24358958,0.161532879,0.69828105,-0.335332662,-0.465147972,-0.428477764,9.556055069,0.272474796,-2.107695103,0.319960237,0.075333349,0.575997591,0.400020391,-0.58445245,-0.516368389,-0.481417596
296048,9.198609352,-0.717058182,3.37016058,0.28417927,-0.259059638,0.248628899,0.69823271,-0.335443407,-0.465123624,-0.428496003,9.544056892,0.292140365,-2.104197502,0.452634037,0.394377917,0.476261735,0.400239795,-0.584513545,-0.516309381,-0.481224239
296215,9.211733818,-0.709269404,3.360780001,0.566751361,-0.314767241,0.359826416,0.698191285,-0.335588902,-0.465055436,-0.42852354,9.537233353,0.296453267,-2.127407074,0.505639493,0.390651315,0.40312469,0.400435954,-0.58449018,-0.516295731,-0.481104076
296382,9.215467453,-0.68787992,3.359149218,0.674568117,-0.168044925,0.290569663,0.698284984,-0.335571587,-0.465089828,-0.428347081,9.545454979,0.309989214,-2.096676588,0.261422366,0.545697749,0.363950044,0.400606066,-0.584417701,-0.51632607,-0.481017977
296548,9.208776474,-0.673131466,3.343424559,0.672659814,0.035979435,0.314748049,0.698277831,-0.335637718,-0.465039194,-0.428362012,9.530656815,0.340726733,-2.105663776,0.121717945,0.658188701,0.362733424,0.400794417,-0.584272683,-0.516393125,-0.480965137
296715,9.207386017,-0.663418889,3.358280182,0.37673077,0.075589478,0.34821102,0.69833988,-0.335615396,-0.465062618,-0.428252906,9.524141312,0.338699013,-2.076381683,-0.272877693,0.58138901,0.379560947,0.400838673,-0.584214568,-0.516367674,-0.481026262
296882,9.210493088,-0.661862969,3.355051041,0.492564231,0.218892515,0.39965415,0.698382199,-0.335592151,-0.465059608,-0.428205371,9.556577682,0.338323861,-2.076771975,-0.685114086,0.619859278,0.52989465,0.400832683,-0.584193707,-0.516274035,-0.481157184
297048,9.204063416,-0.667170107,3.370157003,0.245350435,0.114290267,0.465824574,0.698382616,-0.335618466,-0.465038002,-0.428207606,9.550814629,0.313984811,-2.058619022,-0.761324704,0.547708392,0.721426487,0.400849849,-0.584161997,-0.516190052,-0.481271267
297215,9.212338448,-0.686445832,3.363916397,0.13084887,0.10590212,0.508687437,0.698378623,-0.335655123,-0.465002149,-0.428224087,9.52471447,0.29206261,-2.051374197,-0.730730355,0.414919317,0.887780964,0.400928557,-0.584098816,-0.516147017,-0.481328636
297382,9.198602676,-0.690608561,3.373479366,0.152030572,0.255838841,0.567391753,0.698390424,-0.335688204,-0.464944959,-0.428241044,9.542590141,0.267927259,-2.077036142,-0.537290394,0.318128914,0.95892024,0.400996596,-0.584080994,-0.516059995,-0.4813869
297548,9.189518929,-0.694935739,3.382080078,0.274433702,0.194970265,0.471433759,0.698408842,-0.335700065,-0.464904219,-0.428245872,9.552649498,0.252902567,-2.07089448,-0.12072546,0.286779016,0.919515193,0.401108325,-0.584045947,-0.516003907,-0.481396466
297715,9.209427834,-0.702606738,3.367446184,0.275470972,0.15950948,0.535234988,0.698458254,-0.335692137,-0.464875281,-0.428203076,9.55130291,0.241434306,-2.07552433,0.330807209,0.334098428,0.81122458,0.401265442,-0.583981633,-0.515978873,-0.4813703
297882,9.203262329,-0.715034068,3.378053188,0.400467336,-0.017262958,0.492532194,0.698498249,-0.335685819,-0.464870781,-0.428147525,9.573406219,0.241268978,-2.064455509,0.660442591,0.458793849,0.606796861,0.401404142,-0.583935857,-0.515921533,-0.481371701
298048,9.198717117,-0.705346167,3.376328945,0.377960175,0.017576715,0.484316915,0.698534429,-0.335691243,-0.464850992,-0.42810607,9.532711029,0.265500784,-2.063267231,1.023092985,0.556224644,0.520840645,0.401591748,-0.583849847,-0.515898168,-0.481344581
298215,9.203967094,-0.707402408,3.392168522,0.489785254,0.075025991,0.499236345,0.698544562,-0.335724771,-0.464799762,-0.428118706,9.540550232,0.284764588,-2.068587303,0.92783916,0.528088987,0.270220369,0.40179193,-0.583711624,-0.515940249,-0.481300026
298382,9.185033798,-0.690433323,3.394228458,0.439494699,0.053024691,0.432259113,0.698588431,-0.335717171,-0.464778572,-0.428076088,9.54264164,0.314203858,-2.068564415,0.676168859,0.694007993,0.181305885,0.401976556,-0.583567321,-0.515969098,-0.481289953
298548,9.201223373,-0.69520396,3.387100935,0.496380478,-0.052557256,0.438777536,0.698629141,-0.335708767,-0.464768767,-0.428026944,9.538609505,0.308276385,-2.072386742,0.306014121,0.604735076,0.260897368,0.402101189,-0.583478153,-0.515950024,-0.48131448
298715,9.184634209,-0.681628823,3.394854784,0.537296772,-0.198114231,0.337338477,0.698670506,-0.335681707,-0.464792579,-0.427954853,9.528181076,0.320238292,-2.045111418,-0.223368376,0.410795689,0.382211894,0.402172357,-0.583440125,-0.515901625,-0.481353015
298882,9.200376511,-0.693187058,3.38210845,0.598472714,-0.135465562,0.418645978,0.698718369,-0.33565408,-0.4648045,-0.427885324,9.526223183,0.304049075,-2.039540052,-0.507310688,0.110025764,0.44762674,0.402166009,-0.583476961,-0.515808821,-0.481412858
299048,9.199707031,-0.682472646,3.350065708,0.485072523,0.004104435,0.3217659,0.69874227,-0.335645795,-0.464784086,-0.427874893,9.54005146,0.297518015,-2.042295933,-0.703106999,-0.070076339,0.488325298,0.402139753,-0.583531201,-0.515720427,-0.48146385
299215,9.194078445,-0.689660847,3.382044315,0.39387846,-0.015162717,0.260846138,0.698751152,-0.335647911,-0.464764476,-0.427880049,9.547827721,0.270796001,-2.034132957,-0.79117626,-0.156839356,0.539294541,0.40210852,-0.583594143,-0.515634,-0.481506348
299382,9.198451996,-0.692943811,3.376669168,0.390676886,-0.081781343,0.247156128,0.698777735,-0.335627884,-0.464770645,-0.427845687,9.547834396,0.2571401,-2.057456732,-0.582176566,-0.104538217,0.455566674,0.402109563,-0.583620191,-0.515582144,-0.481529385
299548,9.189136505,-0.704781055,3.388699532,0.333483756,-0.118112981,0.242430627,0.69879812,-0.335616052,-0.464777678,-0.427813947,9.551828384,0.275747031,-2.07613492,-0.435108513,-0.139627635,0.239549175,0.40208602,-0.583648443,-0.515535235,-0.481565028
299715,9.187365532,-0.709097505,3.374147892,0.41097495,-0.208717883,0.118477941,0.698769391,-0.335637301,-0.464772522,-0.42784977,9.541385651,0.280925065,-2.095414162,-0.189495549,-0.270470142,0.201463088,0.402108967,-0.583628953,-0.515564859,-0.481537789
300048,9.192326546,-0.699985385,3.392061234,0.359045208,-0.114898562,0.270361245,0.698813319,-0.335607618,-0.464792937,-0.427779257,9.531783104,0.269703239,-2.071900845,0.091674246,-0.292509794,0.208352894,0.402119488,-0.583633006,-0.51557678,-0.481511384
300215,9.194525719,-0.709913075,3.371773243,0.492103189,-0.211829826,0.131668478,0.698837399,-0.335571468,-0.464829564,-0.427728415,9.540337563,0.295147955,-2.057041645,0.170446113,-0.255755633,0.07255438,0.402143747,-0.583606243,-0.515621066,-0.481476098
300382,9.192608833,-0.695389926,3.366477013,0.577611148,-0.233318865,0.175773531,0.698805213,-0.335598886,-0.464823544,-0.427766025,9.558765411,0.322956413,-2.075365782,0.211131871,-0.148207888,0.234682769,0.402180582,-0.583591998,-0.515637219,-0.481445283
300548,9.199518204,-0.668697119,3.364252567,0.568044841,-0.21506983,0.205855682,0.698811412,-0.335589111,-0.464842945,-0.427742481,9.546859741,0.319941819,-2.075427055,-0.085405543,-0.08914499,0.308152765,0.402187794,-0.583608687,-0.515610754,-0.481447399
300715,9.201899529,-0.689503491,3.382766724,0.446679056,-0.318250626,0.315977454,0.698821962,-0.33559227,-0.464870721,-0.427692741,9.531750679,0.31544295,-2.081867695,-0.178610146,-0.212611005,0.563818693,0.402187616,-0.583665073,-0.515557468,-0.481436223
300882,9.231893539,-0.686724961,3.389569044,0.221389771,-0.138231725,0.230546281,0.698785663,-0.335647225,-0.464837313,-0.427745104,9.554571152,0.323056698,-2.062345028,-0.31891647,-0.260340273,0.566290319,0.40218097,-0.583722055,-0.515511572,-0.481421769
301048,9.202497482,-0.691523612,3.379133224,0.264841706,-0.280945659,0.223925412,0.698755801,-0.335690051,-0.464833319,-0.427764505,9.550884247,0.286125183,-2.078180552,-0.460004061,-0.093550384,0.622894406,0.402185023,-0.583771586,-0.515450895,-0.481423199
301215,9.18910408,-0.713070691,3.355852127,0.076473117,-0.128806263,0.257695764,0.698747814,-0.335724413,-0.464815468,-0.427769959,9.536697388,0.257991195,-2.088011265,-0.181440353,-0.03108101,0.692817032,0.40222761,-0.583800614,-0.515407145,-0.481399238
301382,9.201764107,-0.697492719,3.328325987,0.271308899,-0.101439096,0.409438193,0.698765576,-0.335743159,-0.464803964,-0.427739024,9.539321899,0.261467248,-2.091180086,0.027117448,-0.184603527,0.646355689,0.402275115,-0.583824873,-0.515392423,-0.481345832
301548,9.320569038,-0.712169468,3.330954552,0.081301108,0.643563807,0.038771223,0.698792756,-0.335719049,-0.464718759,-0.427806169,9.549985886,0.275185585,-2.109357834,0.319768131,-0.192479447,0.426368237,0.402306557,-0.583844602,-0.51538676,-0.481301904
301715,9.177937508,-0.656040847,3.400836945,0.170343667,-0.116422527,-0.586979032,0.698718786,-0.335707337,-0.464738935,-0.427914053,9.561576843,0.314176977,-2.101350784,0.304835975,-0.173141837,-0.169018194,0.402293921,-0.583822548,-0.515427768,-0.481295377
301882,9.244799614,-0.657739639,3.358409166,0.386399567,0.360261828,-0.472848833,0.698652208,-0.335696071,-0.464684874,-0.428090274,9.582665443,0.301048696,-2.084782124,0.14231056,0.148380771,-0.621594548,0.402269095,-0.583742201,-0.515491247,-0.481345594
302048,9.208758354,-0.702020526,3.399150133,0.295090288,0.595616817,0.187440127,0.698693335,-0.335662633,-0.464614719,-0.42812562,9.588240623,0.315267712,-2.076817989,-0.012806349,0.498378307,-0.441345215,0.402252555,-0.583678126,-0.515487731,-0.481440753
302215,9.161838531,-0.705896854,3.409559727,0.488184422,0.160380319,0.180614352,0.69868201,-0.335671455,-0.464574605,-0.428180575,9.533774376,0.342110753,-2.070659637,-0.033027574,0.508469701,-0.202250659,0.402255028,-0.583628178,-0.515466869,-0.481521606
302382,9.190173149,-0.668933332,3.41479516,0.523645222,0.078867905,0.176708415,0.698659062,-0.335690826,-0.464536905,-0.428243905,9.527889252,0.39218834,-2.047693491,-0.49860236,0.398130178,0.18355979,0.402234524,-0.583642542,-0.51538676,-0.48160699
302548,9.198194504,-0.654968083,3.398287296,0.236975104,-0.0467944,-0.008887606,0.698615909,-0.335718572,-0.464513272,-0.428318232,9.532440186,0.372446716,-2.038899899,-0.970234692,0.413715512,0.478349149,0.402196884,-0.583700716,-0.51525265,-0.481711447
302715,9.169005394,-0.701290667,3.370410919,0.188400611,-0.162346095,-0.038226947,0.698557973,-0.335758507,-0.464497805,-0.428397924,9.541768074,0.326742291,-2.040062428,-1.014980078,0.415111423,0.66267097,0.402152777,-0.583789408,-0.515082777,-0.481822431
302882,9.163158417,-0.713996947,3.386256933,0.475659817,0.006870606,0.185634434,0.698545635,-0.335767806,-0.464476615,-0.428433716,9.529724121,0.296825439,-2.036911964,-0.797925174,0.319332719,0.816961825,0.402130932,-0.583883166,-0.514920533,-0.481900454
303048,9.196692467,-0.699831605,3.378396511,0.610664368,-0.01789047,0.362387657,0.698523045,-0.33580637,-0.464435965,-0.428484529,9.536150932,0.239053831,-2.058754444,-0.333272457,0.307064295,0.732888281,0.402157575,-0.583928049,-0.514816642,-0.481934845
303215,9.184751511,-0.687604547,3.369738579,0.413023978,0.11721012,0.389780402,0.698501706,-0.335858613,-0.464368045,-0.428551972,9.550099373,0.25318554,-2.033569574,0.4707551,0.034468297,0.742300928,0.402175158,-0.584009767,-0.514711738,-0.481933206
303382,9.19468689,-0.688577235,3.384179354,0.344138592,0.053946745,0.38134107,0.698505819,-0.335884809,-0.464329273,-0.428566635,9.53894043,0.278859586,-2.040143728,0.982035637,-0.132622555,0.526065588,0.402248293,-0.584016502,-0.514716327,-0.481859177
303548,9.206999779,-0.673435569,3.392479658,0.553701699,-0.045641828,0.272359014,0.69846493,-0.335933685,-0.464286417,-0.428641379,9.547284126,0.319485217,-2.023987055,1.188717484,-0.161475271,0.300866008,0.40230009,-0.584019244,-0.514729798,-0.481798202
303715,9.179484367,-0.660593629,3.423449993,0.592389703,-0.215543687,0.318679601,0.698465347,-0.335939884,-0.464298934,-0.428622395,9.561950684,0.347098559,-2.04663372,0.95519352,-0.336640537,0.118721254,0.402318031,-0.584021211,-0.514766753,-0.481741428
303882,9.171142578,-0.663103819,3.383451223,0.708107889,-0.75586921,0.599343598,0.698358715,-0.336087883,-0.464285493,-0.428694606,9.534111023,0.329443783,-2.047976255,0.589559495,-0.607366741,0.349145889,0.402285188,-0.584096193,-0.514756739,-0.481688768
304048,9.278903008,-0.687561631,3.346871853,0.500965178,-0.222395062,0.536746085,0.698336601,-0.336151034,-0.464257419,-0.428711474,9.544614792,0.334801793,-2.065772295,0.356471121,-0.926782727,0.745002925,0.402205527,-0.584268749,-0.514678895,-0.481628954
304215,9.162976265,-0.654878676,3.414301634,0.52989471,-0.527160585,0.149815083,0.69827956,-0.336194992,-0.464289337,-0.428735375,9.525824547,0.382560402,-2.070700407,0.089766107,-1.084569812,0.721541822,0.402108431,-0.584445477,-0.514617503,-0.481561244
304382,9.233862877,-0.633527398,3.341807127,0.870684445,-0.189457119,-0.005032895,0.698238969,-0.336186677,-0.464304745,-0.428791404,9.518102646,0.366115183,-2.07310605,-0.533794224,-1.210264087,0.478041798,0.401914656,-0.584665358,-0.514522552,-0.481557637
304548,9.186768532,-0.632108927,3.372982264,0.303081453,-0.63342762,0.302120984,0.698161244,-0.336281478,-0.464318067,-0.428829193,9.526350975,0.307581365,-2.120774269,-0.808119118,-1.310845137,0.541650951,0.401670575,-0.584937096,-0.514381766,-0.481581569
304715,9.216322899,-0.697775543,3.363126278,0.384581059,-0.433635801,0.420656562,0.698122561,-0.336347133,-0.464322418,-0.428835988,9.539731979,0.292184889,-2.129116297,-0.550480962,-1.175123453,0.615172267,0.401495218,-0.585156202,-0.514284253,-0.481565773
304882,9.202943802,-0.676603854,3.381628036,0.560617149,-0.600861073,0.53914088,0.698070884,-0.336432904,-0.464335263,-0.428839028,9.543388367,0.284848243,-2.085756302,-0.263926059,-1.02919507,0.728918254,0.401349694,-0.585371196,-0.514173388,-0.481544167
305048,9.202858925,-0.663028538,3.351106167,0.310598791,-0.285594374,0.369328707,0.698023856,-0.336505949,-0.464313656,-0.428881407,9.555147171,0.289061815,-2.11806345,0.056648884,-0.782455146,0.633421242,0.401225358,-0.585562706,-0.514056563,-0.481539726
305215,9.186196327,-0.664026618,3.368733644,-0.02817397,-0.35909006,0.198658511,0.697935998,-0.336615503,-0.464280725,-0.428974032,9.576840401,0.297737151,-2.125905037,0.094555683,-0.333426118,0.711552858,0.401172936,-0.585695148,-0.513945758,-0.48154068
305382,9.192455292,-0.698479652,3.395115137,0.369725674,-0.233049959,0.315606058,0.697877884,-0.336690366,-0.464249998,-0.429043144,9.552209854,0.305826485,-2.122861385,0.141823933,0.020906366,0.515974283,0.401095152,-0.58583039,-0.513783455,-0.481613994
305548,9.212574959,-0.686896443,3.393291473,0.585935295,-0.41060999,0.293002874,0.697830617,-0.336738467,-0.464261889,-0.429069489,9.529191017,0.308487207,-2.132503033,0.229893178,0.097116947,0.456578344,0.401052117,-0.585923195,-0.513660073,-0.481668562
305715,9.229815483,-0.677587569,3.379390717,0.660852432,-0.210651636,0.260794908,0.697788656,-0.336775005,-0.464251697,-0.429120183,9.535592079,0.310743719,-2.109772921,0.334085613,0.215127453,0.31166172,0.401015043,-0.585992277,-0.513548732,-0.481734127
305882,9.225152016,-0.672262549,3.381997585,0.67862761,-0.085981831,0.251241356,0.697754085,-0.336802512,-0.464229584,-0.429178655,9.547018051,0.327115685,-2.103821993,0.244684532,0.291235656,0.355702817,0.400984287,-0.586058676,-0.513429999,-0.481805533
306048,9.217406273,-0.66323626,3.375592709,0.584052742,-0.145454511,0.365614831,0.697709799,-0.336859822,-0.464195669,-0.429242432,9.540769577,0.346681118,-2.119943619,0.03855351,0.342589051,0.315516442,0.400926501,-0.586141109,-0.513285518,-0.481907427
306215,9.216079712,-0.659388244,3.368215084,0.465325147,-0.081012972,0.4065184,0.697672546,-0.336921006,-0.464150876,-0.429303288,9.531053543,0.356365472,-2.097599268,-0.217029199,0.435921788,0.361235112,0.400879771,-0.586210012,-0.513143003,-0.48201409
306382,9.211266518,-0.659996152,3.376358509,0.460305035,-0.02206534,0.546286821,0.697640061,-0.336996317,-0.464087337,-0.429365516,9.542216301,0.349047512,-2.097416639,-0.545025408,0.353679359,0.577726483,0.400823861,-0.586308539,-0.512977183,-0.482117295
306548,9.216058731,-0.66849333,3.375971556,0.230162114,-0.044873446,0.593273401,0.697596312,-0.337100834,-0.464008629,-0.429439783,9.546131134,0.33057487,-2.074308634,-0.673383474,0.277443171,0.734911561,0.400759727,-0.586433351,-0.512791514,-0.482216328
306715,9.190073013,-0.677873671,3.364699602,0.203716993,0.087166414,0.530278921,0.697547495,-0.337204695,-0.463911206,-0.42954281,9.547825813,0.30899623,-2.094674349,-0.492660314,0.319844991,0.92110312,0.400729507,-0.5865556,-0.512603343,-0.48229292
306882,9.19713974,-0.672391355,3.39985013,0.25910449,0.128274813,0.521378577,0.697513044,-0.337289482,-0.463820964,-0.429629683,9.545516014,0.290604472,-2.06521225,-0.200086415,0.253572136,0.960572302,0.400725961,-0.586663961,-0.512441158,-0.482336342
307048,9.189043999,-0.687819123,3.397479057,0.303965122,-0.027751358,0.657561183,0.697475433,-0.337392002,-0.463739783,-0.429697841,9.539959908,0.287868112,-2.086114645,0.075487033,0.277622432,0.983277857,0.400750816,-0.586754739,-0.512296259,-0.482359022
307215,9.196721077,-0.715430975,3.403172493,0.364334285,-0.11104387,0.600291312,0.697426975,-0.337494761,-0.463669449,-0.429771483,9.551037788,0.259164393,-2.061244965,0.388013184,0.250780314,0.895067751,0.400794446,-0.58682245,-0.512182772,-0.482360929
307382,9.197956085,-0.712802947,3.388157129,0.563537002,-0.033872794,0.625033081,0.697392881,-0.337577075,-0.46359998,-0.429837137,9.555148125,0.267733365,-2.072144508,0.840154171,0.221722722,0.723962128,0.400868088,-0.586847723,-0.512122989,-0.482332438
307548,9.198906898,-0.689566314,3.373483181,0.67417109,-0.037292093,0.641527772,0.69743979,-0.337569177,-0.463595152,-0.429772377,9.548914909,0.282044321,-2.04720068,0.918580294,0.243480712,0.590340674,0.400946438,-0.58685118,-0.512085319,-0.482303113
307715,9.186652184,-0.684156358,3.386591434,0.671532929,-0.090412825,0.669471145,0.697484672,-0.337566763,-0.463594258,-0.429702371,9.53427887,0.306228489,-2.062657833,0.987004519,0.067367807,0.524797857,0.401019484,-0.586851299,-0.512075663,-0.482252479
307882,9.205068588,-0.684434414,3.379330158,0.695070982,-0.213264138,0.584334493,0.697517276,-0.337563753,-0.463611394,-0.429633588,9.532976151,0.324278831,-2.064760447,0.805884361,-0.113963708,0.503014266,0.401077092,-0.586856663,-0.512084365,-0.482188821
308048,9.198670387,-0.683656394,3.382180214,0.539563477,-0.071472235,0.479681045,0.697545111,-0.337560445,-0.463609546,-0.429592818,9.538874626,0.322799206,-2.063682556,0.47065255,-0.207334802,0.652874112,0.401100695,-0.586908162,-0.512052,-0.482140988
308215,9.195895195,-0.679021716,3.396095037,0.575882316,-0.074353658,0.430248499,0.697571516,-0.337550223,-0.463612705,-0.429554671,9.545249939,0.337422282,-2.067952633,0.109590337,-0.188739985,0.685427845,0.40109691,-0.586981416,-0.511990666,-0.482120126
308382,9.205387115,-0.669480264,3.39377141,0.355741173,-0.031183459,0.407427579,0.697588623,-0.337557763,-0.463598698,-0.429535866,9.537380219,0.318965495,-2.081756592,-0.320491701,-0.051225401,0.659072399,0.401064306,-0.587067723,-0.51189363,-0.482145071
308548,9.20205307,-0.680298388,3.363580465,0.359211713,-0.052928641,0.26459837,0.697595537,-0.337556422,-0.463594258,-0.429530621,9.539096832,0.30793649,-2.066983461,-0.593305349,-0.001255022,0.57239902,0.401005715,-0.587159812,-0.511782289,-0.482199937
308715,9.201786041,-0.667710066,3.383292913,0.397003233,-0.010936623,0.337440908,0.697611511,-0.337553412,-0.463584453,-0.429517478,9.552787781,0.306915343,-2.078855515,-0.679415345,0.185352713,0.534069598,0.400950789,-0.587240696,-0.511657357,-0.482279688
308882,9.190788269,-0.67763406,3.399249315,0.452659637,-0.006480013,0.304733485,0.697628558,-0.337541997,-0.463579476,-0.429504395,9.564795494,0.291281849,-2.092102766,-0.647591472,0.219468817,0.283590198,0.400883317,-0.587298512,-0.511554301,-0.482374817
309048,9.185503006,-0.683180749,3.388703108,0.370609313,-0.01704525,0.243096501,0.697637022,-0.337535143,-0.463573277,-0.429502696,9.554549217,0.290531069,-2.086069584,-0.493838429,0.401293337,0.22117202,0.400837868,-0.587329924,-0.511456847,-0.482477576
309215,9.197987556,-0.682579935,3.388767481,0.646227658,-0.102937445,0.23263377,0.697652578,-0.337504745,-0.463593394,-0.429479331,9.534955025,0.286625862,-2.078337908,-0.271456182,0.440621585,0.17095834,0.400810719,-0.587341726,-0.511377096,-0.482570142
309382,9.198312759,-0.684278667,3.367524862,0.755516887,-0.062520593,0.268107325,0.697678566,-0.337462991,-0.463614553,-0.429447174,9.540962219,0.309842169,-2.082057238,-0.17964749,0.349645376,0.185365513,0.400785685,-0.587355733,-0.511308014,-0.482647359
309548,9.191084862,-0.686989367,3.358387709,0.63171804,-0.095829912,0.446218014,0.697707295,-0.337447822,-0.463622808,-0.429403692,9.535720825,0.307425082,-2.067105055,-0.011500101,0.289865315,0.45568195,0.400789052,-0.587383986,-0.511231303,-0.482691258
309715,9.222301483,-0.692664862,3.377545357,0.699630082,0.013273782,0.270630181,0.697735608,-0.337407112,-0.463632911,-0.429378778,9.542730331,0.341588587,-2.083734512,0.158203229,0.282463253,0.530957639,0.400811553,-0.587408364,-0.511160731,-0.482717842
309882,9.20279026,-0.664023042,3.406791687,0.766889036,-0.028212387,0.240522444,0.69776243,-0.337360173,-0.463652968,-0.429350287,9.540016174,0.342861742,-2.065152407,0.124817081,0.187043115,0.623419523,0.400829941,-0.587447882,-0.511085868,-0.482733577
310049,9.196549416,-0.659760237,3.382809401,0.519188643,0.005205781,0.342870772,0.697785795,-0.337342739,-0.463649154,-0.429330111,9.571285248,0.344621122,-2.078627586,-0.024972383,0.221889213,0.728393078,0.400845051,-0.587501109,-0.510989845,-0.482757896
310215,9.195101738,-0.675531268,3.36079812,0.457718134,-0.038137309,0.384798795,0.697805762,-0.337336779,-0.463643938,-0.429307938,9.533569336,0.323703766,-2.09757781,-0.107483685,0.264175773,0.891481936,0.400867164,-0.587567866,-0.510872066,-0.482782871
310382,9.220974922,-0.669530392,3.390727282,0.234349817,-0.07727351,0.429621041,0.697814763,-0.337358922,-0.463626862,-0.429294467,9.540433884,0.331295639,-2.067574501,-0.1933887,0.17426239,0.98847729,0.400881529,-0.5876531,-0.510745645,-0.48280102
310549,9.219555855,-0.652457535,3.395208359,0.259898454,-0.072765678,0.281810105,0.697816014,-0.337367892,-0.463618189,-0.429294616,9.550544739,0.319310635,-2.074988842,-0.353506446,0.502873302,0.888152361,0.400899082,-0.587716758,-0.510597765,-0.482865423
310715,9.185141563,-0.687633157,3.38209796,0.084400244,-0.282725781,0.550845981,0.697811246,-0.33742559,-0.463606864,-0.429269373,9.533406258,0.301024437,-2.071802139,-0.187856331,0.502028167,1.015165806,0.400939286,-0.587779999,-0.5104509,-0.482910275
310882,9.177503586,-0.678034425,3.309661388,0.261652917,-0.212585405,0.543763995,0.697819471,-0.337460279,-0.463599741,-0.429236323,9.529640198,0.283165216,-2.053938866,-0.069717765,0.268056095,1.115862012,0.400979012,-0.587860107,-0.510317624,-0.482920647
311049,9.305541992,-0.692457438,3.314536095,0.231481165,0.444463551,0.31150803,0.697855711,-0.337441534,-0.463535994,-0.429261059,9.537595749,0.276047826,-2.084707022,0.210299492,0.02978117,1.251839995,0.401034474,-0.587950468,-0.510206401,-0.482882082
311215,9.193374634,-0.659170449,3.436163425,0.358737856,0.508175135,-0.184936479,0.69787091,-0.337372869,-0.46349889,-0.429330468,9.533109665,0.30497539,-2.068363905,0.25775978,-0.265629292,0.598972142,0.401025981,-0.58801043,-0.510171652,-0.482852757
311382,9.178829193,-0.646953762,3.405622244,0.49218002,-0.090873852,-0.262466133,0.697847664,-0.337322176,-0.463534474,-0.429369777,9.570971489,0.299721926,-2.071521759,0.283590227,-0.058960434,-0.061636962,0.400988281,-0.588005185,-0.510183513,-0.48287794
311549,9.219898224,-0.689691007,3.403955936,0.366114348,0.758872211,0.354306877,0.697914004,-0.337272167,-0.463445514,-0.429396927,9.592364311,0.298509598,-2.048397779,0.239395514,0.20859623,-0.126616374,0.400961846,-0.587978721,-0.510182381,-0.482933342
311715,9.164317131,-0.696552217,3.438730717,0.361427218,0.313800395,0.617592692,0.697966695,-0.337268054,-0.463388532,-0.429376096,9.546521187,0.309524328,-2.050368309,0.323955864,0.465658128,0.033021171,0.400972843,-0.587940693,-0.510158598,-0.4829956
311882,9.169174194,-0.666115105,3.419340134,0.3963117,-0.100056008,0.41351065,0.697980762,-0.337272227,-0.463385254,-0.429353446,9.53561306,0.363982797,-2.032212019,0.210209817,0.35968557,0.353576899,0.400988549,-0.587940276,-0.510105848,-0.483038992
312049,9.18540287,-0.646807134,3.42817378,0.18459712,-0.179199249,0.382903427,0.697977424,-0.337300271,-0.463378072,-0.429344714,9.523751259,0.365391821,-2.004971981,-0.315638095,0.324570537,0.600047946,0.40097338,-0.587990522,-0.509997547,-0.483104765
312215,9.175936699,-0.660675406,3.394579172,0.044226725,-0.259431034,0.159752816,0.697947919,-0.337331891,-0.463381082,-0.429364502,9.499190331,0.328050643,-2.025272369,-0.631698906,0.182445675,0.789172173,0.401043564,-0.587966263,-0.509993613,-0.483080208
312382,9.151907921,-0.709061801,3.374484062,0.294744521,-0.481633991,0.344253868,0.697927237,-0.337364048,-0.463413298,-0.429338038,9.524447441,0.302228391,-2.010436535,-0.568128109,-0.070153184,0.926200032,0.401000261,-0.58808136,-0.509863913,-0.483112931
312549,9.180006027,-0.687976658,3.410629034,0.540062964,-0.448696047,0.502681196,0.697930813,-0.337380052,-0.463449597,-0.429280579,9.541374207,0.275703281,-2.000231504,-0.4860906,-0.103475302,0.981766701,0.401079208,-0.588077426,-0.509875953,-0.48303926
312715,9.171650887,-0.69026053,3.387046337,0.401844025,-0.613283277,0.411717713,0.697911024,-0.337413937,-0.463498145,-0.42923373,9.548592567,0.254909426,-2.037701607,0.084195346,-0.283891201,1.031032801,0.401195347,-0.588058233,-0.509931982,-0.482907116
312882,9.201366425,-0.688788235,3.402178288,0.17212373,-0.412991941,0.413984448,0.697893679,-0.33745864,-0.463511825,-0.429212064,9.544247627,0.26551345,-2.045436859,0.388653457,-0.535830498,0.895759284,0.401198715,-0.588145733,-0.50990063,-0.482831031
313049,9.212667465,-0.676815093,3.401960135,0.399449259,-0.529248059,0.381136179,0.697877645,-0.337485135,-0.463553011,-0.429172784,9.531627655,0.29600814,-2.032229185,0.635841608,-0.744919658,0.501989663,0.401294678,-0.58808285,-0.510072291,-0.482646286
313215,9.193220139,-0.671303749,3.416812897,0.685299754,-0.778562009,0.319294304,0.697854996,-0.337493688,-0.463640392,-0.429108441,9.561349869,0.34105593,-2.041605473,0.433744639,-0.828865349,0.203435272,0.401346594,-0.588014483,-0.510261238,-0.482486725
313382,9.16614151,-0.668347061,3.38959384,0.650376916,-1.144209027,0.489016891,0.69781667,-0.337539613,-0.463754147,-0.429011583,9.523940086,0.312257946,-2.069386721,0.103020675,-0.851724625,0.197134539,0.40136683,-0.5879668,-0.51042819,-0.482351422
313549,9.270952225,-0.698308825,3.325643301,0.403624147,-1.287281394,0.571323276,0.697761834,-0.337624758,-0.463862985,-0.428916216,9.5978899,0.287441999,-2.079357386,0.097091347,-0.825049162,0.712705374,0.401426136,-0.587953508,-0.510551929,-0.48218739
313715,9.192270279,-0.690185666,3.398846149,0.43065837,-1.132375956,0.371954083,0.697705925,-0.337684304,-0.463968068,-0.428846687,9.54160881,0.33539027,-2.083917618,0.250562638,-0.912529171,0.963364065,0.401510119,-0.587954998,-0.510671139,-0.481989413
313882,9.239521027,-0.653934896,3.312664986,0.352270722,-1.782272577,-0.143149391,0.697570324,-0.337757349,-0.46415931,-0.428802967,9.522755623,0.361078739,-2.076535702,-0.346821576,-1.092522621,0.756759226,0.401517034,-0.587985456,-0.510780513,-0.481830567
314049,9.19527626,-0.625883281,3.364271641,0.43050468,-1.182717681,0.142707556,0.697496235,-0.337804288,-0.464281142,-0.428754389,9.52917099,0.303101599,-2.081772327,-0.532987535,-1.217615008,0.552766919,0.401477873,-0.588025928,-0.510895133,-0.481692135
314215,9.232374191,-0.678646386,3.34142518,-0.001114152,-1.678310513,0.402369082,0.697383523,-0.337942928,-0.464413941,-0.428684741,9.53618145,0.258431673,-2.108550549,-0.371127993,-1.174688101,0.684697866,0.401465923,-0.588062108,-0.511009395,-0.481536835
314382,9.215802193,-0.696942389,3.333610773,0.434577048,-1.510099292,0.377563208,0.697301805,-0.338025093,-0.464558214,-0.428596348,9.526683807,0.262543917,-2.123113394,-0.064159818,-1.339223981,0.740392685,0.401474655,-0.588092685,-0.511153936,-0.48133865
314549,9.215543747,-0.673206866,3.324435949,0.347327411,-1.485741377,0.280478239,0.697211325,-0.338108152,-0.464699566,-0.428525031,9.540501595,0.272733629,-2.122452974,0.230571896,-1.148524642,0.716931462,0.401520312,-0.588091612,-0.511309683,-0.481136501
314715,9.193049431,-0.656567633,3.332271576,-0.139294669,-1.510739326,-0.063045658,0.697073579,-0.338218778,-0.46483025,-0.428520143,9.518627167,0.289533019,-2.124630928,0.143078953,-1.004145861,0.562896729,0.401558191,-0.58807373,-0.511464655,-0.480961889
314882,9.204492569,-0.665425897,3.337386131,0.060593244,-1.531844258,-0.055502713,0.696944475,-0.338310629,-0.464975327,-0.428500056,9.518321037,0.309357613,-2.134608269,0.117171697,-0.851238072,0.235118136,0.401581913,-0.588022053,-0.511637449,-0.480821431
315049,9.218009949,-0.661903083,3.303908825,0.565227389,-1.480183482,0.129120007,0.696855068,-0.338360429,-0.46513769,-0.428430021,9.531951904,0.306913584,-2.134287834,-0.036741421,-0.757636487,0.224937156,0.401599944,-0.587970018,-0.511797786,-0.480699509
315215,9.235267639,-0.660197139,3.327815056,0.638338923,-1.361878514,0.105607562,0.696775794,-0.33839342,-0.465294361,-0.428362817,9.548974991,0.303437501,-2.147877455,-0.08454752,-0.628100157,0.319243073,0.401626259,-0.587921858,-0.511935771,-0.48058936
315382,9.235466003,-0.648372948,3.338055849,0.553522468,-1.19730413,0.061310392,0.696700454,-0.338421613,-0.465431362,-0.428314209,9.565101624,0.299951136,-2.154139042,-0.256869763,-0.375379711,0.324813873,0.401658833,-0.587863922,-0.512049735,-0.480511367
315549,9.257094383,-0.676161826,3.359829187,0.204997629,-0.908700109,0.020931978,0.696624637,-0.33846423,-0.465519488,-0.42830801,9.605052948,0.306266397,-2.147573233,-0.310067356,-0.073060229,0.405634761,0.401712626,-0.587795913,-0.512133777,-0.480460078
315715,9.250792503,-0.659349084,3.360776186,0.174223989,-0.717936754,-0.013907695,0.696558118,-0.338495493,-0.465588063,-0.42831701,9.598515511,0.341306061,-2.160458326,-0.50658071,0.286971062,0.489336997,0.401784718,-0.587717235,-0.512179911,-0.480446965
315882,9.278406143,-0.653870225,3.368766069,-0.124925949,-0.639164865,0.148291126,0.696492314,-0.338562727,-0.465622067,-0.428333908,9.616580963,0.314629823,-2.145133257,-0.747186482,0.577867329,0.449394077,0.401852041,-0.587631464,-0.512193561,-0.480481029
316049,9.270174026,-0.702688932,3.337899208,-0.15089722,-0.405423433,0.34137249,0.696453035,-0.338630795,-0.465621233,-0.428344965,9.554477692,0.273291826,-2.125780821,-0.63710314,0.828346729,0.759730399,0.401970804,-0.587542415,-0.512176812,-0.480508566
316215,9.257821083,-0.677305043,3.363147497,0.093646429,-0.656799197,0.476607502,0.696417451,-0.338698477,-0.465654641,-0.428312659,9.521500587,0.30807206,-2.073357105,-0.589719594,0.912573993,0.733579695,0.402097464,-0.587442935,-0.51216048,-0.480541468
316382,9.199220657,-0.669315815,3.313441992,-0.093178988,-0.537098289,0.352014542,0.69637388,-0.338768303,-0.465670973,-0.428310782,9.502902031,0.315606773,-2.053940773,-0.681835711,0.89009887,0.631551504,0.402203858,-0.587346196,-0.512143731,-0.480588555
316549,9.158009529,-0.674314082,3.293948889,0.160239473,-0.832220733,0.464736044,0.696328819,-0.338839293,-0.465726674,-0.42826739,9.515735626,0.284540415,-2.061818361,-0.501458168,0.719050884,0.640829682,0.40231362,-0.587250888,-0.512149334,-0.480607331
316715,9.223626137,-0.704760849,3.293518066,0.116403311,-0.927141309,0.632537603,0.696285009,-0.338932306,-0.465780646,-0.428206056,9.508197784,0.274534702,-2.105113029,-0.122454315,0.236450031,0.633779824,0.402316183,-0.587275863,-0.512084126,-0.480643868
316882,9.245266914,-0.691664636,3.290870905,0.530855238,-0.639561892,0.724192679,0.696287394,-0.338971376,-0.465827405,-0.428120762,9.531404495,0.257136464,-2.094902992,0.462879092,-0.185679257,0.605311334,0.402439862,-0.587182283,-0.512215793,-0.480514467
317049,9.283159256,-0.659697711,3.298774481,0.809905589,-0.96506089,0.764865696,0.696283519,-0.33900544,-0.465922475,-0.427996546,9.490048409,0.299735844,-2.112802029,0.87307924,-0.614858449,0.320177943,0.402547419,-0.587072372,-0.512426674,-0.480333745
317215,9.288024902,-0.647059321,3.230624914,1.03642416,-1.023214459,0.504755855,0.696269393,-0.339003474,-0.466049939,-0.427882135,9.480521202,0.31087479,-2.117369175,1.074651361,-1.089692235,-0.059728816,0.402609199,-0.586955905,-0.512711704,-0.480120122
317382,9.214504242,-0.669059753,3.297724247,1.260650635,-0.699905396,0.669996142,0.696297646,-0.338970244,-0.466151178,-0.427752227,9.517634392,0.315159291,-2.122895956,1.135993719,-1.222276449,-0.273518026,0.40264824,-0.58683157,-0.513024449,-0.479905367
317549,9.209516525,-0.668958843,3.279601336,1.415428162,-0.777063668,0.803566396,0.696339488,-0.33893171,-0.466265798,-0.427589744,9.51393795,0.337019563,-2.133990288,1.107986212,-1.009895921,-0.034564339,0.402715385,-0.586713076,-0.513301075,-0.479698151
317715,9.2595644,-0.65870899,3.303862572,1.322402954,-0.56491375,1.087893009,0.696404994,-0.338912547,-0.466336399,-0.427421153,9.52289772,0.367211848,-2.141905785,1.089660287,-0.606444657,0.173519641,0.402829289,-0.586577892,-0.513541043,-0.479510963
317882,9.217279434,-0.617964625,3.298233986,0.592748344,-0.063186534,1.045452833,0.696465671,-0.33893308,-0.466313154,-0.427331418,9.539121628,0.400040179,-2.129178047,0.693559885,0.017410232,0.616017461,0.402982861,-0.586458206,-0.513676047,-0.479383409
318049,9.163609505,-0.628582299,3.320981503,-0.007299619,-0.159823224,0.944602668,0.696481884,-0.339014828,-0.466266394,-0.427290976,9.549791336,0.366868258,-2.113501787,0.405468225,0.756567121,1.070886135,0.403200865,-0.586334169,-0.513713419,-0.479311794
318215,9.171095848,-0.668455184,3.326760292,-0.106587246,-0.134441063,0.890969753,0.696500301,-0.33909142,-0.466220409,-0.427250266,9.545451164,0.339639127,-2.12113142,0.097296238,1.360002398,1.428477883,0.403459311,-0.586215079,-0.513660789,-0.479296327
318382,9.189292908,-0.688976645,3.334011316,-0.370039463,0.082761019,0.845660865,0.696512759,-0.339183211,-0.46613425,-0.427251309,9.56566906,0.305433869,-2.089319706,-0.217054814,1.879478812,1.697090864,0.403749704,-0.586096168,-0.513535559,-0.479331642
318549,9.180972099,-0.699769378,3.364906311,-0.275118798,0.370852679,0.785496652,0.696543336,-0.339245737,-0.466025501,-0.427270323,9.583862305,0.28826654,-2.067766428,-0.215876624,2.310668707,1.677279592,0.403971672,-0.586051285,-0.513265431,-0.479488701
318715,9.206341743,-0.689914763,3.384054184,-0.148271933,0.121781997,0.653885901,0.69656074,-0.339295894,-0.465960145,-0.427273452,9.558729172,0.26631397,-2.029219627,-0.139230654,2.476818562,1.394118428,0.404192775,-0.585968733,-0.513015091,-0.47967115
318882,9.221626282,-0.702063203,3.350684166,0.109218948,-0.000332965,0.49906981,0.696572483,-0.339317411,-0.465929747,-0.427270323,9.52942276,0.260199457,-2.036587715,0.006025387,2.168082952,1.112045884,0.404483587,-0.585770726,-0.512939513,-0.479748756
319049,9.232126236,-0.720790863,3.308677673,0.583438098,-0.305303365,0.540895402,0.696587086,-0.339315295,-0.465955347,-0.427220255,9.501513481,0.256219149,-2.029264212,0.342371345,1.537101269,0.922959864,0.404744446,-0.585580885,-0.512942433,-0.479757518
319215,9.250794411,-0.728126347,3.30100584,1.146123528,-0.388006806,0.393558323,0.696617246,-0.339248776,-0.466033518,-0.427138925,9.541321754,0.276205093,-2.024262667,0.484457791,0.729417622,0.419491142,0.404914916,-0.585408688,-0.513036966,-0.479722649
319382,9.246832848,-0.710312963,3.329252958,1.823643208,-0.216593787,0.152927011,0.696668029,-0.339097172,-0.466140538,-0.42705968,9.509485245,0.248828933,-2.015024662,0.368842065,0.30700019,0.006012581,0.40502125,-0.585235059,-0.513190925,-0.479680061
319549,9.225226402,-0.687283754,3.249935389,2.239504099,-0.752168179,0.120322071,0.69670099,-0.338934362,-0.466329217,-0.426929176,9.437114716,0.247739017,-2.018799782,0.740661681,-0.596289277,-0.405807614,0.405060112,-0.585074723,-0.513455331,-0.479559958
319715,9.160562515,-0.669023454,3.282764435,2.490662336,-0.327086955,0.116095968,0.696784794,-0.338708073,-0.466499299,-0.426786005,9.462590218,0.313375831,-2.024346113,0.643205345,-1.051439762,-0.813280046,0.40502727,-0.584922135,-0.513773203,-0.479433298
319882,9.185092926,-0.63748455,3.260009289,2.597787619,-0.770545304,-0.208679497,0.696822584,-0.338477105,-0.466736346,-0.426648229,9.54784584,0.289399028,-2.0440979,0.312686205,-1.119108438,-1.099348068,0.404947609,-0.584764719,-0.514104426,-0.479337335
320049,9.297218323,-0.647397757,3.283457279,1.990740776,-0.272122145,-0.925745487,0.696810484,-0.338237882,-0.46691367,-0.426663935,9.637734413,0.300600588,-2.110624552,0.484739542,-0.979340076,-1.199161053,0.404878914,-0.584587097,-0.514439583,-0.479252726
320215,9.200637817,-0.643958271,3.351023674,2.032079458,-1.053155661,-1.077577353,0.696744859,-0.338024318,-0.467186391,-0.426641732,9.643946648,0.350772053,-2.142793655,0.47637704,-0.808695495,-1.458438516,0.404804319,-0.584377587,-0.514787018,-0.479198039
320382,9.349473,-0.651251137,3.265645027,2.394601822,-1.137011766,-0.764270186,0.696718276,-0.33779192,-0.467480361,-0.426547378,9.600128174,0.341683388,-2.161986828,0.407504439,-0.973897278,-1.499341846,0.404704064,-0.584184468,-0.515138626,-0.47914046
320549,9.375781059,-0.640455365,3.276139736,2.157338619,-0.058115218,-0.332311958,0.696765006,-0.337561876,-0.467618048,-0.426502019,9.524745941,0.389086038,-2.179333925,0.409028381,-1.2406919,-1.087246299,0.404607475,-0.584045112,-0.515466273,-0.47903946
320715,9.307857513,-0.598070025,3.288426638,1.714751124,-0.221998096,-0.100568272,0.696787715,-0.337408394,-0.467730045,-0.426463813,9.483942986,0.466701448,-2.15773797,0.160636455,-1.683868647,-0.606508791,0.404492766,-0.583982944,-0.515767455,-0.478887945
320882,9.290568352,-0.533860683,3.303366184,1.140988111,-0.376596361,-0.168915763,0.696775317,-0.337308288,-0.467832595,-0.426450431,9.521028519,0.54012835,-2.119579315,-0.941574156,-1.553884149,-0.136784628,0.404330492,-0.584005892,-0.515951574,-0.478798747
321049,9.205858231,-0.497818798,3.326691628,-0.005532343,-0.217682317,-0.021770792,0.696727157,-0.337322712,-0.467842221,-0.426507086,9.511931419,0.546647787,-2.097668171,-2.146920443,-0.743780017,0.574448049,0.404169351,-0.584101021,-0.51593864,-0.478832364
321215,9.155974388,-0.55355221,3.344010592,-0.96506083,-0.228068292,0.229150414,0.696641982,-0.33745566,-0.467777997,-0.426611573,9.520825386,0.496691436,-2.082964897,-3.006853819,0.137853935,1.487732768,0.404067844,-0.584248185,-0.515743077,-0.478949279
321382,9.115962982,-0.634872258,3.367345333,-1.629864216,-0.045808319,0.735475123,0.69657743,-0.337668002,-0.467636615,-0.426704168,9.512916565,0.399309546,-2.061841965,-3.146801949,1.02525723,2.604139328,0.404008925,-0.584520102,-0.515282691,-0.479162663
321549,9.109610558,-0.680923343,3.352009773,-2.283141375,0.017064461,1.416823983,0.696516931,-0.338000059,-0.467405677,-0.42679286,9.50343132,0.301682949,-2.065792084,-2.527422667,1.811285257,3.818897963,0.404145241,-0.584791481,-0.514715731,-0.47932595
321715,9.117534637,-0.729741633,3.317883968,-3.046272278,0.465939879,1.816049337,0.696490705,-0.338390529,-0.467074454,-0.426888853,9.507305145,0.217251614,-2.055951357,-1.267700553,2.048830032,4.541535378,0.404456764,-0.585025668,-0.51416111,-0.479372561
321882,9.114928246,-0.760973573,3.36159277,-3.055441856,0.693841696,2.001703024,0.696489036,-0.338782817,-0.466707975,-0.42698136,9.518693924,0.153130397,-2.037335873,0.35626632,2.278167009,4.819267273,0.405035049,-0.585070431,-0.513794661,-0.479222566
322049,9.145658493,-0.794314802,3.358133554,-2.586498737,0.805794775,2.193977594,0.696519196,-0.339146048,-0.466339707,-0.427046061,9.554634094,0.118465044,-2.01604867,1.817406893,2.563389778,4.545697689,0.405735731,-0.58499378,-0.513530016,-0.479007035
322215,9.141838074,-0.804467797,3.340001106,-1.774768114,0.460714847,2.49578476,0.696606398,-0.339445889,-0.466057837,-0.426973253,9.53507328,0.063927397,-2.054258347,3.217371464,2.34865284,3.834407091,0.406490594,-0.58479625,-0.513435185,-0.478709728
322382,9.273058891,-0.804202974,3.305300713,-0.928857267,0.840755939,2.300065041,0.69674319,-0.339630306,-0.465793848,-0.426891506,9.578584671,0.07699091,-2.027504921,4.523106575,2.120225668,2.93271184,0.407283664,-0.584463537,-0.513528287,-0.478341997
322549,9.236670494,-0.777278483,3.369697571,0.540767372,1.094693184,1.849665999,0.696954668,-0.339606196,-0.465627491,-0.426747084,9.555521965,0.16508539,-2.020071745,5.110700607,1.981200099,1.484467387,0.408011496,-0.584002495,-0.513786852,-0.478007317
322715,9.282018661,-0.71011585,3.279208422,1.720564961,0.255198509,1.141449094,0.697098017,-0.339494914,-0.465633214,-0.426595032,9.529928207,0.236898065,-2.023433924,4.582130909,1.651948571,0.036555722,0.408572793,-0.58348304,-0.514154911,-0.477766246
322882,9.194264412,-0.649701655,3.307397366,2.290575981,0.56558603,0.884925127,0.697259605,-0.339305609,-0.465644032,-0.426469833,9.552598,0.285382092,-2.026506424,3.474561453,1.259113908,-1.017105937,0.408930957,-0.58298409,-0.514550865,-0.477642536
323049,9.231646538,-0.665973783,3.333536625,2.338394642,0.332267165,0.854779065,0.697434127,-0.339092106,-0.46570605,-0.426286608,9.604959488,0.361013442,-2.045386553,2.052390575,1.240762472,-1.500801802,0.40913555,-0.582531631,-0.514893174,-0.477650613
323215,9.229248047,-0.660538077,3.347338438,2.424837351,0.332459241,0.542086363,0.697570443,-0.338873327,-0.465770453,-0.426166862,9.590036392,0.405954987,-2.062604427,0.35038811,1.367378712,-1.486906767,0.409203649,-0.582174003,-0.51510644,-0.477798283
323382,9.256163597,-0.59653455,3.344438314,2.168800354,0.601290166,0.225103647,0.697707057,-0.338626176,-0.46581915,-0.426086724,9.584636688,0.421684891,-2.06726265,-1.417996049,1.321749806,-1.364388585,0.40904209,-0.58202368,-0.515087187,-0.478140205
323549,9.242177963,-0.60153985,3.329162598,1.44255197,0.888536572,-0.063340209,0.697787881,-0.338437825,-0.465791136,-0.426134437,9.605312347,0.400858104,-2.087178946,-2.927326441,1.662372947,-1.048122883,0.40888074,-0.581874728,-0.515016496,-0.478535861
323715,9.248720169,-0.676757514,3.320433378,1.174131036,1.079095125,-0.122031726,0.697884142,-0.338238686,-0.465746373,-0.426183969,9.601935387,0.367085785,-2.131610394,-3.812911749,1.960376978,-0.770327628,0.408696383,-0.581765592,-0.514857233,-0.478997111
323882,9.226719856,-0.666896403,3.337450981,1.243605494,1.274353504,0.15261969,0.698031187,-0.338019907,-0.46568653,-0.42618221,9.614925385,0.312862486,-2.145953417,-4.105613708,2.685946226,-0.610645175,0.408538967,-0.581648648,-0.514605999,-0.47954312
324049,9.240243912,-0.668646216,3.321374655,0.972085118,1.634378314,0.320562124,0.698196948,-0.337820232,-0.465563059,-0.426203728,9.623410225,0.278577656,-2.155563831,-3.802730799,3.621502161,-0.516723514,0.408486515,-0.581451595,-0.514316976,-0.480136395
324215,9.249512672,-0.668569565,3.343539238,0.71753335,1.938016891,0.284704357,0.698346198,-0.337649345,-0.465377361,-0.426297545,9.619898796,0.298640192,-2.139314651,-3.31242609,4.611906052,-0.638652682,0.408536106,-0.581151962,-0.514008582,-0.48078683
324382,9.218952179,-0.659738779,3.310842991,0.834506571,2.248353481,0.406108558,0.698521614,-0.337463975,-0.465155125,-0.42639944,9.616898537,0.308561593,-2.118572235,-3.040803909,5.658838272,-0.670758247,0.408680648,-0.580763817,-0.513655901,-0.481509209
324549,9.224039078,-0.655997872,3.292492151,0.120437317,2.55259347,0.445155114,0.69864279,-0.33738029,-0.464822948,-0.426629215,9.562684059,0.33872804,-2.125138521,-2.655781031,6.671129227,-0.468212992,0.408949971,-0.580293477,-0.513256729,-0.482272595
324715,9.262294769,-0.678915143,3.266356707,-0.551940858,2.426655769,0.693982422,0.698792875,-0.337328911,-0.464494318,-0.426781982,9.539169312,0.360178679,-2.070187807,-2.495343447,7.059034824,0.088536732,0.409296632,-0.579831004,-0.51279521,-0.483025134
324882,9.249741554,-0.682154059,3.279139519,-0.662574947,2.863339663,0.960764289,0.698984504,-0.337278306,-0.464103222,-0.426933855,9.565916061,0.394169062,-2.06186986,-2.4202981,7.233917236,0.679460227,0.409705907,-0.579392612,-0.512282193,-0.483748347
325049,9.272902489,-0.70154196,3.316838264,-1.152200222,3.081227303,1.069451928,0.699202061,-0.337239623,-0.463677734,-0.42707029,9.621123314,0.362131327,-2.043232203,-2.381379366,7.479696751,1.388215065,0.410175145,-0.578997254,-0.511685729,-0.484454781
325215,9.274823189,-0.719418705,3.327981472,-1.378642082,3.397697687,1.307547688,0.699435174,-0.337230325,-0.463187695,-0.427227736,9.664556503,0.335690558,-1.97818327,-2.43843174,7.8388381,2.07889986,0.41072157,-0.578622937,-0.511014819,-0.48514691
325382,9.261270523,-0.734703481,3.344033957,-1.577460408,3.512454987,1.602733731,0.699692905,-0.337244749,-0.462666184,-0.427359223,9.63780117,0.294688672,-1.945221066,-2.316502333,8.396965981,2.672333479,0.41135779,-0.578248203,-0.510265291,-0.485842794
325549,9.26280117,-0.75427413,3.350342512,-1.503363132,3.462651491,1.850370407,0.699958563,-0.337279499,-0.462136626,-0.427469701,9.592867851,0.24877046,-1.920888186,-1.958475709,8.670368195,2.698778629,0.412055194,-0.577824235,-0.509533107,-0.486524105
325715,9.209055901,-0.758615315,3.377402306,-1.212517977,3.797921658,2.041774035,0.700280547,-0.337268472,-0.461588025,-0.427544087,9.588058472,0.210003272,-1.887774467,-1.342131615,8.990272522,2.481429815,0.412803948,-0.577332497,-0.508833289,-0.487205088
325882,9.172258377,-0.76222986,3.399079084,-0.725646198,3.594140768,2.109871864,0.700608611,-0.337233841,-0.4610807,-0.427581161,9.582956314,0.191139042,-1.833010435,-0.377787411,9.307344437,2.214084148,0.413638711,-0.576739132,-0.508205295,-0.487854868
326049,9.151632309,-0.747647882,3.429719448,-0.29402101,3.408256531,2.199824095,0.700913429,-0.337213099,-0.460585117,-0.427632242,9.613243103,0.2084748,-1.76997447,0.205753267,9.330715179,1.900161862,0.414497733,-0.576089203,-0.507637978,-0.488483965
326215,9.153675079,-0.761572182,3.434454203,-0.120033935,3.473985672,2.058217525,0.701208591,-0.337175369,-0.460089505,-0.427711606,9.646282196,0.223818123,-1.73187232,0.702832043,9.593400955,1.638361931,0.415400237,-0.575369179,-0.507112145,-0.489111692
326382,9.133828163,-0.760066628,3.4307549,0.212450922,3.716370344,1.916976094,0.701556802,-0.337047487,-0.45961982,-0.427746147,9.629114151,0.25223133,-1.708399057,0.92718643,9.626120567,1.509004712,0.41631043,-0.574626744,-0.506605268,-0.489735544
326549,9.149979591,-0.768367529,3.475680828,0.670982301,3.93959856,1.707682014,0.701937556,-0.33683601,-0.459172398,-0.427768499,9.70012188,0.281070858,-1.688184023,0.776295543,9.891973495,1.165301442,0.41720444,-0.573846281,-0.506101251,-0.490410805
326716,9.155844688,-0.756210029,3.49878931,1.097267389,3.997354984,1.471878767,0.70231986,-0.336570561,-0.458750278,-0.42780304,9.678421021,0.275382966,-1.652935624,0.422321558,10.52275753,1.045581222,0.41810891,-0.57302916,-0.505545735,-0.49116835
326882,9.134251595,-0.75876987,3.486232996,1.345992088,3.904675007,1.531722665,0.702738345,-0.336260915,-0.458370596,-0.427766144,9.687200546,0.281308532,-1.656960011,0.305527598,10.96812439,0.886526227,0.419014156,-0.572184265,-0.504955113,-0.491988569
327049,9.132748604,-0.749825358,3.468868971,1.791601777,4.37064743,1.62099576,0.703184843,-0.335914463,-0.457942694,-0.427762955,9.70327282,0.310041755,-1.648940086,0.043458369,11.46540928,0.71825099,0.419919759,-0.571307421,-0.504326582,-0.49287951
327216,9.254610062,-0.717674077,3.496337175,1.299441099,4.871400833,0.92335695,0.703629911,-0.335505664,-0.457492799,-0.427833557,9.755711555,0.27532357,-1.639443874,-0.463410884,12.19858742,0.533160686,0.420824438,-0.570391536,-0.50363338,-0.493876338
327382,9.216485023,-0.703509092,3.572886705,1.211666465,5.668942928,0.408708304,0.704030573,-0.335084945,-0.456933856,-0.428101033,9.812405586,0.321884006,-1.596896768,-0.637590051,13.35009575,0.029268924,0.421762079,-0.569364488,-0.502898216,-0.49500978
327549,9.089675903,-0.665503681,3.623206854,1.144804478,4.887921333,0.339643657,0.704432964,-0.33464992,-0.45650202,-0.42824015,9.810563087,0.357624531,-1.535526276,-1.395534515,14.81428814,-0.682489336,0.422688276,-0.568226397,-0.502072632,-0.496363401
327716,9.113593102,-0.678538561,3.580466509,0.972034037,5.611198425,0.517075598,0.704838991,-0.33424741,-0.45593974,-0.428485453,9.872661591,0.310052752,-1.516803622,-2.217178345,16.6497097,-1.153763413,0.423647881,-0.566965103,-0.501115501,-0.497952104
327882,9.09423542,-0.692634106,3.619710207,0.721721172,5.862152576,1.142448187,0.705280483,-0.333903342,-0.455299735,-0.428707868,9.821069717,0.243997693,-1.483878851,-1.807362199,18.80283737,-1.429766655,0.424768448,-0.565505862,-0.500066817,-0.499707997
328049,9.092400551,-0.710725844,3.635882378,0.650914788,5.277964592,1.505149722,0.705766201,-0.333558947,-0.454746932,-0.428763062,9.704359055,0.254272699,-1.411320806,-1.248749018,20.48421669,-1.887825251,0.4260194,-0.5638538,-0.498986661,-0.501586318
328216,9.06049633,-0.711349845,3.617450714,0.110730104,4.537360668,1.505047083,0.706066191,-0.333430678,-0.454150796,-0.429000616,9.682122231,0.295787185,-1.360532045,-0.708038628,21.19980049,-2.19844389,0.427342236,-0.562086761,-0.497924417,-0.503496349
328382,9.098931313,-0.746396065,3.586159945,-0.315279573,4.442337513,1.439837337,0.706414461,-0.333264381,-0.453602046,-0.42913729,9.677742958,0.328676403,-1.300067902,-0.130996376,21.69238472,-1.989892602,0.428751081,-0.560265362,-0.4968431,-0.505393147
328549,9.11091423,-0.799864948,3.601158381,-0.359051675,4.984930038,1.601568818,0.706803262,-0.333081692,-0.45298484,-0.429290742,9.722614288,0.44199115,-1.234249115,0.158613309,21.97215271,-1.351456404,0.430245042,-0.558447421,-0.495707303,-0.507247508
328716,9.102023125,-0.815582275,3.594255447,-0.333579838,5.418014526,1.613683581,0.707194984,-0.332898378,-0.452302843,-0.429506809,9.746872902,0.455517441,-1.174651146,-1.003071904,22.55223274,-0.369796813,0.431742579,-0.556735039,-0.494352877,-0.509175777
328882,9.105341911,-0.824219108,3.631371021,-0.057385255,5.781061649,1.922278047,0.707681358,-0.332644701,-0.451615214,-0.429625899,9.758535385,0.414043486,-1.143196583,-1.332579851,22.84257889,0.723041415,0.433323532,-0.555081129,-0.492877156,-0.511065543
329049,9.09098053,-0.805518389,3.669075727,0.021124076,5.578171253,2.22978425,0.708187222,-0.332405299,-0.450945824,-0.429680705,9.810928345,0.441926032,-1.056183457,-1.816328049,23.52584267,1.804821849,0.434972644,-0.553494334,-0.49121204,-0.51298517
329216,9.129308701,-0.825062096,3.656297207,-0.506273448,5.799413204,1.929321408,0.708623827,-0.332226723,-0.450204968,-0.429876089,9.704458237,0.398017108,-1.004796743,-2.37437892,23.79117966,2.601173639,0.436663181,-0.551960468,-0.489433527,-0.514897943
329382,9.11719799,-0.817138314,3.677908421,-0.175715953,5.696386814,1.944369197,0.709106624,-0.331983984,-0.449522316,-0.429981798,9.687147141,0.395472944,-0.894252777,-3.052424908,23.26963425,2.710693121,0.438255519,-0.55051893,-0.487613559,-0.516811728
329549,9.067308426,-0.801967382,3.637586594,-0.187523365,5.591681004,2.43063879,0.709647834,-0.331743926,-0.448853582,-0.429972678,9.67375946,0.248636603,-0.846365035,-3.604264021,22.42735672,2.587943792,0.439736575,-0.549154341,-0.48581785,-0.518693089
329716,9.187721252,-0.81231606,3.655808449,-0.417256594,6.529940128,2.352648973,0.710265934,-0.33143115,-0.448101789,-0.429977685,9.745118141,0.210496068,-0.770443261,-2.850224495,21.78271103,3.040815353,0.441265672,-0.547813833,-0.484082401,-0.520431519
329882,9.067689896,-0.781142771,3.719578981,0.252368361,5.9135952,2.008990049,0.710745871,-0.33117488,-0.447390288,-0.430122674,9.754375458,0.266056687,-0.698200464,-2.301432848,21.33376884,2.912930727,0.442786783,-0.546464145,-0.482415736,-0.522103488
330049,9.127614975,-0.797263503,3.674713135,0.735641718,6.715862751,1.428362966,0.711167395,-0.330878526,-0.44658041,-0.43049565,9.762816429,0.268159032,-0.641182303,-2.41412878,20.9035759,2.087265253,0.444200456,-0.545093,-0.480827481,-0.523798287
330216,9.057289124,-0.765309453,3.742833138,0.390241623,6.847550392,1.588826537,0.711680174,-0.330528289,-0.445796371,-0.430729657,9.810488701,0.24437803,-0.554602742,-2.348598242,21.08972549,1.377267241,0.445569426,-0.543653309,-0.479278952,-0.525548041
330382,9.052512169,-0.807400227,3.743943214,0.281400412,6.776065826,1.7292099,0.712237239,-0.330155998,-0.445040941,-0.430875599,9.82710743,0.206751525,-0.513660431,-2.117840528,21.40795517,0.865691364,0.446936518,-0.542133152,-0.477763712,-0.527334154
330549,9.011367798,-0.840188682,3.778458595,0.719332755,6.503590107,1.756736755,0.712759972,-0.329795182,-0.444310904,-0.431040943,9.829408646,0.283768505,-0.43814519,-1.570868015,22.11992645,0.248565286,0.448350757,-0.540469944,-0.476293594,-0.529167652
330716,9.00214386,-0.810664058,3.826814651,0.793385446,6.981286049,1.390827298,0.713228106,-0.329438239,-0.443503976,-0.431370497,9.819708824,0.213388264,-0.40432477,-1.610529304,22.6606617,-0.63276279,0.449718684,-0.53870815,-0.474841118,-0.531105161
330882,8.989472389,-0.763389707,3.883854628,0.914994776,6.870358944,1.191432714,0.713767707,-0.328976423,-0.442789942,-0.431563884,9.819324493,0.300028712,-0.341157407,-0.907382846,23.52367783,-1.136181474,0.4511621,-0.536789775,-0.473424554,-0.533084393
331049,8.960172653,-0.790207267,3.877230167,0.571502566,7.133860588,1.244898915,0.714286983,-0.328559667,-0.442006379,-0.43182537,9.850931168,0.299495816,-0.297438413,-1.386341333,24.17940521,-1.650395989,0.452567667,-0.534810364,-0.471961975,-0.535175025
331216,8.983736992,-0.818261087,3.901703835,1.065763831,7.319169998,1.139067531,0.714846611,-0.328060418,-0.441248178,-0.432054281,9.886851311,0.333411694,-0.202454463,-1.037201524,25.33484077,-1.894665241,0.454038322,-0.532708466,-0.470447809,-0.53735441
331382,9.000153542,-0.823426664,3.933704853,1.213216066,7.390898228,1.340511322,0.71535635,-0.327625364,-0.440427303,-0.432378143,9.895950317,0.337595612,-0.133418083,-1.471978307,26.46546936,-1.926899314,0.455550939,-0.530531228,-0.468827933,-0.539639175
331549,9.003559113,-0.822401583,3.954878807,0.976324201,7.716921806,1.312375665,0.716054976,-0.327015519,-0.439692348,-0.432431251,9.88838768,0.346755087,-0.054551464,-1.103667021,27.56793976,-1.889466882,0.457143694,-0.528253198,-0.467136055,-0.541989148
331716,8.953092575,-0.825339973,3.971726894,0.545467496,8.088422775,1.48344326,0.716668606,-0.326532543,-0.438810706,-0.432675183,9.909864426,0.380419672,0.047401559,-1.474015236,28.60183144,-2.043527842,0.458758444,-0.525898814,-0.465350688,-0.54444474
331882,8.953805923,-0.825380504,4.021445274,0.528511822,8.166771889,1.479358077,0.717339337,-0.325993419,-0.437958837,-0.432833254,9.883437157,0.396130115,0.119550459,-1.584982634,29.83214188,-2.008899689,0.460442275,-0.523446977,-0.463463813,-0.546989679
332049,8.950954437,-0.837344289,3.988648891,0.643576801,8.248987198,1.745819569,0.717996955,-0.325491995,-0.437062889,-0.433025956,9.854036331,0.366013229,0.217131823,-1.918180108,30.67796516,-2.121353149,0.462139755,-0.520932138,-0.46149388,-0.549618244
332216,8.933084488,-0.827716649,3.994227886,0.449470967,8.27320385,2.028852701,0.718659401,-0.325030506,-0.436135143,-0.433209091,9.843344688,0.353382975,0.31274578,-1.871321559,31.37864494,-2.254271269,0.463867694,-0.518338323,-0.459481508,-0.552294254
332382,8.899435043,-0.851772189,4.031830311,0.624546587,8.461239815,2.085047007,0.719267428,-0.324616015,-0.435139418,-0.433512151,9.820959091,0.329210997,0.398334742,-1.687998056,31.6259613,-2.383654118,0.465606093,-0.515692532,-0.457467556,-0.554973662
332549,8.902032852,-0.864377558,4.100515366,0.503257692,8.482204437,1.929475546,0.719973445,-0.324093848,-0.434222788,-0.433649868,9.804210663,0.332470864,0.480429232,-1.207169414,31.80006981,-2.464296579,0.467375934,-0.512983799,-0.455476999,-0.55762732
332716,8.884191513,-0.875684083,4.119532108,1.021441102,8.609909058,2.041608095,0.720583081,-0.323645025,-0.433221102,-0.433973908,9.79736805,0.343621761,0.550778747,-0.736764789,31.96038818,-2.172681808,0.46920535,-0.510238409,-0.45348224,-0.560229599
332882,8.886568069,-0.875225306,4.101792336,0.917043805,8.826196671,2.001857281,0.721283853,-0.323108464,-0.432253301,-0.434175014,9.746591568,0.336859494,0.657483459,-0.437364042,32.03620529,-1.998310208,0.471066147,-0.507466853,-0.451484144,-0.562793195
333049,8.917967796,-0.879426837,4.068677902,1.405939341,9.130436897,1.976961613,0.72200954,-0.322512925,-0.431274414,-0.434385061,9.703343391,0.360297412,0.767427027,0.160291225,31.59741592,-1.792728782,0.472949356,-0.504693091,-0.449540257,-0.565258682
333216,8.919968605,-0.867738605,4.098655224,1.42179358,10.1534605,1.75664115,0.722734332,-0.321882606,-0.430163503,-0.434748292,9.689198494,0.3823888,0.878504992,0.367857218,30.85640526,-1.927118659,0.474778891,-0.501946747,-0.447665095,-0.567653477
333382,8.853963852,-0.868658721,4.18675518,1.342253327,10.16487217,2.002523422,0.723547399,-0.321203738,-0.42908898,-0.434959799,9.718858719,0.423371404,0.992936254,0.538745582,29.87271309,-1.990458608,0.476542652,-0.499255717,-0.445867926,-0.569958568
333549,8.830813408,-0.861815572,4.212488174,1.553480983,9.555121422,1.892234802,0.724324763,-0.320532471,-0.42809689,-0.435138792,9.736559868,0.450775772,1.079450488,0.452238351,29.27867508,-1.828316808,0.478266448,-0.496620804,-0.444084793,-0.572204411
333716,8.833994865,-0.851206958,4.196643829,1.090698004,9.753991127,1.920191169,0.725056529,-0.319931298,-0.427026927,-0.435413957,9.787032127,0.475372374,1.145887017,-0.124798253,28.8958149,-1.82877779,0.47991541,-0.494048506,-0.442272425,-0.574449778
333882,8.811919212,-0.870588362,4.237227917,1.03268528,9.890942574,1.940194607,0.72578007,-0.319340467,-0.42592746,-0.435718715,9.759526253,0.502352595,1.239380479,-0.526598632,28.54782486,-1.663114309,0.481518656,-0.491535038,-0.440431446,-0.576674521
334049,8.842507362,-0.8594172,4.282594681,1.500603795,9.959033966,2.010117531,0.726558924,-0.318676084,-0.424864799,-0.435944736,9.735246658,0.458376229,1.313032866,-1.095855355,28.45408249,-1.563903093,0.483075261,-0.489066601,-0.438534826,-0.578912318
334216,8.785010338,-0.878688633,4.298243523,1.13795352,9.752980232,2.022834301,0.727334321,-0.318039209,-0.423817903,-0.436135888,9.686758995,0.471971035,1.380249739,-1.183578849,27.92053604,-1.508220673,0.484588444,-0.486644387,-0.436657131,-0.581104338
334382,8.80163765,-0.875340104,4.283710003,0.973980904,9.566468239,1.954076767,0.728129029,-0.317386895,-0.422813207,-0.436260015,9.673390388,0.453357458,1.438429952,-1.511921763,27.30217934,-1.554387689,0.48602739,-0.484286398,-0.434791535,-0.583267152
334549,8.813803673,-0.865281999,4.304898739,0.612713575,10.69398975,1.701560974,0.728876472,-0.316758394,-0.421620578,-0.436622679,9.699728966,0.467175364,1.493353724,-1.568820119,26.71296501,-1.466548324,0.487425208,-0.481980324,-0.43294996,-0.585376859
334716,8.737028122,-0.880123615,4.420284748,0.88144213,10.72632599,1.273495793,0.729713559,-0.315979034,-0.420532614,-0.436838627,9.683650017,0.4883928,1.582930803,-1.837229133,26.49602127,-1.428346872,0.488786638,-0.479706913,-0.431092054,-0.587476671
334882,8.764890671,-0.860365987,4.416366577,1.034362674,9.833542824,1.075663209,0.730412841,-0.315295428,-0.419504434,-0.437152267,9.681814194,0.513331294,1.685266018,-2.065323591,26.22029114,-1.997795582,0.490058988,-0.477430224,-0.429267734,-0.589603245
335049,8.70731163,-0.877790332,4.444313049,0.987145722,11.03252602,1.378546357,0.731168568,-0.31458509,-0.418310046,-0.437544912,9.711488724,0.507881999,1.753138065,-2.307030916,26.40394592,-2.385329485,0.491285533,-0.475123405,-0.427430332,-0.591776669
335216,8.645628929,-0.879152656,4.482436657,0.760140419,10.00211525,1.926043749,0.73188895,-0.313994199,-0.417187214,-0.437836915,9.70051384,0.466582447,1.82011044,-2.64093256,26.69174004,-2.685357809,0.492473751,-0.472789675,-0.42555812,-0.594003201
335382,8.66785717,-0.890877485,4.55298233,1.196645021,9.41231823,2.124939203,0.732677281,-0.313341945,-0.416193902,-0.43793112,9.696093559,0.492174208,1.852200031,-2.699368238,27.48002243,-2.706296444,0.493697524,-0.470383227,-0.423619181,-0.596279621
335549,8.665862083,-0.861013412,4.576077938,0.926341236,8.964441299,2.048741341,0.733371556,-0.312785238,-0.415200025,-0.438110232,9.692829132,0.494176656,1.891888499,-2.897982597,28.53455734,-2.836473703,0.494952977,-0.467883587,-0.421589226,-0.598639369
335716,8.594087601,-0.886873722,4.59423399,0.947292387,8.992922783,2.127398014,0.73407805,-0.312222689,-0.414204091,-0.438271046,9.745420456,0.556300998,1.961829782,-3.353494167,30.22260094,-3.014316797,0.496256292,-0.465250432,-0.419402748,-0.601143241
335882,8.608502388,-0.908951283,4.602053165,1.180009484,9.313797951,2.3276124,0.734787524,-0.311658949,-0.413153023,-0.438475579,9.768391609,0.543020785,2.063873053,-3.97274971,32.42509079,-2.924571276,0.497649133,-0.462465197,-0.41698885,-0.603814304
336049,8.634594917,-0.922634244,4.545341492,1.370734453,10.14745331,2.756906986,0.735617876,-0.311016202,-0.412027955,-0.438598454,9.790795326,0.529720724,2.151209831,-4.277057171,34.96749496,-2.634533644,0.4991889,-0.459485173,-0.414335072,-0.60663867
336216,8.756604195,-0.948063552,4.581311226,1.269986868,10.70601559,2.909635544,0.736474097,-0.310365498,-0.410822153,-0.438753396,9.705420494,0.511338413,2.264878988,-4.122089863,37.06834412,-2.205174685,0.50088954,-0.456321925,-0.411502719,-0.60954541
336382,8.737074852,-0.924964368,4.613019943,0.280632079,12.39338398,2.833937645,0.737359524,-0.309726626,-0.409361064,-0.439083338,9.54846859,0.500828564,2.365463257,-3.724976778,38.13575745,-2.1218822,0.502672791,-0.453026652,-0.408610255,-0.612474263
336549,8.676261902,-0.946815968,4.622318268,-0.410789579,13.88776016,3.060009241,0.738352954,-0.309045523,-0.407709926,-0.43942973,9.406350136,0.511197865,2.455435514,-3.515386105,37.77450943,-2.410577059,0.504407465,-0.449717313,-0.405769646,-0.615368664
336716,8.594099998,-0.957845747,4.719314098,-0.070409365,14.27675343,3.197523594,0.739393711,-0.308306992,-0.406033456,-0.439750761,9.329416275,0.533307672,2.55551815,-3.380712986,36.55849075,-2.760844469,0.506033063,-0.446473151,-0.403041393,-0.618182719
336882,8.586297035,-0.95900768,4.707409859,0.163620457,13.07894802,3.322257519,0.740366995,-0.307638258,-0.404484451,-0.440009058,9.319766998,0.530715644,2.633996248,-3.531366825,35.00734329,-3.171890736,0.507507384,-0.443343312,-0.400429696,-0.620917976
337049,8.706840515,-0.983826339,4.699241161,0.532379508,13.82071877,3.968722343,0.741432726,-0.306922764,-0.402845681,-0.440217465,9.416890144,0.540050924,2.767225266,-3.655830622,33.79885483,-3.353010654,0.508874178,-0.440310091,-0.397897691,-0.623579681
337216,8.678367615,-0.985105634,4.683569431,1.344059587,14.4762516,3.793685675,0.742549598,-0.306072682,-0.401189804,-0.440439373,9.426579475,0.581076324,2.913347244,-3.695632696,33.47565079,-3.568387985,0.510187924,-0.437286109,-0.395390332,-0.626223445
337382,8.690109253,-0.934742749,4.742970467,0.853755355,16.77420235,2.815177917,0.743708491,-0.305070907,-0.399295419,-0.440899879,9.339682579,0.63611716,2.9909513,-4.251185894,32.73498535,-4.185898781,0.51135546,-0.434324801,-0.392917335,-0.628882766
337549,8.555190086,-0.935377836,4.845668316,-0.171361923,17.13079643,1.481138945,0.744740069,-0.304089218,-0.397346109,-0.441597342,9.272713661,0.624374568,3.0952878,-4.909012318,31.51666451,-4.672683239,0.512355804,-0.43148604,-0.390497029,-0.631524861
337716,8.422014236,-0.986973941,4.922079563,0.392303705,16.82503128,1.493202686,0.745784104,-0.30305773,-0.395469308,-0.442228556,9.225946426,0.616134822,3.183285952,-5.363663197,30.1313591,-4.805790901,0.513225973,-0.428791374,-0.388138413,-0.634102285
337882,8.379174232,-0.978331983,4.967011452,0.188323945,15.66259575,0.216741264,0.746667504,-0.302050263,-0.393758565,-0.44295311,9.231427193,0.633147717,3.261849165,-5.55463028,28.90159416,-4.725032806,0.514012456,-0.426220417,-0.385841548,-0.636595547
338049,8.385738373,-0.961858451,4.966814041,0.345547587,15.29019833,0.064768173,0.747527778,-0.301031768,-0.392108083,-0.443659157,9.240249634,0.660520434,3.361638546,-5.937707424,28.00430107,-4.691043377,0.514718711,-0.42375499,-0.383567125,-0.639040411
338216,8.362577438,-0.958943784,4.980278969,0.869558215,15.77197266,-0.00580128,0.748429418,-0.299919873,-0.390439928,-0.444362819,9.325372696,0.672599912,3.486393213,-6.224365234,28.0946331,-4.585288525,0.515413105,-0.421300709,-0.38124609,-0.641487658
338382,8.366230011,-0.940343797,5.028690338,1.570924282,15.67400742,0.324878186,0.749373674,-0.298755556,-0.388811409,-0.444983244,9.306007385,0.665687621,3.585806847,-6.377889156,28.44175148,-4.334450245,0.516131639,-0.418831527,-0.37886253,-0.643934369
338549,8.351537704,-0.961941123,5.112741947,1.580836296,15.91849232,0.411039352,0.750339866,-0.297573328,-0.387154758,-0.445591152,9.193454742,0.65757215,3.643113375,-6.219806194,28.52295685,-4.109313965,0.516876101,-0.416347295,-0.37646696,-0.646348715
338716,8.294952393,-0.965350211,5.189026356,1.084961176,15.77327919,0.218610957,0.751279891,-0.296425074,-0.385501385,-0.446205735,9.124278069,0.658394456,3.751610518,-5.877824306,28.09429932,-3.775874138,0.517640173,-0.413888097,-0.374108732,-0.64868176
338882,8.243000031,-0.961007178,5.251879692,0.559016764,16.07192612,0.157037988,0.752178013,-0.29533273,-0.38376385,-0.446914166,9.071658134,0.628486633,3.791008234,-5.284337521,27.48855972,-3.647451162,0.518410504,-0.41144076,-0.371837646,-0.650925398
339049,8.189334869,-0.950446784,5.291232109,0.241662443,15.90831184,0.591826737,0.753053665,-0.29433161,-0.381985158,-0.447623312,9.062973976,0.639270544,3.876715899,-4.643659592,27.0438118,-3.573544979,0.519193947,-0.408984214,-0.369649917,-0.653091431
339216,8.196727753,-0.940231144,5.325674534,0.312148601,15.27854252,0.714870155,0.753949761,-0.293322176,-0.380306959,-0.448205888,9.07916069,0.680219471,3.934230328,-4.243792057,26.94457054,-3.592920303,0.519986153,-0.406499028,-0.36750263,-0.655221224
339382,8.199975014,-0.967775822,5.363868237,0.37734586,15.92444801,0.76329118,0.754860282,-0.29228723,-0.378541082,-0.448843867,9.068414688,0.724814534,4.046678543,-4.306620598,27.20111084,-3.609966278,0.520778596,-0.403986484,-0.365324885,-0.657360196
339549,8.147892952,-0.952033162,5.42237854,0.558786392,15.88556671,0.907247424,0.755787671,-0.291236997,-0.376786232,-0.449442089,9.091183662,0.726014614,4.122506142,-4.451564312,28.03508377,-3.350112438,0.521623135,-0.401411742,-0.363048762,-0.659525514
339716,8.111476898,-0.974283278,5.425639629,0.896157205,15.7479372,1.295459628,0.756748319,-0.290173203,-0.375053376,-0.449962795,9.028334618,0.746975541,4.184465408,-4.562916279,28.95419312,-2.633941412,0.522569299,-0.398787558,-0.360643923,-0.661684394
339882,8.144113541,-0.93640554,5.47612524,0.147497252,16.03134155,1.483623266,0.757691026,-0.289189696,-0.37322396,-0.45053038,8.952869415,0.762279749,4.256061554,-4.744614124,29.4362278,-1.921137571,0.523589194,-0.396160483,-0.358136922,-0.663814247
340049,8.089060783,-0.975841463,5.523349762,-0.754410088,17.24693871,1.580311656,0.758678079,-0.288218081,-0.37120384,-0.45116055,8.884099007,0.776048243,4.309004784,-5.102271557,29.74485016,-1.469892025,0.524638355,-0.393546402,-0.355539262,-0.665933967
340216,8.037750244,-0.976678848,5.568060875,-1.386211872,17.67643356,1.599111199,0.759646714,-0.287296295,-0.36908415,-0.451856822,8.889509201,0.748141646,4.393796921,-5.414952755,30.1267395,-1.172476411,0.52570796,-0.390926301,-0.352858245,-0.668056071
340382,8.037542343,-0.977445126,5.609291553,-1.555409789,18.09310722,1.574792147,0.760625184,-0.286361516,-0.366906166,-0.452577531,8.903185844,0.722416759,4.450613976,-5.495006561,31.11904907,-0.930768907,0.526836872,-0.388220131,-0.350072861,-0.670206726
340549,8.050047874,-0.981260538,5.627989769,-1.741588831,18.92638016,1.822185636,0.761653423,-0.285401583,-0.364611894,-0.453308433,8.876602173,0.7541188,4.551944733,-5.440733433,31.94538498,-0.80840379,0.52801162,-0.385427028,-0.347215086,-0.672377527
340716,7.997068405,-0.995102882,5.648376465,-1.999996185,19.70926285,1.966641784,0.762720227,-0.284419268,-0.362208277,-0.454058141,8.780144691,0.743032098,4.655077934,-6.068837166,32.58262253,-0.785045028,0.529173732,-0.38261205,-0.344238073,-0.674598753
340882,7.896983624,-0.933641434,5.696111202,-1.181745887,19.5730114,2.074419975,0.763809562,-0.283363372,-0.359862775,-0.45475173,8.643847466,0.660664856,4.766413212,-5.812298775,32.16005707,-0.901557684,0.530305684,-0.379803896,-0.341317475,-0.676777303
341049,7.875486374,-0.960538447,5.73124361,-0.813895762,18.75045967,2.214905739,0.764872849,-0.282327265,-0.357623249,-0.455375284,8.566817284,0.650631249,4.952434063,-5.061906338,30.4927578,-1.187306285,0.531357288,-0.377079248,-0.33860746,-0.6788342
341216,7.812782764,-0.976564586,5.780760288,-0.803560972,18.49453735,2.049268246,0.765852153,-0.281340003,-0.35538277,-0.456094027,8.479844093,0.67072928,5.045002937,-4.132543087,28.00840187,-1.135862231,0.532333374,-0.374522865,-0.336171389,-0.680692852
341382,7.789227486,-1.034990072,5.787667274,-0.943226933,17.64849091,1.827730298,0.766823053,-0.280360937,-0.35327214,-0.456704706,8.402926445,0.710631251,5.168037891,-3.178760529,24.50009727,-0.886816084,0.533207297,-0.372245729,-0.334081948,-0.682284772
341549,7.741448879,-1.044281602,5.812122822,-0.887980342,16.91171837,1.229545236,0.767706037,-0.279397905,-0.351264864,-0.457358986,8.41656208,0.729658008,5.257404327,-2.751461267,20.86517334,-0.804585755,0.53393048,-0.370294809,-0.332307845,-0.683645904
341716,7.757221222,-1.044084072,5.86678791,-0.674357474,15.72361946,0.84247303,0.768489242,-0.278483599,-0.34940657,-0.458024263,8.442946434,0.713240266,5.329759598,-2.161393642,18.05132866,-0.517287433,0.534574151,-0.368587404,-0.330791801,-0.68479979
341882,7.662731171,-1.032640338,5.915437222,-0.572866797,14.13335896,0.609128058,0.769198298,-0.27763328,-0.347754121,-0.458607405,8.459339142,0.728481412,5.380387783,-1.495040178,15.81849957,-0.061688241,0.535188735,-0.367069066,-0.329488426,-0.685763061
342049,7.657333374,-1.035863042,5.93720293,-0.132699445,11.66691589,0.764238536,0.769812524,-0.276901454,-0.34640193,-0.459042758,8.416617393,0.720088184,5.380936623,-1.091165662,13.83881283,0.397490144,0.535773575,-0.365735918,-0.328352511,-0.686562836
342216,7.686560154,-1.033983827,5.943986416,-0.619430542,11.43027973,0.533173323,0.770350575,-0.276248574,-0.345035195,-0.459562272,8.392829895,0.694985151,5.415781021,-0.555373192,11.40674114,0.80274719,0.536309838,-0.364621073,-0.327436239,-0.687174499
342382,7.594602108,-1.036896348,6.033576965,-0.255397141,10.78174019,-0.160655707,0.770821214,-0.275563657,-0.343791723,-0.46011582,8.303833008,0.731961191,5.490289688,-0.124977216,8.605184555,0.862591147,0.53674078,-0.363753825,-0.326776773,-0.687611461
342549,7.562454224,-0.982346237,6.078745365,0.709888101,8.4721632,-0.365646958,0.771195889,-0.274917305,-0.342876405,-0.460557431,8.25720787,0.73221314,5.535353661,0.202993467,5.160959721,0.444521278,0.536983371,-0.363183916,-0.326439828,-0.687883377
342716,7.498797417,-0.983557522,6.066291809,0.88343966,6.589654922,-0.497744381,0.77148217,-0.274363846,-0.342193305,-0.460916072,8.325363159,0.739576042,5.594421387,0.58382231,2.123836994,0.32305938,0.537089884,-0.362880766,-0.326383293,-0.687986851
342882,7.533087254,-0.988312066,6.097535133,1.055915475,4.102827549,-0.16582942,0.771703064,-0.273950458,-0.341805071,-0.461080253,8.310596466,0.724943995,5.580526352,0.854138732,-0.465216309,0.725166023,0.537128448,-0.362833381,-0.326533765,-0.687910497
343049,7.516978741,-1.015209675,6.096851826,0.287483394,1.410958886,0.265213102,0.77173239,-0.273868412,-0.341615647,-0.461220235,8.255931854,0.757146001,5.575094223,0.886359513,-3.421306372,1.1430372,0.537070334,-0.363097727,-0.326895118,-0.68764466
343216,7.466080189,-0.978779316,6.176681995,0.617951214,0.063653961,-0.126040101,0.77171576,-0.273793817,-0.341635257,-0.461277813,8.248007774,0.747020662,5.568681717,0.731056988,-6.320459366,1.240685821,0.536875963,-0.36366722,-0.327460945,-0.687226117
343383,7.462482452,-0.993230224,6.142529964,0.511133492,-2.061322927,-0.348998666,0.771562696,-0.273871422,-0.341887087,-0.461301446,8.254291534,0.758333564,5.531339169,0.518010557,-9.023189545,1.158469081,0.536533058,-0.364517778,-0.328219324,-0.68668139
343549,7.458228111,-1.000009775,6.146451473,0.661953926,-3.735510349,-0.4643327,0.771336675,-0.274028808,-0.342348069,-0.461243838,8.220713615,0.676030219,5.510496616,0.530010223,-12.2264843,1.025590658,0.536023617,-0.365678668,-0.329233974,-0.685976088
343716,7.474713802,-1.007008791,6.110247135,0.838143647,-5.161958218,-0.65868187,0.77103287,-0.274252713,-0.34298715,-0.461144239,8.189884186,0.617191911,5.460141182,1.376741409,-15.95406055,1.05959177,0.535382211,-0.367144227,-0.330619067,-0.685027122
343883,7.482643127,-1.057571411,6.110043049,1.083154678,-6.42705965,-1.070918441,0.770645082,-0.274515003,-0.343798459,-0.461032301,8.1900177,0.570542037,5.426163197,2.494866133,-20.15518761,1.16956079,0.534606338,-0.368943036,-0.332432926,-0.683787644
344049,7.494945049,-1.053213,6.069618225,1.877174258,-8.128588676,-1.446413398,0.770182967,-0.274779379,-0.344870359,-0.460846364,8.202035904,0.522021532,5.37288332,4.157788754,-24.71675682,0.921207607,0.533669293,-0.371049166,-0.334774703,-0.682235658
344216,7.57073307,-1.038653493,6.024075031,2.835819721,-9.288679123,-2.074142456,0.769654155,-0.274984896,-0.346157968,-0.460641325,8.311487198,0.545930147,5.322891712,6.195147514,-29.12537766,0.461727947,0.532574296,-0.373405546,-0.337678343,-0.680372179
344383,7.585787773,-1.020817399,6.009218216,3.730830908,-11.05381966,-2.437344074,0.769050956,-0.275186092,-0.347719222,-0.460352778,8.415860176,0.631192327,5.280532837,7.596340179,-32.63787842,-0.014919454,0.531325102,-0.375968933,-0.341009498,-0.678272426
344549,7.624899864,-1.013867497,6.035305977,4.569788456,-12.83798981,-2.562040091,0.768387675,-0.275399774,-0.349544048,-0.459950477,8.527605057,0.722607613,5.169854641,8.326963425,-35.40640259,-0.237110659,0.529943466,-0.378727376,-0.344628453,-0.675985754
344716,7.732382298,-0.988179147,5.961039543,3.712262869,-14.89373493,-2.429494619,0.767558277,-0.27587831,-0.351513714,-0.459547371,8.615010262,0.792682648,5.030996323,8.527029991,-37.62431335,0.428931683,0.528511643,-0.381709754,-0.348389864,-0.673496604
344883,7.738793373,-0.978898168,5.947602272,4.071878433,-16.11489487,-2.507101059,0.766692996,-0.276376545,-0.353657484,-0.459047407,8.657038689,0.916562855,4.889914513,8.031248093,-39.85719299,1.507617116,0.527027369,-0.384990305,-0.352202058,-0.670804381
345049,7.813268185,-0.899169445,5.925512314,4.624435425,-17.62870216,-2.612472534,0.765747547,-0.276916891,-0.356001049,-0.458487809,8.716137886,0.987978697,4.744119644,6.639844894,-41.65879059,2.630357265,0.525462985,-0.388595909,-0.355940431,-0.66797334
345216,7.776388645,-0.877295315,5.93150568,3.855504036,-18.45405006,-2.280455351,0.764774323,-0.277590156,-0.358386755,-0.457846135,8.781133652,0.949094951,4.564060211,4.727553368,-43.20270157,3.657550097,0.523789465,-0.392534852,-0.359539002,-0.665050924
345383,7.825514793,-0.857016623,5.832407475,2.851946592,-20.24133682,-1.849713683,0.763698339,-0.278506845,-0.360889047,-0.457119077,8.845468521,0.866031408,4.405003071,3.540602207,-44.31561661,4.741231918,0.522072971,-0.396712005,-0.363030821,-0.662018299
345549,7.884077549,-0.869951963,5.763142586,2.047283888,-21.24320602,-1.462474585,0.762537658,-0.279611051,-0.363419235,-0.456377566,8.964242935,0.788906932,4.224104881,2.833431959,-45.14460754,5.838437557,0.520354748,-0.401063412,-0.366438419,-0.658864319
345716,7.907747746,-0.883672357,5.707067013,1.356995106,-21.84651375,-1.160180449,0.761316955,-0.280854315,-0.365947455,-0.455631465,9.057777405,0.743350863,4.083799362,2.747705936,-45.11453247,6.793416023,0.518701553,-0.405451983,-0.369763583,-0.655616045
345883,7.968891621,-0.869142354,5.629230499,0.782181263,-22.48873329,-1.229604006,0.760044336,-0.282184094,-0.368517727,-0.454862207,9.132871628,0.705936372,3.920984983,2.687271833,-44.7244873,7.228947639,0.517084539,-0.409814239,-0.373011619,-0.652332962
346049,7.99041748,-0.864922822,5.611241817,0.787355065,-22.76755333,-1.238222599,0.758741081,-0.28353256,-0.371112138,-0.454089493,9.119092941,0.627048254,3.758142471,2.941646099,-44.23102951,7.029206276,0.51546824,-0.414082855,-0.376242518,-0.649052858
346216,8.050124168,-0.863889754,5.556746006,0.390088528,-22.8106575,-1.239106178,0.757414401,-0.284922183,-0.373682797,-0.45332551,9.151744843,0.586051941,3.531800032,3.622678518,-43.88249207,6.298443317,0.513821363,-0.418211013,-0.379539669,-0.64578414
346383,8.073989868,-0.869920373,5.537819862,0.289430439,-22.78377914,-1.149717808,0.75608778,-0.286319554,-0.376238674,-0.452545017,9.245235443,0.531991601,3.34623456,4.628073215,-43.22570419,5.657120705,0.512190282,-0.42215091,-0.382905513,-0.642521083
346549,8.147389412,-0.907515585,5.482934475,0.547056198,-22.23661423,-1.102923155,0.754786074,-0.287660092,-0.37873897,-0.451781511,9.30155468,0.485927194,3.180615187,5.960490227,-41.61974335,5.138061523,0.510661721,-0.425797552,-0.386293292,-0.639295459
346716,8.205496788,-0.876165509,5.388863087,0.877319694,-21.66919899,-0.867644489,0.753533065,-0.28894031,-0.381182551,-0.451000661,9.283510208,0.466849089,3.045153856,7.849844456,-39.79309082,5.088522911,0.509329438,-0.429117471,-0.389710277,-0.636056542
346883,8.263742447,-0.858008683,5.264734268,0.725551128,-20.76111984,-0.707116425,0.752342284,-0.290171325,-0.383515656,-0.450219572,9.404605865,0.577345073,3.044671774,8.891365051,-39.12203598,5.07137537,0.508080602,-0.432283819,-0.393161476,-0.632778764
347049,8.269768715,-0.866491079,5.199539661,0.785433769,-19.66969681,-0.689699829,0.751184404,-0.291341931,-0.385715276,-0.449517399,9.466771126,0.62544024,2.983826399,9.124849319,-38.20410156,4.998569965,0.5068748,-0.435330927,-0.396557897,-0.629529059
347216,8.359155655,-0.879726768,5.163148403,0.664618373,-19.09148788,-0.818442047,0.750053108,-0.292467743,-0.387854755,-0.448833734,9.461070061,0.706967831,2.925150871,8.484207153,-37.88483429,4.698335648,0.505602419,-0.438365549,-0.399878561,-0.626337826
347383,8.351597786,-0.852207005,5.171153545,1.117003083,-18.86970329,-0.814817786,0.748961031,-0.293521225,-0.390002489,-0.448108166,9.420945168,0.730310977,2.781628847,7.437077045,-37.6830368,4.573100567,0.504247069,-0.441438138,-0.403084487,-0.623209774
347549,8.345028877,-0.842715144,5.108765602,0.984047472,-19.03063011,-0.84218508,0.747841001,-0.294598937,-0.392155111,-0.447392434,9.438365936,0.701268375,2.690055847,6.613304138,-37.95125198,4.851705074,0.502831697,-0.444598377,-0.406205148,-0.620072663
347716,8.38633728,-0.849514484,5.031614304,0.900204301,-18.90955734,-0.824051142,0.746713519,-0.295681626,-0.394281834,-0.446691424,9.511341095,0.694091558,2.551611662,5.783615589,-38.02561188,5.460253239,0.501396716,-0.447848409,-0.409204513,-0.616915703
347883,8.451605797,-0.845076263,4.987194061,0.750369728,-18.50728416,-0.82478106,0.745584488,-0.296761334,-0.396345854,-0.446034431,9.569012642,0.67105782,2.464581251,4.68482399,-37.65732956,5.97576189,0.499942005,-0.451162845,-0.412032336,-0.613791168
348049,8.485989571,-0.816091597,4.949905872,0.868943691,-18.06065941,-0.839316308,0.74450165,-0.297781527,-0.39837867,-0.44535166,9.624480247,0.621643782,2.363292694,3.855031729,-37.25775146,6.114569187,0.498453319,-0.45449701,-0.414735585,-0.610713601
348216,8.498215675,-0.822557271,4.87349081,0.082684271,-17.93849564,-0.892859578,0.743356824,-0.298892438,-0.400333226,-0.444766611,9.623040199,0.584863782,2.284286976,3.397842169,-36.83535004,6.120293617,0.496945292,-0.457814455,-0.41735515,-0.607672811
348383,8.539937973,-0.819381952,4.861432552,0.080014154,-17.41082573,-0.862649381,0.742246687,-0.299963027,-0.402231991,-0.444186538,9.621533394,0.551874697,2.169979334,3.322425365,-37.00967789,6.005061626,0.495396346,-0.461132735,-0.419975907,-0.604615092
348549,8.51538372,-0.827525496,4.834493637,-0.131777495,-17.33731842,-0.836217165,0.74113369,-0.301049143,-0.40410769,-0.44360742,9.633569717,0.524556875,2.07393384,3.200482368,-36.40065002,5.886678219,0.493851334,-0.464386284,-0.422537804,-0.601596415
348716,8.537519455,-0.829158723,4.796629906,-0.156135172,-17.37285423,-0.876582682,0.739979148,-0.302164704,-0.405964017,-0.443081051,9.612700462,0.507589459,1.960897923,2.966893435,-36.69400787,5.70275259,0.492241889,-0.467658192,-0.425100476,-0.598567903
348883,8.569389343,-0.839035511,4.747241497,-0.365570426,-17.04743385,-1.002072334,0.738854885,-0.303244591,-0.407795817,-0.44253698,9.600059509,0.526877105,1.847316861,3.059484482,-36.86082077,5.409282207,0.490588337,-0.470906854,-0.427690655,-0.595525563
349049,8.593011856,-0.827103853,4.730517864,-0.591461897,-17.03437042,-1.018105865,0.737707734,-0.304349899,-0.409606516,-0.442019492,9.621339798,0.525191247,1.73889327,2.967329025,-36.86075974,5.012756348,0.488879502,-0.474124283,-0.43028751,-0.592499733
349216,8.602526665,-0.821372807,4.664057255,-0.454997212,-17.1095295,-1.04456377,0.736552238,-0.305447668,-0.41142863,-0.441496342,9.637836456,0.513947666,1.642852187,2.560226202,-36.9561882,4.911752701,0.487113208,-0.477359205,-0.43285042,-0.589482427
349383,8.629085541,-0.818460822,4.644994259,-0.255474091,-16.60039902,-1.013085604,0.735445321,-0.306482077,-0.413212568,-0.440958351,9.715179443,0.519528925,1.533516169,2.060878038,-36.93374252,4.843481064,0.485293329,-0.480609894,-0.435361058,-0.586485624
349549,8.637001991,-0.806838036,4.595657825,-0.441089422,-16.01901436,-0.871037304,0.734363377,-0.307511568,-0.414909899,-0.440451026,9.771679878,0.497772753,1.440345645,1.5568434,-36.59443283,4.802731037,0.483441859,-0.483851314,-0.437795162,-0.583530247
349716,8.654851913,-0.795319617,4.610818386,-0.523024559,-15.63481236,-0.786400259,0.733301222,-0.308528423,-0.416554958,-0.439956546,9.758649826,0.482039034,1.345965505,1.159767389,-35.47341537,4.717656136,0.481612772,-0.487007111,-0.440110505,-0.580668569
349883,8.671496391,-0.806955397,4.561479568,-0.653764665,-16.04219437,-0.864339769,0.732187092,-0.309592515,-0.41822657,-0.439478666,9.686373711,0.442185968,1.252102971,0.784975052,-35.06293869,4.916526318,0.47978726,-0.490154922,-0.442339718,-0.577830493
350049,8.684534073,-0.814442873,4.502038002,-0.984924257,-15.98671722,-0.919163764,0.731037199,-0.310698271,-0.419860214,-0.439054251,9.740080833,0.423041791,1.189389467,0.724067807,-35.45823669,4.589245796,0.477891475,-0.493306488,-0.444602787,-0.574975431
350216,8.716095924,-0.794260025,4.362374306,-0.776116669,-15.36345673,-0.826740205,0.729954064,-0.311727762,-0.421447963,-0.438605428,9.810331345,0.40731138,1.046894193,0.491926074,-35.161026,4.327278137,0.475963652,-0.496419787,-0.446832687,-0.572159588
350383,8.857093811,-0.808669925,4.374398708,-1.684868574,-14.00416279,-1.261016488,0.728902936,-0.312724292,-0.422862649,-0.43828246,9.786596298,0.379388779,0.949250281,0.565485954,-34.58203888,4.041732788,0.474042505,-0.499448955,-0.449037582,-0.569385529
350549,8.766566277,-0.807247758,4.45470047,-1.604777455,-14.11989307,-1.802750945,0.727755845,-0.313735783,-0.424280792,-0.438095033,9.762229919,0.369726926,0.854008913,0.756685674,-34.16044235,4.074312687,0.472153455,-0.502420068,-0.451215386,-0.56661272
350716,8.78079319,-0.785368264,4.379555702,-1.127599835,-15.03506184,-1.828312755,0.726620317,-0.31470421,-0.425860226,-0.437752545,9.793171883,0.393393397,0.79255873,0.740600705,-34.35979462,3.77233696,0.470213443,-0.505376935,-0.453416288,-0.56383276
350883,8.773171425,-0.83548969,4.298818588,-0.740437925,-13.94557285,-1.322230816,0.72561264,-0.315580517,-0.427332729,-0.437358201,9.733562469,0.406106591,0.710360408,0.57585907,-34.26324463,3.634463549,0.468244433,-0.508315682,-0.455595672,-0.561065972
351049,8.767864227,-0.80598259,4.27256918,-0.610901773,-14.06466103,-0.690121949,0.724607944,-0.316518128,-0.428773731,-0.436935753,9.758234978,0.39946723,0.632128119,0.286280781,-34.96230698,3.66667223,0.466198385,-0.51132077,-0.457784921,-0.558250189
351216,8.817471504,-0.821175516,4.23377037,-0.474193782,-13.86739063,-0.689225435,0.723626375,-0.317422748,-0.43020454,-0.436499804,9.829368591,0.374340534,0.543034256,-0.095779099,-34.9575119,3.433121681,0.464093089,-0.514322817,-0.459948123,-0.555461586
351383,8.857110023,-0.782490194,4.206873417,-0.649474502,-14.04944706,-0.986627579,0.722619653,-0.318321705,-0.431666613,-0.436068803,9.845643997,0.371822029,0.434190065,-0.334887475,-34.56290817,3.300114155,0.461973578,-0.517287254,-0.462063313,-0.552713215
351549,8.837453842,-0.769206166,4.166427135,-0.896214664,-14.44981194,-1.065604448,0.721566617,-0.319267601,-0.433155864,-0.435644299,9.756257057,0.352827162,0.317170829,-0.464398533,-33.83111954,2.879602671,0.459848255,-0.520160675,-0.464138925,-0.550043225
351716,8.824356079,-0.781985641,4.143454552,-0.822232187,-14.42354488,-1.018848181,0.7204988,-0.320225179,-0.434628636,-0.43524161,9.746518135,0.342598796,0.224351123,-0.576224089,-34.36551666,2.684586763,0.457651466,-0.523058832,-0.466244519,-0.547339737
351883,8.848463058,-0.811807394,4.038633823,-0.846525967,-14.57645416,-0.825728476,0.719468534,-0.321166962,-0.436133146,-0.43474707,9.818785667,0.311809659,0.118429601,-0.744013667,-34.62179565,2.89914608,0.455430061,-0.525990248,-0.468325496,-0.54460001
352049,8.948497772,-0.832846522,4.051371574,-0.89410162,-13.81321907,-0.95922184,0.718438387,-0.322090745,-0.437533677,-0.434359521,9.853615761,0.306812048,0.004815005,-0.520669937,-34.3728447,2.87775898,0.453229457,-0.528872669,-0.470397294,-0.541851759
352216,8.96108532,-0.778993964,4.021858215,-0.814215481,-13.53124905,-0.966150105,0.717449486,-0.322963625,-0.438925415,-0.433941841,9.836914063,0.299325049,-0.146696657,-0.274018556,-34.0472908,2.571326733,0.451019406,-0.53169322,-0.472463369,-0.539131105
352383,8.930584908,-0.771795094,3.982668638,-0.661473989,-13.58285904,-0.984821737,0.71646446,-0.323817164,-0.44033438,-0.433505684,9.861223221,0.306757182,-0.224252343,-0.242745295,-33.58707809,2.354475975,0.448826194,-0.534438968,-0.474517614,-0.536435843
352549,8.933815956,-0.789884925,3.968666553,-0.183899298,-13.88042736,-0.804162443,0.715482175,-0.324659795,-0.441787153,-0.433019429,9.919997215,0.30431661,-0.340599895,-0.393988818,-32.57957458,2.226168156,0.44666338,-0.537101328,-0.476485997,-0.533830643
352716,8.987635612,-0.800195873,3.868381023,-0.516608536,-13.48101139,-0.529427707,0.714520037,-0.325532913,-0.443159103,-0.432549983,9.910219193,0.294604689,-0.438824475,-0.564019203,-30.87917328,2.107567549,0.444580585,-0.539629161,-0.478323579,-0.531371117
352883,9.082033157,-0.830828905,3.851333618,-0.773042858,-12.48896217,-0.882012129,0.713592291,-0.326338947,-0.444432825,-0.432167441,9.823349953,0.278811365,-0.517917693,-0.616768539,-29.73166084,2.070005655,0.442569524,-0.542052269,-0.48008427,-0.528990567
353049,9.002503395,-0.742654443,3.79978466,0.137585118,-13.53530884,-1.065425038,0.712641358,-0.327086151,-0.445891917,-0.431668341,9.807523727,0.289848655,-0.614915729,-0.325640827,-29.09824944,2.01172328,0.440627068,-0.544381022,-0.481837094,-0.526621401
353216,9.050977707,-0.756148219,3.734211922,0.195649102,-12.19809151,-1.052695394,0.711756229,-0.327767789,-0.447196454,-0.431262136,9.827013969,0.311920464,-0.698089242,-0.573009014,-28.90318871,1.99296236,0.438661873,-0.546707392,-0.483543515,-0.524282992
353383,9.087402344,-0.7586025,3.743561268,-0.431164414,-11.81309509,-0.766383588,0.710893989,-0.328494042,-0.448416919,-0.430864096,9.840089798,0.267820269,-0.785258174,-0.609596848,-28.20335197,1.850465178,0.436744422,-0.548944473,-0.485227287,-0.52198565
353549,9.074734688,-0.780074596,3.725226402,-0.839277267,-11.43223381,-0.623490274,0.71003288,-0.329259872,-0.449555427,-0.430512935,9.800000191,0.26488319,-0.85438025,-0.347539604,-27.16871452,1.67200768,0.434890032,-0.551074684,-0.486860752,-0.519763529
353716,9.083609581,-0.797145486,3.68632412,-0.448337734,-11.53381443,-0.540620387,0.709191501,-0.329990685,-0.450727761,-0.430114418,9.787169456,0.251205444,-0.946362197,-0.162717864,-26.30454826,1.684826732,0.433099061,-0.553127587,-0.488437653,-0.517594397
353883,9.103507996,-0.781966567,3.665926933,0.008958044,-11.11449337,-0.729040146,0.708382785,-0.330638975,-0.451890498,-0.429729074,9.780529976,0.232955158,-1.025708079,0.243071496,-25.4378643,1.560630202,0.4314017,-0.555058658,-0.490010262,-0.515453517
354049,9.082640648,-0.739020586,3.618938208,-0.160079435,-10.74366093,-0.86967957,0.707585216,-0.331265509,-0.453014523,-0.4293769,9.799948692,0.235545099,-1.075951457,0.423077911,-24.47725105,1.238600969,0.429747224,-0.556886792,-0.491544366,-0.513399184
354216,9.103719711,-0.742942631,3.580743551,-0.18087694,-10.61941242,-0.840148032,0.706794381,-0.331887811,-0.454121977,-0.429028809,9.798099518,0.249639839,-1.116499782,0.7275365,-23.43275642,1.111138701,0.428198785,-0.558580875,-0.493064791,-0.511390805
354383,9.121417046,-0.773797214,3.593061447,0.301045388,-10.6966362,-0.847511768,0.706025362,-0.332456887,-0.45527187,-0.42863512,9.714029312,0.243203968,-1.179474235,1.153950214,-22.8360157,0.830358744,0.42670384,-0.560175419,-0.494599462,-0.509410024
354549,9.16331768,-0.765374362,3.525756836,0.585282385,-11.1381855,-0.760223567,0.705246389,-0.333028436,-0.456480533,-0.428188354,9.698967934,0.252414346,-1.245110154,1.268938541,-23.09188652,0.682445168,0.42518416,-0.561765015,-0.496165484,-0.507403672
354716,9.190944672,-0.741932809,3.505344629,0.325313419,-9.957978249,-0.883215904,0.704518616,-0.333549619,-0.457553089,-0.42783612,9.706277847,0.286541879,-1.320872903,1.440505743,-23.09575653,0.688246548,0.423682213,-0.563329399,-0.497748673,-0.505370855
354883,9.19725132,-0.724926353,3.498537779,0.354537457,-9.214708328,-0.611157537,0.703855217,-0.334041417,-0.458535641,-0.427492201,9.702839851,0.278567076,-1.346927762,1.297138214,-22.94419289,0.67821908,0.42218858,-0.564868927,-0.499325216,-0.503343046
355049,9.164963722,-0.732916176,3.469696283,0.528870344,-9.033063889,-0.496950477,0.70322907,-0.3344993,-0.4595128,-0.427115202,9.683172226,0.28785798,-1.410550714,1.407477856,-22.30234909,0.631322086,0.420709282,-0.566379368,-0.500830173,-0.501385391
355216,9.150903702,-0.714100838,3.448427677,-0.142060876,-9.342567444,-0.425030082,0.702543199,-0.335059464,-0.460468322,-0.426775396,9.673059464,0.28152436,-1.500200629,1.428275347,-22.01594543,0.671841502,0.419255435,-0.567859948,-0.502316058,-0.499438286
355383,9.18338871,-0.735261023,3.397065878,0.617695272,-9.314893723,-0.564760149,0.701881826,-0.335535884,-0.461470455,-0.42640698,9.623609543,0.280406326,-1.527095079,1.582143903,-21.93845558,0.709927559,0.417840689,-0.569298625,-0.503827453,-0.497459739
355549,9.204838753,-0.721549749,3.40072298,0.805513203,-9.0658741,-0.371256202,0.70126152,-0.335984439,-0.46245268,-0.426010072,9.665429115,0.266871333,-1.578106523,1.669509172,-22.15962029,0.719762862,0.416403443,-0.570752919,-0.505341411,-0.495458961
355716,9.209026337,-0.71093744,3.362860441,0.957678318,-8.560254097,-0.275170088,0.700689375,-0.336389691,-0.463389188,-0.42561394,9.670485497,0.298966527,-1.649231315,1.417197824,-21.84997177,1.045838714,0.414977849,-0.572227836,-0.506775141,-0.493485242
355883,9.206954002,-0.741600215,3.404412746,0.025580687,-7.824309826,-0.446992904,0.700102448,-0.336840451,-0.464195073,-0.425345004,9.653305054,0.243673518,-1.715548158,1.454297662,-21.27007103,0.961815953,0.413590133,-0.57364434,-0.508181691,-0.491555303
356049,9.172970772,-0.7296229,3.373333216,0.515679896,-8.58304882,-0.180620819,0.699498832,-0.337311924,-0.465090305,-0.424985886,9.664765358,0.294253796,-1.778120637,1.46619463,-20.68854713,1.04359746,0.41224727,-0.575020671,-0.509541512,-0.489664465
356216,9.208684921,-0.721132576,3.317189217,0.143565595,-8.072842598,-0.305188179,0.698908389,-0.337774634,-0.465920597,-0.424680501,9.632216454,0.248872772,-1.833404303,1.356149554,-20.22782516,0.983381748,0.4109281,-0.576353133,-0.510875225,-0.487813443
356383,9.217157364,-0.728454411,3.307268143,0.351438314,-7.837129116,-0.163345009,0.698351979,-0.338210553,-0.466732472,-0.424357563,9.575115204,0.247945666,-1.896564722,1.489604473,-20.0152626,0.933039904,0.409623742,-0.57765913,-0.512199759,-0.485973269
356549,9.237571716,-0.718581736,3.266434193,0.046813622,-7.82835722,-0.022846533,0.697790027,-0.338684767,-0.467517942,-0.424039036,9.571744919,0.250045598,-1.963896871,1.642461181,-19.24607086,1.001220942,0.408392251,-0.578900456,-0.513481259,-0.484176964
356716,9.216506958,-0.745059609,3.28720808,1.21447134,-7.760009289,0.038258981,0.69729358,-0.339039534,-0.468365341,-0.423636824,9.524041176,0.243731976,-1.981601357,1.632638931,-19.42891121,1.107782722,0.407154381,-0.580153763,-0.514765322,-0.482352197
356883,9.257281303,-0.718279839,3.210541725,0.956474543,-8.18099308,0.131502047,0.69676131,-0.339451581,-0.469234794,-0.423220277,9.496165276,0.252814442,-2.018639565,1.997223139,-19.43432617,1.357916594,0.405928105,-0.581437528,-0.516007602,-0.480509043
357049,9.291316032,-0.71178323,3.17250514,0.828769445,-7.499720097,0.032111928,0.696271122,-0.339816242,-0.470039666,-0.422840893,9.586327553,0.259075046,-2.07930088,1.798187137,-19.94608307,1.455514073,0.404650092,-0.58277142,-0.517253637,-0.478627712
357216,9.314386368,-0.722506344,3.185612202,0.924330354,-6.543430805,-0.101951361,0.695829988,-0.340117931,-0.470749438,-0.422534704,9.547925949,0.238524735,-2.124913931,1.753492475,-19.43094635,1.389894128,0.403399169,-0.584062576,-0.518467486,-0.476793319
357383,9.259324074,-0.718327165,3.206937075,1.223563671,-6.542623997,0.087435357,0.695418417,-0.340397358,-0.471471131,-0.422182381,9.524267197,0.288407773,-2.205038548,1.947957158,-18.82761383,1.35839057,0.402204841,-0.585293531,-0.519657731,-0.474993408
357549,9.26170063,-0.698332667,3.194324493,1.03014946,-6.946806431,0.180243015,0.694969773,-0.340732545,-0.47221294,-0.421821684,9.485881805,0.23370561,-2.245499134,1.672069669,-18.87194824,1.51986587,0.400991827,-0.586551487,-0.520814002,-0.473197579
357716,9.231333733,-0.695484161,3.159261703,0.549373388,-7.771637917,0.135945842,0.694451809,-0.34114638,-0.473022461,-0.42143324,9.40038681,0.230605528,-2.296854019,1.964874268,-19.43794823,1.410614729,0.399750143,-0.587818563,-0.522028446,-0.471333742
357883,9.337800026,-0.685541034,3.063195467,0.416635513,-6.950866222,0.152939871,0.693971515,-0.341538936,-0.473728925,-0.421112686,9.45327282,0.257662475,-2.351340294,2.04148221,-19.96142578,1.347863913,0.39846772,-0.589107811,-0.523279607,-0.469419032
358049,9.35490799,-0.703829169,3.134108543,0.541638196,-6.031112671,0.033968847,0.693562925,-0.341842413,-0.474364281,-0.42082417,9.451498032,0.214790866,-2.395200968,1.986888647,-20.08571243,1.323185921,0.397165984,-0.590401649,-0.524531782,-0.467495084
358216,9.292663574,-0.730386138,3.024673462,0.772792757,-6.12909317,0.374207914,0.693175137,-0.342155904,-0.475003541,-0.420487314,9.431163788,0.208489493,-2.472909212,1.942450523,-20.29455757,1.407490134,0.395846874,-0.591713727,-0.525781155,-0.465547532
358383,9.261289597,-0.699457526,3.013714314,1.005292177,-5.106199741,0.600854814,0.692877233,-0.342406422,-0.475537181,-0.420171112,9.433036804,0.228880182,-2.558777332,2.116796732,-19.76256943,1.317090154,0.394573927,-0.592967868,-0.527014852,-0.463633418
358549,9.336555481,-0.703751504,3.027719498,0.840922594,-5.160946846,0.214128584,0.692546844,-0.342645466,-0.476088643,-0.419896364,9.43594265,0.174824744,-2.633271217,1.859849215,-19.5862999,1.340640903,0.393290639,-0.594222009,-0.528214753,-0.461749017
358716,9.432211876,-0.723273098,3.044280529,0.1972114,-4.588284969,-0.218284249,0.692193747,-0.342888623,-0.476561457,-0.419743448,9.450306892,0.195507213,-2.684554338,1.977206826,-19.07970428,1.556005597,0.392067671,-0.595447361,-0.529370666,-0.459882945
358883,9.337329865,-0.670841277,3.153560877,-0.066234455,-4.539826393,-0.724416852,0.691800833,-0.343118489,-0.477039844,-0.419660151,9.420614243,0.196058333,-2.738751173,1.874730229,-18.31933784,1.270602584,0.390872329,-0.596601546,-0.530496955,-0.458103299
359049,9.316619873,-0.684909642,3.039074183,-0.276450664,-4.349344254,-0.252464384,0.691438437,-0.343391389,-0.477461398,-0.419554502,9.483192444,0.217374772,-2.794231415,1.541085958,-17.63460732,0.701884806,0.389660269,-0.597681224,-0.531607807,-0.456437707
359216,9.310100555,-0.707891703,3.021147251,-0.357373983,-3.045234442,0.09263473,0.6911847,-0.343615681,-0.477730364,-0.419482946,9.486338615,0.184155837,-2.853698015,1.104875326,-16.31566429,0.301993221,0.388483196,-0.598663628,-0.532646418,-0.45494017
359383,9.329648972,-0.70330143,3.04799366,0.164683253,-2.589046955,0.418876469,0.691007316,-0.343782485,-0.477968544,-0.419366866,9.454358101,0.226168871,-2.869908333,0.905864179,-14.72522545,0.042843673,0.387392968,-0.599529147,-0.533601761,-0.453608662
359549,9.32631588,-0.686963558,3.067813158,0.216420889,-2.63019371,0.362759054,0.69082582,-0.343944073,-0.478215873,-0.419251472,9.422148705,0.190932006,-2.943169594,0.402804822,-13.23361683,-0.168493256,0.386359036,-0.600305796,-0.534456074,-0.452456146
359716,9.306614876,-0.677509844,3.013575077,0.612201095,-2.557171822,0.285626411,0.690663874,-0.344056398,-0.478483349,-0.419120848,9.426418304,0.218355179,-2.993877888,0.026259432,-11.40321255,-0.206553683,0.385430664,-0.600978315,-0.535184324,-0.451493114
359883,9.318181992,-0.700994611,3.004866362,0.437496901,-1.799612284,0.329296082,0.690553427,-0.344136864,-0.478666276,-0.419028133,9.401229858,0.222483814,-3.052917719,-0.295673102,-9.670909882,-0.191928819,0.384609014,-0.601555049,-0.535791814,-0.450704545
360050,9.31808567,-0.738818944,3.000245333,0.184763595,-1.524864912,0.470076263,0.6904549,-0.344239563,-0.478796393,-0.418957472,9.427817345,0.228975073,-3.081211805,-0.790215909,-7.752030849,-0.093511984,0.383899331,-0.602040648,-0.536250234,-0.45011583
360216,9.335910797,-0.750569105,3.005946875,0.055829279,-0.942662597,0.288751155,0.690384209,-0.344301224,-0.478873342,-0.41893518,9.444161415,0.209049255,-3.10635376,-1.18150115,-5.513774395,0.189585209,0.383347899,-0.60242331,-0.536532879,-0.449737042
360383,9.338635445,-0.724709392,2.98118639,0.215716541,-0.865657985,0.15386188,0.690306485,-0.344348252,-0.478948146,-0.418939114,9.400735855,0.202722371,-3.122876883,-1.420313835,-3.291974783,0.341666996,0.382958651,-0.602685571,-0.5366624,-0.44956255
360550,9.375999451,-0.70956558,2.987746716,0.446153998,-1.088321805,0.139249831,0.690243185,-0.344361961,-0.479076296,-0.418885678,9.382614136,0.220230088,-3.15399313,-1.645846486,-1.62387073,0.454708636,0.382687002,-0.602860272,-0.536674321,-0.449545145
360716,9.378957748,-0.713537097,2.98780036,0.653155923,-0.750874698,0.282796234,0.690204084,-0.344364911,-0.479161233,-0.418850452,9.305427551,0.210719302,-3.153262615,-1.813788772,-0.255589128,0.361043006,0.382501185,-0.602947831,-0.536607504,-0.449665695
360883,9.332005501,-0.696577907,2.931849718,0.71753335,-0.944404185,0.37346518,0.690167606,-0.344371557,-0.479270726,-0.41877985,9.230399132,0.164770737,-3.132252693,-1.894788861,0.251356602,0.374950677,0.382348537,-0.603007972,-0.536506057,-0.449835777
361050,9.472882271,-0.758953631,2.84228754,0.099281222,-0.618930817,0.35958308,0.690123558,-0.344417185,-0.47931236,-0.418767184,9.313285828,0.15447247,-3.152010202,-1.526132703,0.699002564,0.529587388,0.382273197,-0.603030741,-0.536390364,-0.4500072
361216,9.372105598,-0.696173131,2.932139397,0.446845591,-0.262799144,0.056610469,0.690101445,-0.344388187,-0.47935307,-0.418780953,9.285070419,0.183240741,-3.115359306,-1.017374992,1.294190645,0.48324123,0.382285804,-0.602983057,-0.536279023,-0.450193197
361383,9.427894592,-0.678553164,2.884096861,0.401383013,0.369021326,-0.271110415,0.690109313,-0.344293565,-0.479350537,-0.418848604,9.273748398,0.22868894,-3.075274467,-1.022394896,1.657673001,-0.13483803,0.382285714,-0.602863789,-0.536201358,-0.450445384
361550,9.377792358,-0.686449468,2.92839551,0.021047236,0.577764869,0.003259216,0.690125704,-0.34424594,-0.479288638,-0.418931603,9.326653481,0.205366388,-3.090125084,-0.955584228,2.224905014,-0.247905314,0.382328182,-0.602694929,-0.536106467,-0.450747997
361716,9.423823357,-0.724795997,2.89445591,0.047581993,1.146661401,0.372376651,0.690199852,-0.344194949,-0.479147285,-0.419013083,9.30345726,0.211418644,-3.04951787,-0.841915011,2.712275982,-0.192620322,0.382422179,-0.602492213,-0.535987198,-0.451081067
361883,9.37561512,-0.755639136,2.904966354,0.480667144,1.314859986,0.484342545,0.690324783,-0.344083875,-0.479020029,-0.419044077,9.285820961,0.21849145,-3.056587934,-0.72144568,3.475124598,-0.027431201,0.38259691,-0.602245688,-0.535818815,-0.451461971
362050,9.349924088,-0.697104633,2.936911106,0.792463303,1.746408224,0.315644503,0.690472722,-0.343919009,-0.47886613,-0.419111639,9.297040939,0.238087133,-3.025187492,-0.620544612,4.009931087,0.059632774,0.382827789,-0.601965189,-0.535619557,-0.451876611
362216,9.329496384,-0.683229804,2.971487761,0.586511612,1.770087242,0.392175257,0.690623283,-0.343769729,-0.478699833,-0.419175893,9.314639091,0.252630174,-3.005436182,-0.70344013,4.625506878,0.117261358,0.383102894,-0.601653218,-0.535375416,-0.452347964
362383,9.357421875,-0.694516361,2.945935011,0.701960802,1.733422637,0.41441983,0.690771461,-0.343621403,-0.478537053,-0.419239283,9.315379143,0.249731824,-2.988850594,-1.008845806,5.190458298,0.325671881,0.383408785,-0.601337194,-0.5350613,-0.452880532
362550,9.353738785,-0.702236176,2.971383572,0.642385781,2.127269268,0.484701186,0.690948248,-0.343459427,-0.47832796,-0.419319212,9.35970974,0.24148868,-2.962473392,-1.03854382,5.814371586,0.44322139,0.383768022,-0.600990534,-0.534699798,-0.453462988
362716,9.345003128,-0.69874537,3.010493755,0.746987998,2.560456753,0.462917566,0.691162825,-0.343256652,-0.478084773,-0.419408947,9.380530357,0.249099419,-2.942775249,-1.025314808,6.545691013,0.466298401,0.384186566,-0.600596309,-0.534296095,-0.454106569
362883,9.359621048,-0.679210544,3.012210369,0.537309587,3.115996122,0.463250428,0.691407561,-0.343036115,-0.477776051,-0.419537812,9.391123772,0.254832357,-2.920624256,-1.088001966,7.448474884,0.440455258,0.384667635,-0.600143254,-0.533839405,-0.45483461
363050,9.325665474,-0.681212783,3.060796261,0.445167899,3.357651949,0.436933428,0.691658974,-0.342813551,-0.477434993,-0.419693649,9.358949661,0.258233458,-2.89946413,-1.096800327,8.571056366,0.223054692,0.385220289,-0.599598885,-0.533337712,-0.455672771
363216,9.315167427,-0.676211953,3.053450108,0.71193701,3.424693108,0.579314411,0.691936255,-0.342570066,-0.477095991,-0.419820964,9.380056381,0.277344763,-2.826939106,-1.167503953,9.364895821,0.103750668,0.385819763,-0.598995626,-0.532796323,-0.456591457
363383,9.302514076,-0.696511507,3.075726748,0.779119074,3.321243525,0.706904113,0.692219675,-0.342332304,-0.476766706,-0.419921428,9.424785614,0.285829604,-2.805897474,-1.290995836,10.2642355,0.087448195,0.386476368,-0.598336935,-0.532196581,-0.457597971
363550,9.325770378,-0.672843099,3.063793421,0.76226604,3.314891815,0.865421176,0.692509592,-0.342108309,-0.47642833,-0.420010149,9.401068687,0.27877003,-2.77852726,-1.32821095,11.06990814,0.157114744,0.387195826,-0.59763068,-0.531541824,-0.458672523
363716,9.315181732,-0.678195596,3.097702026,0.481409997,3.739819765,0.902367473,0.692822158,-0.341884255,-0.476031661,-0.420127094,9.422511101,0.277613729,-2.763127089,-1.294363856,11.61705971,0.47531426,0.387980759,-0.596908867,-0.53082931,-0.459772706
363883,9.318924904,-0.696059048,3.095366716,0.258259237,4.239433289,0.885911226,0.693151653,-0.341657609,-0.475566864,-0.420294106,9.459884644,0.281171262,-2.721492529,-1.188660145,12.19992828,0.635252774,0.388829559,-0.596152782,-0.530075669,-0.460905045
364050,9.300836563,-0.685471058,3.15841794,0.128377274,4.626570225,0.993254244,0.693511844,-0.3414222,-0.475053251,-0.420472026,9.483019829,0.286787629,-2.692376614,-1.349008918,13.22419643,0.884836078,0.389758825,-0.595354199,-0.529229879,-0.462122768
364216,9.27944088,-0.691951036,3.152329922,-0.568960547,5.005701542,0.852038503,0.693852425,-0.341226786,-0.474463463,-0.420734853,9.492868423,0.245051786,-2.661706686,-1.259966493,14.31263638,0.855957747,0.390776068,-0.594472706,-0.528328657,-0.463427663
364383,9.270600319,-0.709709942,3.163334846,-1.008436084,5.073793411,0.846608639,0.694179595,-0.341067433,-0.473842382,-0.421024114,9.530183792,0.234279439,-2.658132553,-0.964779913,15.46374989,0.826247096,0.391903669,-0.593491852,-0.527382016,-0.464808881
364550,9.281833649,-0.721591413,3.149513483,-0.641547024,5.22046423,0.996545434,0.694536567,-0.34087652,-0.473217517,-0.421292514,9.562249184,0.215947032,-2.661184311,-0.622401953,16.81732178,0.335520267,0.393129379,-0.592359126,-0.526420951,-0.466305882
364716,9.292768478,-0.705373585,3.154557705,-0.477869004,5.847527981,1.251174212,0.694966078,-0.340642065,-0.472530723,-0.421544731,9.575109482,0.218057379,-2.591360569,-0.301589847,18.26546669,0.068123445,0.394473016,-0.591085672,-0.525418341,-0.467915058
364883,9.296598434,-0.703579903,3.164290428,-0.332619399,6.485859871,1.280142188,0.695445895,-0.340358913,-0.471784234,-0.421818495,9.692510605,0.21977213,-2.556318521,0.029998919,20.31087875,-0.530798256,0.395957679,-0.589603662,-0.524368405,-0.469705224
365050,9.26547718,-0.707377613,3.194319487,0.375475854,6.544206142,1.690675378,0.695987821,-0.340030223,-0.471053183,-0.422006428,9.691764832,0.201769993,-2.494897127,0.829424083,23.06126404,-1.106419563,0.397677451,-0.587838054,-0.523258805,-0.471698403
365216,9.258999825,-0.707545578,3.213844538,0.042766809,5.52615118,1.806764722,0.69643873,-0.339819014,-0.47038886,-0.42217356,9.632616997,0.246337458,-2.459557056,1.761408687,25.8839798,-1.410930157,0.399665952,-0.58579433,-0.522069156,-0.473873407
365383,9.274819374,-0.733774841,3.214424372,0.097693242,4.7929492,1.595984817,0.696832776,-0.339628518,-0.469815254,-0.422315359,9.548837662,0.288556039,-2.367743969,2.175990582,27.64855576,-1.320837736,0.401823819,-0.583602905,-0.520789921,-0.476154506
365550,9.286388397,-0.75250113,3.200414658,0.251484752,4.813965321,1.774326324,0.697250783,-0.33942607,-0.469244748,-0.422422409,9.522663116,0.316090226,-2.300839186,2.119027853,28.55987549,-0.864226222,0.404070735,-0.581376553,-0.51940614,-0.478482306
365716,9.278490067,-0.758413076,3.20041728,-0.365301162,5.055966854,1.661476851,0.697636843,-0.339277804,-0.468607098,-0.422611922,9.548140526,0.329069793,-2.188987732,2.052729607,29.50171089,-0.356785953,0.406411231,-0.579116702,-0.51791048,-0.48085624
365883,9.263009071,-0.746525824,3.210338593,-0.557883024,4.827039719,1.421665072,0.697996616,-0.339129686,-0.468004614,-0.422804475,9.531783104,0.324832112,-2.098339319,1.733031154,30.13048935,0.006640114,0.408789694,-0.576848149,-0.516315103,-0.483276367
366050,9.261072159,-0.733084142,3.195425987,-0.465715826,4.462866306,1.549331784,0.698334217,-0.339014441,-0.467430264,-0.422974706,9.519681931,0.323835909,-1.991210341,1.467541933,30.04138184,0.381726503,0.411157727,-0.574618876,-0.514665246,-0.485677272
366216,9.285394669,-0.745060563,3.20160079,-0.45513773,4.781961918,1.679687381,0.698724151,-0.338859618,-0.466837257,-0.423109978,9.516851425,0.284115523,-1.908366323,1.436640024,29.52167892,0.605082691,0.413495183,-0.572430611,-0.51301986,-0.488011837
366383,9.296331406,-0.73001188,3.231823444,-0.25729239,5.829534054,1.977614284,0.699167132,-0.338695586,-0.466095716,-0.423326701,9.580364227,0.308040231,-1.822369814,1.308832049,29.11368942,0.73112303,0.415790617,-0.570280969,-0.511367261,-0.49030748
366550,9.266019821,-0.756409645,3.262382746,0.026515549,6.892345905,1.967561126,0.69972533,-0.338398248,-0.465290934,-0.423527449,9.653635979,0.285970926,-1.740505576,1.032739401,29.29005051,0.833356619,0.418077171,-0.568131626,-0.509668112,-0.492622316
366716,9.236736298,-0.756742895,3.327866077,0.287515461,7.195186138,1.888053417,0.700311184,-0.338050842,-0.46447432,-0.423732698,9.720145226,0.293467909,-1.656086922,0.939649761,30.08396149,0.578419805,0.420371413,-0.565921068,-0.507903695,-0.495030701
366883,9.202534676,-0.715139806,3.34916687,0.299918324,7.113690853,1.830943227,0.700842261,-0.337757796,-0.463629991,-0.42401287,9.791478157,0.290636241,-1.570390582,0.631861091,31.46398354,0.252497286,0.422721446,-0.563582182,-0.506063581,-0.497575969
367050,9.209970474,-0.756210208,3.37401104,-0.273287594,7.226849079,1.948339462,0.701390862,-0.337486237,-0.462759286,-0.424273282,9.795598984,0.280439049,-1.485273838,0.575461924,33.17533875,-0.202084988,0.425134182,-0.561094642,-0.504120171,-0.500296474
367216,9.193460464,-0.754559278,3.412994862,-0.425606251,7.120734215,1.809684634,0.701953292,-0.337180436,-0.461929411,-0.424490571,9.708218575,0.274307072,-1.41379869,0.534648061,34.52852631,-0.564403772,0.427615494,-0.558460832,-0.502119482,-0.50313288
367383,9.19998455,-0.790880203,3.458782673,-0.80518657,6.927320004,1.540136576,0.702436447,-0.336943924,-0.461082041,-0.424800485,9.64330101,0.308211625,-1.298313022,0.156718388,34.93864822,-0.998733103,0.430027604,-0.555802047,-0.500057399,-0.506066322
367550,9.1477108,-0.843545496,3.441979885,-0.481544465,6.408457756,1.415543556,0.702913702,-0.336671889,-0.460331649,-0.425040513,9.6512537,0.286675483,-1.198172927,-0.261826932,34.83412933,-1.313898683,0.432379812,-0.553122222,-0.498003662,-0.509014606
367716,9.106773376,-0.834499955,3.394518614,0.884079993,6.449041843,1.583178878,0.703460336,-0.336280107,-0.459644437,-0.425189644,9.666395187,0.276052654,-1.111513615,-0.316856056,34.87753296,-1.365508556,0.434707522,-0.550433338,-0.495925277,-0.51196754
367883,9.183099747,-0.786540508,3.394921064,1.186425209,7.383291245,1.641550183,0.704066515,-0.335828424,-0.458859086,-0.425391555,9.77134037,0.266794503,-1.028562069,-0.523564279,35.29818726,-1.070410609,0.437058479,-0.547733724,-0.493767828,-0.514937997
368050,9.272517204,-0.821909904,3.469949722,0.195649043,8.596014023,1.002193093,0.704673827,-0.335348904,-0.457926929,-0.425768524,9.828656197,0.240167245,-0.891488314,-0.405297279,36.49543762,-0.594704032,0.43952772,-0.544956565,-0.491491556,-0.517951548
368216,9.164984703,-0.763263047,3.548289061,0.057276405,8.207136154,0.475403786,0.70524323,-0.334837437,-0.457075953,-0.426142603,9.719212532,0.276199937,-0.784674883,-0.112683609,36.98672867,-0.655380905,0.442030847,-0.54211092,-0.489189059,-0.520978451
368383,9.147815704,-0.747641802,3.543066502,0.270425349,8.721079826,0.872375071,0.70585686,-0.33432743,-0.456144363,-0.426525027,9.654171944,0.297807187,-0.662804127,-0.12152002,36.77980804,-1.215878963,0.444472879,-0.539215922,-0.48694101,-0.524002612
368550,9.06522274,-0.811926246,3.559604168,0.235207871,8.705213547,1.374691367,0.706497371,-0.333855033,-0.455186844,-0.426857412,9.648859024,0.294276178,-0.509322047,-0.258125991,35.65710449,-1.392837763,0.44678697,-0.536399126,-0.48474288,-0.526955366
368716,9.124507904,-0.812123477,3.52741766,1.148889899,8.645036697,1.684054613,0.707208633,-0.333297968,-0.454286754,-0.427073836,9.64144516,0.319729298,-0.401572049,-0.16212903,34.42458725,-1.241875291,0.449025214,-0.533663213,-0.48261264,-0.529778659
368883,9.139410019,-0.807069898,3.60528183,1.618076205,8.835672379,1.836539745,0.707955122,-0.332700044,-0.453381121,-0.427265435,9.647115707,0.342457354,-0.270429254,-0.383654058,32.99697113,-0.912583828,0.451146156,-0.531075239,-0.480506212,-0.532484829
369050,9.131285667,-0.785920203,3.57250905,1.779116273,9.341691017,1.514562607,0.708773911,-0.331972212,-0.452491522,-0.427417099,9.721033096,0.402401865,-0.163086563,-0.904848754,31.80038452,-0.426824361,0.4531717,-0.528634727,-0.478391677,-0.535090864
369216,9.074030876,-0.774221897,3.629875898,1.342893481,10.09165573,1.514524221,0.709554851,-0.331316978,-0.451442629,-0.427739084,9.761091232,0.402515352,-0.050289966,-1.777271152,30.88514519,-0.052813563,0.455087543,-0.526335716,-0.476233274,-0.537650585
369383,9.070219994,-0.797617197,3.659682751,0.540332139,10.31660175,1.354713917,0.710338533,-0.330673188,-0.450360358,-0.428077281,9.796326637,0.384700507,0.005672827,-2.323899269,30.64366722,0.060362924,0.456940949,-0.524091482,-0.474026859,-0.540214658
369550,9.06291008,-0.841597974,3.718500137,0.700462818,10.43908024,1.45155549,0.711114585,-0.330044478,-0.449245542,-0.428445458,9.807593346,0.337444246,0.063450985,-2.877993345,30.50853348,0.147497624,0.458791137,-0.521841645,-0.471823901,-0.54274714
369716,9.03659153,-0.838302195,3.765897512,1.032019377,10.48204613,1.572229743,0.711899042,-0.329404682,-0.448126405,-0.428806663,9.828827858,0.290599376,0.118825652,-2.795789242,30.54679871,-0.19077681,0.460614592,-0.519549727,-0.469641179,-0.545288682
369883,9.024912834,-0.805044949,3.813286781,0.586114764,10.51691723,1.455550909,0.712697268,-0.328753144,-0.44701457,-0.429141223,9.856903076,0.286092639,0.16846031,-2.751428127,31.09713173,-0.602233469,0.462437183,-0.517172575,-0.467446685,-0.54788518
370050,9.024388313,-0.811258793,3.781500578,0.826899827,10.66517639,1.413751125,0.71348381,-0.328095824,-0.445879996,-0.429517508,9.889266968,0.290616721,0.267005324,-2.958584785,31.87809563,-1.173731685,0.464242131,-0.514697433,-0.465216219,-0.550581276
370216,9.039787292,-0.805015147,3.749968767,1.490768552,11.23932457,1.540073156,0.714339137,-0.327348173,-0.444714934,-0.429873854,9.864135742,0.32861343,0.352313817,-3.004611731,32.82173157,-2.179597855,0.46601671,-0.512070417,-0.462983221,-0.553406596
370383,9.012839317,-0.793544173,3.792980909,1.575201035,11.23362732,1.808699369,0.715163648,-0.326662213,-0.443502992,-0.430276781,9.807776451,0.311567128,0.435957968,-3.126375198,33.33286285,-2.958765268,0.467743158,-0.509346128,-0.460753024,-0.556317866
370550,9.081186295,-0.867984772,3.866900206,0.836799383,12.23941326,1.729287386,0.71610564,-0.325879544,-0.442218542,-0.430625141,9.789747238,0.285451174,0.486529171,-2.820110321,33.6391983,-3.356160879,0.469469458,-0.506537437,-0.458545119,-0.559244871
370716,8.962675095,-0.829860628,3.919087648,1.432320714,12.03041458,1.305294394,0.717029393,-0.325024158,-0.441008747,-0.43097505,9.738564491,0.324788779,0.575230241,-2.55760479,33.57243347,-3.547321558,0.471183807,-0.503691316,-0.456366032,-0.562148631
370883,8.995282173,-0.811541915,3.894440413,1.61235249,12.84186363,1.264314175,0.718006253,-0.32409808,-0.439724118,-0.431358486,9.777503967,0.398981273,0.710378706,-2.726303816,33.68745422,-3.875627041,0.472855181,-0.500813365,-0.454178244,-0.565080643
371050,8.938558578,-0.815373957,3.906335115,1.322352529,12.85665417,1.366034865,0.718923569,-0.323262691,-0.438372821,-0.431832522,9.771402359,0.402713507,0.849484086,-2.921473503,33.69852829,-4.147903919,0.474479109,-0.497917801,-0.451982439,-0.568031013
371216,8.997691154,-0.868119538,3.923536777,1.026692152,13.50153255,1.550075054,0.719913006,-0.322388142,-0.436954558,-0.432275385,9.762744904,0.428730845,0.954804122,-3.239801884,33.41827393,-4.137748241,0.476050973,-0.495055944,-0.449767977,-0.570967615
371383,8.936058044,-0.873258054,4.014077663,1.470791101,13.05767632,1.541571736,0.720901728,-0.321483821,-0.435616523,-0.43265143,9.737353325,0.42530182,1.047891378,-3.231682301,32.90307999,-3.924303532,0.477596164,-0.492238432,-0.447563767,-0.573838174
371550,8.922166824,-0.858479798,4.117171288,1.682480335,13.05729294,1.356827378,0.721910715,-0.320518911,-0.434317619,-0.432990789,9.733187675,0.458768368,1.106253028,-3.224074841,32.52054596,-3.590619326,0.479133844,-0.489462525,-0.445352435,-0.576644242
371716,8.846710205,-0.829508305,4.191016197,1.503370285,13.14014912,1.118116617,0.722863257,-0.319589168,-0.432980478,-0.433427781,9.740308762,0.477331579,1.209065795,-3.436507225,32.65740967,-3.170006275,0.480689645,-0.486706108,-0.44307372,-0.579431236
371883,8.83496666,-0.827730656,4.173442364,1.718235254,13.12353802,1.227073073,0.723908365,-0.318559587,-0.431712955,-0.433705688,9.768760681,0.509606421,1.321120262,-3.909575939,33.05805969,-3.0374856,0.482237697,-0.483946055,-0.440707475,-0.582254291
372050,8.86524868,-0.826377988,4.150632381,1.853060484,13.473382,1.39712882,0.724937975,-0.317558587,-0.430367082,-0.434057206,9.843632698,0.497059673,1.464357734,-4.192956924,33.82344437,-3.08639431,0.48379913,-0.481126219,-0.438256443,-0.585138798
372216,8.878446579,-0.82078886,4.137372971,1.712818384,13.9402523,1.408244848,0.72600168,-0.316528559,-0.428971052,-0.434413642,9.763004303,0.448720455,1.589016438,-4.282193184,34.81794739,-3.164987803,0.485398799,-0.478210658,-0.435722202,-0.588089168
372383,8.848534584,-0.811372995,4.242265701,1.379866004,14.18132019,1.403237581,0.72704792,-0.315532118,-0.427515954,-0.434823155,9.641581535,0.443221211,1.67999053,-3.782563448,34.29911423,-3.345826387,0.486972511,-0.475280344,-0.433268517,-0.590969443
372550,8.780511856,-0.823083937,4.313380241,0.916403592,13.7179451,1.065674543,0.728022099,-0.314589083,-0.426096201,-0.435269624,9.56914711,0.43640998,1.777523518,-3.137375832,33.43638992,-3.639540672,0.488499403,-0.472348183,-0.430940866,-0.593755543
372716,8.76813221,-0.840387344,4.350621223,1.12911725,13.77068329,1.165935636,0.729161084,-0.313475192,-0.4247877,-0.435445607,9.522069931,0.471135527,1.829975128,-2.606588602,32.12202454,-3.74932909,0.489959747,-0.469473928,-0.42874983,-0.596412182
372883,8.745616913,-0.834223807,4.418911934,1.240033269,13.88709259,1.292590499,0.73014158,-0.312528431,-0.423335016,-0.435897976,9.556303978,0.508662641,1.914160848,-2.273941994,31.24489975,-3.864675522,0.491367638,-0.466634661,-0.426648617,-0.598983407
373050,8.695948601,-0.833978415,4.444003582,1.447854877,13.68239689,1.537281632,0.731117249,-0.31159997,-0.421894044,-0.436323881,9.639801025,0.562006116,1.981726646,-2.30387044,31.27654266,-3.785122633,0.492772132,-0.463789791,-0.424528062,-0.601540208
373216,8.699408531,-0.834365904,4.448273659,1.799542904,13.67586517,1.538075686,0.732162893,-0.31057632,-0.420515895,-0.436630636,9.777100563,0.578889966,2.095024347,-2.530083179,32.41932678,-3.646609068,0.49423337,-0.460859537,-0.422287256,-0.604165018
373383,8.707502365,-0.843631566,4.419655323,1.751071215,14.16202068,1.541943312,0.733181953,-0.309577197,-0.419043243,-0.437045693,9.748025894,0.598610044,2.186466932,-2.695338249,34.15664673,-3.327411175,0.495806515,-0.45779711,-0.419875622,-0.606879115
