sampleTimeFine,W4_acc_x,W4_acc_y,W4_acc_z,W4_gyro_x,W4_gyro_y,W4_gyro_z,W4_quat_w,W4_quat_x,W4_quat_y,W4_quat_z,W5_acc_x,W5_acc_y,W5_acc_z,W5_gyro_x,W5_gyro_y,W5_gyro_z,W5_quat_w,W5_quat_x,W5_quat_y,W5_quat_z
2875313,0,0,0,0,0,0,0.697370112,-0.305069506,-0.487396121,-0.427846372,0,0,0,0,0,0,0.355610996,-0.629675865,-0.509141147,-0.466716409
2875480,9.221051216,-0.07162077,3.384535313,0.893223643,-0.514789581,0.113906078,0.697300673,-0.305021912,-0.487105131,-0.428324848,9.22339344,0.349534988,-3.040026665,-0.06811697,0.582592845,-0.085111,0.355624139,-0.629479408,-0.509268701,-0.466832459
2875647,9.202858925,-0.037689395,3.328291655,0.604146063,-0.818722844,-0.327804148,0.697280288,-0.304911733,-0.486683786,-0.428915203,9.198194504,0.379792899,-3.054531097,-0.690531194,0.322905689,-0.165470853,0.35483703,-0.629400373,-0.50944519,-0.467345208
2875813,9.204381943,-0.041888118,3.312644482,0.170318052,-0.465971828,-0.66194737,0.697328031,-0.304445714,-0.486808747,-0.429026544,9.258216858,0.339290917,-3.067078352,-1.220829368,0.065984719,0.162121981,0.353892773,-0.629285932,-0.509857237,-0.467765987
2875980,9.289148331,-0.062833965,3.346128464,0.113688365,-0.379541755,-0.272519082,0.697196603,-0.3042579,-0.486981928,-0.429176718,9.324860573,0.2868312,-3.048319578,-1.216270208,0.048811402,0.657689333,0.353246957,-0.629361451,-0.509987712,-0.468010217
2876147,9.329434395,-0.100727454,3.32869792,0.098410398,-0.003995582,0.043496769,0.697307765,-0.30398792,-0.487213373,-0.42892462,9.33456707,0.265243232,-3.017441034,-0.874071836,0.5768556,0.907656372,0.353061318,-0.629474699,-0.509820104,-0.468180418
2876313,9.204915047,-0.107186243,3.398151636,0.144397989,0.599522829,-0.120738253,0.697266042,-0.30403778,-0.487241864,-0.428924799,9.297638893,0.281368941,-2.999311686,-0.70429796,0.863231182,0.95418179,0.353200853,-0.62950927,-0.509567857,-0.468303353
2876480,9.194400787,-0.044277024,3.41199851,0.289596379,-0.607315481,-0.396356493,0.697286904,-0.304048002,-0.487287015,-0.428832322,9.235178947,0.270704299,-3.009141207,-0.523113728,0.920091391,0.585346222,0.353357255,-0.629534245,-0.509268403,-0.468477339
2876647,9.188387871,-0.065009654,3.394973755,-0.23433058,-0.815431535,-0.049022704,0.697310507,-0.304071039,-0.487258613,-0.42881003,9.231564522,0.23765111,-3.006540537,-0.168557167,0.855393708,0.290428787,0.353517234,-0.62954849,-0.509024024,-0.468603224
2876813,9.217271805,-0.095603868,3.383498907,0.214512751,-0.837868214,0.176721215,0.697341681,-0.304087132,-0.487211734,-0.42880106,9.254206657,0.264878929,-2.999711037,0.392802745,0.805474579,0.310432285,0.353709489,-0.629594564,-0.508774638,-0.468666971
2876980,9.220188141,-0.092937723,3.363417149,0.656831264,-0.880679846,0.30808872,0.697388709,-0.304099888,-0.487184674,-0.428746313,9.264499664,0.293006718,-2.991458893,0.624392748,0.716303945,0.440429538,0.353946596,-0.629604101,-0.508591712,-0.468673736
2877147,9.201836586,-0.053069554,3.377117157,0.486596435,-0.667863905,0.212386891,0.697396576,-0.304159701,-0.487125099,-0.42875886,9.241090775,0.319844037,-2.988518476,0.562653303,0.607283473,0.243173361,0.354174405,-0.629550278,-0.50850302,-0.468669981
2877313,9.206236839,-0.064786322,3.362026215,0.446243703,-0.93535012,0.022417517,0.697329104,-0.304250419,-0.487090647,-0.428843349,9.211490631,0.338023126,-2.997033358,0.324711412,0.262818307,0.353820205,0.354310334,-0.629549444,-0.508402348,-0.468677849
2877480,9.242987633,-0.028214678,3.326395988,0.39975661,-1.110220671,0.011429667,0.697309852,-0.304272771,-0.48713842,-0.428804547,9.214720726,0.365091324,-2.996335745,-0.083676688,-0.129420966,0.307576507,0.354362488,-0.629565537,-0.508347571,-0.468676299
2877647,9.236841202,-0.033641417,3.343066931,0.271103978,-0.946145892,-0.099723041,0.69733423,-0.304211915,-0.487246037,-0.428685844,9.245958328,0.335505456,-2.989652157,-0.405717909,-0.515724421,0.389140129,0.354361355,-0.629590154,-0.508343935,-0.468647897
2877813,9.268989563,-0.051200561,3.351592779,0.223400369,-0.519028544,-0.115910269,0.697335362,-0.30417046,-0.487295359,-0.428657293,9.286255836,0.344891071,-3.01177454,-0.62316978,-0.60609895,0.361401588,0.35428974,-0.629661679,-0.508295894,-0.46865809
2877980,9.258267403,-0.032446928,3.32937026,0.31958881,-0.126193762,0.055649992,0.697336435,-0.304151803,-0.487286389,-0.428679079,9.32063961,0.314781278,-3.013506413,-0.709318101,-0.505505025,0.534428179,0.35421589,-0.62974602,-0.508222044,-0.46868065
2878147,9.264444351,-0.028745554,3.36742115,0.269733757,-0.101746455,0.165016219,0.697345138,-0.304134279,-0.487286001,-0.428677619,9.263374329,0.342132121,-2.994014502,-0.553772151,-0.179109618,0.590174198,0.354197502,-0.629791796,-0.508153081,-0.46870777
2878313,9.207765579,-0.049176764,3.386428833,0.284192115,-0.370116323,0.183854356,0.697385192,-0.304072559,-0.487351894,-0.428581387,9.233495712,0.313625962,-3.01283288,-0.662549257,-0.278281987,0.43283534,0.354150623,-0.629832804,-0.508103907,-0.468741417
2878480,9.205746651,-0.025466049,3.33904624,0.404354095,-0.935337424,0.279786736,0.697310925,-0.304140151,-0.487409145,-0.428589195,9.228648186,0.281666726,-3.027390242,-0.352110595,-0.3888776,0.703766584,0.354105264,-0.629927874,-0.508011043,-0.468748659
2878647,9.213799477,-0.066262968,3.329848528,0.349965513,-1.13881743,0.563293636,0.697275698,-0.304198354,-0.487504125,-0.428497225,9.242452621,0.265628517,-3.027777672,0.175350934,-0.6711936,0.909103513,0.354133904,-0.630003393,-0.507991076,-0.468647033
2878813,9.258406639,-0.056300119,3.321578026,0.273332328,-1.008256793,0.903366387,0.69726932,-0.304282665,-0.487568945,-0.428373814,9.237392426,0.296512723,-3.037864208,0.499812663,-0.77892065,0.867969632,0.354199469,-0.630056798,-0.508020043,-0.468494326
2878980,9.247735023,-0.066557594,3.316945314,0.225705504,-0.485975325,0.698170125,0.697284758,-0.304326445,-0.487592787,-0.428290546,9.262093544,0.314810395,-3.052621841,0.552369893,-0.783249199,0.744170606,0.354240805,-0.630122125,-0.508040667,-0.468352914
2879147,9.274084091,-0.03948956,3.315783739,0.327259839,-0.611759305,0.657189846,0.697288513,-0.3043724,-0.487637818,-0.428200454,9.245518684,0.283015341,-3.045789003,0.453479201,-0.604677379,0.705943584,0.354287475,-0.63017118,-0.508061588,-0.468228757
2879313,9.241632462,-0.060872685,3.325627327,0.118144982,-0.557165861,0.772844076,0.697301567,-0.304433584,-0.487671107,-0.428097755,9.2645998,0.282587141,-3.063561678,0.600035131,-0.637525678,0.726446509,0.354352504,-0.630212963,-0.508100152,-0.468081504
2879480,9.251464844,-0.067330353,3.32746768,0.280042857,-0.358949184,0.830242038,0.697310269,-0.304504603,-0.487671733,-0.428032517,9.268933296,0.292338461,-3.056432247,0.490207851,-0.440013349,0.776096761,0.354407907,-0.630271792,-0.508094072,-0.467967063
2879647,9.246896744,-0.069492564,3.348860502,0.276559472,-0.478560477,0.89245528,0.697327733,-0.304574013,-0.487691253,-0.427932352,9.241586685,0.289712191,-3.056396961,0.542880416,-0.4207654,0.776775479,0.354481131,-0.630314171,-0.508107662,-0.467839628
2879813,9.235350609,-0.068232477,3.324588776,0.122524753,-0.330595911,0.821917892,0.697353542,-0.304636151,-0.487693399,-0.427843392,9.255138397,0.3110618,-3.062523365,0.339361876,-0.300436944,0.778568387,0.354546309,-0.630357504,-0.50810504,-0.467734545
2879980,9.2469244,-0.069904104,3.348746061,0.203678578,-0.041889567,0.697196841,0.697340906,-0.304726601,-0.487637937,-0.427862674,9.24193573,0.291510969,-3.041946888,0.218623623,-0.223355547,0.635841668,0.354581952,-0.630404711,-0.50808847,-0.467661917
2880147,9.248397827,-0.069170214,3.337547064,0.554828703,-0.25605014,0.804872632,0.697386205,-0.304745942,-0.487655461,-0.427755386,9.235358238,0.263798922,-3.019677877,0.125905633,-0.223125041,0.591839075,0.354619801,-0.630438745,-0.508087754,-0.467588037
2880313,9.247252464,-0.072938658,3.335847616,0.661582351,-0.033091608,0.586780488,0.697439075,-0.304724813,-0.487666756,-0.427671343,9.261740685,0.272102892,-3.038352966,0.177220672,-0.063634753,0.19042401,0.354645342,-0.630434036,-0.508112073,-0.467548639
2880480,9.213787079,-0.058693461,3.348220348,0.74952364,0.104173243,0.584449768,0.697480142,-0.304715633,-0.487651229,-0.427628607,9.284810066,0.278661638,-3.029591084,0.210056141,0.099178769,0.029294524,0.354674876,-0.63040626,-0.508142173,-0.467530876
2880647,9.226858139,-0.084627956,3.30452013,0.998005271,-0.236443654,0.618309855,0.697500885,-0.304714948,-0.487676352,-0.427566439,9.267479897,0.282573611,-3.039794683,0.280260503,0.256556004,-0.120008282,0.354721874,-0.630343616,-0.508192778,-0.467524797
2880813,9.259971619,-0.076647446,3.323762178,1.029342413,-0.314818501,0.550180018,0.697513103,-0.304712802,-0.487715155,-0.427503943,9.247441292,0.305841208,-3.038027287,0.135875389,0.190059036,-0.170247614,0.35473147,-0.630306602,-0.50821954,-0.467538327
2880980,9.265674591,-0.064372443,3.314557076,0.912433267,-0.569792926,0.663721144,0.697553337,-0.304696351,-0.487799883,-0.427353531,9.261376381,0.322248489,-3.057907104,0.009060492,0.056789763,0.066023134,0.354744464,-0.63029182,-0.508236229,-0.46753028
2881147,9.245242119,-0.06229914,3.323415279,0.73460418,-0.604664624,0.553227901,0.697553396,-0.304717869,-0.487867326,-0.427260965,9.238780022,0.32380417,-3.046453476,-0.247444287,-0.052762158,0.367894441,0.354764074,-0.630298674,-0.508240759,-0.467501312
2881314,9.267794609,-0.068470068,3.292313576,0.40548104,-0.371973217,0.421514601,0.697527409,-0.304771453,-0.487882853,-0.427247435,9.253983498,0.311105013,-3.025357008,-0.330391049,-0.07555747,0.754530966,0.354787618,-0.630351961,-0.508190811,-0.467465937
2881480,9.246602058,-0.079109281,3.333050251,0.12864618,-0.263567477,0.330423027,0.697507501,-0.304821074,-0.487888187,-0.427238375,9.2554245,0.302304387,-3.029523373,-0.432483196,-0.025279734,0.986991704,0.354802042,-0.630444407,-0.508083999,-0.467446417
2881647,9.239407539,-0.090749793,3.342329979,-0.087147199,-0.226608336,0.397169709,0.697492599,-0.304886609,-0.487878203,-0.427227378,9.247546196,0.258443087,-3.043413877,-0.006723333,0.025401393,1.319777489,0.35488376,-0.630533636,-0.507975221,-0.467382163
2881814,9.221972466,-0.115225397,3.331262112,-0.025254125,-0.283327699,0.460407525,0.697462618,-0.30497548,-0.487860531,-0.42723304,9.250380516,0.236012891,-3.053726435,0.225731134,0.067226939,1.219183922,0.355001032,-0.630582809,-0.507911682,-0.467295885
2881980,9.211018562,-0.105630435,3.335478544,0.094581284,-0.532859385,0.522236526,0.697447598,-0.305047423,-0.487887651,-0.427175254,9.261297226,0.211620018,-3.058638334,0.564868987,0.110999048,0.956832886,0.355111957,-0.630619526,-0.507859349,-0.467218965
2882147,9.236802101,-0.099104159,3.319242716,0.250741899,-0.283161193,0.497123271,0.697433829,-0.305112779,-0.487882614,-0.427156746,9.237929344,0.231208533,-3.054617405,0.793897569,0.15030171,0.791118622,0.355267644,-0.630597711,-0.507875681,-0.467112213
2882314,9.224168777,-0.098742656,3.311496496,0.251010865,-0.246586233,0.60788548,0.697420716,-0.305194616,-0.487862349,-0.427142918,9.220703125,0.265276998,-3.044017315,0.777940869,0.158177614,0.639260888,0.355402768,-0.630577028,-0.507889926,-0.467021734
2882480,9.245132446,-0.093907513,3.312179327,0.276393056,-0.230219766,0.588317335,0.697424054,-0.30525443,-0.487853676,-0.427104473,9.235720634,0.281679273,-3.045246601,0.731735587,0.097654812,0.577675223,0.355536878,-0.630545378,-0.507926285,-0.466922909
2882647,9.226901054,-0.081580438,3.33395505,0.231301874,-0.062443759,0.38579765,0.697378099,-0.305347681,-0.487800956,-0.427173138,9.283588409,0.316655248,-3.009675503,0.294078618,0.209569514,0.439840466,0.355624139,-0.630524039,-0.507933199,-0.466877878
2882980,9.237565041,-0.077031508,3.368365288,0.597640336,0.162160411,0.335737675,0.697402596,-0.305366248,-0.487738281,-0.427191615,9.291787148,0.319916785,-3.01220727,-0.155148923,0.612931073,0.53914088,0.355694443,-0.630517125,-0.50786382,-0.466909021
2883147,9.208330154,-0.074381366,3.376729727,0.215831801,-0.18060793,0.431004077,0.69737041,-0.305448025,-0.487707883,-0.427220166,9.290326118,0.296237975,-2.999335527,-0.56260854,0.743338168,0.976529002,0.355781198,-0.630537391,-0.507740259,-0.466949999
2883314,9.208552361,-0.087205678,3.37425518,0.04742831,-0.263183266,0.461367905,0.69737196,-0.305502772,-0.487704456,-0.427182585,9.252194405,0.285571426,-2.981281996,-0.722688019,0.937316179,1.198719382,0.355871737,-0.630580306,-0.507559896,-0.467019171
2883480,9.199242592,-0.08747761,3.374405384,-0.040378418,-0.648283005,0.283218801,0.697291791,-0.305622637,-0.487712592,-0.427218348,9.230983734,0.268227458,-3.009037495,-0.800768316,0.844354689,1.232668877,0.355971336,-0.63061285,-0.507403433,-0.467069447
2883647,9.232758522,-0.05750899,3.342094421,-0.249672607,-0.469532013,0.131540433,0.697200418,-0.305748105,-0.487690836,-0.42730245,9.250788689,0.246944487,-2.975969791,-0.75574106,0.648519933,1.195184469,0.356032252,-0.630681694,-0.507228017,-0.46712032
2883814,9.232050896,-0.098506629,3.373843908,-0.415335476,-0.165048227,0.176183328,0.697126865,-0.305872589,-0.48762688,-0.427406341,9.25343132,0.229586497,-2.980818033,-0.515020132,0.478669316,1.129014254,0.356110275,-0.630732358,-0.507098198,-0.467133462
2883980,9.216683388,-0.121998735,3.324120522,-0.464383811,-0.479034305,0.258758664,0.697074175,-0.305982143,-0.487615287,-0.427427053,9.217553139,0.223419979,-2.999801397,-0.096175678,0.149661392,0.793167651,0.356182337,-0.630757034,-0.507045865,-0.467101932
2884147,9.23760128,-0.097884372,3.300052643,-0.082600951,-0.506273448,-0.090976313,0.696977794,-0.30607295,-0.487618744,-0.427515417,9.206005096,0.226545572,-3.006327868,0.225129232,-0.323411554,0.176170543,0.356180578,-0.630781472,-0.507059336,-0.467055619
2884314,9.260273933,-0.092992119,3.280544281,0.013965324,-0.234894052,0.122473523,0.696929038,-0.306140095,-0.487599611,-0.427568585,9.210299492,0.276459485,-3.013548613,0.430146068,-0.796734214,-0.275298119,0.356164038,-0.630760491,-0.507194877,-0.466949493
2884480,9.32378006,-0.111388117,3.274657488,0.401242137,-0.025100444,0.444937348,0.696895957,-0.306218982,-0.487544328,-0.427629173,9.292324066,0.251675397,-3.014088154,0.553330362,-1.224171877,-0.134812444,0.356114179,-0.630796015,-0.507318914,-0.466804832
2884647,9.262223244,-0.09762688,3.360365391,0.364487886,0.465952635,0.463263303,0.696870804,-0.306302816,-0.48741883,-0.427752882,9.293523788,0.291477263,-3.004310131,0.658649802,-1.12415421,0.188797608,0.356072187,-0.630877256,-0.5073722,-0.466669172
2884814,9.177966118,-0.042824671,3.383045197,0.245004684,0.357226729,-0.054222081,0.696797967,-0.306371897,-0.487317383,-0.427937657,9.296278,0.354423463,-2.989227772,0.316336036,-0.856219709,0.14010784,0.35602951,-0.630938232,-0.507412255,-0.466575652
2884980,9.181426048,-0.030350981,3.370872974,0.507445157,-0.441883117,0.02155949,0.696728766,-0.306418389,-0.487340361,-0.427990854,9.275097847,0.352527976,-3.021438122,-0.297350645,-0.571022272,0.1468568,0.355938315,-0.631024539,-0.507378697,-0.466565043
2885147,9.199495316,-0.066727355,3.346674442,0.250344962,-0.770609319,0.374899507,0.696635306,-0.306548208,-0.487356246,-0.428031921,9.238250732,0.326141477,-3.015392065,-0.476037621,-0.612309992,0.335340649,0.355826825,-0.63114959,-0.507301629,-0.466564655
2885314,9.228679657,-0.100891717,3.317923546,0.491232336,-0.857948542,0.372812003,0.696551204,-0.306652874,-0.48739922,-0.428044885,9.21848774,0.289803624,-3.024973392,-0.522806406,-0.814804018,0.494754136,0.35569787,-0.631310701,-0.507206976,-0.466547906
2885480,9.227116585,-0.059816118,3.308123827,0.266237617,-0.755561829,0.491975129,0.696447134,-0.306810856,-0.48739475,-0.428106219,9.221241951,0.284644723,-3.038361073,-0.34196794,-0.956416547,0.60907644,0.355562747,-0.631501973,-0.507094741,-0.46651417
2885647,9.228392601,-0.065301545,3.302041054,0.048619308,-0.486103445,0.419491202,0.69637686,-0.306935191,-0.487374216,-0.428154856,9.220572472,0.278529704,-3.049420595,-0.174909115,-1.11589396,0.495151103,0.355410248,-0.631700993,-0.506995201,-0.46646899
2885814,9.243497849,-0.07176733,3.277254343,0.418441057,-0.370423615,0.481038421,0.696334839,-0.307019055,-0.487362742,-0.428176165,9.231989861,0.287154466,-3.063889027,0.036709398,-1.138497233,0.391445309,0.355302274,-0.631845653,-0.506967723,-0.466385096
2885980,9.283259392,-0.051204242,3.309658766,0.583463669,-0.11138963,0.466106296,0.696308315,-0.307078958,-0.487330437,-0.428212792,9.249484062,0.299312085,-3.082985163,0.286702156,-1.27511549,0.189412326,0.355163813,-0.632003784,-0.506943405,-0.466302931
2886147,9.26984787,-0.051787097,3.304922819,0.21670264,0.020099564,0.353154302,0.696272492,-0.307153791,-0.487271488,-0.428284794,9.266238213,0.309601039,-3.093905449,0.443285406,-1.312881351,0.296422184,0.355065912,-0.632139802,-0.50695312,-0.466182649
2886314,9.263448715,-0.070411734,3.308367729,0.288213283,0.158613056,0.560450673,0.696247578,-0.307243496,-0.487183779,-0.428360492,9.285729408,0.322467417,-3.11052084,0.262805521,-1.060289025,0.33002606,0.354931951,-0.63231355,-0.506881177,-0.466127127
2886480,9.274936676,-0.062150907,3.33349371,0.570849419,0.073309951,0.548156559,0.696224689,-0.307312995,-0.487120777,-0.42841953,9.314118385,0.347430974,-3.091738701,0.04137091,-0.716489613,0.504294753,0.354816586,-0.63248533,-0.506764889,-0.466108441
2886647,9.241398811,-0.072897412,3.368068457,0.519342303,-0.098442405,0.472227693,0.696204722,-0.307367384,-0.487091511,-0.428446323,9.275752068,0.31805715,-3.08409977,-0.078938335,-0.282776982,0.756093264,0.354759157,-0.632628977,-0.506624222,-0.466109872
2886814,9.209760666,-0.059479348,3.299812078,0.653975427,-0.809963107,0.319896221,0.69612056,-0.307453156,-0.487141401,-0.428464651,9.194901466,0.349914014,-3.088702202,-0.430920869,0.013248169,0.681585908,0.354697227,-0.63275224,-0.506467998,-0.466159463
2886980,9.256397247,-0.061893418,3.317035913,0.380444616,-0.549328327,0.439981341,0.696047246,-0.307561755,-0.487140924,-0.428506643,9.209621429,0.303718865,-3.099465132,-0.458211184,-0.09269236,0.701653421,0.354620397,-0.632890522,-0.506308079,-0.466203958
2887147,9.265455246,-0.093381114,3.317661524,0.332702547,-0.538583815,0.907592356,0.696005642,-0.307702601,-0.487118572,-0.428498387,9.20959568,0.273262233,-3.10250926,-0.28011325,-0.177944228,1.00554812,0.35458377,-0.633036613,-0.506151319,-0.466203719
2887314,9.238759995,-0.091032356,3.284202814,0.388973653,-0.062174827,0.495010227,0.695967972,-0.307786554,-0.487065256,-0.428559989,9.204281807,0.295677245,-3.0781703,-0.097123347,-0.297926903,0.741814137,0.354526192,-0.633173883,-0.506023288,-0.466200143
2887480,9.281766891,-0.068309136,3.283634186,0.58830446,0.077881813,0.478041798,0.69593966,-0.307849765,-0.487005353,-0.428628415,9.23263073,0.304345787,-3.11593461,-0.022052536,-0.322143734,0.433424532,0.354454368,-0.633283973,-0.505933106,-0.466203004
2887647,9.270131111,-0.057723366,3.299209833,0.436664492,0.549309134,0.531610787,0.695940852,-0.307902873,-0.486886442,-0.428723484,9.277647018,0.291800648,-3.097746611,-0.011743424,-0.150705144,0.201501518,0.354361475,-0.633384705,-0.505831957,-0.466246456
2887814,9.241513252,-0.083626188,3.334941864,0.53696382,0.637314379,0.662811816,0.695961714,-0.307948053,-0.486760378,-0.428800374,9.296687126,0.310393333,-3.109737635,0.115839839,0.368918866,0.252880573,0.354386061,-0.633377671,-0.505795658,-0.466276884
2887980,9.249289513,-0.060621392,3.344104528,0.697183967,0.321535408,0.745694518,0.695965648,-0.308010221,-0.486667365,-0.428854793,9.287734985,0.31472075,-3.090656996,0.131092206,0.82171309,0.52668035,0.354463279,-0.633359253,-0.505712152,-0.466333836
2888147,9.233624458,-0.086971559,3.361777306,0.368445039,0.075115643,0.768464148,0.695936024,-0.308125407,-0.486575693,-0.428924203,9.291686058,0.321231097,-3.077069521,0.009598359,1.156291842,0.953784943,0.354582369,-0.633355498,-0.505564272,-0.466408759
2888314,9.236120224,-0.080514729,3.346364498,0.082696997,-0.041799925,0.779746592,0.695884526,-0.308279216,-0.486475736,-0.42901057,9.253648758,0.312643081,-3.062585115,-0.027917845,1.382964134,1.135904074,0.354726523,-0.633351326,-0.505385578,-0.466498315
2888480,9.252833366,-0.10100732,3.360694647,0.39853999,-0.171220899,1.037576795,0.695839584,-0.308443755,-0.48638624,-0.429066777,9.257894516,0.277177602,-3.065762758,-0.006108629,1.555478334,1.253274083,0.35489288,-0.633342624,-0.505188942,-0.466596484
2888647,9.227725983,-0.111937165,3.332567215,0.465350717,-0.20118773,1.067364335,0.69580406,-0.308597863,-0.486306787,-0.429103374,9.251914978,0.257814527,-3.058735847,0.359749615,1.630562186,1.366418362,0.355105937,-0.633318126,-0.505002916,-0.466668844
2888814,9.219039917,-0.082179755,3.356361389,0.465184242,-0.009207766,0.867252409,0.695771813,-0.308723778,-0.486218005,-0.42916593,9.245388031,0.241306558,-3.019057989,0.63296032,1.732859373,1.329075098,0.355349183,-0.633269966,-0.504833639,-0.466732442
2888980,9.209517479,-0.095925286,3.339637995,0.655230463,-0.237109572,1.076559544,0.695737779,-0.308867395,-0.486149102,-0.42919594,9.22131443,0.246609241,-3.022723436,1.052137733,1.656136513,1.148787379,0.355534643,-0.633277237,-0.504606009,-0.466827691
2889147,9.22769928,-0.0854882,3.307275057,0.770999849,-0.297068894,0.936317027,0.695692897,-0.308996409,-0.486097217,-0.429234445,9.216887474,0.264713734,-3.013454199,1.197310448,1.40354383,0.981728315,0.355704397,-0.633280754,-0.504417539,-0.46689713
2889314,9.243411064,-0.087661035,3.33452177,0.705354452,-0.050559465,0.907413065,0.69566685,-0.309107482,-0.486022264,-0.429281652,9.229850769,0.271077245,-3.000126362,1.230363727,1.088674188,0.776365817,0.355839789,-0.63328892,-0.504266143,-0.466946274
2889480,9.221329689,-0.08297886,3.320008278,0.424255192,0.03938593,0.947586596,0.695629239,-0.309252739,-0.485913157,-0.429361522,9.247039795,0.29519099,-3.011447191,1.008224607,0.770410717,0.776019931,0.355932057,-0.633329034,-0.50411731,-0.466982335
2889647,9.241629601,-0.090796746,3.344521284,0.36429581,0.265110642,0.77918309,0.695591509,-0.3093808,-0.4857831,-0.429477334,9.272107124,0.30416584,-3.006969452,0.600816309,0.639273822,0.702588379,0.355968386,-0.633396983,-0.50394994,-0.467043161
2889814,9.237315178,-0.087552942,3.340062857,0.164555207,0.247412264,0.541202724,0.695526242,-0.309515983,-0.485651076,-0.429635078,9.262595177,0.310899794,-3.008678913,0.137892365,0.562781394,0.761241376,0.355960816,-0.633497119,-0.50375092,-0.467127979
2889980,9.236151695,-0.083314836,3.358523846,0.265930235,0.078086711,0.674171031,0.695462048,-0.309660226,-0.485536635,-0.42976436,9.267092705,0.292991966,-3.001327753,-0.31554848,0.499479622,0.923023999,0.355921,-0.633632183,-0.503514767,-0.467229486
2890147,9.22509861,-0.095531225,3.340524435,0.41667375,-0.062687077,0.435025275,0.695473671,-0.309674561,-0.485524148,-0.429749191,9.240032196,0.274047256,-3.009957314,-0.572008371,0.337223172,0.748972952,0.355839044,-0.633772433,-0.503293276,-0.467340231
2890314,9.229765892,-0.094165243,3.355713129,0.474468797,-0.169850618,0.420208335,0.695479572,-0.309688419,-0.485526651,-0.429726809,9.254266739,0.243450761,-3.003207207,-0.691542923,0.223592475,0.573295534,0.35572803,-0.633910835,-0.503089309,-0.467456818
2890480,9.231650352,-0.102644525,3.357987404,0.456514329,-0.286234707,0.379624993,0.695473969,-0.309708148,-0.485541493,-0.429704756,9.244856834,0.236551806,-2.999082565,-0.51577574,0.084720396,0.332766563,0.355614066,-0.634023786,-0.502936602,-0.467554688
2890647,9.234887123,-0.103137977,3.347523689,0.405826837,-0.120853528,0.318282604,0.695474148,-0.309718072,-0.485539019,-0.429700226,9.244423866,0.220559016,-3.014331579,-0.338779151,-0.196013987,0.195674613,0.355487496,-0.634135604,-0.502824068,-0.467620343
2890814,9.220685005,-0.09952613,3.341976643,0.278928667,-0.29042241,0.274395257,0.695454001,-0.309748054,-0.485547543,-0.429701507,9.243515968,0.24436225,-3.021762848,-0.041121189,-0.223662913,0.129632279,0.355438709,-0.634168029,-0.502816379,-0.467621624
2890980,9.218736649,-0.1156727,3.32301569,0.35393551,-0.257574111,0.186889455,0.695434213,-0.309762031,-0.485561281,-0.429708123,9.23059845,0.269309878,-2.993467808,0.116902769,-0.540594459,-0.02210376,0.355370939,-0.634202659,-0.502849877,-0.467590094
2891147,9.242751122,-0.104662612,3.323863029,0.726523399,-0.440845758,0.209723175,0.695419669,-0.309751332,-0.4856157,-0.429677814,9.244545937,0.278765351,-3.010079384,0.122665621,-0.802842855,0.034980543,0.355288208,-0.634258747,-0.502892196,-0.467531353
2891314,9.247052193,-0.106256142,3.339716196,0.836440265,-0.277705669,0.159701586,0.695418537,-0.309715629,-0.485662818,-0.429652184,9.273655891,0.287266016,-3.027256012,0.095157579,-0.817211568,0.084938109,0.355205029,-0.634320676,-0.502929032,-0.467471033
2891480,9.240243912,-0.102354631,3.339201212,0.616478443,-0.187612996,0.302940547,0.695422888,-0.309706539,-0.485680491,-0.429631799,9.279514313,0.278617263,-3.012451172,0.147663608,-0.778574765,0.379599392,0.35514912,-0.63439858,-0.502940416,-0.467395574
2891647,9.235941887,-0.108151659,3.36302948,0.432387143,-0.233395711,0.222209364,0.695410669,-0.309713095,-0.485694826,-0.429630697,9.271242142,0.305027604,-3.023319244,-0.011077493,-0.745637,0.50134939,0.355089039,-0.634490907,-0.502928257,-0.467328906
2891814,9.229847908,-0.088868752,3.361963749,0.479104787,-0.317379773,0.237154394,0.695395768,-0.309720904,-0.485719532,-0.4296211,9.257537842,0.299421519,-3.040258884,-0.246342942,-0.578578055,0.384824395,0.355011046,-0.634575188,-0.502902508,-0.467301309
2891980,9.221039772,-0.073673449,3.366956234,0.315926224,-0.290819377,0.327964216,0.695381224,-0.309749573,-0.485727131,-0.429615378,9.259251595,0.284490854,-3.053097486,-0.304688692,-0.463500232,0.448587179,0.354939938,-0.634659111,-0.502861321,-0.467285722
2892147,9.246809959,-0.085932687,3.346968889,0.441530913,-0.362842292,0.43278417,0.695373952,-0.309776813,-0.485744923,-0.429587364,9.239721298,0.282509893,-3.035663843,-0.388647109,-0.338330954,0.451699138,0.354869962,-0.634738922,-0.502807975,-0.467287838
2892314,9.201416969,-0.084580876,3.313585043,0.133858383,-0.369770557,0.203947544,0.695338011,-0.309819162,-0.48575446,-0.429604173,9.201684952,0.303190857,-3.048484325,-0.385163754,-0.340008587,0.380047649,0.354794919,-0.63481319,-0.5027619,-0.467293441
2892480,9.224722862,-0.069836177,3.306747198,0.23729524,-0.486141801,0.089445941,0.69529134,-0.309849948,-0.485787451,-0.429620236,9.205404282,0.336860836,-3.054578066,-0.558766603,-0.621172011,0.02769373,0.354658663,-0.634889722,-0.502751589,-0.4673042
2892647,9.303539276,-0.07495366,3.26515913,-0.016507382,-0.171412975,0.434154451,0.695276856,-0.309910774,-0.48575747,-0.429633737,9.239882469,0.287157625,-3.078324556,-0.783812642,-0.906971216,0.014912993,0.354478925,-0.634996057,-0.502742589,-0.467305988
2892814,9.312833786,-0.113444448,3.309858561,-0.051263817,0.351476669,0.63070631,0.69530946,-0.309956342,-0.485664338,-0.429653376,9.325653076,0.245877832,-3.067772388,-0.463525832,-0.882331848,0.551089227,0.354366332,-0.635123312,-0.502704799,-0.467258871
2892980,9.236051559,-0.122449525,3.365728617,-0.461476773,0.883593261,0.290108621,0.695339739,-0.309986174,-0.485507309,-0.429760367,9.321347237,0.282434613,-3.069451332,-0.181901395,-0.342518687,0.824133515,0.354337752,-0.635219276,-0.502633154,-0.467227042
2893147,9.227419853,-0.102922849,3.360733747,-0.34642455,0.451647907,0.022852927,0.695328295,-0.310012311,-0.485412806,-0.42986688,9.294813156,0.304106295,-3.090865135,-0.124413684,0.2337607,0.923459411,0.354363084,-0.635280192,-0.50252682,-0.467239469
2893314,9.229643822,-0.088242918,3.34576726,-0.300424129,0.177656069,0.299636573,0.69531697,-0.310070068,-0.485336095,-0.429929942,9.290151596,0.289550066,-3.101465464,-0.14988552,0.669368684,0.923613071,0.354417205,-0.635312736,-0.502396762,-0.467294097
2893480,9.231417656,-0.122291982,3.358788252,-0.145813093,0.438662291,0.394044966,0.695337057,-0.310102254,-0.485238373,-0.429984599,9.28594017,0.261903077,-3.091066599,-0.001664825,1.442219019,0.821866691,0.354533911,-0.635277569,-0.502246797,-0.467414528
2893647,9.22501564,-0.106914014,3.345582485,0.736320257,0.197992563,0.506203055,0.695387125,-0.310067981,-0.48521477,-0.429954886,9.294825554,0.255944133,-3.102033138,0.204511017,2.097878695,0.707890272,0.354709417,-0.635178864,-0.502087831,-0.467586219
2893814,9.21889019,-0.086214013,3.354127884,0.736909389,0.050437808,0.526001632,0.695428133,-0.31004411,-0.485205114,-0.42991665,9.301724434,0.268369436,-3.092753887,0.437855482,2.795760632,0.871491253,0.354968131,-0.635032833,-0.501893938,-0.467796713
2893980,9.207764626,-0.096164212,3.361059189,0.378549308,0.072093345,0.421156049,0.695448041,-0.310047299,-0.48517552,-0.429915577,9.277160645,0.297932506,-3.075463533,0.494651645,3.329977512,0.85585475,0.355269402,-0.634846091,-0.50167799,-0.468052864
2894147,9.22881794,-0.089977376,3.318151712,0.651452541,-0.314728826,0.163184896,0.695436954,-0.310028493,-0.485213488,-0.429904163,9.263025284,0.299923241,-3.025067568,0.305040836,3.536633253,0.652195334,0.355553567,-0.634640038,-0.501457632,-0.468352407
2894314,9.265090942,-0.092577279,3.302820444,0.486007392,-0.417999238,0.313377768,0.695420444,-0.310043246,-0.485245019,-0.429884732,9.230804443,0.306187153,-2.999922991,0.144602895,3.460333109,0.577636778,0.355811656,-0.634441555,-0.501237571,-0.468660772
2894480,9.275533676,-0.093142316,3.294080257,0.170676604,0.143155769,0.34360072,0.695430994,-0.310056865,-0.485198975,-0.429909885,9.241394997,0.293082923,-3.001739502,0.106388755,3.010267019,0.653540015,0.356037945,-0.63428092,-0.501031518,-0.468926787
2894647,9.261986732,-0.09077514,3.333636522,0.470153153,0.355344206,0.328642994,0.695468843,-0.310025871,-0.485151291,-0.429924995,9.256044388,0.310908556,-2.983319283,-0.01312651,2.651209116,0.695423245,0.356229275,-0.634153545,-0.500832379,-0.469166368
2894814,9.257620811,-0.087574162,3.323326588,0.28068319,0.541151524,0.26371479,0.69550693,-0.309997588,-0.485075951,-0.429968476,9.279301643,0.296837002,-2.948197842,-0.065184325,2.27625823,0.930413425,0.356403828,-0.634071112,-0.500627697,-0.469363362
2894980,9.245196342,-0.084652402,3.358262539,-0.008823575,0.646458089,0.292003989,0.695541203,-0.309993774,-0.484970868,-0.430034488,9.274411201,0.288089156,-2.939116001,0.086090684,2.061649561,0.841434836,0.356570393,-0.6339885,-0.500453055,-0.469534844
2895147,9.225358963,-0.079320021,3.30095768,0.107003465,0.270053923,0.225129232,0.695549846,-0.309996694,-0.484914064,-0.430082411,9.229131699,0.310083479,-2.917006969,-0.212342069,1.728773952,0.559695184,0.356665611,-0.633923113,-0.500301361,-0.469712466
2895314,9.23813343,-0.066585407,3.349890471,0.037196036,0.379496932,0.365192235,0.695571661,-0.310009509,-0.484835833,-0.430126101,9.240076065,0.272104561,-2.959595203,-0.149142757,1.356262922,0.517344475,0.356736243,-0.633876264,-0.500177503,-0.469854027
2895480,9.256336212,-0.101718061,3.321942568,-0.255345792,0.284268916,0.410437077,0.69557631,-0.31006062,-0.484746993,-0.430181891,9.268567085,0.294307739,-2.95217061,-0.113464251,1.068363309,0.5058828,0.356788099,-0.633846164,-0.5000723,-0.469967276
2895647,9.21308136,-0.085796967,3.336885929,-0.058230478,0.898346305,0.056046993,0.695610821,-0.310028315,-0.484624565,-0.430287391,9.283291817,0.29540956,-2.979875088,-0.226915702,1.232873678,0.221889213,0.356821507,-0.633789599,-0.499977261,-0.470118999
2895814,9.2450037,-0.064768739,3.365283251,-0.155033663,0.891174674,-0.002343562,0.695636749,-0.310001791,-0.484499454,-0.430405498,9.368543625,0.302574903,-3.035582781,-0.339957297,1.860448599,-0.009310215,0.35687378,-0.633679032,-0.499863714,-0.470349103
2895980,9.19699192,-0.076856382,3.405430079,-0.630354166,0.870799839,-0.035742525,0.695637643,-0.310021758,-0.484348238,-0.430559903,9.425695419,0.2835581,-3.059057713,-0.306161404,3.137037039,0.313979685,0.357043356,-0.633502722,-0.499656945,-0.470677674
2896147,9.211544991,-0.098836802,3.445831776,-0.848010838,0.607385993,-0.248968244,0.695596933,-0.310064554,-0.484219223,-0.430739701,9.474305153,0.262557119,-3.074915648,-0.001818502,4.918707848,0.580851257,0.357387841,-0.633207738,-0.499354243,-0.471134126
2896314,9.186455727,-0.069313794,3.446258307,-1.93473196,0.1720341,-0.42312178,0.695466161,-0.310231656,-0.484073341,-0.430994451,9.489095688,0.297737509,-3.056876659,0.400512248,6.989943981,1.323350787,0.35796988,-0.632803559,-0.498903066,-0.471712798
2896480,9.23674202,-0.091394737,3.41332674,-3.34857893,0.045046337,-0.494875818,0.695258379,-0.310543805,-0.483854294,-0.431350827,9.449226379,0.280716479,-3.046092749,0.61702919,9.017240524,1.488757491,0.358729035,-0.632260144,-0.498345971,-0.472453058
2896647,9.238207817,-0.098438933,3.356339216,-4.083624363,0.209646329,-0.548175752,0.695025682,-0.310915649,-0.48357439,-0.431771934,9.403838158,0.252916753,-3.022946596,0.947625339,10.65402317,1.637529373,0.359645933,-0.631596804,-0.497712225,-0.473310888
2896814,9.277633667,-0.094014645,3.358515024,-3.747023582,0.936944783,-0.291510969,0.694875062,-0.311225444,-0.483230174,-0.432176113,9.455426216,0.238186628,-3.031771898,1.183518648,12.06605339,1.724267125,0.360690922,-0.630828619,-0.497012079,-0.474274814
2896980,9.272101402,-0.103237808,3.335543156,-3.995607376,2.134031057,-0.468597203,0.694785833,-0.311472327,-0.48275739,-0.432669848,9.474054337,0.241130993,-3.00291729,1.573254466,13.97303486,1.897869945,0.361919463,-0.629919112,-0.496221781,-0.475373954
2897147,9.224354744,-0.124724068,3.383066177,-1.647665024,2.31052804,-0.333285272,0.694823325,-0.311480135,-0.482408494,-0.432992846,9.403050423,0.265490413,-2.923225403,2.006750822,15.49657631,2.161131144,0.363313407,-0.628897846,-0.495355517,-0.476564497
2897314,9.187692642,-0.100916997,3.35220933,0.783614099,0.565445125,0.452685267,0.694898129,-0.311407119,-0.48235324,-0.432986826,9.356257439,0.318695217,-2.884696007,1.955755591,16.3584156,2.215852499,0.364765704,-0.627820373,-0.494433403,-0.477831602
2897480,9.286478996,-0.098483019,3.30927968,0.942400157,1.160453916,0.451033264,0.695021689,-0.31128031,-0.482247978,-0.432996929,9.319860458,0.301674604,-2.813024282,1.696439743,16.6712265,2.164729834,0.366209775,-0.626727879,-0.493479848,-0.479145586
2897647,9.30984211,-0.058201008,3.275363922,1.279360771,1.991086602,0.845276773,0.69524312,-0.31109482,-0.482062757,-0.432981104,9.375027657,0.28606084,-2.7721982,1.241352797,16.59487343,1.826411366,0.367579907,-0.625636935,-0.492527574,-0.480500042
2897814,9.292360306,-0.061520889,3.281429768,0.929760277,2.970528603,1.025999904,0.695527911,-0.310895681,-0.481749356,-0.433015764,9.432376862,0.23380734,-2.708904505,1.098920465,17.01833153,1.459253192,0.369076192,-0.624353707,-0.491753101,-0.481813431
2897981,9.301387787,-0.087837994,3.306715965,0.274113506,4.105978489,0.684339285,0.695840061,-0.310667276,-0.481296033,-0.433181971,9.502140999,0.231045663,-2.688327312,1.04272604,17.57288551,1.327065706,0.370595247,-0.623022437,-0.490953386,-0.483184397
2898147,9.300894737,-0.090590283,3.353218555,-1.018028021,4.937904358,0.146434218,0.696117282,-0.310479611,-0.480702102,-0.433530509,9.586177826,0.222492889,-2.687781811,0.942554891,18.78214455,1.091416121,0.372173756,-0.621589899,-0.49010101,-0.484679282
2898314,9.262613297,-0.09999349,3.405472279,-2.043637753,5.578683376,-0.52030921,0.696350038,-0.310308546,-0.480009019,-0.434046835,9.645359993,0.237109721,-2.676809311,1.182187796,20.63712311,1.221951604,0.373912245,-0.620018899,-0.489149094,-0.48631236
2898481,9.23952198,-0.10624209,3.402429342,-2.518087626,6.494749069,-0.763911784,0.696609139,-0.310110241,-0.479203999,-0.434661925,9.662974358,0.236514553,-2.625628471,1.302478671,23.14953804,1.359761596,0.375843763,-0.618270695,-0.488048553,-0.488151222
2898647,9.228951454,-0.103420049,3.49382472,-3.10078907,7.372136593,-0.918522775,0.696892321,-0.309904277,-0.478279889,-0.435372263,9.671299934,0.227822736,-2.590591908,1.473008752,25.75391388,1.475736618,0.377977699,-0.616331041,-0.486799777,-0.490198851
2898814,9.170271873,-0.108003028,3.492712259,-2.713307142,6.969620228,-0.870870352,0.697167099,-0.309687048,-0.477418125,-0.436032295,9.628416061,0.221817255,-2.51869154,1.835033178,28.2039299,1.666821241,0.380323559,-0.614204288,-0.48541531,-0.492421806
2898981,9.186713219,-0.124459013,3.525446653,-1.120658278,6.409944534,-0.281586081,0.697511315,-0.309384048,-0.476686805,-0.436496377,9.565319061,0.233250633,-2.437306881,2.202680111,29.95928001,1.681485653,0.382819265,-0.611924171,-0.483948737,-0.494764596
2899147,9.18738842,-0.144045636,3.499646187,1.045862556,5.679892063,0.691869438,0.697964013,-0.308974683,-0.476122797,-0.436678559,9.611725807,0.216583192,-2.377956152,2.372198582,31.44635773,2.067111969,0.385446191,-0.609552383,-0.482357383,-0.497200847
2899314,9.251741409,-0.094919585,3.4581182,0.892750144,7.431328773,0.462789625,0.698515832,-0.3084535,-0.475381047,-0.436972618,9.707989693,0.212394342,-2.285898447,2.748221636,33.33631134,2.388797283,0.388262063,-0.607025564,-0.480658501,-0.499740005
2899481,9.210310936,-0.107547283,3.505400419,0.356765807,9.627067566,0.178027526,0.699175894,-0.307827026,-0.474394947,-0.437430292,9.788157463,0.246873885,-2.186739445,2.809872866,35.99929047,2.605354786,0.391264111,-0.60431385,-0.478768736,-0.502491415
2899647,9.207820892,-0.108237348,3.592924833,0.358917356,10.93553257,0.289045841,0.699931383,-0.307124078,-0.473270148,-0.437934101,9.887472153,0.218601048,-2.073488712,2.589221001,39.17908096,2.67215538,0.394460738,-0.60137105,-0.476661295,-0.505517066
2899814,9.134179115,-0.09693446,3.648924589,-0.375764042,11.14148426,0.568006575,0.700683951,-0.306501299,-0.472063839,-0.438468665,9.890875816,0.147251695,-1.992807627,2.75242877,42.68877411,2.918272257,0.39791289,-0.59816426,-0.474318445,-0.508809328
2899981,9.156407356,-0.095941029,3.641315937,0.61852771,11.35821915,0.698695481,0.701502502,-0.305770874,-0.470891625,-0.438930064,9.827218056,0.160029888,-1.923986197,3.075845957,45.89665985,3.156308889,0.401618391,-0.594692945,-0.47177577,-0.512318909
2900147,9.119283676,-0.105938539,3.693458796,1.964475751,11.90402794,1.373667479,0.702459633,-0.304912895,-0.469718605,-0.439252794,9.747759819,0.187509224,-1.812321901,3.377132654,48.25275803,3.286719084,0.405502409,-0.591012359,-0.469084173,-0.515977085
2900314,9.099990845,-0.114183746,3.751375198,2.040930033,12.91424465,1.284253478,0.703480721,-0.303975642,-0.468449384,-0.439623773,9.711673737,0.234455422,-1.658921838,3.186151981,50.08526611,3.436838627,0.40947333,-0.587198794,-0.466219902,-0.51977706
2900481,9.132516861,-0.085682772,3.771659851,1.974196196,13.72943401,1.412547708,0.704559565,-0.303000718,-0.467084229,-0.440021366,9.802134514,0.235511884,-1.521527529,2.591652393,51.93036652,3.486799002,0.413496971,-0.583256721,-0.463168919,-0.523742735
2900647,9.120400429,-0.066645727,3.70021224,1.580221534,15.13990307,1.681122899,0.705730498,-0.301992774,-0.465535253,-0.440479279,9.898481369,0.158325404,-1.338288546,2.336959362,54.54032898,3.532623768,0.417644024,-0.57910955,-0.459900707,-0.527917683
2900814,9.103022575,-0.029040176,3.667388439,3.2835958,16.53161049,2.222716808,0.707095623,-0.300760746,-0.463923544,-0.440832824,9.893862724,0.115578681,-1.122512817,2.240631104,57.27428818,3.560904264,0.421939343,-0.57472533,-0.456425279,-0.532291412
2900981,9.180770874,-0.087384433,3.693291426,1.475049734,17.67045021,2.267046452,0.708462536,-0.299636036,-0.462079763,-0.441340685,9.825465202,0.08493863,-0.948950708,2.851336956,59.12431717,3.290779591,0.426269174,-0.570176482,-0.452781022,-0.536826432
2901147,9.191261292,-0.135604739,3.740497589,2.314013481,17.07732773,2.788924456,0.709854245,-0.298496276,-0.460326821,-0.441708744,9.696780205,0.050215818,-0.776981115,3.380585194,59.57985687,3.1349051,0.430628747,-0.56550777,-0.449130744,-0.541333139
2901314,9.143740654,-0.189189702,3.865267515,1.965424776,18.68451881,2.432729244,0.711307049,-0.297266155,-0.458397537,-0.442206681,9.605342865,0.059838034,-0.616414368,3.962967157,58.73858261,3.190196991,0.434953541,-0.560831666,-0.445542693,-0.545687914
2901481,8.979245186,-0.135211647,3.963657141,1.552829385,19.47346878,1.73734355,0.712744355,-0.295980275,-0.45638743,-0.44283393,9.627035141,0.146062925,-0.430460185,4.215612411,57.94567108,3.116545677,0.439209998,-0.556158483,-0.4420003,-0.549925864
2901647,8.936386108,-0.13659665,4.052612305,2.470047235,19.61469841,2.286006927,0.714259982,-0.294623762,-0.454394847,-0.443345487,9.730408669,0.173364386,-0.2712062,3.770381927,57.84530258,3.136447191,0.443393707,-0.551484168,-0.438397646,-0.554143488
2901814,8.862329483,-0.14085336,4.154226303,1.709336042,19.35959244,1.222361088,0.715653837,-0.293287814,-0.452422678,-0.443999588,9.849025726,0.145703673,-0.09576837,3.490432978,59.07882309,3.577811718,0.447636276,-0.546717346,-0.434627891,-0.558408976
2901981,8.953351021,-0.104886331,4.11651516,1.495086193,21.08747482,1.806857228,0.717182934,-0.291899085,-0.450226784,-0.444678992,9.897338867,0.079447523,0.066585846,3.261583567,61.0430603,3.899463892,0.45197624,-0.541785121,-0.430655032,-0.562781215
2902147,8.906289101,-0.114994451,4.265986919,-0.615512669,22.28360748,1.5414325,0.718676865,-0.290631831,-0.44777742,-0.445569456,9.87196064,0.048101995,0.27966553,3.493974447,63.36008835,4.290130615,0.456474304,-0.536629021,-0.426484585,-0.56724906
2902314,8.972676277,-0.134983122,4.237386703,-3.931375742,21.47576332,0.315440089,0.719894171,-0.289677531,-0.445246279,-0.446760714,9.768778801,0.052740954,0.389295489,3.6622293,65.06793976,4.333573818,0.46105516,-0.531277478,-0.422175556,-0.57178694
2902481,8.948967934,-0.211887568,4.240359783,-4.015054226,23.02280617,0.166015416,0.721183181,-0.288625211,-0.442545414,-0.448044449,9.615156174,0.090569615,0.514141798,3.676189661,65.87333679,4.195559502,0.465632945,-0.525802433,-0.41778788,-0.576342821
2902647,8.802980423,-0.160477191,4.341645718,-0.831991613,22.13233757,2.308137178,0.722682595,-0.287429899,-0.440052807,-0.448851287,9.628084183,0.158966824,0.623817563,3.218766451,66.50997925,3.911818504,0.470146954,-0.520240307,-0.41330415,-0.580940306
2902814,8.632548332,-0.122087933,4.492685795,1.637980103,22.82189941,3.900776625,0.724427104,-0.286027104,-0.437578946,-0.449353665,9.72957325,0.161176264,0.829068124,2.370001078,68.01689911,4.149126053,0.474661231,-0.514574587,-0.408591241,-0.585630357
2902981,8.689946175,-0.130753115,4.455870628,3.192200899,24.08395004,4.041033268,0.726316929,-0.284383357,-0.435061634,-0.449790627,9.948870659,0.124901384,1.127538562,1.57749486,70.50775146,4.601025105,0.479253501,-0.508727431,-0.403566718,-0.590462863
2903147,8.786282539,-0.179689631,4.474599838,4.618629456,27.48393059,3.989451647,0.728463411,-0.28236109,-0.432272792,-0.450281739,10.02569389,0.084980227,1.470892191,0.937948823,74.00860596,5.631732941,0.484038979,-0.502629519,-0.398125291,-0.595454693
2903314,8.64345932,-0.147644565,4.541999817,3.022057295,27.88075066,3.452262402,0.730525494,-0.280440032,-0.429355532,-0.450932384,9.65310955,0.03056787,1.695640206,0.764714897,76.20953369,7.493898392,0.48904255,-0.49640137,-0.392332256,-0.600415349
2903481,8.522291183,-0.078770354,4.841497421,4.122739792,26.72213745,3.216508627,0.732531011,-0.278460503,-0.426635534,-0.451486856,9.253697395,0.086699151,1.908942819,0.581720948,75.3484726,8.88654995,0.494046211,-0.490280628,-0.386437774,-0.605152369
2903647,8.86977005,-0.170672119,4.818490505,-1.433841467,28.10814285,2.822201014,0.734361351,-0.276950151,-0.423412204,-0.452475876,9.1176548,0.105815962,2.138706684,-0.099750541,72.65475464,8.959190369,0.498798966,-0.484392315,-0.380628079,-0.609660566
2903814,8.507430077,-0.242840812,4.805753231,-1.13558054,27.92769623,2.500965118,0.736161053,-0.275393605,-0.420235544,-0.453461856,9.1969347,-0.020946816,2.450792551,-0.979856491,69.6335144,8.645583153,0.503241241,-0.478765279,-0.374942094,-0.613963008
2903981,8.48304081,-0.160025477,4.708284378,-0.368247688,28.88852882,2.834431171,0.738052368,-0.273714125,-0.416981429,-0.454407364,9.292419434,-0.142928213,2.778696299,-1.154600859,67.58463287,8.318961143,0.507481039,-0.473267168,-0.369376153,-0.618095934
2904147,8.646126747,-0.173775762,4.835785389,-0.420100689,28.8575592,2.723361492,0.739919186,-0.272029817,-0.413726091,-0.455357403,9.143669128,-0.216107979,2.963654518,-1.156264544,65.40236664,7.679720402,0.511500061,-0.467885286,-0.363979876,-0.622069061
2904314,8.463133812,-0.158914074,5.065392494,-1.764900208,30.28786659,1.866141081,0.741751552,-0.270335406,-0.410257906,-0.456521481,9.069419861,-0.205219597,3.112854719,-0.828966439,62.28448105,6.625334263,0.515238702,-0.462663621,-0.358884454,-0.625838399
2904481,8.242408752,-0.239958555,5.278669834,-2.182618141,28.70423889,1.153375268,0.743411005,-0.268744051,-0.406953096,-0.457718074,9.064657211,-0.177598327,3.24300313,-0.553049147,59.65026093,5.369405746,0.518705249,-0.457557827,-0.354066998,-0.629462004
2904647,8.241108894,-0.267835379,5.312909603,-0.813653767,27.83763123,0.946488023,0.745046198,-0.267045736,-0.403832316,-0.458816439,9.06159687,-0.145679697,3.338202477,-0.543636024,57.80734634,4.287341595,0.521942079,-0.452529788,-0.34943521,-0.632999361
2904814,8.216126442,-0.24577634,5.338870525,-0.400430053,27.67213249,0.77339679,0.746664107,-0.265298754,-0.400755763,-0.459895909,9.175610542,-0.161672518,3.639692783,-0.782797039,56.89006805,3.546496391,0.525013268,-0.447534531,-0.344875813,-0.636501968
2904981,8.167710304,-0.226856872,5.281638145,0.682023168,27.66604614,0.480642766,0.748292923,-0.263412237,-0.397756755,-0.460935324,9.49127388,-0.18080768,4.00001049,-1.143466711,57.72875214,3.318855286,0.528046727,-0.442445397,-0.340209693,-0.640051723
2905147,8.480804443,-0.247545198,5.26859045,0.666104853,28.15662575,0.217471629,0.749920428,-0.261474133,-0.394707233,-0.462014049,8.962153435,-0.196424171,4.23829031,-1.53503859,58.07205963,3.874242544,0.531087816,-0.437348902,-0.335420519,-0.643556535
2905314,8.182202339,-0.194555461,5.569703579,-0.458993942,31.29388809,-0.161194071,0.75164485,-0.259422213,-0.391248465,-0.463308722,8.560914993,-0.218902782,4.382298946,-1.76513052,54.18888855,4.116650581,0.533914208,-0.432613254,-0.330870211,-0.646766067
2905481,7.816132069,-0.229338154,5.784620285,-1.9228791,28.56072235,-0.320134103,0.753134727,-0.257698834,-0.387988687,-0.464590549,8.464354515,-0.269378513,4.481797218,-1.619107723,48.84688568,3.917860508,0.536446571,-0.428331316,-0.326739937,-0.649614155
2905647,7.773376465,-0.270848006,5.799802303,-1.95910728,27.1501236,-0.408280253,0.754525065,-0.256065071,-0.384874761,-0.465826452,8.440891266,-0.320593536,4.537269592,-1.090890527,43.68727875,3.436754227,0.538699269,-0.42444995,-0.323074549,-0.652125955
2905814,7.704055786,-0.230767563,5.822584152,-1.418869972,25.49222946,-0.004828005,0.755860329,-0.25450173,-0.381956488,-0.466919065,8.467403412,-0.327914447,4.617731571,-0.407986879,39.20351791,2.286592484,0.540657043,-0.420868129,-0.319881916,-0.65439713
2905981,7.680055141,-0.250837088,5.898811817,-1.39666307,23.9714489,-0.151230454,0.757093132,-0.253026485,-0.379205406,-0.467964739,8.728793144,-0.324223548,4.730371475,0.369099945,36.78443146,1.250244856,0.542436898,-0.417392045,-0.31700483,-0.656547248
2906147,7.659470081,-0.275616169,5.896241188,-0.204965979,21.58830643,-0.187831014,0.758228481,-0.251576066,-0.376793057,-0.468856186,8.937058449,-0.277763098,4.938090801,1.040399194,36.63739395,0.448525339,0.544160306,-0.413826317,-0.31424135,-0.658703208
2906314,7.887345314,-0.242262974,5.862665653,0.833848119,19.76530647,-0.141766489,0.759299159,-0.250134706,-0.37464574,-0.469614834,8.74822998,-0.220120743,5.028841019,1.10875988,36.64527893,0.408953518,0.545870364,-0.410239071,-0.311475933,-0.660842299
2906481,7.832046032,-0.244603753,5.969175339,0.430044353,21.77949524,-0.248571664,0.760450482,-0.248592213,-0.37224853,-0.470476538,8.454218864,-0.171617091,5.099646568,1.159895301,34.48159409,0.730855107,0.547502935,-0.406856805,-0.308858216,-0.662808299
2906647,7.598176479,-0.233661905,6.121525764,0.296525031,21.37445068,-0.208769411,0.761570275,-0.247091636,-0.369881153,-0.471322149,8.394403458,-0.174440309,5.109995842,0.90175575,31.09929657,1.012941003,0.548984408,-0.403821528,-0.306459635,-0.664550304
2906814,7.588026047,-0.213395253,6.10283947,0.027066255,19.8927269,0.325198501,0.762631476,-0.2457477,-0.367635101,-0.472065687,8.385075569,-0.167234644,5.067108154,0.760449588,28.08065796,1.330116034,0.550344527,-0.401093155,-0.304262638,-0.666085362
2906981,7.575535297,-0.196865335,6.140553474,0.020893585,19.48592949,0.624483168,0.763685584,-0.244444996,-0.365418911,-0.472757995,8.49786377,-0.183849111,5.0551548,0.616211057,26.11555862,1.348876834,0.551603198,-0.398559213,-0.302202225,-0.667501569
2907147,7.578561783,-0.15547052,6.168637753,-0.323335171,19.50511551,0.592864394,0.76472038,-0.243174717,-0.363173813,-0.473469853,8.715337753,-0.212219477,5.048754692,0.304977596,26.44390488,0.662890315,0.552783966,-0.395981282,-0.300120234,-0.668996811
2907314,7.639416695,-0.143995836,6.18053484,-1.138601065,17.86954498,0.597897172,0.765635133,-0.242104858,-0.361051023,-0.474162996,8.667374611,-0.220225766,5.059581757,-0.182849586,28.21317673,0.003873932,0.553940892,-0.393235236,-0.29788211,-0.670657754
2907481,7.692975521,-0.188885123,6.139183521,-0.956417859,19.34203911,0.390472531,0.766613424,-0.240899473,-0.358781308,-0.474918216,8.578433037,-0.199742958,5.081240177,-0.850433826,29.53227997,-0.854467809,0.555023193,-0.390370399,-0.295516968,-0.672480643
2907647,7.60456419,-0.181201383,6.251697063,-1.041797996,20.85444641,0.338401884,0.76765722,-0.239594191,-0.356336176,-0.475732714,8.606123924,-0.167319059,5.119120598,-1.553799391,30.92872238,-1.392221212,0.556061983,-0.387395233,-0.292995811,-0.674443245
2907814,7.585698128,-0.217103377,6.279356003,-0.6039868,21.07804871,0.11530216,0.768705189,-0.238210142,-0.35390079,-0.476552904,8.489684105,-0.208459377,5.20873785,-2.353405952,32.23220062,-1.302000761,0.557107806,-0.384352952,-0.29028067,-0.676491678
2907981,7.520671844,-0.184545368,6.330295086,-1.845731258,22.97346306,-0.062712811,0.769787252,-0.236821562,-0.351169884,-0.477517545,8.556324959,-0.169404566,5.347197533,-2.817600012,33.25160599,-0.98833406,0.558188736,-0.381252915,-0.287413806,-0.678575814
2908147,7.520114422,-0.216597691,6.282541752,-2.498983622,21.5130291,-0.337985724,0.770744801,-0.235590428,-0.348562807,-0.478491157,8.431810379,-0.16235359,5.495723724,-3.612212181,33.99202728,-0.966012537,0.55924505,-0.378136218,-0.284401208,-0.680715978
2908314,7.563298225,-0.211059466,6.319081783,-2.079575539,22.59572411,-0.366262227,0.771761239,-0.234233022,-0.345861405,-0.479478478,8.278284073,-0.176640376,5.676558018,-4.207313061,33.36156845,-1.196771026,0.560205877,-0.375111341,-0.281387329,-0.682848573
2908481,7.383874893,-0.236138389,6.408892632,-2.107916117,22.07924271,-0.370052963,0.772741556,-0.232912257,-0.34321326,-0.48044467,8.180179596,-0.180601642,5.839170456,-4.536959171,31.27177238,-1.460057139,0.561024785,-0.372300655,-0.278518885,-0.68488735
2908647,7.36040163,-0.249890715,6.431837559,-2.025403738,20.19235611,-0.477126867,0.773556232,-0.231749773,-0.340753943,-0.481445491,7.978790283,-0.168790132,5.967752457,-5.016287327,28.11496544,-1.505506039,0.561675072,-0.369833052,-0.275856882,-0.686766088
2908814,7.280651093,-0.25461942,6.452175617,-1.880256295,19.19372749,-0.566182315,0.774353564,-0.230604887,-0.338437557,-0.482346505,7.849120617,-0.195909053,6.075025558,-5.269054413,23.38957787,-1.561378717,0.562108934,-0.367848247,-0.273553431,-0.688396633
2908981,7.21455431,-0.24234125,6.504754543,-1.794543266,19.53167343,-0.637872279,0.775150716,-0.229427055,-0.336084872,-0.483271897,7.878923893,-0.231149271,6.135612011,-5.324438095,18.5099659,-1.449001789,0.562352121,-0.366354644,-0.27163288,-0.689753532
2909147,7.067076206,-0.2778382,6.705945015,-1.738489628,17.62563705,-0.347154945,0.775898099,-0.228369802,-0.333952099,-0.484051377,8.050237656,-0.284971088,6.223664761,-5.008388042,15.00803661,-1.033434868,0.562512755,-0.365198314,-0.270004809,-0.690874159
2909314,7.121180534,-0.346551239,6.685475826,-1.704923511,14.12506199,-0.440103352,0.776418805,-0.227582276,-0.332193583,-0.484796345,7.983551979,-0.26375857,6.280705929,-4.34495306,12.61310101,-0.470044494,0.562669337,-0.364247262,-0.268606603,-0.691793263
2909481,7.043629169,-0.310860127,6.737091064,-0.723994553,12.11302757,-0.494325399,0.776870251,-0.226821184,-0.330732107,-0.485429049,7.919279099,-0.335977763,6.23490572,-3.961133718,10.31646061,-0.655326784,0.562736809,-0.363485515,-0.267442256,-0.692589641
2909647,7.00852108,-0.274052292,6.826948166,-0.507067561,9.631626129,-0.538443089,0.777244389,-0.226179436,-0.329585135,-0.485909373,7.929890156,-0.392072439,6.221033096,-3.029560804,8.363875389,-0.950244188,0.562747359,-0.36283046,-0.266544729,-0.693270028
2909814,6.989362717,-0.300784379,6.827852726,-0.650485814,7.586194515,-0.735058963,0.777453601,-0.225721389,-0.328640938,-0.48642689,7.885723591,-0.365973413,6.157091618,-1.837583184,6.891897678,-1.382983446,0.562720299,-0.362208009,-0.26590848,-0.693861604
2909981,6.987614632,-0.302330106,6.824141026,-0.129408196,6.865376472,-0.874379337,0.777653098,-0.225235328,-0.327826649,-0.486882478,7.927531719,-0.320482284,6.074411869,-1.123975039,5.942128181,-1.811983228,0.562650859,-0.361605287,-0.265442759,-0.694410443
2910147,6.976621628,-0.268235445,6.841654301,-0.03374473,6.584288597,-0.870665371,0.777824461,-0.224770278,-0.327040851,-0.487351686,7.957913876,-0.260644138,6.013259888,-0.787577808,5.718720913,-2.349824905,0.562536001,-0.36097616,-0.265056521,-0.694978356
2910314,6.977219582,-0.256151974,6.836112499,0.100715548,6.471465588,-0.950948477,0.77802217,-0.224270016,-0.326294661,-0.487766474,7.999260426,-0.187048212,5.996815205,-1.17352283,6.430216789,-2.559477568,0.562406242,-0.360298097,-0.264583468,-0.695614994
2910481,7.010344982,-0.223564953,6.828545094,0.114367127,6.835717201,-0.986767888,0.778197885,-0.223765671,-0.325490683,-0.488255084,8.033507347,-0.128214866,5.970940113,-1.849429369,7.543268681,-2.460510254,0.562292814,-0.359566033,-0.263945818,-0.696327329
2910647,6.974185467,-0.23395966,6.874019146,-0.111722596,7.169513702,-1.146526933,0.778406203,-0.223229334,-0.324654639,-0.488724709,8.052266121,-0.13121672,6.013145447,-2.738164663,8.587690353,-2.000365019,0.56221801,-0.358818054,-0.263109028,-0.697089911
2910814,6.982384682,-0.252996624,6.820227146,-0.048869036,6.441345215,-1.204847097,0.778562844,-0.222744226,-0.323899448,-0.489197373,7.99182415,-0.186334908,6.097907066,-3.343175173,9.249958992,-1.568970323,0.56217891,-0.358068287,-0.262134522,-0.697873771
2910981,7.016800404,-0.234495699,6.837587833,-0.192825228,6.271430492,-1.157630205,0.778731704,-0.222273976,-0.323161542,-0.489630491,7.951994419,-0.218918532,6.202989101,-3.28331852,9.231311798,-1.36118722,0.562161624,-0.357322544,-0.26115635,-0.698636115
2911147,6.961209297,-0.262595534,6.927761078,-0.311527342,6.416789532,-1.102627039,0.778915882,-0.221802592,-0.322400838,-0.490052581,7.88664341,-0.272140324,6.224909782,-3.017727137,8.509468079,-1.503324866,0.562115252,-0.356621891,-0.260270774,-0.699361503
2911314,6.908966064,-0.285105854,6.968744755,-0.146812007,5.151028156,-0.989316285,0.779032469,-0.221422255,-0.321780592,-0.490446836,7.823636532,-0.26144439,6.260374069,-1.979375362,7.271119595,-1.442379355,0.562081337,-0.355963618,-0.259587914,-0.699977696
2911481,6.936540127,-0.254015177,6.87630415,0.668023944,3.92937851,-1.014595747,0.779127479,-0.221027255,-0.32136178,-0.490748405,7.768305779,-0.209706455,6.270871162,-1.537594438,5.083499908,-1.715705276,0.561959624,-0.355480671,-0.259141982,-0.700485945
2911647,6.898079395,-0.262355566,6.928884506,0.754441381,3.899719715,-0.717962444,0.779236257,-0.220644161,-0.320938349,-0.491025031,7.858217716,-0.234108523,6.304553509,-1.095673084,3.060416937,-1.625254154,0.561793387,-0.355170012,-0.258900911,-0.700865805
2911814,6.95081377,-0.289621294,6.878087521,0.813581049,1.489013433,-0.462129921,0.779257655,-0.220434859,-0.320785701,-0.49118492,7.905521393,-0.198759034,6.301289082,-0.270636559,1.581116557,-1.094725013,0.561668098,-0.354962081,-0.258836746,-0.701095223
2911981,6.965336323,-0.242825106,6.881916046,1.475771904,1.500756979,-0.473911822,0.779289901,-0.220156267,-0.320674241,-0.491331547,7.899542809,-0.130119815,6.255309105,-0.199791834,0.513617814,-0.831938803,0.561532795,-0.354866564,-0.258853078,-0.701245785
2912147,6.965324879,-0.190568715,6.932692051,1.097510576,0.963697016,-0.429576188,0.779287755,-0.219961241,-0.320594907,-0.491474092,7.927535057,-0.114106879,6.187039852,-0.737363994,0.045071945,-0.922057211,0.561342597,-0.354858875,-0.258857667,-0.70140034
2912314,6.9802742,-0.188023835,6.930924892,1.030546188,0.854458809,-0.312372476,0.779310167,-0.219770655,-0.320530236,-0.491566002,7.948911667,-0.158304974,6.129698277,-1.308706403,-0.148502424,-0.956519008,0.561111391,-0.354916096,-0.258821934,-0.701569676
2912481,6.960200787,-0.177438319,6.904903889,0.883068204,0.423986226,-0.257599741,0.779311836,-0.219629586,-0.320502162,-0.491644591,7.981705189,-0.237015784,6.083577633,-1.396724343,0.103110321,-0.958350241,0.560884237,-0.354954898,-0.258757204,-0.701755524
2912647,7.024065495,-0.199487567,6.859288216,0.731966078,0.289225012,-0.324256748,0.77929467,-0.219513878,-0.320479333,-0.491738439,7.929735184,-0.232498527,6.075309753,-1.068715572,0.251305401,-0.812229931,0.56069392,-0.354958147,-0.258706629,-0.701924443
2912814,6.964570522,-0.209157348,6.881009579,0.941631675,0.311828196,-0.486308306,0.779259622,-0.219374821,-0.320467949,-0.491863549,7.94653368,-0.192153305,6.070351601,-0.672499776,0.2636379,-0.978187382,0.560507298,-0.354922235,-0.258704334,-0.702092528
2912981,6.97511673,-0.213456243,6.875454903,1.310390592,-0.039136205,-0.564644754,0.779247463,-0.219192639,-0.320540726,-0.491916478,7.908237934,-0.151532874,6.137845993,-0.557306707,0.081903011,-1.032038093,0.560313761,-0.354894131,-0.258731872,-0.702251136
2913147,6.964507103,-0.201223448,6.871935368,1.572946548,-0.459530264,-0.37170434,0.779208362,-0.219039857,-0.320660233,-0.491968572,7.866729259,-0.131592944,6.189324856,-0.68510139,-0.581664383,-0.93563199,0.560097933,-0.354947895,-0.258795679,-0.702372551
2913314,6.927439213,-0.194001272,6.884108543,1.847411871,-0.794787645,-0.247303411,0.779211402,-0.218858331,-0.320852131,-0.491919547,7.885607719,-0.084974587,6.27743721,-0.847793221,-1.526055932,-0.444713324,0.559887826,-0.35512957,-0.258894563,-0.702411771
2913481,6.944311619,-0.196672276,6.889009476,1.899559498,-1.229358554,-0.134056866,0.77915585,-0.218739614,-0.321071118,-0.491917223,7.908637047,-0.10482192,6.35640049,-1.391806841,-2.444616795,0.077740937,0.559667945,-0.355468303,-0.258985728,-0.702382028
2913647,6.981915951,-0.194082767,6.89271307,2.138244152,-1.943914175,0.04641661,0.779098868,-0.218645677,-0.3213875,-0.491842568,7.879643917,-0.148156554,6.399121284,-1.484742522,-3.342431545,0.64653492,0.559467196,-0.355926752,-0.259110779,-0.702263713
2913814,6.895449638,-0.190292314,6.974395752,1.825743794,-2.210888386,0.119220726,0.77901119,-0.218618736,-0.321703255,-0.491786957,7.787861347,-0.206151083,6.420410156,-1.250284076,-4.867527485,0.78632921,0.559234977,-0.356525987,-0.25937587,-0.702046752
2913981,6.890166283,-0.170406312,6.991104126,1.662335038,-3.545156717,0.097565189,0.778874815,-0.218690559,-0.322167873,-0.491667032,7.77174902,-0.233453125,6.418480873,-0.787987649,-6.763495445,0.709529519,0.558947325,-0.357276857,-0.259844989,-0.701720655
2914147,6.880205631,-0.165615514,6.961432457,1.643765688,-4.484797001,0.169460043,0.778693199,-0.218838185,-0.322731972,-0.491519183,7.715136528,-0.227516443,6.396027088,-0.397778124,-9.216719627,0.485149473,0.558563948,-0.358236134,-0.260563254,-0.701270461
2914314,6.853479385,-0.177485734,6.968558788,1.752286553,-5.918019772,0.294091433,0.778450191,-0.21908547,-0.323458374,-0.491316378,7.807378292,-0.216554567,6.357558727,0.118759729,-11.58104324,0.44575721,0.558112919,-0.359390795,-0.261526108,-0.700679898
2914481,6.90541172,-0.186301991,6.933202267,1.968329668,-7.10579586,0.273242682,0.778156877,-0.219391182,-0.324334323,-0.491067052,7.879129887,-0.172652155,6.287811279,0.12527819,-13.06102371,0.519842029,0.557611942,-0.360696346,-0.262603909,-0.700004518
2914648,6.931284904,-0.169848055,6.873669624,2.184155464,-7.885357857,0.289865375,0.777839661,-0.219724566,-0.32531485,-0.490771651,7.902319431,-0.177526653,6.253820896,0.096963339,-14.55134106,0.611317992,0.557059586,-0.362157047,-0.263793021,-0.699242592
2914814,6.957499981,-0.131038398,6.839394569,1.625567913,-8.84646225,0.351118147,0.77745378,-0.220198154,-0.326357305,-0.490478694,7.78921175,-0.127757967,6.19960022,0.020983225,-16.66084862,0.638646841,0.556422114,-0.363836676,-0.265141696,-0.698367476
2914981,6.911808968,-0.132513091,6.850941181,1.680584192,-9.95559597,0.596142173,0.777042866,-0.220749095,-0.327524811,-0.49010393,7.850090027,-0.151347235,6.176102638,-0.450809717,-19.28720856,0.330359429,0.555623293,-0.365805686,-0.266668648,-0.69739306
2915148,6.949548721,-0.135708272,6.806577682,1.929552794,-11.64431953,0.633011758,0.776545465,-0.221403018,-0.328891575,-0.489681751,7.975780964,-0.199529231,6.162364483,-0.51457268,-21.17223167,0.081544563,0.554717839,-0.367956936,-0.268351316,-0.696335852
2915314,7.023567677,-0.156972632,6.833268642,2.186409712,-12.36116791,0.695020139,0.77603358,-0.222074986,-0.330358237,-0.489201456,7.993169308,-0.212284788,6.129506111,-0.458404094,-22.77636337,0.091981769,0.55374825,-0.370261878,-0.270164698,-0.695183456
2915481,7.013165474,-0.152227595,6.787858009,2.24852109,-13.33261013,0.63243562,0.775482118,-0.222796723,-0.331944942,-0.488673538,8.018066406,-0.228004724,6.048172951,-0.095983788,-24.58077621,0.351208448,0.55274713,-0.37272498,-0.272141755,-0.693891644
2915648,7.064844608,-0.134763017,6.762649059,1.813374043,-14.34812927,0.348172903,0.774842918,-0.22362566,-0.333622038,-0.488166481,7.940760136,-0.154135346,6.003175259,-0.0208744,-26.97718048,0.5803532,0.55167073,-0.375426888,-0.274301499,-0.692439735
2915814,7.020411491,-0.13808006,6.766831398,1.632996917,-15.65170479,0.330141604,0.774126828,-0.22456719,-0.335430562,-0.487630755,7.853661537,-0.113550186,5.987743855,-0.621186852,-30.91026306,0.146985382,0.550351381,-0.378547877,-0.276733965,-0.690820932
2915981,7.037726879,-0.138326138,6.694922924,2.013128281,-17.73778725,0.378216714,0.773326099,-0.225610614,-0.337499261,-0.486992031,8.114563942,-0.165733621,5.955191135,-1.337859273,-34.66785431,-0.075852327,0.548806429,-0.382084161,-0.279399574,-0.689027667
2916148,7.175287724,-0.139081448,6.638494015,2.084357738,-19.46367836,0.348582864,0.772432089,-0.226766452,-0.339763641,-0.486298561,8.326458931,-0.176766187,5.815964222,-1.467383981,-36.31057358,0.319090873,0.54721278,-0.385799974,-0.282152593,-0.687100172
2916314,7.271834373,-0.12052764,6.60291338,1.52037847,-19.91505432,-0.157505512,0.771470845,-0.22798273,-0.342058092,-0.485646904,8.336460114,-0.161880702,5.656337738,-1.424098492,-37.39024734,0.634845793,0.545593023,-0.389621347,-0.284968972,-0.685066462
2916481,7.342447281,-0.122842155,6.57254982,-0.279242843,-19.92350578,-0.274965525,0.770419955,-0.229400769,-0.344222605,-0.485118061,8.327237129,-0.147293508,5.466898918,-1.780834675,-38.60554504,0.384813607,0.543861091,-0.393569469,-0.287850976,-0.682978928
2916648,7.307523727,-0.164982677,6.611001492,-1.279471397,-20.25145149,-0.327138662,0.76930666,-0.230951414,-0.346350729,-0.484634042,8.224859238,-0.206169859,5.336909294,-2.015372515,-40.58726501,-0.187639698,0.541957438,-0.397695452,-0.290889025,-0.680811405
2916814,7.233816147,-0.175287262,6.534727097,-0.588798583,-22.65385818,0.111537099,0.768113613,-0.232618406,-0.348774701,-0.483990133,8.220767021,-0.18298161,5.223880768,-2.355077982,-43.81249619,-0.714816809,0.539825201,-0.402129889,-0.294166207,-0.678488672
2916981,7.385966778,-0.172115728,6.373616219,1.090162039,-24.47545815,-0.028929606,0.766861558,-0.234219149,-0.351518124,-0.483218253,8.364521027,-0.299297363,5.177731037,-2.482850552,-47.21081161,-0.96519655,0.53749156,-0.406880796,-0.29769823,-0.6759637
2917148,7.445062637,-0.10989742,6.297831535,1.024939537,-25.75419426,0.005615598,0.765541375,-0.235909432,-0.354397982,-0.482385188,8.598466873,-0.247685686,5.1327672,-1.969992042,-49.48760605,-1.007253647,0.535059214,-0.411793172,-0.301444918,-0.673252583
2917314,7.495105743,-0.149247617,6.281059742,-0.309158832,-26.70889854,-0.465780854,0.764109015,-0.23777473,-0.357310653,-0.481590897,8.599554062,-0.191604301,5.016302109,-2.314666271,-50.93774796,-1.710982203,0.53244555,-0.416821331,-0.305295616,-0.670489848
2917481,7.573491096,-0.149945647,6.24316597,-0.537419915,-27.75256348,-0.684142709,0.762575448,-0.239729345,-0.360321432,-0.480808973,8.53840065,-0.128519058,4.858283997,-3.148549557,-53.2228241,-2.514295578,0.529570818,-0.422076553,-0.309271812,-0.667650461
2917648,7.569039345,-0.111046255,6.244756222,-1.265373707,-28.93040085,-0.36777389,0.760926306,-0.241881594,-0.363379985,-0.480041444,8.54030323,-0.099348351,4.722008228,-4.416742802,-56.29245377,-2.914463997,0.526407599,-0.427681893,-0.313365012,-0.664669693
2917814,7.538897038,-0.131532058,6.13612318,-0.661065936,-30.41506577,-0.270727128,0.759235084,-0.244058147,-0.366643339,-0.479135364,8.67991066,-0.175946862,4.5227561,-5.055113792,-59.21580887,-2.505529404,0.523073494,-0.433605909,-0.317571402,-0.661459386
2917981,7.650051594,-0.164529115,6.044559956,-0.357669771,-31.57065773,-0.346886784,0.757476747,-0.246270999,-0.370051414,-0.478165001,8.666192055,-0.137537688,4.314290047,-5.449957848,-62.10537338,-1.755083203,0.519612372,-0.43983832,-0.321886182,-0.6579777
2918148,7.750266552,-0.124749504,5.992782593,-0.826063812,-32.26780319,-0.384806633,0.755655229,-0.248572409,-0.37349993,-0.477173924,8.77409935,-0.139976054,4.128038883,-6.020958424,-65.41230011,-1.79768014,0.515910864,-0.446389914,-0.32637015,-0.654259026
2918314,7.811041832,-0.158992097,5.894167423,-1.009528399,-32.70325089,-0.43138352,0.753765225,-0.250924975,-0.376970857,-0.476201594,8.907629967,-0.207257926,3.949805498,-6.446835518,-68.00485992,-1.936249375,0.511996269,-0.453170985,-0.330985099,-0.650341928
2918481,7.836662769,-0.124064103,5.864051819,-1.258369684,-34.2247963,-0.229670003,0.751781404,-0.253415853,-0.380574912,-0.475150585,8.954093933,-0.190688714,3.780632257,-6.447727203,-70.4473114,-2.139709711,0.507892787,-0.460127473,-0.335760504,-0.646214068
2918648,7.935053349,-0.187529862,5.777801991,-1.63440454,-34.61751556,-0.306751788,0.749744594,-0.255959511,-0.384192348,-0.47409296,8.950930595,-0.194172636,3.529334784,-6.617562771,-72.83369446,-2.276013136,0.503593087,-0.467263877,-0.340667576,-0.641875625
2918814,7.98578167,-0.218817413,5.677576542,-2.142255783,-35.54858398,-0.636465609,0.74759984,-0.258595884,-0.387879908,-0.473045617,8.937526703,-0.168813407,3.31880641,-6.728158951,-75.90042877,-2.387792826,0.499064028,-0.47463432,-0.345755368,-0.637268007
2918981,8.018756866,-0.153667524,5.501053333,-1.157673717,-36.68432999,-0.958867013,0.745371222,-0.261188745,-0.391752839,-0.471944839,9.023771286,-0.109310098,3.114938498,-7.380515575,-79.33837891,-2.712804317,0.494223088,-0.482293874,-0.351009399,-0.632399201
2919148,8.123056412,-0.108157434,5.445939541,-1.231080174,-36.25531387,-1.121085882,0.743151188,-0.263731062,-0.395578533,-0.470839828,9.121191025,-0.190655753,2.856544733,-7.685056686,-82.00634766,-2.278829336,0.489195645,-0.490176111,-0.356347263,-0.627241433
2919314,8.156822205,-0.179958865,5.412848949,-1.590825081,-37.17029572,-0.972864509,0.740848899,-0.266378552,-0.399460167,-0.469698966,9.099420547,-0.155096322,2.591217518,-7.598379135,-84.51638031,-2.147563934,0.483983994,-0.498216152,-0.361808807,-0.621799588
2919481,8.175795555,-0.150857866,5.300764561,-2.110368729,-38.09949112,-1.476579428,0.73840189,-0.2691167,-0.403408319,-0.468615681,9.241837502,-0.160707384,2.277674913,-7.637823105,-87.1338501,-2.1351192,0.478556871,-0.506419003,-0.367392719,-0.616073191
2919648,8.3245821,-0.132254645,5.180227757,-1.640361071,-38.58946228,-1.696017861,0.735898018,-0.27182591,-0.407431155,-0.467509031,9.451607704,-0.19082664,2.021814346,-7.592684269,-88.12779999,-2.560060024,0.472963184,-0.514603376,-0.37302056,-0.610200882
2919814,8.368437767,-0.102476962,5.075866222,-0.89419502,-37.93771744,-1.214893222,0.733479857,-0.274425358,-0.411407769,-0.466306508,9.570921898,-0.216167778,1.747515559,-7.185570717,-88.03443909,-2.590014458,0.467324018,-0.522666335,-0.378618509,-0.604215741
2919981,8.404315948,-0.114899501,5.067498684,-1.970215917,-38.23534775,-1.239366412,0.730930328,-0.277190685,-0.415305078,-0.465218395,9.619122505,-0.263127416,1.479602814,-6.30674696,-87.43713379,-2.578026533,0.461708635,-0.530533731,-0.384189934,-0.598128259
2920148,8.330750465,-0.120884821,4.979660511,-1.830767393,-38.68958664,-1.498389363,0.72835952,-0.279916495,-0.419278383,-0.464052647,9.815664291,-0.26303637,1.184836507,-5.21672678,-86.01207733,-2.878917456,0.45615688,-0.538104236,-0.389722079,-0.592014909
2920314,8.511159897,-0.135193989,4.806182861,-2.440583229,-38.81752396,-1.709503055,0.725717425,-0.282697707,-0.423216581,-0.462929755,9.950375557,-0.299451202,0.889666259,-4.067099571,-82.59783173,-3.563900948,0.450760394,-0.54518652,-0.395121455,-0.586059809
2920481,8.598804474,-0.113215245,4.735997677,-2.52643609,-37.4653511,-1.251890779,0.723187506,-0.285395622,-0.42698881,-0.461768001,9.890779495,-0.342044622,0.580331504,-2.480592728,-78.89868164,-4.165445805,0.445588201,-0.5517416,-0.400406629,-0.580264807
2920648,8.624732971,-0.12390732,4.646384716,-2.158737898,-36.29005814,-0.734076202,0.720764041,-0.287996948,-0.430630863,-0.460558623,9.706804276,-0.286946058,0.319514841,-1.015538812,-76.26546478,-4.936923504,0.440564334,-0.557866573,-0.405655533,-0.574570835
2920814,8.641295433,-0.167557403,4.570183754,-0.612863541,-36.13196564,-0.932754874,0.718371749,-0.290415257,-0.434349924,-0.459283382,9.606460571,-0.272684038,0.095755443,0.427401304,-74.98174286,-5.702192783,0.435615331,-0.563681304,-0.410955995,-0.568874419
2920981,8.7185812,-0.157753259,4.30946064,-1.334939837,-35.19109344,-1.04160893,0.71599263,-0.292821616,-0.437922329,-0.458076596,9.648792267,-0.114599541,-0.058339287,1.438354611,-74.7480011,-6.726553917,0.430625677,-0.569286346,-0.416360408,-0.563132823
2921148,8.859204292,-0.117945492,4.240260601,-0.1897524,-32.69416046,-0.848987281,0.713815689,-0.294949055,-0.441292256,-0.456873477,9.778569221,-0.058921415,-0.267383099,1.536938906,-73.60214996,-8.141499519,0.42554608,-0.574640691,-0.421769828,-0.55750221
2921314,8.927611351,-0.153133452,4.144680977,0.072144821,-31.67951012,-0.854032815,0.711696506,-0.296978474,-0.444563955,-0.455691636,9.913410187,-0.146242604,-0.512336493,1.975793839,-71.58444214,-8.982590675,0.420509517,-0.579689503,-0.427113146,-0.552002013
2921481,8.894472122,-0.072802372,4.137786865,3.730035067,-30.58497238,0.327209741,0.709872127,-0.298625022,-0.447907418,-0.454184622,9.949332237,-0.172896311,-0.720447004,3.103447676,-68.97399902,-8.763073921,0.415702254,-0.584413707,-0.432323694,-0.546578884
2921648,8.923406601,-0.127058893,4.134143829,-0.568782866,-29.08678818,-1.103859305,0.707850397,-0.300517857,-0.45086664,-0.453162402,9.695594788,-0.130280957,-0.913333297,4.465627193,-66.9519043,-8.369533539,0.411454946,-0.588580966,-0.437822372,-0.540914834
2921814,8.862382889,-0.105875947,4.027832031,-3.211920738,-31.10985947,-1.275094271,0.705555379,-0.302799881,-0.453858733,-0.452234656,9.582190514,0.05228373,-1.091726899,5.004641533,-66.7361145,-9.639980316,0.407109886,-0.592565,-0.443411171,-0.535270929
2921981,9.247397423,-0.105653338,3.61277318,0.347917527,-28.61233521,-0.787618339,0.70360142,-0.304578096,-0.456799418,-0.451122582,9.709730148,0.127779633,-1.279651165,4.234915257,-65.82255554,-10.97513866,0.402592152,-0.59638834,-0.448947221,-0.529799044
2922148,9.223208427,-0.113095,3.723224401,1.548591375,-23.28198624,-0.25215748,0.702078104,-0.305916995,-0.459244609,-0.450106144,9.726616859,0.10732168,-1.446203351,3.438062906,-63.8475914,-11.55545521,0.398043931,-0.600009501,-0.454319328,-0.524541318
2922314,8.896531105,-0.059008595,3.884631157,1.187529087,-25.24238396,0.019049488,0.700417221,-0.307435215,-0.461850554,-0.448991537,9.612119675,0.146223351,-1.594113946,3.17950964,-62.53726578,-11.44236851,0.393519998,-0.603502154,-0.459543139,-0.519372165
2922481,9.062508583,-0.092125282,3.660340071,4.243170738,-26.75885773,0.07411693,0.698783994,-0.308741063,-0.464800805,-0.44759354,9.394863129,0.164712399,-1.745883226,2.622118473,-62.67027283,-10.84158802,0.388917357,-0.607045472,-0.464612603,-0.514173567
2922648,9.277908325,-0.145797223,3.452906609,-0.781970203,-24.58500671,-1.186241984,0.696979582,-0.31032756,-0.467253506,-0.446755439,9.55331707,0.254728615,-1.945622087,2.260641813,-63.38075638,-10.54733562,0.384209186,-0.610633373,-0.469623387,-0.508885384
2922814,9.492280006,-0.068986796,3.274488926,1.61145699,-19.38417816,-1.649178386,0.695599079,-0.311299592,-0.469352007,-0.446030825,9.789129257,0.234292254,-2.156568766,1.825986266,-61.4920845,-10.45242786,0.379552156,-0.614064157,-0.474442571,-0.503755569
2922981,9.190593719,-0.085471757,3.524134159,1.991753817,-15.652215,-1.017183423,0.694525003,-0.312033802,-0.471067488,-0.445382446,9.74287796,0.238112196,-2.34856987,1.673490167,-58.07175064,-10.35080719,0.375077546,-0.617221296,-0.479002953,-0.498909742
2923148,9.177393913,-0.057884455,3.549523115,5.480195522,-17.96521759,0.317360938,0.693533182,-0.312654793,-0.473179966,-0.444251746,9.595411301,0.312320679,-2.556272507,1.425983548,-55.00391006,-10.0962534,0.370781392,-0.620141387,-0.483324468,-0.494311035
2923314,9.229125023,-0.091986708,3.437707424,2.388892651,-17.07773209,-0.194272518,0.692424238,-0.313492715,-0.475023806,-0.443422556,9.458978653,0.293503553,-2.751962185,1.156828403,-52.52147293,-9.375276566,0.366454095,-0.623126268,-0.487120479,-0.490039825
2923481,9.279331207,-0.057280373,3.370931149,4.031755924,-14.77001095,-0.4212524,0.691530824,-0.313999355,-0.476749271,-0.442605436,9.347521782,0.365805686,-2.90512991,1.284264803,-50.76723099,-8.6019907,0.362295002,-0.625999033,-0.490734011,-0.485847443
2923648,9.233534813,-0.071085483,3.353792191,2.631008625,-12.9904623,-0.889798522,0.690663517,-0.314498842,-0.478225678,-0.442011923,9.31949234,0.450512975,-3.01892662,0.880604386,-49.49692535,-8.037591934,0.358208448,-0.628810704,-0.49417451,-0.481742024
2923814,9.38235569,-0.047094021,3.185508013,1.501974225,-11.05519962,-0.519284844,0.689900517,-0.315012515,-0.479417086,-0.441546917,9.484355927,0.43629688,-3.177199602,0.385506302,-47.4096489,-7.545178413,0.354241282,-0.631506503,-0.497401983,-0.477811873
2923981,9.622976303,-0.09447328,3.131881475,0.869416654,-3.419730663,-0.105357841,0.689665735,-0.315128386,-0.479783028,-0.44143343,9.589271545,0.397163033,-3.285304546,0.513928831,-44.15826797,-6.526366711,0.350574493,-0.634015501,-0.500355124,-0.474095702
2924148,9.363409042,-0.116575398,3.351155043,0.559029222,0.729609847,-0.373177052,0.689688206,-0.314991206,-0.479726434,-0.441557795,9.595235825,0.38923651,-3.433905363,0.807873905,-39.72134399,-5.371231556,0.34732303,-0.636264503,-0.502976954,-0.470689476
2924314,9.100463867,-0.122336864,3.537432432,3.264524698,-1.505104661,-0.380169302,0.689678013,-0.314726025,-0.480068266,-0.441391438,9.471182823,0.401975721,-3.514103413,1.632605791,-35.5431366,-4.21932745,0.344520956,-0.638251364,-0.505322456,-0.467535734
2924481,9.07808876,-0.103671432,3.547445774,3.268238306,-5.66109848,0.275714368,0.689420104,-0.314772606,-0.480796158,-0.440968603,9.414164543,0.471106231,-3.559259415,1.993347645,-31.98900604,-3.198845863,0.342073768,-0.640038788,-0.507407665,-0.464621753
2924648,9.179890633,-0.087074794,3.448634624,2.262235641,-8.268126488,-0.0070563,0.688915431,-0.315066904,-0.481732607,-0.440524906,9.264513016,0.474201679,-3.628718853,2.163235664,-28.96621704,-2.327010155,0.339916646,-0.641665757,-0.509262919,-0.461923182
2924814,9.445729256,-0.061678044,3.149682283,1.398191333,-8.20279026,0.244787067,0.688391149,-0.315460801,-0.48259449,-0.440119058,9.186662674,0.513654411,-3.674277306,1.994408488,-26.75225067,-1.891554117,0.337930471,-0.643174648,-0.510948777,-0.459413528
2924981,9.47069931,-0.06779246,3.122292757,0.513451457,-3.566338062,0.310073793,0.688154817,-0.315651357,-0.482933134,-0.439980596,9.219197273,0.484981984,-3.753807068,1.792015672,-24.61561203,-1.378350496,0.336112678,-0.644580364,-0.512461424,-0.457086295
2925148,9.294537544,-0.043565001,3.225800514,0.963351369,-1.295464754,0.372747988,0.688101888,-0.315656573,-0.483071208,-0.439908057,9.251686096,0.488141954,-3.787513256,1.673030734,-21.79929924,-0.678494334,0.334535539,-0.645849943,-0.513757288,-0.454991519
2925314,9.257341385,-0.026250649,3.270356655,1.114722252,-1.43271029,0.246733516,0.688037992,-0.315646678,-0.483238935,-0.439830929,9.194420815,0.53677094,-3.829033375,1.260076165,-19.10674286,-0.222420976,0.333147407,-0.64699024,-0.514847875,-0.45315367
2925481,9.288928032,-0.035147965,3.256800413,1.749622822,-2.333227396,0.315618932,0.687944293,-0.315635473,-0.483534545,-0.439660609,9.177989006,0.536804497,-3.871074677,0.704727709,-16.8775177,0.007434093,0.331886023,-0.648023605,-0.515769005,-0.451552331
2925648,9.321252823,-0.01470006,3.232597828,1.045081377,-3.394566059,0.471139193,0.687753022,-0.315773875,-0.483884096,-0.439475715,9.133131981,0.520398974,-3.9282794,0.110345997,-14.76453972,0.154194966,0.330734283,-0.648954749,-0.516533017,-0.450184703
2925814,9.434276581,0.006096108,3.153361082,0.175914437,-2.640887022,0.393635213,0.687569499,-0.315945715,-0.4841066,-0.439394295,9.053993225,0.508364499,-3.983538389,-0.391912937,-13.11516953,0.30834505,0.329667181,-0.649811387,-0.517168581,-0.449000567
2925981,9.42069149,-0.029138826,3.168130398,-0.325191647,-0.836805284,0.377153397,0.687488437,-0.316051304,-0.484118253,-0.439432383,9.054162025,0.471376806,-3.997274637,-0.684730232,-11.65629387,0.616017699,0.328700364,-0.650608242,-0.517684877,-0.447959304
2926148,9.365042686,-0.052791972,3.194425821,0.578878999,0.291338027,0.511299908,0.687536478,-0.316004217,-0.484069288,-0.439445078,9.049342155,0.491836816,-4.021874428,-0.702441394,-9.931839943,0.957114935,0.327882677,-0.651318192,-0.518084347,-0.44706434
2926314,9.384028435,-0.008783373,3.169839859,0.216472119,1.189280868,0.254763097,0.687614381,-0.315918118,-0.483919531,-0.439549923,9.056555748,0.455363303,-4.029875755,-0.822001338,-7.981725216,0.993817747,0.327201813,-0.651908875,-0.518379092,-0.446359843
2926481,9.349376678,-0.053120375,3.189851761,-0.017788019,2.018952847,0.123344347,0.687731028,-0.315793335,-0.48367846,-0.43972227,9.105233192,0.434992522,-4.038341045,-0.450885922,-5.968489647,1.538407564,0.326742619,-0.65239203,-0.518550277,-0.445791125
2926648,9.215312004,-0.04379252,3.301572323,0.941516519,0.998581588,0.279799551,0.68783015,-0.315648645,-0.483594328,-0.439763814,9.152439117,0.458561182,-4.016767979,-0.205631599,-3.61101985,1.708296895,0.326495111,-0.652723372,-0.518609166,-0.445418537
2926814,9.139818192,-0.058859747,3.39050746,1.128245831,-4.114334583,0.369725704,0.687583268,-0.315819234,-0.484028995,-0.439549297,8.997667313,0.470849514,-3.98970747,-0.291882336,-1.546456575,1.759688616,0.326398313,-0.652929008,-0.518559754,-0.445245534
2926981,9.317159653,-0.037210744,3.210394382,2.750490904,-8.118933678,0.929350674,0.687164605,-0.316122353,-0.484941334,-0.438980222,8.877094269,0.465366274,-3.948781729,-0.41395247,-0.876594722,1.988883853,0.32635507,-0.653114498,-0.518449306,-0.445133984
2927148,9.406521797,-0.000877274,3.114208698,0.653949797,-6.006472111,0.709196448,0.686783493,-0.316484332,-0.485518515,-0.43867746,8.883301735,0.464580089,-3.908161163,-0.53983891,-0.693809569,2.056463003,0.326317757,-0.653299391,-0.518315852,-0.445045471
2927314,9.332445145,-0.032185864,3.151047945,-0.182247147,-4.341263294,0.323507607,0.686456382,-0.316795975,-0.485894531,-0.438547999,8.927495003,0.451932251,-3.877388954,-0.893755198,-0.460490763,1.960415244,0.326258004,-0.653478801,-0.51815778,-0.445010006
2927481,9.347341537,-0.049436256,3.122707129,0.720145822,-4.052094936,0.63959384,0.686210692,-0.317022115,-0.486284673,-0.438337028,8.950632095,0.411740124,-3.821674347,-0.907406628,-0.12464419,1.882616758,0.326217204,-0.65363121,-0.517990351,-0.445010871
2927648,9.361644745,-0.02721189,3.132753611,0.772587895,-2.571079493,0.967782319,0.686092377,-0.31717208,-0.486515194,-0.438157648,8.963786125,0.427399278,-3.795932055,-1.012559772,0.140761003,1.968957186,0.32619229,-0.653777838,-0.517795324,-0.445040733
2927814,9.320093155,-0.047582313,3.212687492,0.061451267,-1.648535728,0.989898801,0.686007559,-0.317336142,-0.486607641,-0.438069075,8.987610817,0.429819435,-3.757882357,-1.390795231,0.424127132,1.700548887,0.326135576,-0.653903663,-0.517587841,-0.445138663
2927981,9.269639015,-0.017623728,3.210068226,-1.526503921,-2.390112877,0.723910928,0.685780406,-0.317686468,-0.486685604,-0.438084334,8.936552048,0.447114795,-3.749820709,-1.871379018,0.531098485,1.62317276,0.326036543,-0.654039264,-0.517351449,-0.445286781
2928148,9.303006172,-0.028869556,3.158529758,-0.759864807,-2.63612318,0.753391147,0.685572684,-0.317978203,-0.486835271,-0.438031256,8.92852211,0.415788472,-3.743098974,-2.336646318,0.288046807,1.541647434,0.325869918,-0.654206216,-0.517104089,-0.445450753
2928314,9.33861351,-0.055254173,3.117397785,-0.036895093,-1.308719277,0.904813409,0.685501993,-0.318123907,-0.486891955,-0.437973171,8.982446671,0.393416762,-3.75635457,-2.376487255,0.269042194,1.563789606,0.325699836,-0.654377699,-0.516852856,-0.445614934
2928481,9.341575623,-0.066020362,3.147387743,-0.175613478,0.689180136,0.427021295,0.685535848,-0.318122387,-0.48676309,-0.438064516,9.021965981,0.37603578,-3.787632942,-2.056533575,0.888792753,1.49769628,0.325602919,-0.654488564,-0.516599059,-0.445817143
2928648,9.288062096,-0.066312678,3.224935293,0.073002599,1.310838819,0.513451397,0.685630322,-0.318063021,-0.486583978,-0.438158691,9.023821831,0.332762003,-3.801942587,-1.488328457,1.641998053,1.341830015,0.325607061,-0.654511809,-0.516361058,-0.446055681
2928814,9.287741661,-0.061320383,3.242928267,0.087819554,1.711267829,0.550359368,0.685756087,-0.317979485,-0.486364007,-0.438266933,9.027488708,0.306131393,-3.788104296,-0.533794284,2.495246887,0.934357703,0.325740188,-0.654403746,-0.516183197,-0.446322799
2928981,9.217414856,-0.082091227,3.311504126,0.746539831,1.365291476,0.656242251,0.68589592,-0.31785804,-0.486216515,-0.438299805,9.014830589,0.312312305,-3.772326231,0.409489423,3.342988491,0.694033682,0.326011777,-0.654177904,-0.516048968,-0.446610898
2929148,9.20115757,-0.076017328,3.285663605,1.250674486,-0.443547904,0.909103513,0.685945809,-0.317821383,-0.486268103,-0.438191056,8.983611107,0.356600285,-3.750414371,1.274122953,3.960728645,0.638838291,0.326408803,-0.653866589,-0.515946329,-0.446895093
2929314,9.27586174,-0.062158324,3.25036788,1.319009066,-1.172690272,0.785816789,0.685942948,-0.317811877,-0.486404598,-0.438050956,9.000260353,0.40131253,-3.731654644,1.62552917,4.1552701,0.716252685,0.326859295,-0.653531492,-0.515849888,-0.447167516
2929481,9.260481834,-0.044168573,3.220149517,0.117683962,-1.279559493,0.53681016,0.685860515,-0.317911863,-0.486486197,-0.438016891,9.021742821,0.418463349,-3.699861526,1.618780494,4.443861485,0.886103511,0.327342033,-0.653190076,-0.515722692,-0.447459519
2929648,9.308925629,-0.066328593,3.219028234,-0.259405434,-1.523097515,0.480052441,0.685738504,-0.318062663,-0.486569464,-0.438005894,8.970013618,0.402109146,-3.688685417,1.690457582,4.504742622,1.350423336,0.327866614,-0.652875721,-0.515552938,-0.447729856
2929814,9.304698944,-0.084687866,3.183243036,-0.233664677,-1.076553106,0.536656499,0.685652316,-0.318186939,-0.486606926,-0.438008875,8.978082657,0.436178952,-3.674108982,1.534078956,4.273472309,1.679636002,0.328380555,-0.652608097,-0.515352488,-0.447974026
2929981,9.268306732,-0.063505642,3.214321375,0.357623726,-1.095109463,0.763751566,0.685606837,-0.318269402,-0.486673623,-0.437946111,8.962024689,0.443393588,-3.651873827,1.241492391,4.067866802,1.644725919,0.328849137,-0.652364731,-0.515145898,-0.44822222
2930148,9.267827988,-0.057107884,3.203601599,-0.410712421,-1.628660321,0.749523699,0.685484767,-0.318464518,-0.486743093,-0.437918037,8.974621773,0.428470135,-3.615565538,0.659802318,3.782438517,1.513870478,0.329232782,-0.652157605,-0.514927447,-0.448493272
2930314,9.244660378,-0.058888379,3.202527523,-0.728450835,-2.913944244,0.78065598,0.685262203,-0.318771183,-0.486921668,-0.437844843,8.990018845,0.367749512,-3.598139763,0.186710194,3.534981728,1.241402745,0.329535365,-0.6519683,-0.514715433,-0.448789299
2930481,9.333478928,-0.057408795,3.10862565,-0.074404888,-3.247805595,0.790491104,0.685048163,-0.319033355,-0.487175375,-0.437706798,8.956668854,0.363544673,-3.598942757,0.177387163,2.906369448,1.169098258,0.329785734,-0.651814878,-0.514539599,-0.449030042
2930648,9.373128891,-0.044680182,3.090168715,0.285677642,-2.169510841,0.501925707,0.684908092,-0.319171071,-0.487357795,-0.437622041,8.918286324,0.375462234,-3.610496521,-0.048907455,2.105857134,0.897180915,0.329937309,-0.651703835,-0.51441294,-0.44922477
2930814,9.382504463,-0.036530532,3.081269741,0.825644553,-1.060468197,0.470217168,0.684884369,-0.31916362,-0.487478167,-0.437530786,8.935688972,0.393991649,-3.61739254,-0.191903144,1.20215106,0.482011795,0.32998085,-0.6516276,-0.514359534,-0.449364483
2930981,9.349092484,-0.051731449,3.09629941,0.722540677,0.253841072,0.624853849,0.684940696,-0.319116563,-0.487439394,-0.437519908,8.970139503,0.376176685,-3.654481888,-0.150090411,0.814964056,0.389498711,0.329993606,-0.651567578,-0.514336228,-0.449468791
2931148,9.321865082,-0.040208105,3.091071606,0.547772408,1.199858904,0.320395678,0.6850335,-0.319007874,-0.487308085,-0.437600344,8.915527344,0.424406409,-3.654422522,-0.1149754,0.498864919,0.31495294,0.329981416,-0.651520908,-0.51433742,-0.449544013
2931315,9.332308769,-0.022634644,3.059286833,0.251484722,2.25584507,0.08051993,0.685175419,-0.318840563,-0.487066567,-0.437768728,8.946347237,0.478178263,-3.693278074,-0.31339696,0.230174944,0.195200786,0.329922557,-0.651492238,-0.514349997,-0.449614316
2931481,9.308489799,-0.044381678,3.151880026,0.256799281,2.757289886,0.53235352,0.685394883,-0.318656117,-0.486765712,-0.437894195,9.0359869,0.438436151,-3.722411633,-0.72740072,0.354191631,0.538526237,0.329856038,-0.651501,-0.514297128,-0.449710906
2931648,9.343969345,-0.071704581,3.188637018,0.287393719,2.159041643,1.100123167,0.685596347,-0.318563551,-0.486489385,-0.437953085,9.10125351,0.408508509,-3.70474124,-0.812140167,0.937789679,1.336079836,0.329877317,-0.651535213,-0.514135361,-0.44983083
2931815,9.288647652,-0.104217611,3.209606171,0.783332348,2.508603573,0.916390359,0.685834587,-0.318384677,-0.486219376,-0.438010246,9.123745918,0.399494737,-3.695907354,-0.749747753,1.853994489,1.819711804,0.330004752,-0.651542544,-0.513887703,-0.450009555
2931981,9.289244652,-0.066416807,3.247399569,0.83541584,1.944496989,0.686567664,0.686023057,-0.318217397,-0.48602131,-0.438056558,9.132266998,0.37848863,-3.683767319,-0.645555258,3.022778988,2.147042513,0.330251038,-0.651492596,-0.513559818,-0.450275451
2932148,9.275884628,-0.083619945,3.289976358,0.59226805,2.020547628,0.737351239,0.686205387,-0.318077654,-0.485794634,-0.438123882,9.135507584,0.361362487,-3.701524019,-0.365518868,4.082952976,2.400762081,0.330619901,-0.651378572,-0.51317507,-0.450608552
2932315,9.240652084,-0.09426064,3.336194277,-0.357194722,1.15570271,0.749831021,0.686273634,-0.318101883,-0.485584348,-0.438232541,9.115510941,0.326678783,-3.640438557,-0.208551407,5.274801254,2.411467791,0.331093282,-0.651179254,-0.512741864,-0.451041907
2932481,9.242909431,-0.085414886,3.272950172,0.424383193,0.024197597,0.850373626,0.686313093,-0.318115443,-0.485539228,-0.438210785,9.091714859,0.329699308,-3.604827642,0.072631218,6.087172508,2.297914028,0.331646681,-0.650904119,-0.512298286,-0.451536387
2932648,9.279116631,-0.082092635,3.203106403,0.910089612,0.082722619,0.968883693,0.686387122,-0.318084925,-0.485513717,-0.43814525,9.078605652,0.305195004,-3.600660801,0.351707309,6.612182617,2.264566898,0.33226347,-0.650577843,-0.511850238,-0.452060848
2932815,9.261284828,-0.069099993,3.230620146,1.330688477,-0.317507803,0.920770228,0.686451375,-0.318030477,-0.485559851,-0.438033015,9.025669098,0.334701627,-3.561103344,0.666871488,6.910863876,1.929219007,0.332910329,-0.650191128,-0.511439502,-0.452605665
2932981,9.310777664,-0.05896946,3.16354394,0.764609575,-0.319262296,0.755875647,0.686478138,-0.318023175,-0.485576212,-0.437978119,9.031172752,0.343144625,-3.539658308,0.87074858,6.912106037,1.70582509,0.333561867,-0.649777055,-0.511062741,-0.453145802
2933148,9.340086937,-0.072938934,3.155223131,0.637340009,0.764724791,0.770449281,0.686576903,-0.317960501,-0.485475928,-0.437979996,9.044630051,0.333474547,-3.553570032,1.031506658,6.964944839,1.672874331,0.334230304,-0.649348557,-0.51069659,-0.453680068
2933315,9.324261665,-0.086454727,3.172112942,0.365845412,1.632688046,0.672096431,0.686716318,-0.317864388,-0.485275358,-0.438053399,9.083882332,0.352211773,-3.566742182,1.084589005,7.073248386,1.757985353,0.334917277,-0.648916006,-0.510320127,-0.454215854
2933481,9.329792976,-0.058760282,3.186476469,0.160399556,2.491385937,0.769328654,0.686915636,-0.317737669,-0.484973758,-0.438166797,9.102342606,0.353752434,-3.558030605,1.083385348,7.408737183,1.931216955,0.335640222,-0.648473322,-0.509910285,-0.454774201
2933648,9.306116104,-0.07630948,3.220979452,-0.343363822,3.135448694,0.732708812,0.687144816,-0.317604542,-0.484586,-0.438332945,9.165500641,0.337045878,-3.558921576,1.075778604,7.909376144,2.022629023,0.336405337,-0.648003995,-0.509466469,-0.455375224
2933815,9.259651184,-0.075019509,3.262439728,-0.425234884,3.379551172,0.616593778,0.687368751,-0.317470193,-0.484164715,-0.438544899,9.185341835,0.328444779,-3.530993223,1.266785264,8.916890144,2.07907939,0.337266415,-0.647461534,-0.508979738,-0.456053227
2933981,9.285974503,-0.053215176,3.217257023,0.055726826,3.011867762,0.551409423,0.687586129,-0.317303538,-0.483815432,-0.438710064,9.145100594,0.348510444,-3.502757788,0.974237084,9.767911911,2.077120066,0.338162422,-0.646875799,-0.508431196,-0.45683229
2934148,9.267116547,-0.081095248,3.285868645,-0.242193684,2.91730547,0.739124894,0.687804699,-0.317175031,-0.483455211,-0.438857794,9.15894413,0.318797648,-3.478828669,0.971381068,10.59545803,2.03384757,0.339115798,-0.646230638,-0.507844806,-0.457690358
2934315,9.283395767,-0.086096004,3.233702898,1.004280448,1.782765627,1.046272397,0.688008428,-0.317029774,-0.483264595,-0.438853204,9.182436943,0.309509784,-3.465437889,1.00978744,11.37637806,2.233281136,0.340142965,-0.645544469,-0.507202387,-0.458607703
2934481,9.34623909,-0.082119055,3.198392391,0.90398109,3.072429419,0.736294687,0.688285589,-0.316781789,-0.482958436,-0.438934386,9.196947098,0.308358282,-3.418705225,1.17260766,12.0309639,2.230272055,0.341232717,-0.644804478,-0.506537318,-0.45957309
2934648,9.255542755,-0.038664088,3.309471846,0.249128357,3.454429865,0.411359191,0.688527644,-0.316566318,-0.482578278,-0.439128458,9.197942734,0.326643944,-3.365351677,1.208580613,12.78401566,2.370168209,0.342389733,-0.644020617,-0.505822718,-0.460597754
2934815,9.18319416,-0.057873771,3.326069117,-2.165937901,1.677817583,0.172290236,0.688523591,-0.316682339,-0.482237071,-0.439425826,9.178544044,0.348567307,-3.293143272,0.831151843,13.41976357,2.286453485,0.343551368,-0.643204331,-0.505057037,-0.461712092
2934981,9.285767555,-0.068864286,3.212235212,-1.388784766,1.128527641,0.118785299,0.688508987,-0.316756755,-0.481999606,-0.439655542,9.134534836,0.323040783,-3.260791779,0.477120101,13.45722198,2.174295425,0.344673961,-0.642392397,-0.504274428,-0.462859839
2935148,9.300150871,-0.097144581,3.253405809,0.476018459,1.444934249,0.837631345,0.688650548,-0.316670775,-0.481819242,-0.43969357,9.18949604,0.304530501,-3.243106604,0.212143734,13.44964027,2.267000914,0.34577626,-0.641598582,-0.503463924,-0.464019775
2935315,9.29240036,-0.078681827,3.23957777,0.52422148,2.442856073,0.654859066,0.688858092,-0.31649968,-0.481553137,-0.439783245,9.252565384,0.264651179,-3.205005407,0.263394743,13.68587971,2.47436142,0.346913397,-0.640798748,-0.502623618,-0.465185612
2935481,9.297249794,-0.097213611,3.284176588,0.147497147,3.775177479,0.320370078,0.68911016,-0.316267669,-0.481138229,-0.440009087,9.299834251,0.264380157,-3.175752401,0.418774366,14.22762966,2.510642052,0.348105937,-0.639954388,-0.501761198,-0.466386765
2935648,9.302420616,-0.102241337,3.266734838,0.038156521,4.92623806,0.307282001,0.689432919,-0.315978408,-0.480597347,-0.440302253,9.344632149,0.237025097,-3.173263788,0.637750387,15.23738766,2.493097544,0.34938997,-0.639026105,-0.500861526,-0.46766448
2935815,9.29061985,-0.095547773,3.317544699,-0.218207404,6.546972275,0.187401742,0.68986553,-0.315579891,-0.479897797,-0.440673441,9.406935692,0.235308498,-3.17430377,1.017279863,16.69676208,2.552634478,0.350818038,-0.637980163,-0.499905318,-0.469044417
2935981,9.257149696,-0.091734722,3.397531509,-1.72830677,7.495525837,-0.113899685,0.690307319,-0.315210372,-0.479045808,-0.441172808,9.369101524,0.266882896,-3.157630682,1.246283531,18.40091133,2.607651472,0.352392882,-0.63680613,-0.498869449,-0.470559657
2936148,9.213647842,-0.077660292,3.444808483,-3.194596052,7.529847145,-0.55822897,0.690628529,-0.314984322,-0.478096277,-0.441861004,9.417798042,0.298697531,-3.139117718,1.142334461,20.14721489,2.570129156,0.354079574,-0.635510325,-0.497736752,-0.472242147
2936315,9.24390316,-0.085868426,3.36826992,-3.422638893,7.887196064,-0.486103565,0.690971434,-0.314761609,-0.477092892,-0.442567736,9.433907509,0.280956358,-3.075985432,0.979828298,22.23247528,2.664519072,0.355905205,-0.634080291,-0.496472239,-0.474119335
2936481,9.192289352,-0.077272296,3.446393013,1.009262204,7.454468727,0.27620098,0.691535354,-0.314173877,-0.476382673,-0.442869484,9.469442368,0.284188718,-3.076521158,0.954568148,24.50547028,2.961276293,0.357908905,-0.632508993,-0.495055437,-0.476186812
2936648,9.213819504,-0.078755751,3.434945345,1.472429276,7.144349575,0.681982994,0.69210726,-0.313608378,-0.475700408,-0.443110257,9.568573952,0.260564625,-2.998792648,0.747361362,27.20578575,3.488964558,0.360119343,-0.630790651,-0.493428499,-0.478482902
2936815,9.234684944,-0.064217664,3.465579033,0.466324031,8.52045536,0.343984991,0.692707479,-0.31302917,-0.474831313,-0.443513632,9.640622139,0.232066765,-2.970168829,0.85314244,30.16066742,4.200438023,0.362594664,-0.628901064,-0.491580456,-0.480996341
2936981,9.197994232,-0.082518481,3.53375268,-1.122015834,8.841525078,0.379561067,0.693277061,-0.312568218,-0.473840028,-0.444008768,9.582706451,0.23890312,-2.877745628,0.972486079,33.17799759,4.660536766,0.365320891,-0.626813591,-0.489529252,-0.483742118
2937148,9.051250458,-0.123013161,3.656059504,-5.304300785,5.042839527,-0.533819854,0.693317413,-0.312732279,-0.472988427,-0.444737703,9.45022583,0.193945751,-2.771589279,1.256583691,35.28201675,4.763861656,0.368220925,-0.624554992,-0.487365037,-0.486641288
2937315,9.222975731,-0.129032686,3.406656504,-1.326264143,2.744778872,0.131873399,0.693422019,-0.312691748,-0.472593129,-0.445023298,9.314300537,0.206573516,-2.648267031,1.542154074,35.81579208,4.66643095,0.371167839,-0.622219801,-0.485188603,-0.489560217
2937481,9.240744591,-0.103829831,3.395433426,3.996714592,3.821613789,2.088581562,0.693995774,-0.312145859,-0.472366512,-0.444752634,9.371772766,0.202354357,-2.511151075,1.555972099,35.5927124,4.678596973,0.374457747,-0.619519353,-0.48347804,-0.492164761
2937648,9.336529732,-0.101950087,3.337044239,3.323984385,5.442513466,2.084765196,0.694625378,-0.311591685,-0.471914351,-0.444638491,9.525738716,0.171617702,-2.401765823,1.882112861,35.79952621,5.25077486,0.37778759,-0.616852164,-0.481661439,-0.494744807
2937815,9.305874825,-0.104943685,3.388559341,1.340421557,8.604721069,1.306318164,0.695328534,-0.3109864,-0.471045494,-0.444884509,9.626260757,0.18624638,-2.265440464,2.093124628,36.77640915,5.531146526,0.381188393,-0.61413765,-0.479726672,-0.497385919
2937981,9.227155685,-0.102275893,3.513309002,-0.926770151,8.960559845,0.745425761,0.695928216,-0.310531229,-0.470030189,-0.445338219,9.653488159,0.164241865,-2.142207146,2.011766195,38.00702667,5.344353676,0.384613246,-0.61134243,-0.477675557,-0.500159204
2938148,9.205037117,-0.067417935,3.524154663,-2.626416445,8.046468735,0.489746988,0.696310937,-0.310360014,-0.468962133,-0.44598496,9.636526108,0.103786185,-2.060457945,1.923376799,39.00205612,5.180139065,0.388048142,-0.608480871,-0.475521505,-0.503039896
2938315,9.204307556,-0.069037206,3.575866699,-1.083609581,8.137559891,1.183748841,0.696865261,-0.31001085,-0.467994034,-0.44637835,9.57168293,0.087668121,-1.957174301,1.976370096,39.49285889,5.100905895,0.391479492,-0.605582774,-0.47329998,-0.505965173
2938481,9.190377235,-0.085781574,3.601941109,-1.346075654,8.598715782,1.462555766,0.697497666,-0.309628069,-0.466981262,-0.446717143,9.63044548,0.064622298,-1.896902323,2.252143621,39.80619431,5.061424732,0.394915134,-0.602651536,-0.471032262,-0.508902788
2938648,9.197445869,-0.082222857,3.578527451,-1.177928448,11.19328499,0.957089365,0.698259413,-0.309048593,-0.465722352,-0.44724229,9.781702995,0.091730356,-1.812277317,2.612620115,41.31226349,4.970322132,0.398468673,-0.599561453,-0.46869567,-0.511930764
2938815,9.154396057,-0.079107746,3.69212389,-1.13890779,12.94559288,0.861054599,0.699102283,-0.308380693,-0.464266956,-0.447899044,9.898219109,0.12915425,-1.690180779,2.403724194,44.25740051,4.796428204,0.402131498,-0.596274257,-0.466112703,-0.515253782
2938981,9.10365963,-0.092165142,3.800290585,-1.06796062,13.29032898,0.962545156,0.700013101,-0.307644784,-0.4628039,-0.448496401,9.973201752,0.149148643,-1.579579592,1.983662009,47.83351898,4.970536709,0.405994028,-0.592732787,-0.463247836,-0.518881679
2939148,9.064691544,-0.103847601,3.784923792,-0.982439816,13.76499748,1.053495765,0.700977147,-0.306855619,-0.461304039,-0.449076116,10.00634193,0.141234398,-1.533272743,1.519097447,51.95256424,5.344058514,0.410100996,-0.588905036,-0.460044533,-0.522845387
2939315,9.025663376,-0.07817243,3.850562096,-0.644518495,14.77146435,1.038000345,0.702064931,-0.305914104,-0.459755182,-0.449607521,10.04468441,0.098689511,-1.468440413,1.280258894,56.60884094,6.189757347,0.414515078,-0.584780216,-0.456415325,-0.527156949
2939481,9.076126099,-0.085004039,3.945830107,-1.071149707,16.22888184,1.489936948,0.703172386,-0.305047691,-0.457942218,-0.450314939,10.15366745,0.079393238,-1.420841694,1.601462364,62.1014328,7.084396839,0.419326961,-0.580260992,-0.452331752,-0.531844318
2939648,9.093853951,-0.09715607,4.057902336,-1.342414021,17.17280006,2.734676838,0.704412222,-0.304224938,-0.455958933,-0.450945765,10.20431232,0.016257748,-1.335980415,2.08085537,68.59056091,7.737091541,0.424618006,-0.575203419,-0.4477911,-0.53695786
2939815,9.030570984,-0.202991843,4.048648834,-0.884317935,18.8098011,3.085046768,0.705823421,-0.303239584,-0.453838199,-0.451541781,10.1981945,-0.009986119,-1.046722054,2.602258444,75.61904907,8.134791374,0.430383682,-0.569538653,-0.442761272,-0.542547762
2939981,8.88412571,-0.115645654,4.051624775,-0.746675253,20.18756676,2.549587727,0.707290828,-0.302112997,-0.451604038,-0.452240497,10.10711956,0.006144152,-0.70949465,2.569661617,82.00453186,8.230998039,0.436441958,-0.563358784,-0.437192559,-0.548641801
2940148,8.998015404,-0.127753645,3.831973553,-1.689070344,20.43769264,2.478423119,0.708665848,-0.301122129,-0.449239254,-0.453103065,9.917346001,-0.058733359,-0.452043951,2.634955883,85.73696136,8.645965576,0.442710549,-0.556819439,-0.431293666,-0.554928303
2940315,9.08380127,-0.134852618,4.004467487,-1.000907898,23.85408211,3.651552439,0.71044147,-0.299822867,-0.446569204,-0.45382303,9.586432457,-0.06466946,-0.183931768,2.925261259,87.24638367,9.342364311,0.449082792,-0.550094962,-0.425196677,-0.561184585
2940481,8.975962639,-0.208051741,4.085272789,-0.745062292,25.1828022,3.966333628,0.712320387,-0.298434496,-0.443754166,-0.454553604,9.576459885,-0.094204783,0.038932241,3.384445667,87.23704529,10.45416546,0.455509007,-0.543321133,-0.418980509,-0.567247212
2940648,8.911195755,-0.228263304,4.174012184,-0.90826726,26.71228027,3.575523376,0.714307666,-0.296878606,-0.44081676,-0.455311239,9.540842056,-0.060472474,0.277855515,3.764740944,87.46573639,10.88095093,0.461939871,-0.536440909,-0.412679315,-0.573182881
2940815,8.89707756,-0.209340245,4.187680244,-1.037483692,27.5641346,3.515999079,0.716264963,-0.295337677,-0.437733769,-0.456212282,9.531888008,-0.086376935,0.54571104,3.37528944,87.43378448,10.68549538,0.468246549,-0.52949053,-0.406296492,-0.57905823
2940981,8.89056015,-0.203434184,4.184379101,0.644244492,28.58582115,3.407260895,0.718361616,-0.293518692,-0.434668988,-0.457019061,9.629721642,-0.155178055,0.818375468,3.274910688,87.51467896,10.69077301,0.474473894,-0.522454083,-0.39983362,-0.584849954
2941148,8.904943466,-0.135141805,4.297338963,0.523288429,30.42560005,4.118555546,0.720589757,-0.291644871,-0.431355923,-0.457848936,9.488175392,-0.123418629,1.109446168,3.171073198,87.32285309,11.18161201,0.480646461,-0.515384674,-0.393273294,-0.590502977
2941315,8.806738853,-0.206959903,4.47028923,0.133602694,30.12215233,4.286920547,0.722791433,-0.289827585,-0.428040206,-0.458643794,9.445754051,-0.113985524,1.376877904,2.827557325,86.17479706,11.93225765,0.486714631,-0.508397996,-0.38664487,-0.595941603
2941481,8.880883217,-0.21409364,4.465752602,0.554433584,30.68814659,4.201194286,0.72498697,-0.287957817,-0.42466107,-0.459496856,9.461580276,-0.163898528,1.703485012,2.137672901,85.38365173,12.34838104,0.492646396,-0.501471758,-0.379921556,-0.601236582
2941648,8.755178452,-0.238733768,4.501080036,0.876834929,33.31074524,4.206101894,0.727318108,-0.285897076,-0.421001583,-0.460466206,9.443527222,-0.215038776,2.100058317,1.058055997,84.72142029,12.18222046,0.498371959,-0.494593799,-0.373105049,-0.606461227
2941815,8.666049004,-0.249460563,4.636054039,1.614675283,32.21629333,4.613420963,0.729637206,-0.283836722,-0.417490155,-0.461268336,9.230111122,-0.373883605,2.431550503,0.552063525,83.11875916,11.82846546,0.503868043,-0.487799495,-0.366329551,-0.611531973
2941981,8.633145332,-0.173730671,4.706403255,0.772693038,31.9767971,3.879716873,0.731835425,-0.281837046,-0.413964927,-0.462188363,8.901924133,-0.39994809,2.726304054,0.457190573,79.29741669,11.16040325,0.509023905,-0.481247127,-0.359821081,-0.616299212
2942148,8.36597538,-0.322559357,4.770932198,-0.456650764,34.35190582,3.351403713,0.734063506,-0.279779077,-0.410110503,-0.463339955,8.760180473,-0.465105861,2.921459436,0.722413778,73.70349121,10.52673531,0.513785779,-0.475082278,-0.353749275,-0.62063092
2942315,8.477425575,-0.371842593,5.139681816,0.529307663,32.58486176,3.054678202,0.736196518,-0.277703702,-0.406518251,-0.464368731,8.74576664,-0.501988828,3.188834667,1.132593155,68.07821655,9.74396801,0.518161297,-0.469302297,-0.348150223,-0.624544501
2942481,8.286200523,-0.354885697,5.006829262,0.450381875,33.67631531,2.819949865,0.738352418,-0.275547683,-0.402799934,-0.465469211,8.970845222,-0.54966116,3.409220934,1.56187892,63.9123497,8.421815872,0.522187591,-0.463756859,-0.342961192,-0.628193736
2942648,8.363080025,-0.364354253,5.177557468,0.995934427,33.31261444,2.421197176,0.740463197,-0.273328722,-0.399163246,-0.466556102,9.053759575,-0.629677236,3.737808466,2.224179506,61.71406555,6.977871418,0.525973976,-0.458250314,-0.338067502,-0.631718636
2942815,8.191606522,-0.269870043,5.224299431,2.73482585,33.51682663,2.503542185,0.742643356,-0.270906508,-0.395609915,-0.467529148,9.181409836,-0.695589542,3.953075409,3.13668108,60.69600677,5.662997246,0.529609501,-0.452665597,-0.333395362,-0.635181308
2942981,8.265717506,-0.305116713,5.447445393,1.99058187,33.01540375,2.458707094,0.744744837,-0.268589497,-0.392052501,-0.468518585,8.802066803,-0.653170109,4.073329926,4.266917229,58.94342041,4.801640034,0.533115625,-0.447078884,-0.328993022,-0.638491988
2943148,8.105945587,-0.353863508,5.588205338,0.904291868,32.67093277,2.009829998,0.746737182,-0.266381234,-0.388467044,-0.469593465,8.595795631,-0.596217036,4.109609604,5.034275055,54.95309448,4.076554298,0.536377609,-0.441736668,-0.324994683,-0.641518831
2943315,7.957604885,-0.389135242,5.619361401,1.057200193,32.70203781,2.024531364,0.748720825,-0.264149398,-0.384878397,-0.4706496,8.583347321,-0.510595918,4.125921726,5.61354208,51.04225922,3.680995226,0.539423645,-0.436668217,-0.321360528,-0.644259691
2943481,7.930371284,-0.373790234,5.676063061,1.830899,33.60108566,2.310601234,0.750786781,-0.261781514,-0.381224066,-0.471654862,8.640579224,-0.487040579,4.203305244,5.912133217,48.32489395,3.50929594,0.542317629,-0.431799233,-0.317960978,-0.646793664
2943648,7.845804214,-0.303024918,5.786307812,1.886517525,34.17189026,2.796630144,0.752900064,-0.259389758,-0.377481967,-0.472615957,8.987940788,-0.519546747,4.339222431,5.901835918,48.48122787,3.141622066,0.545156837,-0.426877111,-0.31455493,-0.64933461
2943815,7.885194302,-0.261254162,5.822297096,1.20743227,33.74785995,2.967083454,0.754959166,-0.257103264,-0.373724163,-0.473566264,9.161204338,-0.547755599,4.582072258,5.913356781,51.56951904,2.734828472,0.54807061,-0.421620786,-0.310913444,-0.652064085
2943981,7.922143459,-0.33084476,5.895100594,1.39373982,33.5011673,2.391793728,0.756955385,-0.254774421,-0.370019257,-0.47454679,8.923166275,-0.557631791,4.729746819,6.271136761,54.54217529,3.045785666,0.551137507,-0.416042507,-0.307031035,-0.654895544
2944148,7.89450407,-0.343605936,5.951477051,1.16642642,34.38455963,2.123013735,0.758887827,-0.252440453,-0.366166621,-0.475694597,8.522274971,-0.418863773,4.902504921,6.718020916,54.56362152,3.863442421,0.554275692,-0.410436124,-0.303120255,-0.657600999
2944315,7.666362286,-0.341498494,6.059283257,0.662635386,34.67580032,2.054512262,0.760857284,-0.250080734,-0.362275034,-0.476773202,8.224182129,-0.406149536,5.037129879,6.340324879,51.78125,4.426166534,0.557289124,-0.40512529,-0.299345285,-0.660071969
2944481,7.603596687,-0.320797145,6.102592468,0.395071059,33.86252594,2.490505457,0.762785971,-0.247823298,-0.35842976,-0.477775484,8.145758629,-0.386093348,5.208009243,5.878437519,47.42148209,4.423381329,0.560056269,-0.400247872,-0.295863152,-0.662271619
2944648,7.490041256,-0.261314452,6.151299,0.482807606,33.28759003,2.706037045,0.764684677,-0.245600984,-0.354637802,-0.478716642,8.307351112,-0.452228278,5.354709625,4.802010059,43.73970032,3.930455446,0.562530398,-0.395772576,-0.292592198,-0.664314449
2944815,7.549229622,-0.306800723,6.126606464,1.138238907,31.42193031,2.709481001,0.766493499,-0.243430302,-0.351090461,-0.479546934,8.31713295,-0.454759568,5.517603874,4.365665913,41.00502014,3.9636724,0.564844966,-0.391582459,-0.28948915,-0.666190207
2944981,7.455126286,-0.30027622,6.310891151,0.656987131,30.6151886,2.330488205,0.768200934,-0.241345465,-0.347605377,-0.480406284,8.365826607,-0.42683211,5.642822742,3.795918226,38.91958237,4.032402039,0.567027152,-0.387629867,-0.286487937,-0.667943299
2945148,7.466295719,-0.336475998,6.397531509,0.186454564,27.91186714,2.062666655,0.769689381,-0.239508435,-0.344375461,-0.481268764,8.268811226,-0.418066353,5.815246582,3.052901745,37.16038895,3.999910355,0.569073737,-0.383895189,-0.28355214,-0.669610322
2945315,7.404084682,-0.301746726,6.457827568,-0.085380152,26.83446312,1.950354576,0.771074116,-0.237781763,-0.341235518,-0.482144207,8.236885071,-0.45157218,5.907783508,2.202221632,35.09038162,3.801575661,0.570952594,-0.380412549,-0.280707479,-0.671194971
2945481,7.399675369,-0.296920598,6.461791992,-0.611683965,25.47708321,2.023324966,0.772426367,-0.236165822,-0.338233262,-0.482889086,8.041519165,-0.484013766,5.963467121,1.602624655,32.55554199,3.015298367,0.572604656,-0.377184957,-0.278050959,-0.67271322
2945648,7.180592537,-0.28949964,6.537032604,-0.664702058,24.01645279,2.094655275,0.773691118,-0.234664723,-0.335380256,-0.483585358,7.979205608,-0.567923665,6.043441296,0.804273307,29.13256073,1.76539278,0.573941112,-0.374299675,-0.275663674,-0.674166977
2945815,7.189861298,-0.343947619,6.510561943,-0.118318059,21.04007912,1.744567156,0.774773121,-0.233308062,-0.332897156,-0.484224886,7.865696907,-0.579179108,6.098837376,0.702307999,24.90739632,0.880470395,0.575007379,-0.371794939,-0.27366212,-0.675458491
2945981,7.080108643,-0.379807651,6.589707375,0.652324378,19.63129807,1.378599048,0.775787592,-0.231938541,-0.330640167,-0.484804571,7.827641487,-0.599013746,6.115209103,1.05377841,20.50122261,0.436024874,0.575868011,-0.369671077,-0.27208373,-0.676527917
2946148,7.001541138,-0.409493059,6.687587261,1.390803099,16.8741951,1.084679842,0.776681721,-0.230654597,-0.328760237,-0.485263914,7.940975189,-0.577343881,6.118068218,1.808559418,16.94770241,0.284077138,0.57660979,-0.367824048,-0.270882398,-0.677384377
2946315,7.036749363,-0.408341169,6.7158041,2.532668829,13.79870319,1.324824214,0.777477145,-0.229470849,-0.327296525,-0.485540509,8.048459053,-0.528386891,6.103939533,2.530805826,15.05385017,0.43052426,0.577327132,-0.366106212,-0.269901037,-0.678095162
2946481,7.078677654,-0.284985006,6.767942429,1.698820949,13.03893948,1.112468958,0.778207839,-0.228412062,-0.325873643,-0.485826164,7.948103428,-0.483253837,6.039338589,2.465230703,13.82617474,-0.056616921,0.57794255,-0.364493817,-0.269040614,-0.678781271
2946648,7.033023357,-0.315164417,6.789676189,1.24117291,11.82570267,0.909641922,0.778830349,-0.227493003,-0.324552298,-0.486144304,7.913218975,-0.470505595,5.960015774,2.311950684,12.60389423,-0.884048402,0.578418136,-0.362980813,-0.268310308,-0.679475546
2946815,7.056899548,-0.371775687,6.771554947,1.973261118,11.8376894,1.085012197,0.779499233,-0.226489455,-0.323279858,-0.486388445,7.986848831,-0.472237736,5.833977699,2.431459427,12.26521587,-0.820170224,0.578891218,-0.361492306,-0.267615855,-0.68013978
2946981,7.003090382,-0.361160815,6.800978184,2.19226265,12.84639454,1.120139837,0.780199051,-0.225406885,-0.321894944,-0.486687869,8.061346054,-0.38590923,5.69340086,2.674665451,13.00763035,-0.246445552,0.57946068,-0.359931111,-0.266851991,-0.680782676
2947148,7.110826492,-0.346868753,6.740406513,2.311054707,14.1791563,0.924779236,0.780964494,-0.224195063,-0.320379853,-0.48701939,8.103546143,-0.338777453,5.626520157,2.407063723,15.03683567,0.503347516,0.58016634,-0.358219475,-0.265850753,-0.681475878
2947315,7.108913898,-0.307146341,6.82121563,2.010131836,18.6040554,1.259934902,0.781947553,-0.222716853,-0.318329245,-0.487464666,8.264954567,-0.387350291,5.707038403,1.929080248,18.19351959,1.188142419,0.581033051,-0.35626024,-0.264499277,-0.682289898
2947481,7.037571907,-0.287030309,6.934853077,0.285754859,19.82813072,1.605796695,0.782931149,-0.221374571,-0.315994978,-0.488015652,8.383743286,-0.452246666,5.948264599,1.63744843,22.61875534,1.633171201,0.582093477,-0.353901148,-0.262720346,-0.683300257
2947648,7.082011223,-0.364839137,6.924014568,-0.92463237,18.72885513,1.522235036,0.783835709,-0.220227033,-0.313710868,-0.488556117,8.036877632,-0.483897358,6.129896641,1.503161669,25.68564034,2.001867533,0.583293378,-0.351259083,-0.26064685,-0.68443352
2947815,6.993926048,-0.392676294,6.935110092,0.014195857,19.27236938,1.529739499,0.78478688,-0.218934342,-0.311427772,-0.489070565,7.69295454,-0.397775441,6.280023098,1.152900577,24.95323372,1.901804686,0.584429681,-0.348711312,-0.258602321,-0.685541689
2947982,6.793231487,-0.382088125,7.0032444,0.532226145,17.84785271,1.499196291,0.78564781,-0.217703521,-0.309327215,-0.489570707,7.599890709,-0.404197335,6.395048141,0.460369915,22.27508926,1.548578501,0.585388064,-0.346471697,-0.256731123,-0.686562002
2948148,6.770165443,-0.382968247,7.016717911,0.767747879,16.94172287,1.67039144,0.786522567,-0.21649012,-0.307357728,-0.489944667,7.581551075,-0.446024448,6.549282074,-0.052032266,19.16393852,1.57032299,0.586201429,-0.344583511,-0.255069971,-0.687436819
2948315,6.718148232,-0.351973206,7.100559711,0.689180672,15.77330589,1.69741261,0.787352622,-0.215360641,-0.305519283,-0.490258962,7.758180141,-0.513056397,6.657876015,-0.336768925,16.81136703,1.874973178,0.58694005,-0.342963278,-0.253563434,-0.68817389
2948482,6.749214649,-0.34956038,7.09442997,0.225423932,13.73418522,1.557605386,0.788052559,-0.214429811,-0.303878814,-0.490562022,7.705933094,-0.510736227,6.745618343,-0.618752062,15.3799448,1.841138363,0.587605357,-0.341506869,-0.252150774,-0.688849032
2948648,6.689050674,-0.387255043,7.152647495,-0.268690169,13.23336506,1.400535226,0.788700044,-0.213583767,-0.302263916,-0.490887791,7.59436655,-0.516764522,6.801102638,-0.771442235,13.27224731,1.693006992,0.588168681,-0.34026736,-0.250908762,-0.689435065
2948815,6.627234936,-0.40142709,7.20993042,-0.281611741,10.92788792,1.258717418,0.789234996,-0.212895811,-0.300916612,-0.491154581,7.512973785,-0.516991973,6.79308939,-0.678928912,10.64221478,1.54413271,0.58862406,-0.339276582,-0.249906987,-0.689898193
2948982,6.587822437,-0.402553439,7.215921879,-0.182170376,8.991680145,1.129385829,0.789684474,-0.212324023,-0.299804866,-0.491359442,7.492031097,-0.498612434,6.81725359,-0.494184375,7.628660679,1.405337095,0.588964522,-0.338566273,-0.249187648,-0.690216959
2949148,6.595081806,-0.402615488,7.191252708,-0.179711536,7.058637142,1.00251317,0.79003942,-0.211884394,-0.298918396,-0.491518766,7.495972633,-0.502311766,6.777040482,-0.323181063,4.946472645,0.954719901,0.589170456,-0.338093281,-0.248736575,-0.690435588
2949315,6.558449745,-0.388928264,7.238502502,0.336429238,5.913236141,0.969191074,0.790353477,-0.211468086,-0.298199266,-0.49162975,7.521616459,-0.503882349,6.712586403,-0.420265973,2.830414534,0.680433333,0.589267731,-0.337830722,-0.248470023,-0.690577209
2949482,6.52498436,-0.391246706,7.279704094,0.458691388,4.049681664,0.798162043,0.790582001,-0.211160839,-0.297709733,-0.491691113,7.573992729,-0.603650928,6.667834759,-0.02543341,1.509247541,0.581734776,0.58932662,-0.337663054,-0.248360783,-0.690648139
2949648,6.510887623,-0.421814471,7.333825588,0.688322067,2.338842869,0.58255446,0.79074049,-0.210932031,-0.297445178,-0.49169448,7.586992741,-0.544623673,6.613300323,0.671238422,0.965182602,0.997557044,0.589442074,-0.337505281,-0.248347342,-0.690631509
2949815,6.559146404,-0.40347895,7.230272293,1.040151,0.769386292,0.214000523,0.790789902,-0.210775197,-0.297385722,-0.491718322,7.586271286,-0.431394935,6.601679325,0.543776751,0.467143536,0.892506361,0.589522779,-0.337404639,-0.24836868,-0.69060421
2949982,6.537734032,-0.345782578,7.263136864,0.896463633,1.339435339,0.401639134,0.790872157,-0.21060276,-0.297244132,-0.491745591,7.572143078,-0.460093379,6.626429558,0.136227533,0.305092067,0.686209023,0.589556873,-0.337347627,-0.248373017,-0.690601349
2950148,6.527815819,-0.366100222,7.27485323,0.558388889,0.223899797,0.393353462,0.790913224,-0.210537061,-0.297214687,-0.491725445,7.475935459,-0.472912312,6.62886858,-0.270290822,-0.629035056,0.753352642,0.589544058,-0.337421566,-0.24841325,-0.690561712
2950315,6.476774216,-0.386215389,7.269711018,1.193558335,-0.060958225,0.456655234,0.790953219,-0.210429415,-0.297255576,-0.491682559,7.497028828,-0.495882362,6.644587517,-0.647950053,-1.802685499,0.790439844,0.589474142,-0.337646902,-0.248514101,-0.690474987
2950482,6.507040024,-0.360295087,7.282985687,1.041200995,-0.834154427,0.419478387,0.790933549,-0.210404813,-0.297366947,-0.491657287,7.518542767,-0.497074932,6.663940907,-0.878438711,-2.618335009,1.072064281,0.589391649,-0.337983817,-0.248647586,-0.690332592
2950648,6.492112637,-0.398631185,7.314596176,1.074151754,-1.503465295,0.263048798,0.790882707,-0.210412428,-0.297565669,-0.491615593,7.578253746,-0.500028491,6.615929127,-0.879719377,-3.141013145,0.908296824,0.589273691,-0.338367075,-0.248833403,-0.690178514
2950815,6.532906055,-0.369218886,7.33639431,0.981830835,-1.873005629,0.236757413,0.790818214,-0.210451439,-0.29780376,-0.491558552,7.613577843,-0.506397963,6.596842766,-0.923760355,-3.300926208,0.795075834,0.589136362,-0.338765919,-0.249033839,-0.690027773
2950982,6.53666544,-0.379518837,7.338958263,1.217506051,-2.445500612,0.299739033,0.790753722,-0.210498437,-0.298128098,-0.491445512,7.610956669,-0.47869122,6.585739136,-1.070303679,-3.636504173,0.783691108,0.58897835,-0.33921048,-0.249248654,-0.689866722
2951148,6.562262535,-0.355909526,7.289782524,1.136441946,-2.833930254,0.470383704,0.790672541,-0.210595861,-0.298481494,-0.491320044,7.609041214,-0.475551993,6.559166908,-1.550593138,-4.222484112,0.995585024,0.588796556,-0.339762479,-0.249454886,-0.689675808
2951315,6.589465141,-0.362232596,7.236011982,1.030034065,-3.500295639,0.625916839,0.790569663,-0.210759938,-0.298898697,-0.491161466,7.622241974,-0.493027002,6.528179646,-1.729484797,-4.958247662,1.12767601,0.588591933,-0.340408087,-0.249699354,-0.689443409
2951482,6.599840641,-0.388590068,7.22385025,0.827808857,-4.141099453,0.774790525,0.790436208,-0.2110039,-0.299367279,-0.490986109,7.65173912,-0.532036662,6.524006844,-1.846701503,-5.840260029,1.172594428,0.588353753,-0.341153592,-0.250005126,-0.68916738
2951648,6.654391289,-0.386982083,7.189516068,1.018200994,-4.447402477,0.782986701,0.790301979,-0.211244047,-0.299887002,-0.490781754,7.726363659,-0.581772983,6.491697788,-1.484512329,-6.23108387,1.113134503,0.588112891,-0.341904819,-0.250383258,-0.688863337
2951815,6.667108536,-0.372980654,7.155807495,1.130922556,-5.079601288,0.613225758,0.790142298,-0.211501792,-0.300497442,-0.490554482,7.718990326,-0.582320333,6.516936779,-0.970990241,-6.619487286,0.731646001,0.58784467,-0.342637062,-0.250864685,-0.688553214
2951982,6.703427315,-0.380006313,7.146936893,1.410075307,-5.461806297,0.694725335,0.789951384,-0.211776391,-0.301156402,-0.49033913,7.65199852,-0.563781738,6.547352314,-0.418665349,-7.795164585,0.514975548,0.587538719,-0.343431562,-0.251512229,-0.688182116
2952148,6.713148594,-0.352993041,7.082952023,1.219209433,-6.471382141,0.590776145,0.789715648,-0.212131962,-0.301926672,-0.490091532,7.621031761,-0.560684502,6.615656376,-0.209473521,-9.873532295,0.300481886,0.587144792,-0.344407767,-0.252368391,-0.687716842
2952315,6.688826084,-0.356858701,7.113792896,1.201114178,-7.28575182,0.432630658,0.789427519,-0.212543115,-0.302792132,-0.489843577,7.588562965,-0.54546237,6.643120766,-0.261070371,-12.53498936,0.0727209,0.58662641,-0.34564513,-0.25345701,-0.687137961
2952482,6.648607254,-0.351646394,7.158201218,1.255989313,-8.678646088,0.092250541,0.789062142,-0.213027045,-0.303834975,-0.48957637,7.614696026,-0.525063932,6.63995409,-0.51981014,-15.61975193,-0.307416707,0.585940897,-0.347196996,-0.254800498,-0.686443269
2952648,6.694705963,-0.356286883,7.112824917,1.817804694,-10.61865902,0.036735032,0.788617373,-0.213585153,-0.305139065,-0.489238262,7.643928051,-0.537365794,6.629056454,-0.846078157,-18.82648468,-0.499742806,0.585097253,-0.349087059,-0.25639236,-0.685611069
2952815,6.702297688,-0.365305603,7.100156307,2.132892132,-12.54925537,-0.127448857,0.788076997,-0.214240715,-0.306688458,-0.488853723,7.553389072,-0.533018112,6.668632507,-0.829583943,-22.68374634,-0.599965692,0.584095418,-0.35135296,-0.258316278,-0.684584916
2952982,6.652369022,-0.349355936,7.097304821,2.494659901,-14.46464348,-0.210523754,0.787460208,-0.214982048,-0.308487415,-0.488389969,7.544315338,-0.481912285,6.69243288,-1.038905025,-27.22935104,-0.720102847,0.582892537,-0.354079425,-0.260607451,-0.683335841
2953148,6.713691235,-0.380463958,7.043955803,2.519389391,-17.05246544,-0.707192957,0.7866835,-0.215884417,-0.31059581,-0.487907261,7.586471081,-0.476070285,6.653755665,-1.549996495,-32.13914871,-0.816651046,0.581456959,-0.357325971,-0.263263375,-0.681849241
2953315,6.741309643,-0.340824634,7.074386597,2.530339718,-18.99363518,-0.835986793,0.785800576,-0.216918901,-0.312926799,-0.487381279,7.47130537,-0.486666948,6.521537781,-2.082809448,-37.49072266,-1.017469645,0.579754233,-0.361130565,-0.266321838,-0.680104792
