// General information: 
//  MT Manager version: 2022.2.0 
//  XDA version: 2022.2.0 build 7381 rev 124627 built on 2023-07-19
// Device information: 
//  DeviceId: 00B4D204
//  ProductCode: MTW2-3A7G6
//  Firmware Version: 4.6.0
//  Hardware Version: 2.0.0
// Device settings: 
//  Filter Profile: human(46.1)
//  Option Flags: Orientation Smoother Disabled, Position/Velocity Smoother Disabled, Continuous Zero Rotation Update Disabled, AHS Disabled, ICC Disabled
// Coordinate system: ENU
PacketCounter	SampleTimeFine	Year	Month	Day	Second	UTC_Nano	UTC_Year	UTC_Month	UTC_Day	UTC_Hour	UTC_Minute	UTC_Second	UTC_Valid	Acc_X	Acc_Y	Acc_Z	VelInc_X	VelInc_Y	VelInc_Z	OriInc_q0	OriInc_q1	OriInc_q2	OriInc_q3	Quat_q0	Quat_q1	Quat_q2	Quat_q3	Roll	Pitch	Yaw	Mat[1][1]	Mat[2][1]	Mat[3][1]	Mat[1][2]	Mat[2][2]	Mat[3][2]	Mat[1][3]	Mat[2][3]	Mat[3][3]
47059														7.644399	0.067552	5.850457	0.127395	0.001133	0.097522	1.000000	0.000030	-0.000115	0.000076	-0.443898	-0.388122	0.214644	-0.778616	0.974994	-52.651149	120.141631	-0.304631	0.524637	0.794957	-0.857869	-0.513764	0.010323	0.413836	-0.678824	0.606579
47060														7.669367	0.099362	5.872119	0.127812	0.001656	0.097883	1.000000	0.000065	-0.000111	0.000053	-0.443829	-0.388195	0.214639	-0.778621	0.976641	-52.659009	120.148783	-0.304642	0.524505	0.795040	-0.857792	-0.513892	0.010339	0.413987	-0.678829	0.606469
47061														7.617998	0.102407	5.855264	0.126958	0.001707	0.097599	1.000000	0.000101	-0.000085	0.000076	-0.443673	-0.388274	0.214576	-0.778688	0.978534	-52.663940	120.169330	-0.304795	0.524336	0.795092	-0.857594	-0.514223	0.010358	0.414285	-0.678709	0.606400
47062														7.691860	0.103453	5.870581	0.128188	0.001724	0.097855	1.000000	0.000098	-0.000095	0.000075	-0.443585	-0.388341	0.214552	-0.778711	0.980467	-52.669905	120.179501	-0.304847	0.524211	0.795155	-0.857488	-0.514399	0.010377	0.414467	-0.678673	0.606317
47063														7.716896	0.084723	5.880508	0.128612	0.001406	0.098012	1.000000	0.000059	-0.000029	0.000001	-0.443556	-0.388364	0.214486	-0.778735	0.988914	-52.668266	120.180134	-0.304864	0.524227	0.795138	-0.857421	-0.514508	0.010466	0.414592	-0.678577	0.606339
47064														7.737231	0.082717	5.909536	0.128947	0.001371	0.098502	1.000000	0.000051	-0.000075	-0.000022	-0.443517	-0.388429	0.214428	-0.778740	0.999935	-52.671837	120.179268	-0.304831	0.524189	0.795176	-0.857349	-0.514627	0.010582	0.414765	-0.678517	0.606287
47065														7.706946	0.043031	5.867467	0.128438	0.000708	0.097805	1.000000	0.000045	-0.000111	-0.000036	-0.443533	-0.388509	0.214409	-0.778696	1.012507	-52.679438	120.168413	-0.304679	0.524155	0.795256	-0.857355	-0.514614	0.010713	0.414865	-0.678552	0.606179
47066														7.675580	0.054727	5.838436	0.127926	0.000903	0.097307	1.000000	0.000038	-0.000001	-0.000041	-0.443569	-0.388504	0.214340	-0.778698	1.024852	-52.674436	120.158469	-0.304623	0.524268	0.795203	-0.857355	-0.514611	0.010845	0.414906	-0.678468	0.606246
47067														7.739235	0.093712	5.879073	0.128992	0.001538	0.097979	1.000000	0.000049	0.000043	-0.000149	-0.443688	-0.388493	0.214198	-0.778674	1.054221	-52.664071	120.129323	-0.304428	0.524547	0.795093	-0.857405	-0.514521	0.011159	0.414945	-0.678320	0.606384
47068														7.698935	0.094691	5.848236	0.128316	0.001564	0.097470	1.000000	0.000022	0.000005	-0.000094	-0.443769	-0.388489	0.214117	-0.778652	1.072527	-52.658276	120.109893	-0.304291	0.524720	0.795032	-0.857448	-0.514446	0.011354	0.414958	-0.678244	0.606461
47069														7.653527	0.104266	5.864814	0.127563	0.001726	0.097741	1.000000	-0.000000	0.000045	-0.000091	-0.443866	-0.388442	0.214036	-0.778642	1.087719	-52.647862	120.091076	-0.304191	0.524945	0.794922	-0.857508	-0.514342	0.011517	0.414908	-0.678148	0.606603
47070														7.670073	0.088504	5.816845	0.127844	0.001464	0.096935	1.000000	-0.000019	0.000098	-0.000104	-0.443985	-0.388351	0.213939	-0.778647	1.102505	-52.631420	120.071108	-0.304122	0.525249	0.794748	-0.857582	-0.514215	0.011678	0.414805	-0.678009	0.606828
47071														7.639329	0.114900	5.868910	0.127330	0.001902	0.097805	1.000000	0.000009	0.000077	-0.000095	-0.444097	-0.388282	0.213839	-0.778645	1.119313	-52.617333	120.050351	-0.304030	0.525528	0.794598	-0.857648	-0.514101	0.011860	0.414737	-0.677880	0.607020
47072														7.642553	0.147999	5.877147	0.127375	0.002455	0.097954	1.000000	0.000029	-0.000011	-0.000069	-0.444139	-0.388293	0.213762	-0.778637	1.134822	-52.613553	120.037624	-0.303939	0.525641	0.794558	-0.857650	-0.514093	0.012025	0.414798	-0.677798	0.607069
47073														7.667948	0.137190	5.858851	0.127791	0.002276	0.097658	1.000000	0.000065	-0.000084	-0.000031	-0.444152	-0.388358	0.213719	-0.778608	1.148911	-52.617988	120.027303	-0.303814	0.525642	0.794605	-0.857640	-0.514106	0.012173	0.414910	-0.677787	0.607004
47074														7.636399	0.138757	5.871696	0.127260	0.002300	0.097879	1.000000	0.000067	-0.000133	-0.000045	-0.444154	-0.388469	0.213686	-0.778561	1.165451	-52.628103	120.015732	-0.303637	0.525582	0.794712	-0.857623	-0.514131	0.012346	0.415075	-0.677815	0.606861
47075														7.654446	0.171152	5.847145	0.127560	0.002837	0.097471	1.000000	0.000074	-0.000145	-0.000064	-0.444158	-0.388598	0.213641	-0.778507	1.185691	-52.639519	120.001750	-0.303430	0.525519	0.794833	-0.857601	-0.514163	0.012557	0.415273	-0.677839	0.606698
47076														7.688427	0.165483	5.858824	0.128126	0.002750	0.097666	1.000000	0.000047	-0.000146	-0.000031	-0.444155	-0.388707	0.213635	-0.778456	1.197795	-52.651128	119.992718	-0.303267	0.525427	0.794956	-0.857593	-0.514173	0.012682	0.415408	-0.677903	0.606534
47077														7.661511	0.146900	5.866630	0.127680	0.002442	0.097792	1.000000	0.000032	-0.000119	-0.000029	-0.444157	-0.388788	0.213627	-0.778416	1.207761	-52.659647	119.984865	-0.303135	0.525366	0.795046	-0.857590	-0.514175	0.012785	0.415510	-0.677948	0.606414
47078														7.671192	0.162898	5.853469	0.127840	0.002711	0.097575	1.000000	0.000046	-0.000133	0.000006	-0.444128	-0.388879	0.213630	-0.778387	1.214189	-52.669835	119.982927	-0.303047	0.525254	0.795154	-0.857560	-0.514224	0.012850	0.415637	-0.677998	0.606271
47079														7.713322	0.174801	5.840103	0.128545	0.002914	0.097348	1.000000	0.000027	-0.000102	0.000025	-0.444111	-0.388929	0.213647	-0.778366	1.215660	-52.676533	119.982774	-0.302999	0.525175	0.795225	-0.857550	-0.514241	0.012863	0.415693	-0.678047	0.606178
47080														7.710059	0.132697	5.873679	0.128493	0.002213	0.097905	1.000000	0.000016	-0.000082	0.000027	-0.444053	-0.388972	0.213642	-0.778380	1.215419	-52.681008	119.990132	-0.303036	0.525082	0.795273	-0.857485	-0.514349	0.012860	0.415800	-0.678037	0.606116
47081														7.698892	0.147111	5.846035	0.128312	0.002454	0.097438	1.000000	-0.000020	-0.000029	0.000004	-0.444050	-0.388959	0.213638	-0.778389	1.214190	-52.679253	119.991717	-0.303062	0.525095	0.795254	-0.857480	-0.514358	0.012847	0.415791	-0.678021	0.606140
47082														7.674363	0.162396	5.849324	0.127908	0.002709	0.097486	1.000000	-0.000011	0.000019	0.000010	-0.444047	-0.388911	0.213607	-0.778423	1.213006	-52.672110	119.994792	-0.303140	0.525164	0.795178	-0.857461	-0.514388	0.012837	0.415772	-0.677943	0.606240
47083														7.654033	0.161504	5.834166	0.127571	0.002693	0.097232	1.000000	-0.000018	0.000034	-0.000006	-0.444094	-0.388845	0.213583	-0.778436	1.213601	-52.663157	119.990193	-0.303160	0.525296	0.795084	-0.857499	-0.514325	0.012846	0.415679	-0.677889	0.606364
47084														7.640304	0.155626	5.893415	0.127343	0.002591	0.098218	1.000000	0.000002	0.000047	-0.000021	-0.444129	-0.388786	0.213524	-0.778462	1.218639	-52.652755	119.985663	-0.303191	0.525445	0.794974	-0.857505	-0.514314	0.012902	0.415646	-0.677782	0.606507
47085														7.628369	0.115615	5.869204	0.127145	0.001928	0.097813	1.000000	-0.000019	0.000051	-0.000004	-0.444160	-0.388710	0.213485	-0.778493	1.218644	-52.641841	119.984375	-0.303254	0.525583	0.794858	-0.857517	-0.514293	0.012905	0.415573	-0.677691	0.606658
47086														7.627335	0.109000	5.898388	0.127126	0.001811	0.098301	1.000000	0.000023	0.000042	-0.000028	-0.444203	-0.388661	0.213414	-0.778512	1.227097	-52.631904	119.976660	-0.303253	0.525743	0.794753	-0.857526	-0.514276	0.012998	0.415555	-0.677580	0.606794
47087														7.639077	0.101936	5.897415	0.127323	0.001693	0.098284	1.000000	0.000002	0.000050	-0.000047	-0.444249	-0.388608	0.213338	-0.778533	1.236126	-52.621157	119.968618	-0.303253	0.525915	0.794639	-0.857534	-0.514260	0.013096	0.415539	-0.677459	0.606941
47088														7.650916	0.094868	5.896321	0.127518	0.001575	0.098269	1.000000	0.000007	0.000026	-0.000040	-0.444318	-0.388564	0.213289	-0.778529	1.244667	-52.613092	119.956487	-0.303198	0.526076	0.794553	-0.857582	-0.514178	0.013189	0.415480	-0.677396	0.607051
47089														7.630188	0.088029	5.909498	0.127171	0.001461	0.098490	1.000000	0.000014	0.000012	-0.000041	-0.444344	-0.388544	0.213222	-0.778543	1.253955	-52.606548	119.950092	-0.303184	0.526189	0.794484	-0.857573	-0.514191	0.013290	0.415509	-0.677299	0.607140
47090														7.613558	0.116321	5.915839	0.126891	0.001932	0.098599	1.000000	0.000011	-0.000015	-0.000045	-0.444373	-0.388544	0.213170	-0.778540	1.263649	-52.603143	119.941912	-0.303133	0.526273	0.794448	-0.857577	-0.514182	0.013394	0.415539	-0.677240	0.607185
47091														7.666531	0.117381	5.916631	0.127774	0.001954	0.098612	1.000000	0.000001	-0.000015	-0.000019	-0.444371	-0.388537	0.213129	-0.778556	1.268306	-52.599839	119.940818	-0.303146	0.526318	0.794413	-0.857553	-0.514220	0.013444	0.415579	-0.677176	0.607229
47092														7.663590	0.092884	5.880199	0.127725	0.001546	0.098006	1.000000	-0.000023	-0.000018	-0.000030	-0.444399	-0.388522	0.213110	-0.778552	1.272029	-52.596882	119.935715	-0.303119	0.526381	0.794382	-0.857572	-0.514187	0.013484	0.415559	-0.677152	0.607269
47093														7.639697	0.112309	5.868701	0.127322	0.001866	0.097820	1.000000	0.000026	-0.000062	-0.000023	-0.444413	-0.388556	0.213083	-0.778535	1.280440	-52.598892	119.928965	-0.303043	0.526392	0.794403	-0.857571	-0.514186	0.013573	0.415615	-0.677144	0.607240
47094														7.697126	0.148633	5.862155	0.128278	0.002470	0.097712	1.000000	0.000041	-0.000072	-0.000023	-0.444395	-0.388610	0.213039	-0.778531	1.290496	-52.602093	119.925665	-0.302991	0.526371	0.794437	-0.857528	-0.514256	0.013678	0.415744	-0.677107	0.607193
47095														7.727358	0.123601	5.810639	0.128787	0.002068	0.096847	1.000000	-0.000024	-0.000027	0.000048	-0.444357	-0.388586	0.213053	-0.778560	1.282399	-52.600333	119.935761	-0.303096	0.526339	0.794418	-0.857496	-0.514311	0.013593	0.415733	-0.677090	0.607219
47096														7.711409	0.098851	5.804675	0.128527	0.001654	0.096740	1.000000	-0.000005	0.000035	0.000047	-0.444350	-0.388515	0.213035	-0.778605	1.276456	-52.591437	119.942387	-0.303218	0.526411	0.794324	-0.857481	-0.514338	0.013533	0.415675	-0.677014	0.607344
47097														7.725058	0.163017	5.866922	0.128761	0.002722	0.097768	1.000000	-0.000024	0.000107	0.000019	-0.444380	-0.388388	0.212987	-0.778664	1.272295	-52.574300	119.945055	-0.303361	0.526603	0.794142	-0.857489	-0.514325	0.013494	0.415553	-0.676875	0.607582
47098														7.751893	0.178940	5.873101	0.129211	0.002980	0.097869	1.000000	-0.000014	0.000127	-0.000030	-0.444433	-0.388264	0.212895	-0.778721	1.276335	-52.554662	119.941092	-0.303461	0.526859	0.793934	-0.857498	-0.514310	0.013543	0.415463	-0.676687	0.607853
47099														7.689785	0.163364	5.884732	0.128169	0.002720	0.098071	1.000000	0.000012	0.000060	-0.000010	-0.444479	-0.388190	0.212837	-0.778747	1.280716	-52.542727	119.935657	-0.303493	0.527032	0.793807	-0.857516	-0.514278	0.013593	0.415401	-0.676577	0.608018
47100														7.665121	0.127181	5.876722	0.127759	0.002129	0.097935	1.000000	-0.000003	0.000078	0.000070	-0.444474	-0.388078	0.212814	-0.778812	1.271279	-52.528936	119.945196	-0.303676	0.527147	0.793661	-0.857500	-0.514306	0.013497	0.415300	-0.676466	0.608211
47101														7.737124	0.126893	5.894440	0.128958	0.002130	0.098233	1.000000	-0.000024	0.000063	0.000102	-0.444439	-0.387966	0.212821	-0.778887	1.254978	-52.517023	119.962049	-0.303914	0.527200	0.793534	-0.857469	-0.514364	0.013328	0.415191	-0.676380	0.608380
47102														7.675194	0.163623	5.903416	0.127921	0.002748	0.098388	1.000000	-0.000071	0.000019	0.000111	-0.444439	-0.387856	0.212903	-0.778919	1.232231	-52.510101	119.975380	-0.304084	0.527212	0.793461	-0.857515	-0.514293	0.013088	0.414972	-0.676424	0.608481
47103														7.593693	0.140819	5.912583	0.126564	0.002373	0.098539	1.000000	-0.000102	0.000026	0.000127	-0.444419	-0.387728	0.213002	-0.778966	1.203376	-52.502390	119.994898	-0.304317	0.527201	0.793379	-0.857549	-0.514243	0.012784	0.414729	-0.676471	0.608594
47104														7.631553	0.131416	5.836858	0.127195	0.002219	0.097277	1.000000	-0.000130	0.000029	0.000125	-0.444413	-0.387585	0.213122	-0.779008	1.171507	-52.494300	120.014081	-0.304550	0.527196	0.793293	-0.857609	-0.514152	0.012448	0.414436	-0.676544	0.608713
47105														7.639190	0.133567	5.868184	0.127314	0.002245	0.097810	1.000000	-0.000024	-0.000054	0.000132	-0.444343	-0.387554	0.213199	-0.779043	1.151207	-52.495864	120.033999	-0.304722	0.527072	0.793309	-0.857576	-0.514211	0.012232	0.414376	-0.676596	0.608696
47106														7.628118	0.142491	5.854425	0.127125	0.002394	0.097587	1.000000	0.000025	-0.000102	0.000174	-0.444205	-0.387575	0.213272	-0.779091	1.130377	-52.503014	120.062613	-0.304936	0.526834	0.793385	-0.857469	-0.514395	0.012009	0.414440	-0.676642	0.608601
47107														7.698255	0.110078	5.862073	0.128298	0.001846	0.097709	1.000000	0.000025	-0.000060	0.000109	-0.444095	-0.387584	0.213288	-0.779145	1.118808	-52.505153	120.083788	-0.305116	0.526695	0.793408	-0.857363	-0.514575	0.011885	0.414528	-0.676612	0.608574
47108														7.718788	0.112697	5.863097	0.128648	0.001892	0.097716	1.000000	-0.000032	0.000017	0.000078	-0.444056	-0.387511	0.213305	-0.779198	1.104910	-52.498298	120.098464	-0.305298	0.526699	0.793335	-0.857332	-0.514630	0.011739	0.414457	-0.676568	0.608672
47109														7.705757	0.115540	5.879684	0.128436	0.001938	0.097986	1.000000	-0.000034	0.000070	0.000067	-0.444016	-0.387406	0.213286	-0.779279	1.092447	-52.485445	120.114335	-0.305533	0.526769	0.793199	-0.857281	-0.514718	0.011610	0.414389	-0.676447	0.608852
47110														7.697439	0.109067	5.849330	0.128298	0.001830	0.097479	1.000000	-0.000055	0.000077	0.000057	-0.444012	-0.387283	0.213284	-0.779343	1.079255	-52.471790	120.125526	-0.305731	0.526873	0.793054	-0.857277	-0.514727	0.011474	0.414251	-0.676359	0.609044
47111														7.671847	0.061347	5.884094	0.127871	0.001037	0.098059	1.000000	-0.000079	0.000073	0.000055	-0.444002	-0.387157	0.213294	-0.779408	1.063595	-52.458596	120.138603	-0.305943	0.526961	0.792913	-0.857274	-0.514735	0.011311	0.414101	-0.676284	0.609230
47112														7.674598	0.088105	5.906963	0.127914	0.001477	0.098444	1.000000	-0.000026	0.000042	0.000047	-0.444034	-0.387064	0.213304	-0.779434	1.055417	-52.448852	120.140793	-0.306031	0.527066	0.792810	-0.857315	-0.514670	0.011226	0.413952	-0.676252	0.609366
47113														7.694266	0.091480	5.909114	0.128244	0.001528	0.098478	1.000000	-0.000016	0.000060	0.000014	-0.444087	-0.386970	0.213283	-0.779456	1.053275	-52.437064	120.137589	-0.306083	0.527224	0.792684	-0.857360	-0.514595	0.011206	0.413819	-0.676186	0.609530
47114														7.649710	0.112779	5.869086	0.127498	0.001886	0.097814	1.000000	0.000005	0.000031	0.000056	-0.444081	-0.386900	0.213270	-0.779497	1.047188	-52.428567	120.143910	-0.306200	0.527292	0.792594	-0.857348	-0.514616	0.011144	0.413758	-0.676117	0.609648
47115														7.632936	0.081056	5.891844	0.127217	0.001361	0.098195	1.000000	0.000002	0.000018	0.000081	-0.444067	-0.386832	0.213280	-0.779537	1.037191	-52.421643	120.152922	-0.306331	0.527326	0.792520	-0.857340	-0.514632	0.011039	0.413677	-0.676078	0.609746
47116														7.673718	0.095132	5.866501	0.127898	0.001592	0.097771	1.000000	0.000005	0.000031	0.000056	-0.444077	-0.386760	0.213273	-0.779569	1.031413	-52.413241	120.156813	-0.306426	0.527406	0.792431	-0.857348	-0.514621	0.010980	0.413592	-0.676024	0.609863
47117														7.661229	0.102043	5.868461	0.127688	0.001709	0.097807	1.000000	0.000033	0.000007	0.000091	-0.444028	-0.386715	0.213261	-0.779622	1.023583	-52.407597	120.169533	-0.306582	0.527405	0.792371	-0.857291	-0.514718	0.010898	0.413595	-0.675951	0.609943
47118														7.636008	0.109823	5.900446	0.127268	0.001838	0.098339	1.000000	-0.000005	0.000017	0.000054	-0.444021	-0.386652	0.213259	-0.779657	1.016613	-52.400610	120.176022	-0.306690	0.527454	0.792296	-0.857283	-0.514731	0.010825	0.413529	-0.675902	0.610041
47119														7.639693	0.082331	5.924296	0.127328	0.001379	0.098739	1.000000	-0.000018	-0.000006	0.000042	-0.443992	-0.386615	0.213258	-0.779693	1.010093	-52.396351	120.184715	-0.306800	0.527459	0.792251	-0.857253	-0.514784	0.010757	0.413512	-0.675859	0.610101
47120														7.628247	0.099876	5.883254	0.127138	0.001668	0.098054	1.000000	-0.000004	0.000004	0.000026	-0.443985	-0.386576	0.213241	-0.779721	1.007506	-52.391022	120.188705	-0.306874	0.527501	0.792194	-0.857236	-0.514812	0.010731	0.413491	-0.675804	0.610175
47121														7.648030	0.100167	5.899140	0.127470	0.001671	0.098315	1.000000	-0.000001	0.000033	0.000012	-0.444018	-0.386511	0.213216	-0.779741	1.007199	-52.382219	120.186449	-0.306914	0.527618	0.792100	-0.857259	-0.514773	0.010729	0.413413	-0.675742	0.610297
47122														7.672424	0.087753	5.882131	0.127878	0.001465	0.098030	1.000000	-0.000005	0.000040	0.000013	-0.444019	-0.386449	0.213174	-0.779783	1.006276	-52.372707	120.189527	-0.307009	0.527715	0.791999	-0.857239	-0.514807	0.010722	0.413385	-0.675641	0.610428
47123														7.651174	0.076759	5.909791	0.127523	0.001277	0.098492	1.000000	0.000016	0.000035	-0.000003	-0.444018	-0.386404	0.213109	-0.779823	1.010204	-52.363666	120.190387	-0.307079	0.527819	0.791903	-0.857204	-0.514865	0.010766	0.413405	-0.675516	0.610553
47124														7.646370	0.096417	5.915173	0.127445	0.001610	0.098579	1.000000	-0.000012	0.000053	0.000014	-0.444024	-0.386328	0.213068	-0.779869	1.008341	-52.352665	120.193619	-0.307186	0.527933	0.791785	-0.857189	-0.514889	0.010749	0.413356	-0.675408	0.610705
47125														7.621325	0.111713	5.919147	0.127025	0.001865	0.098648	1.000000	-0.000001	0.000032	0.000021	-0.444002	-0.386277	0.213023	-0.779919	1.006707	-52.344134	120.200183	-0.307305	0.528000	0.791694	-0.857143	-0.514967	0.010733	0.413364	-0.675297	0.610823
47126														7.645277	0.092335	5.930471	0.127423	0.001541	0.098838	1.000000	-0.000004	0.000023	0.000011	-0.444012	-0.386225	0.212994	-0.779947	1.006151	-52.336512	120.201130	-0.307367	0.528085	0.791613	-0.857139	-0.514973	0.010729	0.413326	-0.675225	0.610928
47127														7.628523	0.119744	5.937097	0.127143	0.001996	0.098950	1.000000	-0.000014	0.000011	-0.000009	-0.444018	-0.386189	0.212959	-0.779971	1.007524	-52.330315	120.201497	-0.307413	0.528157	0.791547	-0.857127	-0.514994	0.010746	0.413317	-0.675153	0.611014
47128														7.624946	0.091525	5.915300	0.127084	0.001526	0.098587	1.000000	-0.000007	0.000013	0.000001	-0.444019	-0.386150	0.212924	-0.779999	1.008254	-52.323840	120.202884	-0.307471	0.528227	0.791478	-0.857109	-0.515022	0.010755	0.413310	-0.675076	0.611103
47129														7.612454	0.099253	5.917245	0.126877	0.001655	0.098618	1.000000	-0.000004	0.000024	0.000002	-0.444040	-0.386098	0.212892	-0.780021	1.009033	-52.316092	120.201523	-0.307513	0.528327	0.791395	-0.857117	-0.515010	0.010765	0.413264	-0.675008	0.611210
47130														7.617067	0.086262	5.884369	0.126953	0.001440	0.098071	1.000000	-0.000001	0.000015	0.000019	-0.444057	-0.386049	0.212874	-0.780041	1.007927	-52.309427	120.201536	-0.307559	0.528407	0.791324	-0.857125	-0.514996	0.010755	0.413212	-0.674956	0.611302
47131														7.649087	0.078825	5.898639	0.127487	0.001315	0.098307	1.000000	0.000002	0.000026	0.000012	-0.444092	-0.385990	0.212850	-0.780057	1.008162	-52.301394	120.198720	-0.307589	0.528518	0.791238	-0.857150	-0.514955	0.010759	0.413139	-0.674900	0.611413
47132														7.624299	0.094169	5.902276	0.127073	0.001573	0.098369	1.000000	0.000023	0.000016	0.000047	-0.444067	-0.385947	0.212818	-0.780101	1.005550	-52.294698	120.205633	-0.307699	0.528560	0.791167	-0.857107	-0.515027	0.010733	0.413145	-0.674812	0.611506
47133														7.652406	0.110003	5.906907	0.127541	0.001832	0.098447	1.000000	0.000020	0.000011	0.000003	-0.444087	-0.385914	0.212778	-0.780117	1.009333	-52.288510	120.202592	-0.307714	0.528651	0.791101	-0.857108	-0.515025	0.010775	0.413133	-0.674743	0.611591
47134														7.656690	0.090312	5.902196	0.127610	0.001506	0.098371	1.000000	-0.000003	-0.000011	0.000007	-0.444059	-0.385900	0.212746	-0.780149	1.009526	-52.284852	120.207558	-0.307785	0.528668	0.791062	-0.857062	-0.515101	0.010778	0.413174	-0.674672	0.611641
47135														7.640117	0.117885	5.908586	0.127337	0.001963	0.098475	1.000000	0.000010	0.000015	-0.000006	-0.444073	-0.385866	0.212700	-0.780170	1.013361	-52.278182	120.205624	-0.307814	0.528758	0.790991	-0.857052	-0.515116	0.010821	0.413173	-0.674590	0.611733
47136														7.631888	0.106214	5.905841	0.127201	0.001768	0.098428	1.000000	0.000013	0.000025	-0.000005	-0.444084	-0.385826	0.212647	-0.780199	1.017290	-52.270338	120.204379	-0.307857	0.528858	0.790907	-0.857036	-0.515142	0.010864	0.413175	-0.674491	0.611840
47137														7.643376	0.091474	5.932933	0.127391	0.001527	0.098881	1.000000	-0.000007	0.000012	0.000010	-0.444110	-0.385776	0.212631	-0.780212	1.016682	-52.263871	120.202735	-0.307886	0.528944	0.790838	-0.857056	-0.515109	0.010859	0.413112	-0.674448	0.611929
47138														7.639627	0.117638	5.909224	0.127326	0.001966	0.098488	1.000000	-0.000041	-0.000006	0.000014	-0.444093	-0.385740	0.212628	-0.780240	1.011642	-52.259713	120.208830	-0.307972	0.528961	0.790793	-0.857038	-0.515141	0.010807	0.413086	-0.674411	0.611988
47139														7.623597	0.093431	5.903195	0.127061	0.001558	0.098385	1.000000	-0.000024	0.000014	-0.000009	-0.444117	-0.385692	0.212607	-0.780256	1.011759	-52.253057	120.207228	-0.308003	0.529049	0.790722	-0.857052	-0.515117	0.010810	0.413033	-0.674361	0.612080
47140														7.667163	0.126446	5.942334	0.127787	0.002103	0.099038	1.000000	0.000000	0.000004	-0.000034	-0.444147	-0.385669	0.212560	-0.780263	1.018426	-52.247455	120.201103	-0.307985	0.529148	0.790662	-0.857059	-0.515103	0.010882	0.413031	-0.674293	0.612156
47141														7.653167	0.068644	5.852606	0.127552	0.001148	0.097544	1.000000	-0.000024	-0.000006	0.000015	-0.444151	-0.385632	0.212557	-0.780281	1.015195	-52.243188	120.203472	-0.308037	0.529187	0.790617	-0.857062	-0.515100	0.010849	0.412987	-0.674266	0.612215
47142														7.635136	0.082259	5.916349	0.127259	0.001368	0.098598	1.000000	0.000042	0.000065	0.000011	-0.444150	-0.385568	0.212471	-0.780336	1.019968	-52.230682	120.204767	-0.308136	0.529329	0.790483	-0.857017	-0.515173	0.010903	0.413007	-0.674098	0.612387
47143														7.674589	0.145248	5.918385	0.127917	0.002422	0.098631	1.000000	-0.000019	0.000068	-0.000002	-0.444199	-0.385473	0.212434	-0.780365	1.019510	-52.217737	120.201658	-0.308197	0.529500	0.790345	-0.857049	-0.515119	0.010901	0.412894	-0.674005	0.612565
47144														7.645393	0.126445	5.929004	0.127427	0.002096	0.098812	1.000000	0.000027	0.000040	-0.000072	-0.444280	-0.385435	0.212346	-0.780361	1.034996	-52.207960	120.184842	-0.308109	0.529707	0.790240	-0.857090	-0.515048	0.011069	0.412875	-0.673896	0.612697
47145														7.632395	0.132059	5.945424	0.127210	0.002192	0.099087	1.000000	0.000031	0.000031	-0.000047	-0.444304	-0.385411	0.212254	-0.780385	1.046940	-52.199372	120.177991	-0.308105	0.529846	0.790148	-0.857066	-0.515085	0.011199	0.412927	-0.673759	0.612813
47146														7.652494	0.140190	5.933158	0.127546	0.002335	0.098880	1.000000	0.000019	0.000045	0.000007	-0.444358	-0.385340	0.212216	-0.780399	1.049753	-52.189132	120.171613	-0.308117	0.530002	0.790039	-0.857104	-0.515020	0.011232	0.412839	-0.673685	0.612954
47147														7.647962	0.101242	5.954205	0.127466	0.001696	0.099237	1.000000	-0.000004	-0.000001	0.000061	-0.444332	-0.385294	0.212219	-0.780436	1.041982	-52.184275	120.180721	-0.308235	0.530011	0.789987	-0.857079	-0.515065	0.011150	0.412804	-0.673644	0.613022
47148														7.587640	0.091594	5.935557	0.126458	0.001533	0.098930	1.000000	-0.000030	-0.000029	0.000029	-0.444314	-0.385272	0.212233	-0.780454	1.036040	-52.182686	120.186754	-0.308302	0.529998	0.789970	-0.857068	-0.515085	0.011086	0.412777	-0.673640	0.613046
47149														7.567795	0.086579	5.933638	0.126126	0.001452	0.098899	1.000000	-0.000034	-0.000041	0.000045	-0.444328	-0.385241	0.212283	-0.780447	1.027439	-52.182404	120.189001	-0.308325	0.529989	0.789967	-0.857109	-0.515017	0.010995	0.412673	-0.673698	0.613051
47150														7.629893	0.104763	5.908444	0.127157	0.001753	0.098484	1.000000	-0.000012	-0.000081	0.000042	-0.444290	-0.385261	0.212315	-0.780450	1.021746	-52.186767	120.196159	-0.308361	0.529899	0.790013	-0.857086	-0.515058	0.010933	0.412696	-0.673738	0.612992
47151														7.614384	0.077053	5.915600	0.126902	0.001286	0.098599	1.000000	0.000015	-0.000047	0.000022	-0.444262	-0.385274	0.212301	-0.780464	1.022237	-52.187280	120.199867	-0.308391	0.529872	0.790019	-0.857049	-0.515119	0.010938	0.412750	-0.673712	0.612985
47152														7.602146	0.081367	5.931079	0.126702	0.001356	0.098852	1.000000	0.000004	-0.000007	-0.000000	-0.444280	-0.385249	0.212277	-0.780472	1.024579	-52.183068	120.197321	-0.308397	0.529936	0.789974	-0.857055	-0.515108	0.010964	0.412732	-0.673670	0.613042
47153														7.614723	0.076966	5.915164	0.126912	0.001284	0.098586	1.000000	-0.000010	0.000003	-0.000000	-0.444267	-0.385221	0.212243	-0.780503	1.025012	-52.177723	120.200458	-0.308463	0.529983	0.789917	-0.857024	-0.515159	0.010970	0.412747	-0.673594	0.613116
47154														7.622331	0.088818	5.918711	0.127045	0.001480	0.098637	1.000000	0.000001	0.000062	-0.000002	-0.444272	-0.385149	0.212176	-0.780553	1.026892	-52.165636	120.202320	-0.308564	0.530117	0.789787	-0.856995	-0.515207	0.010993	0.412731	-0.673452	0.613282
47155														7.633112	0.128889	5.944573	0.127223	0.002148	0.099070	1.000000	-0.000015	0.000046	-0.000013	-0.444366	-0.385066	0.212161	-0.780546	1.028960	-52.155284	120.190544	-0.308527	0.530304	0.789676	-0.857087	-0.515054	0.011018	0.412568	-0.673422	0.613425
47156														7.616532	0.101360	5.953102	0.126943	0.001694	0.099218	1.000000	-0.000055	0.000006	-0.000003	-0.444390	-0.385012	0.212166	-0.780556	1.024944	-52.149718	120.190540	-0.308566	0.530370	0.789617	-0.857117	-0.515005	0.010976	0.412478	-0.673407	0.613502
47157														7.616360	0.100548	5.953336	0.126942	0.001684	0.099219	1.000000	-0.000066	0.000024	0.000015	-0.444393	-0.384940	0.212173	-0.780589	1.016726	-52.142114	120.196434	-0.308673	0.530429	0.789535	-0.857124	-0.514996	0.010890	0.412384	-0.673368	0.613608
47158														7.608244	0.090992	5.936595	0.126809	0.001527	0.098937	1.000000	-0.000071	0.000046	0.000026	-0.444445	-0.384832	0.212200	-0.780605	1.006567	-52.131884	120.196799	-0.308747	0.530549	0.789426	-0.857194	-0.514880	0.010783	0.412181	-0.673362	0.613751
47159														7.663991	0.118633	5.960371	0.127737	0.001980	0.099335	1.000000	-0.000052	0.000035	-0.000017	-0.444523	-0.384748	0.212203	-0.780601	1.004771	-52.122791	120.188854	-0.308737	0.530700	0.789328	-0.857280	-0.514739	0.010766	0.412012	-0.673351	0.613877
47160														7.631518	0.128859	5.932839	0.127197	0.002152	0.098874	1.000000	-0.000070	0.000051	-0.000017	-0.444630	-0.384639	0.212222	-0.780589	1.000866	-52.111759	120.178184	-0.308714	0.530889	0.789210	-0.857405	-0.514531	0.010727	0.411768	-0.673361	0.614030
47161														7.630629	0.127848	5.934003	0.127187	0.002143	0.098887	1.000000	-0.000106	0.000098	0.000012	-0.444694	-0.384483	0.212238	-0.780625	0.988402	-52.095535	120.179726	-0.308841	0.531074	0.789036	-0.857482	-0.514405	0.010597	0.411512	-0.673311	0.614255
47162														7.641540	0.118449	5.934135	0.127372	0.001988	0.098885	1.000000	-0.000125	0.000132	0.000014	-0.444757	-0.384296	0.212249	-0.780678	0.973405	-52.075516	120.183591	-0.309015	0.531291	0.788822	-0.857557	-0.514284	0.010441	0.411225	-0.673233	0.614534
47163														7.604198	0.096013	5.900330	0.126752	0.001612	0.098319	1.000000	-0.000118	0.000154	0.000000	-0.444853	-0.384093	0.212247	-0.780723	0.961331	-52.052881	120.181908	-0.309156	0.531570	0.788579	-0.857660	-0.514113	0.010317	0.410903	-0.673143	0.614847
47164														7.577610	0.103532	5.933948	0.126302	0.001733	0.098888	1.000000	-0.000099	0.000088	-0.000015	-0.444971	-0.383943	0.212270	-0.780724	0.953735	-52.037667	120.172744	-0.309176	0.531800	0.788415	-0.857798	-0.513884	0.010239	0.410599	-0.673136	0.615058
47165														7.634616	0.086801	5.916701	0.127241	0.001452	0.098615	1.000000	-0.000041	-0.000023	0.000012	-0.444983	-0.383912	0.212288	-0.780727	0.949187	-52.035391	120.173872	-0.309203	0.531821	0.788391	-0.857821	-0.513847	0.010191	0.410532	-0.673147	0.615090
47166														7.651717	0.062439	5.895787	0.127527	0.001040	0.098265	1.000000	0.000001	-0.000017	-0.000002	-0.444988	-0.383897	0.212265	-0.780738	0.951139	-52.032265	120.173136	-0.309217	0.531862	0.788357	-0.857814	-0.513859	0.010212	0.410536	-0.673106	0.615133
47167														7.614762	0.082653	5.914747	0.126912	0.001374	0.098581	1.000000	0.000025	-0.000012	-0.000008	-0.445016	-0.383884	0.212230	-0.780738	0.956974	-52.028578	120.167241	-0.309188	0.531938	0.788318	-0.857825	-0.513839	0.010276	0.410534	-0.673062	0.615183
47168														7.647778	0.082996	5.900060	0.127461	0.001376	0.098337	1.000000	0.000063	-0.000018	-0.000006	-0.445039	-0.383890	0.212175	-0.780737	0.967103	-52.025655	120.159708	-0.309138	0.532013	0.788286	-0.857821	-0.513844	0.010385	0.410582	-0.672998	0.615221
47169														7.667824	0.084609	5.915587	0.127797	0.001400	0.098593	1.000000	0.000103	0.000003	-0.000001	-0.445036	-0.383897	0.212077	-0.780762	0.980723	-52.020199	120.154938	-0.309132	0.532104	0.788228	-0.857766	-0.513932	0.010533	0.410700	-0.672859	0.615293
47170														7.675929	0.101313	5.904658	0.127935	0.001676	0.098408	1.000000	0.000116	0.000028	-0.000005	-0.444943	-0.383918	0.211910	-0.780850	0.996346	-52.012101	120.163352	-0.309266	0.532155	0.788141	-0.857579	-0.514240	0.010703	0.410989	-0.672583	0.615402
47171														7.670778	0.115587	5.938141	0.127848	0.001913	0.098967	1.000000	0.000123	0.000015	-0.000006	-0.444949	-0.383925	0.211792	-0.780875	1.013400	-52.005401	120.156036	-0.309244	0.532274	0.788069	-0.857523	-0.514330	0.010887	0.411122	-0.672421	0.615491
47172														7.629509	0.105177	5.950060	0.127164	0.001746	0.099160	1.000000	0.000098	0.000059	0.000023	-0.444923	-0.383887	0.211674	-0.780941	1.022819	-51.993705	120.158490	-0.309348	0.532400	0.787943	-0.857435	-0.514475	0.010991	0.411229	-0.672210	0.615650
47173														7.616907	0.117273	5.938271	0.126953	0.001948	0.098965	1.000000	0.000094	0.000049	0.000021	-0.444922	-0.383850	0.211572	-0.780987	1.032218	-51.983155	120.157180	-0.309409	0.532532	0.787830	-0.857380	-0.514564	0.011095	0.411297	-0.672037	0.615793
47174														7.608362	0.106120	5.935904	0.126811	0.001763	0.098926	1.000000	0.000071	0.000046	0.000011	-0.444911	-0.383813	0.211475	-0.781038	1.040332	-51.972920	120.157631	-0.309484	0.532652	0.787720	-0.857319	-0.514664	0.011185	0.411369	-0.671865	0.615932
47175														7.595259	0.111130	5.952424	0.126592	0.001847	0.099202	1.000000	0.000064	0.000042	0.000010	-0.444876	-0.383782	0.211372	-0.781101	1.047604	-51.963071	120.162028	-0.309592	0.532745	0.787614	-0.857228	-0.514813	0.011265	0.411476	-0.671677	0.616066
47176														7.594425	0.108410	5.967308	0.126578	0.001800	0.099449	1.000000	0.000088	0.000046	0.000012	-0.444863	-0.383752	0.211263	-0.781153	1.057626	-51.952852	120.162072	-0.309663	0.532866	0.787504	-0.857157	-0.514930	0.011376	0.411571	-0.671492	0.616205
47177														7.614105	0.113129	5.969470	0.126907	0.001882	0.099485	1.000000	0.000050	0.000052	0.000010	-0.444860	-0.383701	0.211179	-0.781202	1.063333	-51.941839	120.162815	-0.309746	0.532993	0.787385	-0.857110	-0.515006	0.011440	0.411606	-0.671333	0.616355
47178														7.572674	0.101898	5.981582	0.126216	0.001696	0.099687	1.000000	0.000043	0.000047	0.000017	-0.444854	-0.383649	0.211104	-0.781251	1.067280	-51.931432	120.164801	-0.309837	0.533106	0.787273	-0.857065	-0.515080	0.011485	0.411632	-0.671186	0.616497
47179														7.572737	0.109241	5.953830	0.126217	0.001816	0.099225	1.000000	0.000077	0.000048	0.000020	-0.444792	-0.383623	0.210984	-0.781332	1.074657	-51.921018	120.173225	-0.309987	0.533184	0.787161	-0.856937	-0.515291	0.011567	0.411784	-0.670962	0.616639
47180														7.559520	0.113895	5.970479	0.125998	0.001899	0.099501	1.000000	0.000052	0.000058	0.000046	-0.444744	-0.383566	0.210900	-0.781410	1.075495	-51.909475	120.183254	-0.310160	0.533267	0.787037	-0.856842	-0.515448	0.011579	0.411852	-0.670775	0.616797
47181														7.558470	0.110423	5.985637	0.125981	0.001840	0.099752	1.000000	0.000049	0.000066	0.000037	-0.444710	-0.383501	0.210814	-0.781484	1.076993	-51.896967	120.191119	-0.310320	0.533373	0.786902	-0.856762	-0.515581	0.011599	0.411899	-0.670589	0.616969
47182														7.574407	0.086146	5.966289	0.126249	0.001439	0.099427	1.000000	0.000017	0.000092	0.000038	-0.444704	-0.383400	0.210745	-0.781556	1.074929	-51.881510	120.197513	-0.310486	0.533521	0.786736	-0.856721	-0.515650	0.011580	0.411859	-0.670418	0.617181
47183														7.568775	0.105567	5.972689	0.126160	0.001761	0.099528	1.000000	0.000013	0.000135	0.000025	-0.444704	-0.383269	0.210651	-0.781646	1.073849	-51.861055	120.203919	-0.310687	0.533729	0.786515	-0.856673	-0.515730	0.011574	0.411807	-0.670191	0.617462
47184														7.595696	0.121526	5.978894	0.126604	0.002023	0.099637	1.000000	0.000038	0.000089	0.000013	-0.444680	-0.383194	0.210544	-0.781725	1.077885	-51.846014	120.209821	-0.310846	0.533876	0.786353	-0.856593	-0.515863	0.011621	0.411855	-0.669972	0.617668
47185														7.571890	0.096170	5.928047	0.126203	0.001606	0.098795	1.000000	0.000039	0.000050	0.000052	-0.444659	-0.383128	0.210490	-0.781783	1.076291	-51.835361	120.216608	-0.310983	0.533965	0.786238	-0.856544	-0.515944	0.011607	0.411852	-0.669838	0.617814
47186														7.623038	0.089729	5.959069	0.127062	0.001490	0.099303	1.000000	0.000133	0.000118	0.000058	-0.444588	-0.383055	0.210324	-0.781904	1.084207	-51.816958	120.228517	-0.311221	0.534119	0.786040	-0.856382	-0.516211	0.011697	0.412010	-0.669510	0.618065
47187														7.596377	0.153470	5.990472	0.126615	0.002561	0.099830	1.000000	0.000068	0.000089	0.000076	-0.444517	-0.382975	0.210225	-0.782011	1.082334	-51.801930	120.244192	-0.311471	0.534212	0.785878	-0.856255	-0.516421	0.011681	0.412083	-0.669274	0.618272
47188														7.542105	0.096120	6.006919	0.125716	0.001580	0.100098	1.000000	0.000066	0.000137	-0.000119	-0.444625	-0.382893	0.210039	-0.782039	1.108598	-51.781018	120.221470	-0.311403	0.534583	0.785652	-0.856273	-0.516384	0.011970	0.412097	-0.669006	0.618553
47189														7.568236	0.174569	5.998070	0.126161	0.002860	0.099940	1.000000	0.000210	0.000226	-0.000229	-0.444756	-0.382835	0.209647	-0.782098	1.166820	-51.749560	120.182777	-0.311259	0.535166	0.785312	-0.856207	-0.516479	0.012607	0.412344	-0.668466	0.618972
47190														7.672183	0.181980	5.988973	0.127880	0.003026	0.099804	1.000000	0.000052	0.000099	-0.000011	-0.444776	-0.382753	0.209530	-0.782158	1.175785	-51.733160	120.180215	-0.311348	0.535374	0.785135	-0.856167	-0.516543	0.012708	0.412359	-0.668250	0.619194
47191														7.610498	0.116082	5.987878	0.126851	0.001923	0.099786	1.000000	0.000090	0.000094	-0.000017	-0.444782	-0.382695	0.209381	-0.782223	1.189997	-51.717299	120.177039	-0.311427	0.535579	0.784963	-0.856095	-0.516658	0.012867	0.412449	-0.667997	0.619408
47192														7.560845	0.151416	5.981094	0.126020	0.002525	0.099678	1.000000	0.000029	0.000055	0.000035	-0.444797	-0.382620	0.209333	-0.782264	1.189827	-51.705981	120.178178	-0.311516	0.535707	0.784841	-0.856088	-0.516671	0.012868	0.412398	-0.667884	0.619563
47193														7.519139	0.136106	6.007218	0.125322	0.002272	0.100117	1.000000	0.000009	0.000027	0.000039	-0.444761	-0.382571	0.209293	-0.782319	1.186866	-51.698084	120.187085	-0.311654	0.535752	0.784756	-0.856029	-0.516768	0.012838	0.412414	-0.667773	0.619672
47194														7.556962	0.122660	5.959859	0.125948	0.002044	0.099333	1.000000	0.000048	-0.000013	0.000037	-0.444698	-0.382572	0.209236	-0.782370	1.188576	-51.694694	120.196507	-0.311765	0.535741	0.784719	-0.855932	-0.516928	0.012858	0.412531	-0.667658	0.619718
47195														7.577110	0.126388	5.961491	0.126288	0.002112	0.099354	1.000000	0.000029	0.000034	0.000067	-0.444685	-0.382505	0.209211	-0.782417	1.183691	-51.685826	120.203424	-0.311891	0.535809	0.784623	-0.855906	-0.516972	0.012807	0.412491	-0.667569	0.619841
47196														7.560158	0.098448	5.970414	0.126010	0.001647	0.099498	1.000000	0.000000	0.000073	0.000052	-0.444666	-0.382410	0.209168	-0.782486	1.177722	-51.672626	120.212933	-0.312071	0.535913	0.784480	-0.855865	-0.517042	0.012746	0.412440	-0.667431	0.620023
47197														7.566368	0.103147	6.003294	0.126117	0.001718	0.100042	1.000000	0.000038	0.000105	0.000023	-0.444696	-0.382302	0.209087	-0.782542	1.180177	-51.655629	120.212116	-0.312180	0.536118	0.784296	-0.855856	-0.517056	0.012778	0.412375	-0.667256	0.620255
47198														7.560719	0.122673	6.009648	0.126024	0.002049	0.100145	1.000000	0.000009	0.000123	0.000041	-0.444728	-0.382165	0.209027	-0.782608	1.176825	-51.636642	120.214592	-0.312334	0.536330	0.784091	-0.855860	-0.517050	0.012747	0.412250	-0.667091	0.620516
47199														7.554071	0.131568	6.058592	0.125910	0.002198	0.100965	1.000000	-0.000007	0.000088	0.000036	-0.444748	-0.382052	0.208986	-0.782663	1.172384	-51.621576	120.218183	-0.312472	0.536488	0.783927	-0.855862	-0.517049	0.012703	0.412144	-0.666964	0.620723
47200														7.579165	0.128885	5.999681	0.126326	0.002155	0.099986	1.000000	-0.000013	0.000067	0.000041	-0.444739	-0.381959	0.208951	-0.782722	1.166538	-51.609102	120.225860	-0.312629	0.536594	0.783792	-0.855836	-0.517093	0.012643	0.412078	-0.666845	0.620895
47201														7.566276	0.081047	6.004214	0.126112	0.001359	0.100061	1.000000	-0.000034	0.000073	0.000040	-0.444734	-0.381852	0.208926	-0.782784	1.158309	-51.595865	120.234441	-0.312801	0.536703	0.783649	-0.855819	-0.517123	0.012558	0.411982	-0.666733	0.621077
47202														7.565827	0.083531	5.991026	0.126104	0.001399	0.099842	1.000000	0.000004	0.000065	0.000060	-0.444719	-0.381759	0.208893	-0.782847	1.151616	-51.583523	120.243429	-0.312970	0.536800	0.783515	-0.855787	-0.517177	0.012488	0.411920	-0.666614	0.621248
47203														7.568434	0.111434	6.013882	0.126146	0.001855	0.100224	1.000000	0.000022	0.000056	-0.000001	-0.444761	-0.381688	0.208836	-0.782873	1.155750	-51.572015	120.238566	-0.313004	0.536963	0.783390	-0.855803	-0.517150	0.012536	0.411862	-0.666503	0.621404
47204														7.577001	0.133342	5.974942	0.126287	0.002229	0.099578	1.000000	0.000018	0.000037	0.000067	-0.444750	-0.381616	0.208816	-0.782920	1.149883	-51.562835	120.245739	-0.313134	0.537032	0.783290	-0.855781	-0.517187	0.012475	0.411808	-0.666419	0.621531
47205														7.555357	0.121723	6.002714	0.125929	0.002034	0.100036	1.000000	0.000011	0.000070	0.000052	-0.444731	-0.381525	0.208769	-0.782987	1.144981	-51.549926	120.254529	-0.313305	0.537136	0.783150	-0.855738	-0.517259	0.012426	0.411766	-0.666279	0.621708
47206														7.566710	0.113203	6.002324	0.126120	0.001892	0.100028	1.000000	-0.000014	0.000085	0.000035	-0.444736	-0.381419	0.208725	-0.783047	1.140201	-51.535443	120.260256	-0.313459	0.537276	0.782993	-0.855723	-0.517287	0.012378	0.411682	-0.666145	0.621907
47207														7.565476	0.109193	6.017644	0.126097	0.001824	0.100287	1.000000	0.000001	0.000058	0.000033	-0.444757	-0.381332	0.208694	-0.783087	1.137254	-51.523856	120.262057	-0.313556	0.537403	0.782867	-0.855729	-0.517277	0.012349	0.411596	-0.666050	0.622066
47208														7.552480	0.116631	6.020118	0.125881	0.001947	0.100327	1.000000	-0.000009	0.000063	0.000015	-0.444833	-0.381230	0.208678	-0.783097	1.135773	-51.511562	120.255165	-0.313576	0.537586	0.782734	-0.855803	-0.517155	0.012336	0.411426	-0.665998	0.622234
47209														7.543991	0.108149	6.003916	0.125742	0.001800	0.100055	1.000000	-0.000033	0.000083	-0.000046	-0.444898	-0.381133	0.208616	-0.783124	1.139942	-51.496891	120.247792	-0.313607	0.537799	0.782574	-0.855841	-0.517090	0.012385	0.411322	-0.665875	0.622434
47210														7.571631	0.127757	5.995537	0.126202	0.002127	0.099915	1.000000	-0.000016	0.000082	-0.000027	-0.444960	-0.381037	0.208557	-0.783150	1.143683	-51.482543	120.240917	-0.313641	0.538006	0.782418	-0.855878	-0.517028	0.012430	0.411220	-0.665756	0.622629
47211														7.574589	0.104804	6.006319	0.126251	0.001745	0.100096	1.000000	0.000005	0.000073	-0.000009	-0.444956	-0.380963	0.208473	-0.783211	1.146662	-51.469075	120.243956	-0.313763	0.538148	0.782272	-0.855831	-0.517106	0.012466	0.411226	-0.665581	0.622812
47212														7.557123	0.132700	6.013635	0.125960	0.002208	0.100218	1.000000	0.000029	0.000077	-0.000007	-0.444962	-0.380891	0.208379	-0.783268	1.152284	-51.455217	120.244252	-0.313861	0.538310	0.782121	-0.855789	-0.517173	0.012531	0.411238	-0.665398	0.623000
47213														7.568429	0.125300	6.013294	0.126149	0.002085	0.100211	1.000000	0.000042	0.000083	0.000004	-0.444930	-0.380824	0.208265	-0.783349	1.157549	-51.440600	120.250569	-0.314021	0.538448	0.781962	-0.855696	-0.517326	0.012592	0.411309	-0.665168	0.623198
47214														7.559495	0.113919	6.011395	0.125999	0.001894	0.100181	1.000000	0.000039	0.000074	-0.000006	-0.444938	-0.380757	0.208167	-0.783403	1.164253	-51.427058	120.250020	-0.314109	0.538610	0.781815	-0.855654	-0.517393	0.012669	0.411329	-0.664984	0.623382
47215														7.553059	0.123960	6.059908	0.125893	0.002061	0.100988	1.000000	0.000018	0.000083	-0.000024	-0.445024	-0.380664	0.208100	-0.783417	1.171419	-51.412458	120.238127	-0.314097	0.538848	0.781656	-0.855712	-0.517295	0.012751	0.411218	-0.664867	0.623579
47216														7.544746	0.119496	6.029752	0.125756	0.001987	0.100483	1.000000	0.000008	0.000104	-0.000032	-0.445097	-0.380558	0.208016	-0.783450	1.178225	-51.395465	120.229070	-0.314129	0.539098	0.781471	-0.855747	-0.517236	0.012830	0.411121	-0.664711	0.623810
47217														7.551412	0.131704	6.034479	0.125868	0.002194	0.100560	1.000000	-0.000000	0.000114	-0.000005	-0.445133	-0.380441	0.207935	-0.783508	1.180250	-51.377402	120.227958	-0.314242	0.539317	0.781274	-0.855744	-0.517239	0.012857	0.411040	-0.664531	0.624055
47218														7.562191	0.123598	6.034824	0.126050	0.002065	0.100563	1.000000	-0.000022	0.000134	0.000022	-0.445156	-0.380295	0.207869	-0.783583	1.175947	-51.357127	120.232443	-0.314424	0.539531	0.781053	-0.855737	-0.517252	0.012816	0.410916	-0.664347	0.624333
47219														7.540157	0.118859	6.035503	0.125685	0.001988	0.100571	1.000000	-0.000036	0.000161	0.000024	-0.445241	-0.380107	0.207827	-0.783637	1.169839	-51.333713	120.229740	-0.314559	0.539821	0.780798	-0.855808	-0.517137	0.012756	0.410665	-0.664201	0.624653
47220														7.509490	0.099200	6.047594	0.125176	0.001652	0.100772	1.000000	-0.000029	0.000172	-0.000036	-0.445299	-0.379944	0.207720	-0.783712	1.172562	-51.308928	120.227020	-0.314703	0.540128	0.780528	-0.855816	-0.517123	0.012792	0.410538	-0.663962	0.624990
47221														7.523465	0.123016	6.056249	0.125407	0.002051	0.100918	1.000000	-0.000022	0.000155	-0.000011	-0.445377	-0.379781	0.207644	-0.783766	1.173012	-51.286153	120.221812	-0.314810	0.540425	0.780279	-0.855862	-0.517046	0.012804	0.410360	-0.663781	0.625300
47222														7.514245	0.118000	6.027282	0.125257	0.001965	0.100431	1.000000	-0.000006	0.000191	-0.000014	-0.445459	-0.379597	0.207539	-0.783837	1.175339	-51.259149	120.216492	-0.314945	0.540772	0.779984	-0.855896	-0.516988	0.012836	0.410184	-0.663543	0.625667
47223														7.596439	0.053432	6.062449	0.126629	0.000882	0.101014	1.000000	0.000035	0.000216	-0.000043	-0.445556	-0.379417	0.207381	-0.783910	1.186562	-51.229233	120.205356	-0.315045	0.541185	0.779658	-0.855920	-0.516946	0.012967	0.410059	-0.663239	0.626072
47224														7.591879	0.117836	6.038607	0.126597	0.001927	0.100562	1.000000	0.000121	0.000646	-0.000199	-0.445810	-0.378976	0.206894	-0.784108	1.228392	-51.149720	120.170772	-0.315262	0.542310	0.778788	-0.855942	-0.516897	0.013448	0.409846	-0.662357	0.627143
47225														7.353478	0.149769	6.118543	0.122560	0.002486	0.101973	1.000000	0.000028	0.000021	-0.000057	-0.445900	-0.378944	0.206832	-0.784089	1.241456	-51.142111	120.153390	-0.315149	0.542495	0.778704	-0.856006	-0.516787	0.013593	0.409799	-0.662292	0.627244
47226														7.442725	0.134290	6.088915	0.124065	0.002233	0.101458	1.000000	0.000005	0.000191	-0.000040	-0.446007	-0.378769	0.206713	-0.784144	1.248831	-51.115134	120.141858	-0.315224	0.542875	0.778409	-0.856061	-0.516694	0.013682	0.409627	-0.662052	0.627608
47227														7.501558	0.143461	6.109806	0.125031	0.002390	0.101824	1.000000	-0.000096	0.000045	-0.000090	-0.446151	-0.378676	0.206713	-0.784107	1.252258	-51.104717	120.122250	-0.315109	0.543105	0.778295	-0.856214	-0.516439	0.013722	0.409394	-0.662063	0.627749
47228														7.531741	0.125021	6.032322	0.125541	0.002088	0.100523	1.000000	-0.000113	0.000120	-0.000057	-0.446264	-0.378516	0.206694	-0.784124	1.248708	-51.085862	120.112728	-0.315147	0.543379	0.778088	-0.856328	-0.516252	0.013689	0.409128	-0.661984	0.628006
47229														7.529149	0.121050	6.049221	0.125509	0.002022	0.100791	1.000000	-0.000079	0.000231	-0.000025	-0.446386	-0.378271	0.206623	-0.784192	1.243971	-51.054269	120.106182	-0.315300	0.543786	0.777742	-0.856424	-0.516093	0.013646	0.408807	-0.661774	0.628436
47230														7.529613	0.149244	6.074529	0.125515	0.002482	0.101216	1.000000	-0.000047	0.000210	-0.000077	-0.446488	-0.378080	0.206495	-0.784260	1.250353	-51.024993	120.096559	-0.315408	0.544183	0.777420	-0.856469	-0.516016	0.013725	0.408631	-0.661507	0.628832
47231														7.516572	0.112965	6.038191	0.125295	0.001881	0.100613	1.000000	-0.000053	0.000187	-0.000054	-0.446599	-0.377891	0.206404	-0.784311	1.252963	-50.998469	120.086615	-0.315494	0.544549	0.777129	-0.856543	-0.515892	0.013762	0.408409	-0.661303	0.629191
47232														7.513247	0.106680	6.069583	0.125241	0.001770	0.101134	1.000000	0.000025	0.000202	-0.000046	-0.446673	-0.377726	0.206246	-0.784391	1.263300	-50.970190	120.079004	-0.315614	0.544923	0.776818	-0.856541	-0.515892	0.013884	0.408320	-0.660995	0.629572
47233														7.493375	0.131899	6.093254	0.124915	0.002188	0.101523	1.000000	0.000004	0.000247	-0.000078	-0.446800	-0.377519	0.206079	-0.784462	1.275635	-50.936761	120.063978	-0.315698	0.545398	0.776451	-0.856593	-0.515803	0.014029	0.408147	-0.660673	0.630022
47234														7.513860	0.166269	6.120372	0.125253	0.002746	0.101979	1.000000	0.000102	0.000217	-0.000117	-0.446922	-0.377386	0.205836	-0.784520	1.304797	-50.906649	120.040778	-0.315681	0.545879	0.776120	-0.856597	-0.515785	0.014359	0.408150	-0.660289	0.630422
47235														7.480364	0.186878	6.066737	0.124699	0.003087	0.101080	1.000000	0.000114	0.000260	-0.000128	-0.447050	-0.377229	0.205557	-0.784596	1.336868	-50.871576	120.016590	-0.315689	0.546423	0.775733	-0.856591	-0.515786	0.014723	0.408157	-0.659839	0.630889
47236														7.540718	0.171625	6.113834	0.125706	0.002846	0.101864	1.000000	0.000071	0.000263	-0.000053	-0.447150	-0.377031	0.205344	-0.784690	1.353295	-50.836243	120.004190	-0.315809	0.546906	0.775344	-0.856590	-0.515781	0.014915	0.408065	-0.659442	0.631363
47237														7.533215	0.134428	6.138128	0.125575	0.002233	0.102276	1.000000	0.000028	0.000211	-0.000036	-0.447211	-0.376857	0.205182	-0.784781	1.362288	-50.806859	119.999390	-0.315962	0.547276	0.775020	-0.856573	-0.515806	0.015024	0.407983	-0.659115	0.631758
47238														7.462548	0.114616	6.118688	0.124397	0.001902	0.101953	1.000000	0.000025	0.000202	-0.000046	-0.447304	-0.376687	0.205032	-0.784849	1.372761	-50.778611	119.988829	-0.316053	0.547666	0.774708	-0.856598	-0.515763	0.015148	0.407862	-0.658826	0.632137
47239														7.399738	0.161792	6.100156	0.123347	0.002684	0.101648	1.000000	0.000034	0.000175	-0.000074	-0.447379	-0.376555	0.204864	-0.784914	1.387962	-50.753363	119.977751	-0.316117	0.548022	0.774430	-0.856592	-0.515766	0.015324	0.407823	-0.658526	0.632474
47240														7.475396	0.151457	6.087835	0.124610	0.002512	0.101440	1.000000	0.000033	0.000192	-0.000073	-0.447522	-0.376392	0.204719	-0.784948	1.403121	-50.726119	119.957280	-0.316105	0.548454	0.774129	-0.856673	-0.515628	0.015501	0.407664	-0.658275	0.632838
47241														7.469525	0.121372	6.082937	0.124511	0.002009	0.101359	1.000000	0.000043	0.000189	-0.000072	-0.447636	-0.376243	0.204556	-0.784997	1.419243	-50.699247	119.940656	-0.316127	0.548860	0.773832	-0.856711	-0.515558	0.015688	0.407566	-0.657991	0.633197
47242														7.453879	0.123914	6.115554	0.124250	0.002052	0.101904	1.000000	0.000023	0.000179	-0.000084	-0.447723	-0.376104	0.204390	-0.785057	1.434536	-50.673506	119.927896	-0.316178	0.549232	0.773547	-0.856721	-0.515537	0.015865	0.407506	-0.657698	0.633540
47243														7.447029	0.145326	6.123072	0.124140	0.002407	0.102024	1.000000	0.000046	0.000218	-0.000086	-0.447819	-0.375944	0.204192	-0.785130	1.452646	-50.643271	119.913870	-0.316247	0.549663	0.773213	-0.856722	-0.515527	0.016076	0.407449	-0.657345	0.633943
47244														7.463440	0.144040	6.156577	0.124414	0.002392	0.102582	1.000000	0.000031	0.000223	-0.000043	-0.447946	-0.375750	0.204045	-0.785189	1.463227	-50.612521	119.899008	-0.316312	0.550105	0.772872	-0.856785	-0.515419	0.016204	0.407267	-0.657060	0.634355
47245														7.455965	0.161407	6.178391	0.124285	0.002681	0.102951	1.000000	0.000019	0.000183	-0.000057	-0.448017	-0.375602	0.203892	-0.785259	1.474395	-50.586470	119.890742	-0.316407	0.550455	0.772584	-0.856784	-0.515417	0.016336	0.407195	-0.656768	0.634703
47246														7.476229	0.180135	6.125865	0.124621	0.002995	0.102077	1.000000	0.000016	0.000170	-0.000042	-0.448097	-0.375453	0.203762	-0.785319	1.483129	-50.561862	119.882003	-0.316489	0.550791	0.772311	-0.856804	-0.515380	0.016442	0.407090	-0.656515	0.635032
47247														7.464647	0.104049	6.170177	0.124432	0.001727	0.102810	1.000000	0.000004	0.000210	-0.000056	-0.448182	-0.375275	0.203611	-0.785395	1.492162	-50.532676	119.873644	-0.316604	0.551178	0.771987	-0.856819	-0.515352	0.016552	0.406968	-0.656213	0.635423
47248														7.450363	0.116649	6.160361	0.124193	0.001929	0.102648	1.000000	0.000081	0.000199	-0.000059	-0.448246	-0.375138	0.203407	-0.785476	1.510404	-50.504669	119.863509	-0.316695	0.551561	0.771676	-0.856785	-0.515402	0.016764	0.406970	-0.655851	0.635794
47249														7.430538	0.142513	6.183508	0.123864	0.002362	0.103033	1.000000	0.000060	0.000205	-0.000060	-0.448316	-0.374989	0.203214	-0.785557	1.526591	-50.476062	119.853722	-0.316792	0.551950	0.771359	-0.856762	-0.515433	0.016954	0.406942	-0.655500	0.636175
47250														7.418131	0.165663	6.130786	0.123654	0.002746	0.102158	1.000000	0.000081	0.000181	-0.000053	-0.448393	-0.374860	0.203030	-0.785623	1.544212	-50.450174	119.841504	-0.316848	0.552319	0.771071	-0.856750	-0.515446	0.017159	0.406923	-0.655179	0.636518
47251														7.504207	0.139708	6.160376	0.125093	0.002280	0.102646	1.000000	0.000157	0.000218	-0.000261	-0.448581	-0.374786	0.202677	-0.785642	1.599121	-50.419395	119.796708	-0.316622	0.552926	0.770729	-0.856768	-0.515395	0.017781	0.407062	-0.654706	0.636915
47252														7.395307	0.198549	6.157256	0.123281	0.003274	0.102590	1.000000	0.000099	0.000251	-0.000201	-0.448761	-0.374646	0.202382	-0.785681	1.638978	-50.385059	119.761131	-0.316508	0.553524	0.770347	-0.856810	-0.515309	0.018237	0.407062	-0.654269	0.637364
47253														7.412817	0.151548	6.164749	0.123573	0.002500	0.102715	1.000000	0.000054	0.000248	-0.000162	-0.448958	-0.374471	0.202153	-0.785711	1.668211	-50.351110	119.728282	-0.316416	0.554101	0.769969	-0.856903	-0.515142	0.018576	0.406936	-0.653912	0.637811
47254														7.372817	0.174989	6.185781	0.122894	0.002884	0.103081	1.000000	0.000069	0.000130	-0.000208	-0.449105	-0.374419	0.201922	-0.785711	1.705729	-50.330526	119.694880	-0.316230	0.554526	0.769740	-0.856941	-0.515065	0.019001	0.407003	-0.653612	0.638075
47255														7.424342	0.182757	6.175990	0.123756	0.003015	0.102914	1.000000	0.000031	0.000155	-0.000226	-0.449297	-0.374332	0.201709	-0.785698	1.741420	-50.307068	119.656538	-0.316015	0.555011	0.769478	-0.857036	-0.514892	0.019409	0.406970	-0.653337	0.638378
47256														7.423293	0.189780	6.163632	0.123732	0.003134	0.102715	1.000000	0.000049	0.000100	-0.000195	-0.449446	-0.374290	0.201516	-0.785683	1.775068	-50.289907	119.623768	-0.315812	0.555392	0.769287	-0.857094	-0.514780	0.019791	0.407005	-0.653101	0.638597
47257														7.421613	0.193275	6.165547	0.123711	0.003192	0.102739	1.000000	0.000067	0.000161	-0.000179	-0.449591	-0.374204	0.201290	-0.785698	1.808274	-50.265877	119.593649	-0.315679	0.555839	0.769019	-0.857133	-0.514700	0.020171	0.407026	-0.652784	0.638908
47258														7.439677	0.200920	6.169876	0.124013	0.003320	0.102810	1.000000	0.000101	0.000176	-0.000148	-0.449718	-0.374111	0.201050	-0.785731	1.840955	-50.240201	119.566957	-0.315590	0.556285	0.768732	-0.857145	-0.514665	0.020546	0.407070	-0.652431	0.639240
47259														7.411820	0.215641	6.189711	0.123554	0.003579	0.103134	1.000000	0.000049	0.000227	-0.000077	-0.449804	-0.373943	0.200847	-0.785814	1.857587	-50.208877	119.555465	-0.315686	0.556714	0.768383	-0.857136	-0.514673	0.020746	0.407015	-0.652059	0.639654
47260														7.438641	0.186714	6.171884	0.124004	0.003078	0.102834	1.000000	0.000146	0.000254	-0.000153	-0.449937	-0.373809	0.200535	-0.785881	1.895763	-50.174212	119.527967	-0.315647	0.557270	0.767995	-0.857118	-0.514685	0.021187	0.407083	-0.651575	0.640105
47261														7.455740	0.195055	6.177379	0.124287	0.003216	0.102927	1.000000	0.000130	0.000238	-0.000174	-0.450080	-0.373687	0.200231	-0.785935	1.935052	-50.141306	119.497951	-0.315573	0.557819	0.767627	-0.857114	-0.514672	0.021641	0.407148	-0.651115	0.640531
47262														7.435973	0.226795	6.186481	0.123956	0.003744	0.103082	1.000000	0.000094	0.000214	-0.000215	-0.450261	-0.373576	0.199950	-0.785955	1.975755	-50.110938	119.460912	-0.315412	0.558377	0.767288	-0.857163	-0.514570	0.022110	0.407169	-0.650717	0.640922
47263														7.433645	0.234277	6.175654	0.123921	0.003873	0.102897	1.000000	0.000065	0.000250	-0.000205	-0.450436	-0.373427	0.199672	-0.785997	2.011641	-50.076618	119.428273	-0.315320	0.558957	0.766903	-0.857208	-0.514478	0.022528	0.407146	-0.650292	0.641367
47264														7.528828	0.233926	6.153528	0.125517	0.003873	0.102515	1.000000	0.000026	0.000349	-0.000180	-0.450670	-0.373165	0.199408	-0.786054	2.039102	-50.030870	119.394399	-0.315289	0.559677	0.766391	-0.857326	-0.514267	0.022857	0.406921	-0.649840	0.641968
47265														7.401266	0.202283	6.189981	0.123393	0.003332	0.103122	1.000000	0.000069	0.000363	-0.000263	-0.450922	-0.372936	0.199060	-0.786107	2.082415	-49.983140	119.350913	-0.315177	0.560472	0.765855	-0.857418	-0.514090	0.023365	0.406814	-0.649294	0.642588
47266														7.356042	0.252503	6.188834	0.122632	0.004182	0.103111	1.000000	0.000022	0.000295	-0.000195	-0.451136	-0.372723	0.198808	-0.786148	2.111592	-49.943534	119.317300	-0.315108	0.561118	0.765411	-0.857520	-0.513903	0.023712	0.406652	-0.648883	0.643105
47267														7.372030	0.259448	6.195661	0.122906	0.004305	0.103216	1.000000	0.000044	0.000369	-0.000115	-0.451316	-0.372441	0.198546	-0.786245	2.132170	-49.895742	119.295108	-0.315203	0.561797	0.764874	-0.857583	-0.513787	0.023967	0.406446	-0.648388	0.643734
47268														7.382353	0.223599	6.238096	0.123078	0.003717	0.103923	1.000000	-0.000042	0.000366	-0.000115	-0.451518	-0.372124	0.198349	-0.786329	2.142563	-49.848270	119.274476	-0.315310	0.562463	0.764340	-0.857704	-0.513578	0.024107	0.406107	-0.647976	0.644363
47269														7.396217	0.204923	6.209194	0.123307	0.003392	0.103444	1.000000	-0.000038	0.000344	-0.000222	-0.451777	-0.371853	0.198108	-0.786369	2.168066	-49.802933	119.237877	-0.315246	0.563192	0.763829	-0.857861	-0.513302	0.024417	0.405826	-0.647562	0.644957
47270														7.419159	0.278680	6.217288	0.123687	0.004622	0.103581	1.000000	-0.000078	0.000325	-0.000245	-0.452066	-0.371583	0.197901	-0.786383	2.192014	-49.759644	119.196903	-0.315125	0.563921	0.763341	-0.858067	-0.512943	0.024708	0.405484	-0.647212	0.645523
47271														7.378918	0.252247	6.214123	0.123023	0.004196	0.103521	1.000000	-0.000150	0.000384	-0.000193	-0.452362	-0.371220	0.197747	-0.786423	2.200141	-49.709668	119.164505	-0.315130	0.564680	0.762777	-0.858310	-0.512530	0.024825	0.404965	-0.646876	0.646184
47272														7.405673	0.246317	6.235191	0.123472	0.004099	0.103867	1.000000	-0.000105	0.000422	-0.000141	-0.452591	-0.370843	0.197552	-0.786518	2.206374	-49.655798	119.143792	-0.315275	0.565420	0.762169	-0.858463	-0.512270	0.024923	0.404529	-0.646436	0.646898
47273														7.359371	0.238404	6.238148	0.122711	0.003969	0.103904	1.000000	-0.000063	0.000527	-0.000091	-0.452838	-0.370378	0.197317	-0.786653	2.210328	-49.589887	119.124908	-0.315515	0.566289	0.761424	-0.858618	-0.512007	0.025002	0.404012	-0.645884	0.647772
47274														7.391521	0.241195	6.278599	0.123248	0.004008	0.104577	1.000000	-0.000021	0.000535	-0.000113	-0.453072	-0.369935	0.197031	-0.786799	2.221891	-49.523052	119.104686	-0.315747	0.567176	0.760667	-0.858731	-0.511808	0.025167	0.403590	-0.645262	0.648654
47275														7.366013	0.244590	6.256082	0.122825	0.004073	0.104200	1.000000	-0.000027	0.000552	-0.000051	-0.453217	-0.369475	0.196745	-0.787003	2.224093	-49.454674	119.102331	-0.316165	0.567982	0.759892	-0.858751	-0.511771	0.025227	0.403220	-0.644582	0.649560
47276														7.328999	0.218694	6.301344	0.122206	0.003639	0.104958	1.000000	-0.000022	0.000530	-0.000070	-0.453380	-0.369035	0.196462	-0.787187	2.229436	-49.388604	119.095223	-0.316521	0.568787	0.759142	-0.858791	-0.511699	0.025322	0.402855	-0.643930	0.650433
47277														7.293726	0.258553	6.301413	0.121615	0.004292	0.104963	1.000000	0.000032	0.000503	-0.000112	-0.453558	-0.368647	0.196136	-0.787347	2.246799	-49.325512	119.079269	-0.316768	0.569605	0.758425	-0.858825	-0.511631	0.025552	0.402588	-0.643260	0.651260
47278														7.340056	0.204168	6.328218	0.122388	0.003372	0.105409	1.000000	0.000048	0.000504	-0.000207	-0.453782	-0.368290	0.195752	-0.787481	2.278415	-49.261796	119.050285	-0.316889	0.570502	0.757699	-0.858876	-0.511526	0.025945	0.402384	-0.642548	0.652088
47279														7.316587	0.222052	6.263300	0.122012	0.003644	0.104310	1.000000	0.000157	0.000647	-0.000332	-0.454133	-0.367884	0.195189	-0.787608	2.338438	-49.181135	118.994353	-0.316849	0.571744	0.756780	-0.858972	-0.511328	0.026671	0.402212	-0.641602	0.653125
47280														7.197684	0.260083	6.348629	0.120020	0.004299	0.105745	1.000000	0.000095	0.000548	-0.000216	-0.454357	-0.367514	0.194745	-0.787761	2.376202	-49.112314	118.964065	-0.316987	0.572706	0.755994	-0.858993	-0.511268	0.027139	0.402059	-0.640791	0.654016
47281														7.389043	0.226271	6.360823	0.123238	0.003710	0.105915	1.000000	0.000198	0.000810	-0.000330	-0.454700	-0.367003	0.194067	-0.787969	2.439329	-49.012985	118.913335	-0.317113	0.574133	0.754858	-0.859025	-0.511171	0.027916	0.401889	-0.639590	0.655294
47282														7.184840	0.333561	6.397862	0.119812	0.005492	0.106562	1.000000	0.000229	0.000584	-0.000359	-0.454994	-0.366692	0.193449	-0.788095	2.510556	-48.939272	118.858732	-0.317034	0.575285	0.754014	-0.859031	-0.511115	0.028773	0.401940	-0.638599	0.656228
47283														7.282966	0.320886	6.361985	0.121434	0.005303	0.105976	1.000000	0.000107	0.000473	-0.000276	-0.455292	-0.366387	0.193028	-0.788169	2.557662	-48.878564	118.811105	-0.316940	0.576248	0.753317	-0.859140	-0.510899	0.029348	0.401781	-0.637903	0.657002
47284														7.316605	0.276283	6.390427	0.122004	0.004570	0.106439	1.000000	0.000040	0.000557	-0.000248	-0.455598	-0.365981	0.192628	-0.788278	2.592794	-48.808454	118.770506	-0.316975	0.577280	0.752512	-0.859273	-0.510649	0.029792	0.401468	-0.637170	0.657904
47285														7.319857	0.245604	6.375565	0.122058	0.004040	0.106192	1.000000	0.000073	0.000552	-0.000378	-0.455993	-0.365619	0.192156	-0.788333	2.648398	-48.738134	118.707757	-0.316786	0.578436	0.751703	-0.859460	-0.510294	0.030473	0.401216	-0.636405	0.658797
47286														7.251018	0.319151	6.411844	0.120931	0.005256	0.106776	1.000000	0.000101	0.000732	-0.000436	-0.456443	-0.365143	0.191551	-0.788440	2.713679	-48.646907	118.638464	-0.316660	0.579869	0.750652	-0.859644	-0.509935	0.031281	0.400923	-0.635388	0.659957
47287														7.086932	0.328176	6.380811	0.118167	0.005434	0.106291	1.000000	0.000021	0.000471	-0.000286	-0.456767	-0.364805	0.191190	-0.788497	2.751652	-48.586411	118.591419	-0.316563	0.580824	0.749954	-0.859813	-0.509621	0.031756	0.400637	-0.634767	0.660727
47288														7.198301	0.302709	6.357237	0.120013	0.005004	0.105910	1.000000	0.000067	0.000373	-0.000282	-0.457052	-0.364565	0.190838	-0.788528	2.795067	-48.537205	118.544225	-0.316392	0.581650	0.749386	-0.859942	-0.509370	0.032288	0.400495	-0.634213	0.661346
47289														7.209853	0.277514	6.371405	0.120204	0.004575	0.106147	1.000000	0.000103	0.000362	-0.000324	-0.457333	-0.364363	0.190439	-0.788555	2.847738	-48.488965	118.493033	-0.316173	0.582487	0.748828	-0.860042	-0.509160	0.032927	0.400453	-0.633613	0.661946
47290														7.249708	0.295930	6.427621	0.120873	0.004857	0.107081	1.000000	0.000116	0.000389	-0.000522	-0.457825	-0.364170	0.189967	-0.788473	2.927539	-48.436355	118.399949	-0.315553	0.583605	0.748219	-0.860326	-0.508617	0.033884	0.400332	-0.633020	0.662586
47291														7.695331	0.347797	6.441269	0.128298	0.005580	0.107315	0.999999	0.000163	0.000314	-0.001556	-0.459069	-0.364260	0.189104	-0.787915	3.145985	-48.385985	118.132878	-0.313139	0.585649	0.747636	-0.861181	-0.506990	0.036446	0.400389	-0.632437	0.663108
47292														6.852973	0.488471	6.482321	0.114324	0.008023	0.107934	0.999999	0.000103	0.000925	-0.000939	-0.459934	-0.363731	0.188219	-0.787867	3.272864	-48.269069	117.982931	-0.312321	0.587812	0.746279	-0.861656	-0.506068	0.038002	0.400006	-0.631167	0.664548
47293														7.205674	0.470217	6.478647	0.120115	0.007832	0.107955	1.000000	-0.000107	0.000182	-0.000134	-0.460092	-0.363541	0.188128	-0.787884	3.277747	-48.242399	117.965634	-0.312306	0.588213	0.745969	-0.861783	-0.505846	0.038078	0.399744	-0.630971	0.664891
47294														7.258339	0.268390	6.368982	0.121077	0.004522	0.106028	0.999999	-0.000467	0.000990	-0.000003	-0.460433	-0.362523	0.188000	-0.788184	3.218576	-48.124130	117.978233	-0.313157	0.589503	0.744593	-0.862120	-0.505315	0.037478	0.398348	-0.630192	0.666466
47295														7.309535	0.304130	6.449297	0.121843	0.004957	0.107474	1.000000	0.000229	0.000128	-0.000714	-0.460976	-0.362624	0.187486	-0.787943	3.336225	-48.099622	117.852297	-0.312010	0.590472	0.744307	-0.862420	-0.504699	0.038865	0.398600	-0.629779	0.666706
47296														6.998773	0.467703	6.572401	0.116670	0.007789	0.109515	1.000000	0.000187	0.000226	0.000120	-0.460873	-0.362478	0.187253	-0.788125	3.342070	-48.069558	117.873490	-0.312410	0.590701	0.743957	-0.862202	-0.505064	0.038956	0.398757	-0.629271	0.667091
47297														7.028482	0.286530	6.398346	0.117160	0.004756	0.106619	1.000000	0.000048	0.000171	-0.000120	-0.460976	-0.362362	0.187058	-0.788165	3.362654	-48.044139	117.856634	-0.312391	0.591085	0.743660	-0.862215	-0.505021	0.039215	0.398744	-0.628945	0.667407
47298														7.107658	0.384297	6.518901	0.118477	0.006354	0.108634	1.000000	0.000223	0.000130	-0.000229	-0.461110	-0.362374	0.186711	-0.788164	3.417569	-48.022581	117.818304	-0.312126	0.591541	0.743408	-0.862178	-0.505034	0.039871	0.399032	-0.628506	0.667648
47299														7.223781	0.366799	6.478263	0.120420	0.006029	0.107950	1.000000	0.000218	0.000189	-0.000507	-0.461471	-0.362390	0.186238	-0.788056	3.506635	-47.992341	117.733694	-0.311435	0.592349	0.743055	-0.862313	-0.504719	0.040933	0.399280	-0.627998	0.667977
47300														7.084380	0.428517	6.529083	0.118103	0.007076	0.108790	1.000000	0.000133	0.000250	-0.000439	-0.461854	-0.362299	0.185844	-0.787967	3.576821	-47.955493	117.656779	-0.310861	0.593190	0.742625	-0.862513	-0.504306	0.041781	0.399294	-0.627536	0.668403
47301														7.221668	0.419876	6.463883	0.120387	0.006973	0.107704	1.000000	-0.000016	0.000224	-0.000218	-0.462078	-0.362127	0.185644	-0.787962	3.602026	-47.923251	117.622182	-0.310696	0.593747	0.742248	-0.862653	-0.504041	0.042101	0.399120	-0.627222	0.668802
47302														7.272539	0.347013	6.437774	0.121238	0.005724	0.107267	1.000000	0.000207	0.000252	-0.000308	-0.462287	-0.362055	0.185217	-0.787973	3.663996	-47.887226	117.574031	-0.310413	0.594422	0.741826	-0.862657	-0.503970	0.042854	0.399332	-0.626639	0.669221
47303														6.956350	0.427045	6.481857	0.115982	0.007072	0.107988	1.000000	0.000044	0.000376	-0.000348	-0.462617	-0.361815	0.184852	-0.787975	3.711077	-47.836631	117.519550	-0.310150	0.595297	0.741234	-0.862826	-0.503631	0.043447	0.399172	-0.626081	0.669839
47304														7.001382	0.370152	6.473893	0.116697	0.006136	0.107892	1.000000	0.000062	0.000057	-0.000227	-0.462770	-0.361818	0.184656	-0.787930	3.747608	-47.823545	117.484386	-0.309863	0.595638	0.741081	-0.862885	-0.503491	0.043885	0.399267	-0.625869	0.669980
47305														7.085346	0.399058	6.517320	0.118104	0.006608	0.108608	1.000000	0.000138	0.000127	-0.000239	-0.462950	-0.361794	0.184377	-0.787901	3.793778	-47.802142	117.443477	-0.309565	0.596105	0.740830	-0.862930	-0.503365	0.044443	0.399400	-0.625526	0.670221
47306														7.105208	0.415662	6.493595	0.118442	0.006884	0.108205	1.000000	0.000115	0.000187	-0.000262	-0.463178	-0.361713	0.184085	-0.787872	3.839720	-47.773639	117.397706	-0.309259	0.596679	0.740495	-0.863022	-0.503157	0.045005	0.399439	-0.625146	0.670553
47307														7.134851	0.418666	6.498254	0.118941	0.006926	0.108278	1.000000	0.000116	0.000229	-0.000329	-0.463449	-0.361615	0.183741	-0.787838	3.893485	-47.739766	117.343885	-0.308899	0.597358	0.740098	-0.863132	-0.502909	0.045664	0.399480	-0.624697	0.670947
47308														7.353505	0.487452	6.501588	0.122588	0.008011	0.108334	1.000000	0.000223	0.000221	-0.000725	-0.463977	-0.361651	0.183167	-0.787644	4.009468	-47.703744	117.224607	-0.307868	0.598413	0.739675	-0.863383	-0.502350	0.047055	0.399734	-0.624136	0.671317
47309														7.400352	0.592865	6.503720	0.123424	0.009770	0.108308	0.999999	0.000070	0.000711	-0.000836	-0.464744	-0.361249	0.182447	-0.787544	4.117476	-47.610683	117.091682	-0.307025	0.600195	0.738581	-0.863830	-0.501453	0.048406	0.399417	-0.623146	0.672425
47310														6.830027	0.365329	6.488393	0.113861	0.006082	0.108112	1.000000	-0.000017	0.000245	-0.000076	-0.464894	-0.361025	0.182303	-0.787591	4.124272	-47.576923	117.076852	-0.307068	0.600661	0.738184	-0.863925	-0.501278	0.048517	0.399177	-0.622837	0.672853
47311														7.021560	0.456073	6.571114	0.117028	0.007588	0.109517	1.000000	0.000083	0.000015	-0.000034	-0.464889	-0.361032	0.182183	-0.787619	4.139060	-47.569872	117.072966	-0.307068	0.600763	0.738101	-0.863859	-0.501375	0.048697	0.399321	-0.622661	0.672931
47312														7.141796	0.501514	6.470684	0.119044	0.008337	0.107831	1.000000	0.000101	0.000119	-0.000093	-0.464922	-0.360980	0.181971	-0.787672	4.162288	-47.550519	117.063379	-0.307081	0.601037	0.737873	-0.863788	-0.501468	0.048988	0.399463	-0.622322	0.673160
47313														7.130416	0.460320	6.461650	0.118860	0.007647	0.107675	1.000000	0.000093	0.000171	-0.000125	-0.465035	-0.360881	0.181747	-0.787702	4.188374	-47.524984	117.042771	-0.307015	0.601440	0.737572	-0.863797	-0.501421	0.049319	0.399496	-0.621971	0.673465
47314														7.321238	0.529788	6.509042	0.122043	0.008772	0.108464	1.000000	0.000123	0.000175	-0.000360	-0.465291	-0.360842	0.181400	-0.787649	4.246916	-47.496981	116.987192	-0.306595	0.602058	0.737242	-0.863886	-0.501196	0.050034	0.399626	-0.621553	0.673774
47315														7.379221	0.559582	6.479824	0.123051	0.009295	0.107926	1.000000	0.000007	0.000576	-0.000246	-0.465587	-0.360408	0.181006	-0.787764	4.273999	-47.424001	116.953844	-0.306670	0.603073	0.736381	-0.864018	-0.500930	0.050422	0.399283	-0.620783	0.674686
47316														6.673455	0.405308	6.531697	0.111268	0.006762	0.108816	1.000000	-0.000041	0.000408	0.000025	-0.465658	-0.360035	0.180826	-0.787934	4.263582	-47.372549	116.964014	-0.307076	0.603608	0.735773	-0.864022	-0.500930	0.050348	0.398962	-0.620263	0.675354
47317														7.095075	0.471121	6.462000	0.118248	0.007829	0.107705	1.000000	0.000064	-0.000039	-0.000139	-0.465732	-0.360095	0.180709	-0.787889	4.289744	-47.370895	116.941675	-0.306851	0.603747	0.735753	-0.864036	-0.500875	0.050658	0.399106	-0.620172	0.675353
47318														7.154308	0.541740	6.529129	0.119262	0.009012	0.108794	1.000000	0.000002	0.000209	-0.000140	-0.465946	-0.359913	0.180555	-0.787881	4.306829	-47.340622	116.911996	-0.306714	0.604252	0.735395	-0.864188	-0.500589	0.050889	0.398880	-0.619911	0.675725
47319														7.127480	0.501051	6.549971	0.118812	0.008324	0.109146	1.000000	0.000014	0.000169	-0.000213	-0.466143	-0.359796	0.180357	-0.787864	4.334386	-47.314376	116.878734	-0.306515	0.604730	0.735085	-0.864297	-0.500364	0.051239	0.398796	-0.619626	0.676036
47320														7.184552	0.520226	6.560806	0.119769	0.008621	0.109322	1.000000	0.000106	0.000213	-0.000314	-0.466404	-0.359703	0.180034	-0.787826	4.384487	-47.282126	116.827716	-0.306163	0.605372	0.734703	-0.864407	-0.500110	0.051862	0.398829	-0.619204	0.676404
47321														7.186540	0.567677	6.516229	0.119824	0.009471	0.108550	1.000000	-0.000173	0.000439	-0.000075	-0.466573	-0.359269	0.179893	-0.787955	4.370793	-47.226339	116.826274	-0.306471	0.606018	0.734042	-0.864538	-0.499896	0.051755	0.398309	-0.618746	0.677129
47322														7.185885	0.548922	6.518657	0.119817	0.009125	0.108589	1.000000	0.000066	0.000467	-0.000136	-0.466740	-0.358929	0.179541	-0.788091	4.391968	-47.166855	116.810419	-0.306647	0.606783	0.733337	-0.864553	-0.499837	0.052064	0.398140	-0.618044	0.677869
47323														6.734542	0.420140	6.562176	0.112267	0.006991	0.109345	1.000000	0.000009	0.000218	-0.000094	-0.466834	-0.358754	0.179360	-0.788157	4.403525	-47.136139	116.800826	-0.306722	0.607185	0.732972	-0.864569	-0.499792	0.052231	0.398047	-0.617685	0.678251
47324														7.079768	0.520475	6.600660	0.118007	0.008660	0.110000	1.000000	0.000050	0.000097	-0.000074	-0.466910	-0.358682	0.179223	-0.788175	4.418649	-47.119285	116.787977	-0.306683	0.607446	0.732772	-0.864583	-0.499747	0.052426	0.398047	-0.617464	0.678452
47325														7.028292	0.501269	6.533020	0.117155	0.008339	0.108866	1.000000	0.000047	0.000150	-0.000087	-0.467001	-0.358572	0.179057	-0.788210	4.434598	-47.096295	116.774505	-0.306673	0.607781	0.732499	-0.864599	-0.499697	0.052638	0.398020	-0.617176	0.678730
47326														7.086221	0.546899	6.565760	0.118130	0.009090	0.109403	1.000000	0.000080	0.000227	-0.000139	-0.467119	-0.358429	0.178804	-0.788262	4.459899	-47.064207	116.755613	-0.306657	0.608248	0.732118	-0.864602	-0.499658	0.052969	0.398027	-0.616747	0.679116
47327														7.178378	0.570403	6.537581	0.119676	0.009511	0.108919	1.000000	-0.000119	0.000328	-0.000071	-0.467267	-0.358103	0.178681	-0.788351	4.453166	-47.021118	116.750222	-0.306847	0.608768	0.731605	-0.864713	-0.499469	0.052932	0.397637	-0.616387	0.679671
47328														7.105006	0.474445	6.589469	0.118446	0.007920	0.109792	1.000000	0.000046	0.000279	0.000146	-0.467165	-0.357856	0.178525	-0.788559	4.439099	-46.985634	116.782279	-0.307392	0.609001	0.731183	-0.864546	-0.499772	0.052800	0.397580	-0.615911	0.680135
47329														6.827976	0.561888	6.608620	0.113873	0.009346	0.110070	1.000000	-0.000070	0.000645	-0.000232	-0.467501	-0.357325	0.178169	-0.788681	4.454442	-46.904743	116.751026	-0.307524	0.610090	0.730219	-0.864746	-0.499398	0.053063	0.397043	-0.615136	0.681150
47330														6.982362	0.578056	6.600930	0.116392	0.009619	0.109996	1.000000	0.000098	0.000175	-0.000035	-0.467509	-0.357215	0.177958	-0.788773	4.469474	-46.879494	116.750571	-0.307664	0.610379	0.729918	-0.864656	-0.499532	0.053266	0.397130	-0.614740	0.681456
47331														7.078884	0.603686	6.618360	0.118013	0.010059	0.110272	1.000000	-0.000018	0.000286	-0.000038	-0.467596	-0.356961	0.177792	-0.788875	4.470432	-46.841481	116.749088	-0.307866	0.610820	0.729464	-0.864679	-0.499488	0.053316	0.396925	-0.614338	0.681938
47332														7.101246	0.591830	6.607446	0.118392	0.009875	0.110082	1.000000	-0.000132	0.000343	-0.000027	-0.467724	-0.356606	0.177692	-0.788981	4.456639	-46.797044	116.750132	-0.308132	0.611319	0.728933	-0.864784	-0.499319	0.053195	0.396490	-0.613978	0.682515
47333														7.146543	0.586309	6.646230	0.119150	0.009784	0.110725	1.000000	-0.000199	0.000363	-0.000086	-0.467951	-0.356208	0.177626	-0.789042	4.441945	-46.749620	116.738151	-0.308275	0.611922	0.728366	-0.865009	-0.498942	0.053067	0.395885	-0.613684	0.683130
47334														6.977647	0.536794	6.596705	0.116333	0.009011	0.109898	1.000000	-0.000346	0.000375	0.000227	-0.467963	-0.355682	0.177772	-0.789239	4.372394	-46.703772	116.781599	-0.309002	0.612208	0.727818	-0.865130	-0.498815	0.052282	0.395054	-0.613502	0.683775
47335														7.115943	0.519283	6.597792	0.118659	0.008655	0.109898	1.000000	-0.000112	0.000539	-0.000105	-0.468183	-0.355194	0.177539	-0.789381	4.368329	-46.636143	116.771875	-0.309285	0.613027	0.727008	-0.865271	-0.498570	0.052299	0.394525	-0.612883	0.684634
47336														6.752395	0.515373	6.617785	0.112593	0.008604	0.110241	1.000000	-0.000209	0.000472	-0.000078	-0.468412	-0.354707	0.177427	-0.789489	4.350647	-46.576484	116.764473	-0.309546	0.613743	0.726293	-0.865481	-0.498220	0.052145	0.393857	-0.612451	0.685405
47337														6.990793	0.496125	6.610548	0.116542	0.008284	0.110144	1.000000	-0.000064	0.000267	0.000070	-0.468446	-0.354423	0.177351	-0.789613	4.333986	-46.541569	116.777390	-0.309884	0.614068	0.725874	-0.865497	-0.498209	0.051979	0.393556	-0.612134	0.685861
47338														6.970800	0.492103	6.657470	0.116209	0.008208	0.110927	1.000000	-0.000037	0.000261	0.000020	-0.468511	-0.354164	0.177240	-0.789716	4.326309	-46.506838	116.781911	-0.310131	0.614436	0.725457	-0.865525	-0.498167	0.051921	0.393301	-0.611799	0.686307
47339														7.012819	0.509556	6.685167	0.116914	0.008507	0.111383	1.000000	-0.000105	0.000301	0.000024	-0.468604	-0.353840	0.177167	-0.789823	4.309735	-46.467482	116.787599	-0.310416	0.614850	0.724984	-0.865605	-0.498044	0.051760	0.392898	-0.611483	0.686819
47340														6.989255	0.477770	6.650942	0.116529	0.007978	0.110805	1.000000	-0.000096	0.000376	0.000041	-0.468677	-0.353461	0.177052	-0.789974	4.291509	-46.419842	116.799309	-0.310813	0.615324	0.724411	-0.865648	-0.497989	0.051586	0.392490	-0.611051	0.687436
47341														7.008430	0.515946	6.651592	0.116830	0.008615	0.110835	1.000000	-0.000120	0.000204	0.000023	-0.468754	-0.353209	0.177032	-0.790046	4.274600	-46.391691	116.804133	-0.311026	0.615616	0.724072	-0.865733	-0.497859	0.051410	0.392134	-0.610863	0.687806
47342														7.205354	0.514539	6.675990	0.120162	0.008545	0.111190	1.000000	-0.000117	0.000631	-0.000364	-0.469189	-0.352694	0.176665	-0.790100	4.300268	-46.311508	116.753481	-0.310937	0.616795	0.723106	-0.866030	-0.497302	0.051794	0.391548	-0.610127	0.688793
47343														6.793911	0.339229	6.661649	0.113238	0.005683	0.111020	1.000000	-0.000105	0.000059	0.000153	-0.469126	-0.352542	0.176745	-0.790188	4.270736	-46.301036	116.778950	-0.311271	0.616775	0.722980	-0.866015	-0.497364	0.051449	0.391316	-0.610097	0.688951
47344														6.964087	0.431084	6.656817	0.116095	0.007182	0.110919	1.000000	-0.000019	0.000241	-0.000042	-0.469195	-0.352325	0.176594	-0.790277	4.272526	-46.268083	116.777986	-0.311448	0.617151	0.722582	-0.866024	-0.497342	0.051501	0.391155	-0.609734	0.689364
47345														7.004841	0.479600	6.645880	0.116778	0.007993	0.110732	1.000000	0.000008	0.000279	0.000008	-0.469239	-0.352079	0.176428	-0.790398	4.271298	-46.231364	116.783054	-0.311711	0.617537	0.722139	-0.866004	-0.497376	0.051521	0.390991	-0.609315	0.689827
47346														6.994725	0.469137	6.632699	0.116619	0.007845	0.110501	1.000000	-0.000019	0.000378	0.000209	-0.469143	-0.351709	0.176305	-0.790647	4.242141	-46.185007	116.823680	-0.312412	0.617837	0.721579	-0.865869	-0.497643	0.051213	0.390730	-0.608793	0.690435
47347														7.047442	0.446065	6.652638	0.117481	0.007452	0.110851	1.000000	-0.000026	0.000222	0.000123	-0.469087	-0.351472	0.176230	-0.790802	4.223505	-46.155647	116.848760	-0.312850	0.618030	0.721224	-0.865790	-0.497801	0.051016	0.390555	-0.608468	0.690821
47348														6.944303	0.473735	6.698534	0.115766	0.007900	0.111613	1.000000	-0.000153	0.000242	-0.000111	-0.469294	-0.351196	0.176175	-0.790814	4.218476	-46.122028	116.830892	-0.312848	0.618505	0.720818	-0.865993	-0.497451	0.050986	0.390106	-0.608272	0.691247
47349														7.063738	0.517737	6.727985	0.117819	0.008586	0.112041	1.000000	0.000025	0.000781	-0.000344	-0.469697	-0.350623	0.175635	-0.790949	4.256485	-46.024791	116.784438	-0.312897	0.619849	0.719640	-0.866176	-0.497074	0.051535	0.389659	-0.607210	0.692432
47350														6.936254	0.430104	6.685876	0.115616	0.007177	0.111418	1.000000	-0.000027	0.000113	0.000051	-0.469678	-0.350486	0.175585	-0.791032	4.247571	-46.007339	116.796255	-0.313124	0.619980	0.719429	-0.866142	-0.497144	0.051444	0.389554	-0.607019	0.692658
47351														6.956647	0.469283	6.685322	0.115975	0.007827	0.111389	1.000000	-0.000116	0.000276	-0.000060	-0.469800	-0.350199	0.175489	-0.791109	4.239852	-45.970319	116.793008	-0.313298	0.620413	0.718980	-0.866237	-0.496984	0.051385	0.389201	-0.606708	0.693129
47352														6.988178	0.468246	6.738367	0.116505	0.007810	0.112269	1.000000	-0.000157	0.000309	-0.000097	-0.469987	-0.349870	0.175402	-0.791162	4.231764	-45.929214	116.781557	-0.313406	0.620936	0.718481	-0.866408	-0.496692	0.051325	0.388733	-0.606412	0.693650
47353														7.163684	0.454579	6.787810	0.119431	0.007568	0.113092	1.000000	-0.000059	0.000315	-0.000130	-0.470168	-0.349585	0.175226	-0.791219	4.238320	-45.887029	116.764854	-0.313464	0.621499	0.717969	-0.866525	-0.496475	0.051444	0.388426	-0.606012	0.694172
47354														6.600694	0.516929	6.737417	0.110066	0.008643	0.112235	1.000000	-0.000122	0.000495	0.000127	-0.470179	-0.349091	0.175094	-0.791460	4.206295	-45.826640	116.795159	-0.314133	0.622009	0.717235	-0.866504	-0.496547	0.051111	0.387932	-0.605431	0.694955
47355														6.898576	0.537610	6.777478	0.114988	0.008962	0.112946	1.000000	-0.000091	0.000096	-0.000073	-0.470287	-0.348957	0.175064	-0.791462	4.204657	-45.810006	116.785222	-0.314119	0.622249	0.717032	-0.866608	-0.496366	0.051106	0.387711	-0.605332	0.695164
47356														6.848701	0.540288	6.805344	0.114163	0.009007	0.113404	1.000000	-0.000088	0.000151	-0.000068	-0.470396	-0.348780	0.175006	-0.791488	4.202219	-45.787150	116.777268	-0.314162	0.622548	0.716754	-0.866702	-0.496202	0.051098	0.387465	-0.605160	0.695451
47357														6.783115	0.486145	6.817796	0.113058	0.008114	0.113623	1.000000	-0.000048	0.000057	0.000053	-0.470352	-0.348683	0.174991	-0.791560	4.191293	-45.776266	116.791537	-0.314378	0.622591	0.716622	-0.866657	-0.496293	0.050975	0.387391	-0.605040	0.695597
47358														6.634636	0.519397	6.762554	0.110525	0.008664	0.112760	1.000000	0.000051	-0.000451	0.000117	-0.470167	-0.349015	0.175173	-0.791483	4.188532	-45.823845	116.805576	-0.314262	0.621983	0.717201	-0.866535	-0.496514	0.050898	0.387758	-0.605484	0.695005
47359														7.387885	0.510967	6.730206	0.123184	0.008452	0.112117	1.000000	0.000125	0.000437	-0.000408	-0.470518	-0.348773	0.174692	-0.791488	4.248047	-45.765501	116.745746	-0.313941	0.622962	0.716491	-0.866674	-0.496191	0.051674	0.387707	-0.604741	0.695680
47360														6.768697	0.449755	6.626434	0.112828	0.007529	0.110422	1.000000	-0.000237	0.000151	0.000065	-0.470581	-0.348503	0.174800	-0.791546	4.213362	-45.743838	116.758287	-0.314199	0.623136	0.716227	-0.866809	-0.495997	0.051273	0.387197	-0.604722	0.695981
47361														6.908071	0.508863	6.732693	0.115139	0.008488	0.112206	1.000000	0.000102	0.000053	0.000159	-0.470432	-0.348453	0.174719	-0.791674	4.207141	-45.734109	116.785361	-0.314548	0.623096	0.716108	-0.866620	-0.496334	0.051206	0.387335	-0.604487	0.696108
47362														6.855428	0.475786	6.766589	0.114275	0.007937	0.112757	1.000000	0.000072	0.000172	0.000130	-0.470342	-0.348298	0.174597	-0.791822	4.199820	-45.710497	116.808553	-0.314934	0.623232	0.715821	-0.866478	-0.496588	0.051139	0.387340	-0.604138	0.696409
47363														6.876054	0.522407	6.740460	0.114671	0.008704	0.112270	1.000000	0.000185	0.000634	0.000158	-0.470291	-0.347821	0.174186	-0.792153	4.198295	-45.634277	116.838996	-0.315694	0.623913	0.714891	-0.866255	-0.496972	0.051190	0.387219	-0.603118	0.697359
47364														6.792136	0.502394	6.732066	0.113207	0.008382	0.112196	1.000000	0.000152	0.000059	0.000227	-0.470074	-0.347777	0.174087	-0.792323	4.189745	-45.624418	116.876960	-0.316163	0.623814	0.714771	-0.865988	-0.497448	0.051095	0.387435	-0.602828	0.697490
47365														6.750290	0.544474	6.784782	0.112518	0.009091	0.113066	1.000000	0.000014	0.000127	0.000164	-0.469979	-0.347622	0.174048	-0.792456	4.172371	-45.606197	116.903700	-0.316557	0.623869	0.714548	-0.865880	-0.497655	0.050900	0.387353	-0.602601	0.697732
47366														6.982733	0.507519	6.739830	0.116359	0.008470	0.112350	1.000000	-0.000188	-0.000181	-0.000083	-0.470075	-0.347665	0.174219	-0.792342	4.163265	-45.621214	116.889434	-0.316317	0.623780	0.714732	-0.866060	-0.497355	0.050775	0.387148	-0.602939	0.697553
47367														6.892133	0.495485	6.774817	0.114909	0.008277	0.112872	1.000000	-0.000113	0.000356	0.000053	-0.470130	-0.347294	0.174126	-0.792493	4.142238	-45.576003	116.903865	-0.316729	0.624203	0.714180	-0.866095	-0.497317	0.050560	0.386733	-0.602533	0.698134
47368														6.874917	0.499686	6.780074	0.114618	0.008361	0.112962	1.000000	-0.000106	0.000331	0.000185	-0.470098	-0.346916	0.174094	-0.792684	4.106784	-45.534520	116.936120	-0.317315	0.624486	0.713673	-0.866070	-0.497399	0.050165	0.386307	-0.602172	0.698681
47369														7.005088	0.464595	6.805826	0.116782	0.007750	0.113399	1.000000	0.000128	0.000279	0.000182	-0.469958	-0.346696	0.173892	-0.792908	4.099284	-45.499098	116.969835	-0.317882	0.624692	0.713239	-0.865842	-0.497802	0.050105	0.386352	-0.601625	0.699127
47370														6.629518	0.502313	6.705464	0.110551	0.008387	0.111698	1.000000	0.000002	0.000539	0.000136	-0.469947	-0.346216	0.173653	-0.793177	4.080171	-45.433474	116.998855	-0.318569	0.625259	0.712436	-0.865745	-0.497989	0.049930	0.386005	-0.600882	0.699958
47371														6.870709	0.450639	6.800358	0.114523	0.007543	0.113325	1.000000	0.000010	0.000122	0.000296	-0.469732	-0.346046	0.173658	-0.793377	4.047489	-45.417027	117.048948	-0.319209	0.625162	0.712235	-0.865536	-0.498390	0.049545	0.385945	-0.600649	0.700191
47372														6.806950	0.489251	6.728828	0.113452	0.008169	0.112143	1.000000	0.000052	0.000041	0.000178	-0.469583	-0.345977	0.173628	-0.793501	4.033561	-45.408697	117.078838	-0.319582	0.625087	0.712133	-0.865373	-0.498689	0.049382	0.386001	-0.600479	0.700306
47373														6.951022	0.509583	6.661926	0.115888	0.008516	0.110991	1.000000	-0.000111	0.000345	0.000087	-0.469636	-0.345603	0.173561	-0.793648	4.009137	-45.364807	117.094549	-0.320002	0.625485	0.711595	-0.865418	-0.498637	0.049122	0.385553	-0.600107	0.700871
47374														6.992054	0.472252	6.634356	0.116589	0.007890	0.110514	1.000000	-0.000036	0.000500	0.000128	-0.469640	-0.345138	0.173368	-0.793890	3.987517	-45.303652	117.120935	-0.320636	0.626014	0.710844	-0.865357	-0.498763	0.048910	0.385161	-0.599452	0.701647
47375														6.981761	0.433215	6.770849	0.116457	0.007222	0.112750	1.000000	0.000052	0.000840	0.000061	-0.469728	-0.344454	0.172925	-0.794232	3.980766	-45.203024	117.140060	-0.321414	0.627016	0.709608	-0.865275	-0.498905	0.048914	0.384697	-0.598285	0.702897
47376														6.703179	0.492718	6.811075	0.111791	0.008240	0.113446	1.000000	0.000051	0.000651	0.000301	-0.469584	-0.343880	0.172651	-0.794625	3.947876	-45.125986	117.197188	-0.322475	0.627544	0.708660	-0.865028	-0.499366	0.048576	0.384364	-0.597346	0.703876
47377														6.785685	0.504560	6.772823	0.113170	0.008406	0.112805	1.000000	0.000202	0.000678	0.000171	-0.469504	-0.343376	0.172202	-0.794987	3.947138	-45.044781	117.232100	-0.323316	0.628240	0.707659	-0.864760	-0.499824	0.048636	0.384260	-0.596231	0.704878
47378														6.908498	0.528174	6.741010	0.115204	0.008795	0.112287	1.000000	0.000201	0.000566	0.000126	-0.469438	-0.342970	0.171790	-0.795291	3.952530	-44.976082	117.258884	-0.323998	0.628842	0.706812	-0.864517	-0.500232	0.048761	0.384233	-0.595252	0.705719
47379														7.030323	0.490501	6.740042	0.117244	0.008168	0.112259	1.000000	0.000202	0.000655	0.000133	-0.469384	-0.342492	0.171338	-0.795626	3.956650	-44.897292	117.287270	-0.324755	0.629545	0.705838	-0.864272	-0.500644	0.048879	0.384145	-0.594163	0.706685
47380														6.886503	0.494181	6.766333	0.114878	0.008240	0.112667	1.000000	0.000133	0.000923	0.000165	-0.469378	-0.341761	0.170828	-0.796054	3.947148	-44.788011	117.323184	-0.325767	0.630536	0.704486	-0.864065	-0.501004	0.048854	0.383755	-0.592806	0.708035
47381														6.787294	0.489481	6.844053	0.113238	0.008161	0.113952	0.999999	0.000157	0.001032	0.000185	-0.469356	-0.340953	0.170250	-0.796537	3.937366	-44.666476	117.364950	-0.326913	0.631624	0.702979	-0.863813	-0.501441	0.048836	0.383348	-0.591277	0.709532
47382														6.705418	0.548349	6.849689	0.111889	0.009153	0.114031	0.999999	0.000121	0.001175	0.000244	-0.469338	-0.340000	0.169660	-0.797081	3.915819	-44.528986	117.415381	-0.328244	0.632832	0.701270	-0.863569	-0.501875	0.048684	0.382759	-0.589615	0.711231
47383														6.630778	0.501503	6.892522	0.110637	0.008392	0.114754	0.999999	0.000042	0.001105	0.000343	-0.469257	-0.339047	0.169201	-0.797632	3.874784	-44.400257	117.480513	-0.329690	0.633854	0.699667	-0.863322	-0.502338	0.048281	0.382072	-0.588120	0.712836
47384														6.640779	0.483210	6.907160	0.110810	0.008079	0.114992	0.999999	0.000018	0.001152	0.000246	-0.469260	-0.338064	0.168701	-0.798153	3.841906	-44.265366	117.531563	-0.331015	0.635019	0.697983	-0.863146	-0.502670	0.047982	0.381324	-0.586578	0.714505
47385														6.664242	0.489811	6.930285	0.111209	0.008188	0.115369	0.999999	-0.000036	0.001215	0.000181	-0.469344	-0.337017	0.168192	-0.798654	3.809995	-44.122821	117.572566	-0.332272	0.636320	0.696199	-0.863053	-0.502856	0.047700	0.380440	-0.585007	0.716263
47386														6.650285	0.491046	7.039349	0.110985	0.008211	0.117181	0.999999	-0.000095	0.001265	0.000141	-0.469479	-0.335909	0.167690	-0.799146	3.775473	-43.974255	117.608776	-0.333510	0.637707	0.694335	-0.863022	-0.502940	0.047387	0.379428	-0.583422	0.718090
47387														6.652858	0.466588	7.085495	0.111049	0.007799	0.117932	0.999999	-0.000094	0.001428	0.000099	-0.469690	-0.334674	0.167104	-0.799663	3.744599	-43.806598	117.637523	-0.334770	0.639337	0.692226	-0.863037	-0.502936	0.047132	0.378279	-0.581639	0.720140
47388														6.719520	0.444074	7.115314	0.112215	0.007419	0.118377	0.999998	-0.000115	0.001883	0.000033	-0.470010	-0.333080	0.166288	-0.800310	3.715456	-43.586533	117.663902	-0.336297	0.641533	0.689449	-0.863082	-0.502878	0.046938	0.376821	-0.579266	0.722812
47389														6.597783	0.433765	7.115556	0.110273	0.007246	0.118303	0.999997	-0.000081	0.002620	0.000065	-0.470430	-0.330903	0.165115	-0.801209	3.681984	-43.282365	117.700128	-0.338399	0.644551	0.685594	-0.863099	-0.502866	0.046750	0.374895	-0.575916	0.726481
47390														6.569546	0.422715	7.165545	0.109828	0.007033	0.119117	0.999996	0.000039	0.002814	-0.000068	-0.470946	-0.328643	0.163710	-0.802124	3.675206	-42.954856	117.717145	-0.340408	0.647910	0.681422	-0.863118	-0.502818	0.046915	0.373028	-0.572178	0.730386
47391														6.469748	0.414943	7.177724	0.108204	0.006875	0.119292	0.999995	0.000212	0.003133	-0.000141	-0.471513	-0.326219	0.161991	-0.803129	3.694086	-42.590411	117.725740	-0.342514	0.651682	0.676753	-0.863060	-0.502870	0.047434	0.371230	-0.567831	0.734681
47392														6.599757	0.484205	7.198709	0.110347	0.008018	0.119659	0.999996	0.000277	0.002917	-0.000170	-0.472048	-0.324001	0.160311	-0.804049	3.725148	-42.250544	117.726806	-0.344388	0.655218	0.672374	-0.862981	-0.502942	0.048092	0.369675	-0.563684	0.738648
47393														6.579981	0.447095	7.219042	0.110079	0.007401	0.119942	0.999994	0.000267	0.003428	-0.000168	-0.472654	-0.321363	0.158396	-0.805130	3.750938	-41.852200	117.734857	-0.346647	0.659291	0.667211	-0.862901	-0.503018	0.048729	0.367746	-0.558846	0.743273
47394														6.433280	0.438526	7.261994	0.107691	0.007251	0.120618	0.999992	0.000326	0.003882	-0.000172	-0.473318	-0.318384	0.156217	-0.806348	3.781044	-41.402004	117.745728	-0.349202	0.663845	0.661338	-0.862793	-0.503132	0.049464	0.365577	-0.553325	0.748455
47395														6.278803	0.425797	7.230047	0.105166	0.006986	0.120054	0.999990	0.000691	0.004306	-0.000266	-0.473995	-0.315245	0.153509	-0.807703	3.859072	-40.902514	117.747910	-0.351899	0.668908	0.654774	-0.862481	-0.503527	0.050869	0.363723	-0.546829	0.754111
47396														6.135499	0.528598	7.302591	0.102744	0.008749	0.121304	0.999992	0.000246	0.003974	-0.000305	-0.474784	-0.312165	0.151302	-0.808851	3.892076	-40.440758	117.741269	-0.354266	0.673598	0.648661	-0.862523	-0.503375	0.051660	0.361318	-0.541184	0.759322
47397														6.283431	0.498004	7.229019	0.105194	0.008229	0.120078	0.999992	0.000307	0.003889	-0.000327	-0.475557	-0.309179	0.149079	-0.809957	3.934279	-39.988485	117.730335	-0.356509	0.678177	0.642634	-0.862545	-0.503243	0.052569	0.359052	-0.535559	0.764368
47398														6.223074	0.502902	7.291971	0.104204	0.008316	0.121120	0.999992	0.000237	0.003985	-0.000352	-0.476368	-0.306082	0.146854	-0.811062	3.969673	-39.525048	117.718582	-0.358776	0.682829	0.636415	-0.862626	-0.503015	0.053399	0.356589	-0.529830	0.769496
47399														6.150721	0.487891	7.332374	0.103002	0.008039	0.121799	0.999992	0.000453	0.003998	-0.000359	-0.477125	-0.303072	0.144446	-0.812179	4.030337	-39.060074	117.704550	-0.360998	0.687467	0.630135	-0.862577	-0.502974	0.054575	0.354460	-0.523838	0.774565
47400														6.037432	0.493962	7.382378	0.101111	0.008129	0.122646	0.999992	0.000545	0.003947	-0.000364	-0.477832	-0.300144	0.141981	-0.813285	4.101342	-38.600793	117.691834	-0.363181	0.691997	0.623890	-0.862456	-0.503036	0.055894	0.352518	-0.517778	0.779510
47401														5.951988	0.549910	7.447544	0.099674	0.009057	0.123752	0.999993	0.000610	0.003807	-0.000324	-0.478461	-0.297352	0.139539	-0.814362	4.176942	-38.158051	117.683872	-0.365314	0.696296	0.617833	-0.862265	-0.503208	0.057272	0.350777	-0.511813	0.784221
47402														5.882896	0.518061	7.538210	0.098492	0.008525	0.125296	0.999994	0.000637	0.003520	-0.000296	-0.479008	-0.294800	0.137218	-0.815362	4.254380	-37.748310	117.678231	-0.367288	0.700227	0.612194	-0.862034	-0.503444	0.058658	0.349280	-0.506188	0.788529
47403														5.913449	0.574841	7.529479	0.098957	0.009465	0.125185	0.999995	0.000691	0.003169	-0.000299	-0.479489	-0.292555	0.135019	-0.816255	4.339965	-37.378640	117.669120	-0.369003	0.703769	0.607080	-0.861771	-0.503720	0.060134	0.348119	-0.500974	0.792362
47404														5.834039	0.570753	7.613917	0.097605	0.009400	0.126621	0.999995	0.000697	0.002912	-0.000252	-0.479895	-0.290512	0.132952	-0.817085	4.423347	-37.038581	117.664071	-0.370608	0.706980	0.602353	-0.861478	-0.504050	0.061564	0.347140	-0.496097	0.795852
47405														5.740963	0.581339	7.631267	0.096012	0.009582	0.126947	0.999996	0.000695	0.002578	-0.000199	-0.480223	-0.288730	0.131065	-0.817828	4.504056	-36.737071	117.661395	-0.372041	0.709795	0.598144	-0.861165	-0.504415	0.062933	0.346382	-0.491687	0.798914
47406														5.691221	0.558758	7.724651	0.095153	0.009204	0.128531	0.999997	0.000753	0.002315	-0.000120	-0.480397	-0.287185	0.129270	-0.818555	4.585712	-36.466731	117.672640	-0.373487	0.712214	0.594356	-0.860712	-0.505016	0.064296	0.345952	-0.487555	0.801628
47407														5.618116	0.610172	7.700276	0.093898	0.010066	0.128154	0.999998	0.000757	0.002047	-0.000069	-0.480523	-0.285845	0.127623	-0.819209	4.665189	-36.226944	117.684022	-0.374781	0.714336	0.590985	-0.860258	-0.505620	0.065610	0.345681	-0.483810	0.804010
47408														5.564403	0.620736	7.760628	0.092975	0.010238	0.129183	0.999998	0.000813	0.001819	-0.000033	-0.480567	-0.284711	0.126051	-0.819821	4.749020	-36.013529	117.699117	-0.375990	0.716181	0.587976	-0.859734	-0.506333	0.066968	0.345673	-0.480324	0.806101
47409														5.552778	0.635535	7.798973	0.092759	0.010486	0.129840	0.999998	0.000849	0.001641	0.000039	-0.480514	-0.283738	0.124549	-0.820418	4.833063	-35.821517	117.722603	-0.377198	0.717767	0.585262	-0.859124	-0.507187	0.068316	0.345872	-0.477044	0.807961
47410														5.500075	0.691496	7.832338	0.091857	0.011423	0.130415	0.999999	0.000836	0.001453	0.000074	-0.480417	-0.282907	0.123158	-0.820973	4.914153	-35.651321	117.748331	-0.378328	0.719133	0.582851	-0.858502	-0.508064	0.069608	0.346183	-0.474044	0.809592
47411														5.452346	0.724194	7.874489	0.091039	0.011973	0.131135	0.999999	0.000840	0.001283	0.000149	-0.480213	-0.282206	0.121865	-0.821526	4.989635	-35.501259	117.786023	-0.379511	0.720232	0.580721	-0.857797	-0.509089	0.070807	0.346636	-0.471268	0.811018
47412														5.427434	0.785895	7.896528	0.090610	0.013026	0.131511	0.999999	0.000658	0.001176	0.000162	-0.480064	-0.281496	0.120784	-0.822016	5.044084	-35.363117	117.820506	-0.380597	0.721240	0.578756	-0.857241	-0.509900	0.071701	0.346821	-0.468844	0.812342
47413														5.420591	0.759999	7.934879	0.090484	0.012621	0.132156	0.999999	0.000454	0.001083	0.000154	-0.479931	-0.280773	0.119905	-0.822469	5.076007	-35.236070	117.857827	-0.381665	0.722125	0.576947	-0.856789	-0.510577	0.072267	0.346761	-0.466740	0.813579
47414														5.407648	0.735586	7.924884	0.090262	0.012230	0.131992	0.999999	0.000329	0.001036	0.000154	-0.479865	-0.280022	0.119158	-0.822873	5.094696	-35.113890	117.889252	-0.382636	0.723001	0.575204	-0.856468	-0.511063	0.072641	0.346485	-0.464849	0.814779
47415														5.401997	0.722668	7.918999	0.090161	0.012012	0.131899	0.999999	0.000358	0.000981	0.000167	-0.479773	-0.279328	0.118416	-0.823269	5.116360	-34.998130	117.921619	-0.383588	0.723810	0.573550	-0.856118	-0.511592	0.073053	0.346299	-0.463004	0.815907
47416														5.380232	0.762318	7.888147	0.089796	0.012676	0.131386	0.999999	0.000344	0.000973	0.000172	-0.479662	-0.278636	0.117688	-0.823672	5.135603	-34.883526	117.957068	-0.384572	0.724585	0.571910	-0.855753	-0.512147	0.073429	0.346108	-0.461175	0.817023
47417														5.371890	0.777813	7.902466	0.089652	0.012941	0.131628	0.999999	0.000308	0.000933	0.000199	-0.479559	-0.277954	0.117018	-0.824058	5.149893	-34.773625	117.992095	-0.385529	0.725317	0.570336	-0.855420	-0.512660	0.073731	0.345867	-0.459451	0.818096
47418														5.411757	0.753943	7.906754	0.090314	0.012549	0.131700	1.000000	0.000233	0.000908	0.000156	-0.479450	-0.277278	0.116399	-0.824437	5.158890	-34.667320	118.028668	-0.386489	0.726003	0.568810	-0.855103	-0.513157	0.073955	0.345581	-0.457809	0.819137
47419														5.398983	0.700842	7.920794	0.090106	0.011672	0.131930	1.000000	0.000154	0.000943	0.000131	-0.479439	-0.276520	0.115832	-0.824778	5.160516	-34.555514	118.055500	-0.387350	0.726800	0.567204	-0.854920	-0.513443	0.074078	0.345067	-0.456221	0.820239
47420														5.408576	0.774621	8.031330	0.090264	0.012883	0.133777	1.000000	0.000289	0.000916	0.000122	-0.479377	-0.275861	0.115158	-0.825129	5.179233	-34.447443	118.082617	-0.388197	0.727560	0.565650	-0.854630	-0.513873	0.074442	0.344833	-0.454523	0.821279
47421														5.383016	0.746765	7.999633	0.089840	0.012419	0.133247	1.000000	0.000253	0.000931	0.000078	-0.479382	-0.275165	0.114502	-0.825449	5.196466	-34.336365	118.101524	-0.388953	0.728398	0.564050	-0.854425	-0.514164	0.074788	0.344490	-0.452850	0.822347
47422														5.372878	0.769220	8.045711	0.089668	0.012786	0.134018	1.000000	0.000307	0.000900	0.000079	-0.479359	-0.274518	0.113817	-0.825773	5.219245	-34.228694	118.121836	-0.389710	0.729193	0.562498	-0.854172	-0.514522	0.075211	0.344261	-0.451159	0.823371
47423														5.408879	0.743175	7.970062	0.090260	0.012371	0.132759	1.000000	0.000165	0.000853	0.000075	-0.479355	-0.273853	0.113264	-0.826072	5.227283	-34.127177	118.142775	-0.390446	0.729928	0.561032	-0.853999	-0.514780	0.075418	0.343857	-0.449674	0.824352
47424														5.380778	0.726438	8.001696	0.089788	0.012098	0.133289	1.000000	0.000128	0.000822	0.000084	-0.479354	-0.273195	0.112759	-0.826359	5.230709	-34.029323	118.164048	-0.391169	0.730627	0.559617	-0.853848	-0.515010	0.075554	0.343410	-0.448274	0.825300
47425														5.317929	0.691710	7.986868	0.088730	0.011537	0.133049	1.000000	-0.000012	0.000739	0.000080	-0.479399	-0.272529	0.112414	-0.826600	5.218503	-33.940202	118.181998	-0.391808	0.731271	0.558327	-0.853815	-0.515078	0.075457	0.342762	-0.447144	0.826182
47426														5.273407	0.699665	8.016981	0.087976	0.011666	0.133559	1.000000	0.000026	0.000654	0.000096	-0.479403	-0.271956	0.112079	-0.826832	5.210550	-33.861409	118.201973	-0.392426	0.731810	0.557186	-0.853732	-0.515223	0.075412	0.342262	-0.446094	0.826956
47427														5.234663	0.711701	8.032185	0.087317	0.011851	0.133824	1.000000	0.000116	0.000545	0.000059	-0.479397	-0.271513	0.111715	-0.827030	5.215397	-33.794180	118.216325	-0.392918	0.732287	0.556211	-0.853616	-0.515396	0.075542	0.341987	-0.445109	0.827600
47428														5.241453	0.715712	8.057747	0.087414	0.011907	0.134261	1.000000	0.000189	0.000426	0.000046	-0.479375	-0.271205	0.111345	-0.827194	5.230742	-33.740374	118.226486	-0.393294	0.732678	0.555431	-0.853467	-0.515604	0.075811	0.341927	-0.444225	0.828100
47429														5.231695	0.731554	8.031613	0.087237	0.012169	0.133835	1.000000	0.000206	0.000320	0.000048	-0.479338	-0.270996	0.111010	-0.827329	5.249122	-33.698924	118.234973	-0.393593	0.732973	0.554829	-0.853307	-0.515824	0.076113	0.341983	-0.443481	0.828476
47430														5.273038	0.733922	8.064406	0.087916	0.012213	0.134388	1.000000	0.000165	0.000241	0.000038	-0.479339	-0.270832	0.110746	-0.827417	5.265169	-33.666089	118.236902	-0.393768	0.733240	0.554352	-0.853214	-0.515939	0.076375	0.342012	-0.442907	0.828771
47431														5.244809	0.750246	8.061622	0.087437	0.012495	0.134346	1.000000	0.000082	0.000174	0.000020	-0.479349	-0.270687	0.110575	-0.827482	5.272936	-33.640898	118.238622	-0.393905	0.733443	0.553986	-0.853168	-0.515995	0.076509	0.341969	-0.442506	0.829003
47432														5.240183	0.757849	8.095032	0.087352	0.012622	0.134908	1.000000	0.000073	0.000115	0.000017	-0.479345	-0.270591	0.110438	-0.827534	5.280165	-33.622762	118.240948	-0.394018	0.733581	0.553722	-0.853115	-0.516064	0.076630	0.341970	-0.442196	0.829168
47433														5.213964	0.724916	8.033846	0.086907	0.012083	0.133893	1.000000	0.000021	0.000057	0.000041	-0.479344	-0.270511	0.110381	-0.827568	5.280127	-33.611187	118.243623	-0.394105	0.733661	0.553554	-0.853099	-0.516090	0.076640	0.341911	-0.442032	0.829279
47434														5.247387	0.747730	8.018487	0.087457	0.012468	0.133641	1.000000	-0.000019	0.000006	0.000032	-0.479347	-0.270453	0.110380	-0.827585	5.275911	-33.605185	118.245990	-0.394163	0.733696	0.553467	-0.853107	-0.516085	0.076584	0.341826	-0.441980	0.829343
47435														5.268532	0.713572	7.986530	0.087804	0.011898	0.133112	1.000000	-0.000008	-0.000032	0.000043	-0.479321	-0.270435	0.110388	-0.827606	5.272388	-33.604045	118.251070	-0.394233	0.733671	0.553450	-0.853083	-0.516132	0.076534	0.341805	-0.441967	0.829358
47436														5.259277	0.763032	8.008661	0.087644	0.012701	0.133486	1.000000	0.000131	-0.000076	0.000018	-0.479270	-0.270523	0.110296	-0.827618	5.286957	-33.607693	118.252504	-0.394235	0.733630	0.553503	-0.852980	-0.516270	0.076742	0.342058	-0.441873	0.829304
47437														5.236881	0.740349	8.057775	0.087269	0.012334	0.134305	1.000000	0.000029	-0.000091	-0.000013	-0.479269	-0.270590	0.110279	-0.827599	5.293986	-33.613461	118.248965	-0.394163	0.733605	0.553587	-0.852967	-0.516279	0.076838	0.342174	-0.441905	0.829239
47438														5.261508	0.748302	8.050168	0.087679	0.012476	0.134177	1.000000	-0.000055	-0.000095	-0.000031	-0.479286	-0.270615	0.110332	-0.827574	5.290879	-33.619066	118.246413	-0.394105	0.733575	0.553669	-0.853005	-0.516223	0.076788	0.342147	-0.442019	0.829189
47439														5.296437	0.738721	8.026780	0.088264	0.012320	0.133786	1.000000	-0.000088	-0.000078	-0.000047	-0.479345	-0.270611	0.110400	-0.827532	5.285871	-33.622527	118.239097	-0.393995	0.733596	0.553719	-0.853098	-0.516080	0.076713	0.342040	-0.442152	0.829162
47440														5.299445	0.747867	8.044486	0.088318	0.012462	0.134079	1.000000	-0.000013	-0.000052	-0.000048	-0.479394	-0.270623	0.110394	-0.827501	5.289685	-33.623032	118.230971	-0.393889	0.733647	0.553726	-0.853148	-0.515989	0.076768	0.342037	-0.442173	0.829153
47441														5.264790	0.747290	8.048115	0.087737	0.012457	0.134141	1.000000	-0.000038	-0.000076	-0.000036	-0.479447	-0.270631	0.110429	-0.827463	5.288950	-33.625675	118.223218	-0.393778	0.733678	0.553765	-0.853221	-0.515871	0.076755	0.341984	-0.442259	0.829128
47442														5.266165	0.731548	7.997029	0.087761	0.012186	0.133290	1.000000	-0.000023	-0.000075	-0.000105	-0.479517	-0.270664	0.110427	-0.827412	5.294893	-33.628426	118.211025	-0.393609	0.733739	0.553805	-0.853293	-0.515739	0.076838	0.341998	-0.442314	0.829094
47443														5.329551	0.727601	8.015266	0.088821	0.012123	0.133591	1.000000	-0.000028	-0.000043	-0.000088	-0.479604	-0.270658	0.110423	-0.827364	5.298875	-33.626953	118.198000	-0.393449	0.733841	0.553783	-0.853388	-0.515574	0.076897	0.341946	-0.442337	0.829102
47444														5.323770	0.716746	8.010112	0.088724	0.011925	0.133507	1.000000	0.000106	-0.000045	-0.000077	-0.479658	-0.270723	0.110308	-0.827327	5.318896	-33.626169	118.184145	-0.393275	0.733942	0.553772	-0.853393	-0.515521	0.077187	0.342132	-0.442229	0.829083
47445														5.310445	0.781427	8.002444	0.088501	0.012999	0.133381	1.000000	0.000157	-0.000051	-0.000048	-0.479654	-0.270810	0.110163	-0.827320	5.341175	-33.626236	118.177341	-0.393188	0.733989	0.553773	-0.853322	-0.515591	0.077510	0.342412	-0.442070	0.829052
47446														5.330018	0.789162	8.008700	0.088827	0.013133	0.133484	1.000000	0.000107	-0.000053	-0.000059	-0.479683	-0.270875	0.110059	-0.827296	5.358850	-33.626343	118.167609	-0.393062	0.734054	0.553774	-0.853303	-0.515583	0.077765	0.342601	-0.441971	0.829027
47447														5.341220	0.774102	7.992093	0.089014	0.012893	0.133207	1.000000	0.000008	-0.000057	-0.000089	-0.479776	-0.270892	0.110036	-0.827239	5.366898	-33.626049	118.152150	-0.392866	0.734163	0.553770	-0.853395	-0.515415	0.077882	0.342599	-0.441987	0.829019
47448														5.368584	0.737767	8.007828	0.089472	0.012291	0.133467	1.000000	-0.000041	-0.000041	-0.000117	-0.479879	-0.270883	0.110032	-0.827183	5.371430	-33.624255	118.136791	-0.392677	0.734283	0.553744	-0.853507	-0.515219	0.077949	0.342536	-0.442015	0.829030
47449														5.375427	0.750535	8.012084	0.089586	0.012507	0.133538	1.000000	-0.000035	-0.000038	-0.000071	-0.479951	-0.270883	0.110025	-0.827142	5.375444	-33.623317	118.125628	-0.392538	0.734368	0.553730	-0.853584	-0.515082	0.078008	0.342503	-0.442034	0.829034
47450														5.363374	0.758846	8.009322	0.089387	0.012632	0.133492	1.000000	0.000054	-0.000030	-0.000088	-0.480021	-0.270907	0.109945	-0.827104	5.389216	-33.620470	118.112065	-0.392377	0.734485	0.553689	-0.853625	-0.514983	0.078210	0.342585	-0.441955	0.829043
47451														5.290648	0.797879	8.056252	0.088171	0.013283	0.134277	1.000000	0.000077	-0.000053	-0.000047	-0.480025	-0.270964	0.109864	-0.827094	5.402654	-33.621232	118.106954	-0.392308	0.734514	0.553700	-0.853590	-0.515011	0.078404	0.342751	-0.441875	0.829017
47452														5.300131	0.805046	8.028163	0.088328	0.013409	0.133809	1.000000	0.000030	-0.000063	-0.000049	-0.480061	-0.271004	0.109828	-0.827065	5.411305	-33.622903	118.098849	-0.392197	0.734555	0.553724	-0.853610	-0.514959	0.078528	0.342828	-0.441867	0.828989
47453														5.308714	0.763490	8.036903	0.088476	0.012722	0.133951	1.000000	-0.000017	-0.000027	-0.000058	-0.480135	-0.270987	0.109815	-0.827029	5.414799	-33.619909	118.088080	-0.392072	0.734654	0.553681	-0.853688	-0.514822	0.078581	0.342777	-0.441861	0.829013
47454														5.280310	0.791246	8.002088	0.088001	0.013189	0.133371	1.000000	-0.000043	-0.000034	-0.000046	-0.480213	-0.270959	0.109832	-0.826991	5.414373	-33.617574	118.077944	-0.391953	0.734743	0.553647	-0.853783	-0.514665	0.078577	0.342677	-0.441896	0.829036
47455														5.307276	0.754283	8.018169	0.088455	0.012567	0.133636	1.000000	0.000021	0.000004	-0.000023	-0.480224	-0.270940	0.109776	-0.826998	5.419332	-33.612123	118.076038	-0.391953	0.734803	0.553568	-0.853774	-0.514668	0.078654	0.342699	-0.441793	0.829082
47456														5.236422	0.785394	8.033507	0.087270	0.013087	0.133894	1.000000	0.000017	-0.000026	-0.000006	-0.480249	-0.270937	0.109746	-0.826988	5.423517	-33.609845	118.071721	-0.391908	0.734852	0.553535	-0.853789	-0.514633	0.078716	0.342712	-0.441752	0.829098
47457														5.243058	0.766356	8.030883	0.087379	0.012765	0.133852	1.000000	0.000039	-0.000040	-0.000028	-0.480294	-0.270950	0.109705	-0.826964	5.431100	-33.608319	118.063389	-0.391808	0.734922	0.553512	-0.853820	-0.514566	0.078827	0.342751	-0.441715	0.829102
47458														5.272915	0.755348	8.021497	0.087877	0.012586	0.133695	1.000000	0.000010	-0.000039	-0.000025	-0.480312	-0.270954	0.109682	-0.826955	5.434678	-33.607216	118.059904	-0.391769	0.734955	0.553496	-0.853830	-0.514540	0.078880	0.342769	-0.441689	0.829108
47459														5.252338	0.757592	8.046104	0.087535	0.012618	0.134105	1.000000	0.000057	-0.000029	-0.000015	-0.480317	-0.270970	0.109621	-0.826955	5.442854	-33.605044	118.057020	-0.391742	0.734993	0.553465	-0.853809	-0.514558	0.079000	0.342854	-0.441605	0.829117
47460														5.251079	0.781474	8.034138	0.087512	0.013011	0.133907	1.000000	0.000072	-0.000047	-0.000039	-0.480355	-0.271010	0.109549	-0.826929	5.455485	-33.604472	118.047731	-0.391625	0.735062	0.553457	-0.853817	-0.514516	0.079184	0.342967	-0.441540	0.829105
47461														5.272850	0.780949	8.008579	0.087875	0.013013	0.133480	1.000000	-0.000001	-0.000045	-0.000037	-0.480383	-0.271025	0.109530	-0.826910	5.460013	-33.604605	118.042328	-0.391555	0.735097	0.553458	-0.853838	-0.514470	0.079249	0.342994	-0.441534	0.829098
47462														5.334096	0.768199	8.008452	0.088896	0.012788	0.133479	1.000000	0.000110	-0.000043	-0.000013	-0.480367	-0.271084	0.109426	-0.826914	5.475089	-33.604462	118.039719	-0.391522	0.735117	0.553456	-0.853772	-0.514547	0.079467	0.343197	-0.441412	0.829078
47463														5.247005	0.804792	8.034658	0.087444	0.013403	0.133916	1.000000	0.000073	-0.000047	-0.000003	-0.480354	-0.271125	0.109360	-0.826917	5.484903	-33.604635	118.038176	-0.391502	0.735126	0.553459	-0.853726	-0.514600	0.079609	0.343333	-0.441335	0.829063
47464														5.212581	0.821128	8.088308	0.086859	0.013680	0.134817	1.000000	0.000002	-0.000133	-0.000064	-0.480416	-0.271212	0.109376	-0.826850	5.492762	-33.614027	118.024884	-0.391289	0.735136	0.553595	-0.853793	-0.514474	0.079714	0.343411	-0.441464	0.828962
47465														5.333132	0.790570	8.006970	0.088851	0.013179	0.133472	1.000000	-0.000090	-0.000268	-0.000103	-0.480500	-0.271368	0.109524	-0.826731	5.492708	-33.638319	118.007825	-0.390959	0.735045	0.553948	-0.853930	-0.514249	0.079691	0.343444	-0.441877	0.828728
47466														5.337366	0.839438	8.061245	0.088920	0.013975	0.134379	1.000000	0.000050	-0.000276	-0.000101	-0.480536	-0.271596	0.109561	-0.826630	5.508065	-33.663521	117.992046	-0.390643	0.734938	0.554315	-0.853963	-0.514164	0.079890	0.343722	-0.442156	0.828464
47467														5.347796	0.836236	8.012862	0.089100	0.013945	0.133567	1.000000	-0.000082	-0.000228	-0.000038	-0.480560	-0.271720	0.109698	-0.826557	5.504066	-33.684296	117.985204	-0.390460	0.734807	0.554616	-0.854035	-0.514056	0.079813	0.343751	-0.442498	0.828270
47468														5.321681	0.782494	8.005962	0.088666	0.013056	0.133451	1.000000	-0.000152	-0.000224	-0.000062	-0.480637	-0.271806	0.109886	-0.826459	5.493922	-33.704096	117.973433	-0.390220	0.734718	0.554904	-0.854189	-0.513827	0.079648	0.343643	-0.442913	0.828093
47469														5.308539	0.768952	7.964849	0.088446	0.012832	0.132765	1.000000	-0.000154	-0.000226	-0.000045	-0.480713	-0.271885	0.110087	-0.826363	5.481745	-33.723872	117.962408	-0.389988	0.734624	0.555191	-0.854348	-0.513593	0.079453	0.343510	-0.443340	0.827919
47470														5.276828	0.766427	7.966875	0.087912	0.012787	0.132803	1.000000	-0.000141	-0.000272	-0.000061	-0.480780	-0.272017	0.110289	-0.826253	5.473225	-33.749233	117.950067	-0.389715	0.734491	0.555559	-0.854493	-0.513374	0.079307	0.343459	-0.443814	0.827686
47471														5.325096	0.723519	7.968654	0.088710	0.012069	0.132838	1.000000	-0.000115	-0.000319	-0.000056	-0.480826	-0.272198	0.110495	-0.826139	5.467172	-33.779908	117.938644	-0.389429	0.734305	0.556004	-0.854612	-0.513194	0.079191	0.343488	-0.444328	0.827398
47472														5.300638	0.718310	8.017929	0.088302	0.011975	0.133659	1.000000	-0.000068	-0.000319	-0.000064	-0.480849	-0.272405	0.110657	-0.826036	5.466848	-33.810668	117.928561	-0.389160	0.734110	0.556450	-0.854684	-0.513079	0.079158	0.343613	-0.444784	0.827102
47473														5.278596	0.723504	7.991630	0.087934	0.012053	0.133223	1.000000	-0.000007	-0.000328	-0.000069	-0.480896	-0.272644	0.110776	-0.825913	5.474813	-33.842020	117.912296	-0.388809	0.733951	0.556905	-0.854761	-0.512936	0.079244	0.343818	-0.445210	0.826787
47474														5.309851	0.726202	8.042357	0.088437	0.012088	0.134081	1.000000	0.000097	-0.000456	-0.000032	-0.480873	-0.273031	0.110885	-0.825784	5.492203	-33.888116	117.899098	-0.388430	0.733645	0.557573	-0.854745	-0.512931	0.079452	0.344286	-0.445721	0.826317
47475														5.330019	0.736710	8.089820	0.088768	0.012265	0.134875	1.000000	0.000107	-0.000487	0.000006	-0.480763	-0.273457	0.110999	-0.825692	5.508137	-33.939032	117.897499	-0.388178	0.733217	0.558310	-0.854631	-0.513093	0.079634	0.344854	-0.446237	0.825801
47476														5.306860	0.772810	8.082098	0.088380	0.012862	0.134748	1.000000	0.000142	-0.000502	0.000013	-0.480664	-0.273906	0.111098	-0.825588	5.527975	-33.991382	117.892620	-0.387876	0.732799	0.559068	-0.854521	-0.513240	0.079871	0.345465	-0.446755	0.825266
47477														5.306825	0.800229	8.017065	0.088377	0.013334	0.133664	1.000000	0.000059	-0.000516	0.000058	-0.480566	-0.274314	0.111291	-0.825483	5.534560	-34.045321	117.891544	-0.387616	0.732341	0.559848	-0.854455	-0.513341	0.079915	0.345918	-0.447389	0.824732
47478														5.288317	0.788781	8.032022	0.088063	0.013158	0.133916	1.000000	-0.000024	-0.000556	0.000095	-0.480452	-0.274719	0.111575	-0.825376	5.530162	-34.104686	117.895134	-0.387391	0.731804	0.560707	-0.854411	-0.513434	0.079796	0.346280	-0.448162	0.824161
47479														5.333211	0.803390	7.977839	0.088806	0.013414	0.133015	1.000000	-0.000104	-0.000595	0.000113	-0.480353	-0.275112	0.111953	-0.825252	5.515277	-34.168397	117.899173	-0.387150	0.731225	0.561627	-0.854424	-0.513456	0.079521	0.346519	-0.449081	0.823560
47480														5.288686	0.762733	7.962437	0.088055	0.012735	0.132764	1.000000	-0.000118	-0.000666	0.000082	-0.480277	-0.275560	0.112368	-0.825090	5.501952	-34.239936	117.897569	-0.386801	0.730615	0.562660	-0.854472	-0.513415	0.079263	0.346788	-0.450118	0.822880
47481														5.288023	0.799310	7.959667	0.088030	0.013344	0.132728	1.000000	-0.000117	-0.000773	0.000080	-0.480183	-0.276094	0.112836	-0.824902	5.488768	-34.323488	117.895612	-0.386392	0.729903	0.563865	-0.854516	-0.513384	0.078995	0.347137	-0.451308	0.822081
47482														5.328639	0.807225	7.930163	0.088689	0.013481	0.132248	1.000000	-0.000148	-0.000908	0.000089	-0.480058	-0.276729	0.113390	-0.824687	5.472662	-34.422926	117.895365	-0.385930	0.729038	0.565297	-0.854551	-0.513374	0.078670	0.347562	-0.452714	0.821127
47483														5.373507	0.775750	7.954147	0.089422	0.012965	0.132658	0.999999	-0.000220	-0.001022	0.000071	-0.479957	-0.277422	0.114056	-0.824420	5.450047	-34.535009	117.890911	-0.385356	0.728090	0.566910	-0.854657	-0.513264	0.078241	0.347941	-0.454363	0.820056
47484														5.321685	0.780357	7.971414	0.088550	0.013027	0.132951	0.999999	-0.000146	-0.001085	0.000022	-0.479874	-0.278205	0.114681	-0.824118	5.439906	-34.653503	117.878253	-0.384646	0.727137	0.568612	-0.854756	-0.513138	0.077984	0.348482	-0.456028	0.818901
47485														5.334314	0.726979	7.916240	0.088753	0.012136	0.132038	0.999999	-0.000180	-0.001158	-0.000041	-0.479844	-0.279045	0.115346	-0.823759	5.432614	-34.780060	117.855308	-0.383767	0.726179	0.570428	-0.854926	-0.512889	0.077761	0.349035	-0.457831	0.817658
47486														5.465186	0.723827	7.842202	0.090925	0.012073	0.130815	0.999999	-0.000135	-0.001246	-0.000098	-0.479846	-0.279980	0.116005	-0.823348	5.435132	-34.915754	117.822463	-0.382719	0.725202	0.572371	-0.855118	-0.512582	0.077669	0.349713	-0.459720	0.816308
47487														5.525021	0.726306	7.808965	0.091905	0.012116	0.130274	0.999999	-0.000182	-0.001381	-0.000138	-0.479886	-0.281005	0.116759	-0.822869	5.436489	-35.066203	117.780932	-0.381491	0.724147	0.574523	-0.855386	-0.512153	0.077546	0.350398	-0.461856	0.814807
47488														5.517248	0.712187	7.827706	0.091749	0.011862	0.130607	0.999999	-0.000037	-0.001583	-0.000133	-0.479818	-0.282274	0.117481	-0.822371	5.455818	-35.240326	117.742657	-0.380193	0.722853	0.577007	-0.855500	-0.511947	0.077654	0.351529	-0.464106	0.813039
47489														5.476900	0.768626	7.895748	0.091049	0.012808	0.131757	0.999998	-0.000061	-0.001776	-0.000117	-0.479719	-0.283691	0.118318	-0.821821	5.473265	-35.436851	117.703562	-0.378777	0.721355	0.579805	-0.855618	-0.511740	0.077712	0.352768	-0.466656	0.811040
47490														5.438988	0.770095	7.872876	0.090396	0.012837	0.131389	0.999998	-0.000058	-0.001937	-0.000060	-0.479574	-0.285226	0.119253	-0.821239	5.487302	-35.651842	117.667550	-0.377311	0.719661	0.582858	-0.855718	-0.511576	0.077702	0.354096	-0.469444	0.808850
47491														5.490346	0.767761	7.825389	0.091238	0.012810	0.130609	0.999998	-0.000136	-0.002055	-0.000044	-0.479402	-0.286823	0.120306	-0.820629	5.492671	-35.880767	117.634458	-0.375812	0.717810	0.586100	-0.855836	-0.511400	0.077555	0.355401	-0.472460	0.806518
47492														5.507994	0.834311	7.828304	0.091517	0.013921	0.130669	0.999998	-0.000089	-0.002164	0.000049	-0.479144	-0.288514	0.121405	-0.820025	5.496377	-36.122798	117.610563	-0.374362	0.715767	0.589518	-0.855874	-0.511364	0.077369	0.356836	-0.475589	0.804042
47493														5.568717	0.848467	7.814305	0.092510	0.014180	0.130448	0.999997	-0.000258	-0.002307	0.000055	-0.478894	-0.290244	0.122706	-0.819367	5.481755	-36.381520	117.587618	-0.372839	0.713550	0.593159	-0.856009	-0.511208	0.076909	0.358106	-0.479075	0.801403
47494														5.618771	0.829213	7.758015	0.093333	0.013874	0.129521	0.999997	-0.000361	-0.002412	0.000074	-0.478649	-0.292007	0.124148	-0.818666	5.454925	-36.652462	117.564953	-0.371254	0.711203	0.596960	-0.856212	-0.510965	0.076266	0.359266	-0.482810	0.798638
47495														5.649516	0.777234	7.719928	0.093840	0.013027	0.128891	0.999997	-0.000523	-0.002470	0.000066	-0.478429	-0.293742	0.125743	-0.817931	5.410329	-36.930030	117.543294	-0.369644	0.708771	0.600839	-0.856515	-0.510590	0.075371	0.360203	-0.486767	0.795809
47496														5.690306	0.739212	7.671929	0.094524	0.012397	0.128090	0.999997	-0.000567	-0.002449	0.000046	-0.478264	-0.295433	0.127366	-0.817166	5.362167	-37.204719	117.515614	-0.367966	0.706386	0.604665	-0.856898	-0.510083	0.074432	0.361007	-0.490748	0.792995
47497														5.730962	0.733120	7.631053	0.095208	0.012293	0.127407	0.999997	-0.000553	-0.002413	0.000046	-0.478097	-0.297099	0.128959	-0.816410	5.315339	-37.475282	117.488527	-0.366310	0.704019	0.608419	-0.857274	-0.509585	0.073518	0.361800	-0.494651	0.790203
47498														5.780552	0.722710	7.637661	0.096034	0.012128	0.127519	0.999997	-0.000585	-0.002414	0.000081	-0.477882	-0.298751	0.130581	-0.815675	5.261685	-37.746729	117.470389	-0.364753	0.701570	0.612172	-0.857614	-0.509156	0.072513	0.362564	-0.498558	0.787393
47499														5.883981	0.705515	7.578347	0.097766	0.011834	0.126531	0.999997	-0.000539	-0.002368	0.000070	-0.477673	-0.300383	0.132142	-0.814946	5.213483	-38.012534	117.450567	-0.363198	0.699168	0.615834	-0.857942	-0.508735	0.071592	0.363351	-0.502347	0.784617
47500														5.919514	0.696141	7.551495	0.098366	0.011684	0.126079	0.999997	-0.000568	-0.002313	0.000099	-0.477448	-0.301955	0.133706	-0.814242	5.159299	-38.272620	117.436458	-0.361734	0.696769	0.619404	-0.858262	-0.508333	0.070598	0.364054	-0.506073	0.781892
47501														5.951501	0.689139	7.571381	0.098907	0.011573	0.126405	0.999997	-0.000609	-0.002247	0.000110	-0.477227	-0.303455	0.135269	-0.813555	5.099433	-38.525526	117.425566	-0.360338	0.694405	0.622863	-0.858597	-0.507913	0.069537	0.364647	-0.509732	0.779234
47502														5.984007	0.646890	7.538746	0.099462	0.010866	0.125853	0.999998	-0.000593	-0.002147	0.000096	-0.477042	-0.304874	0.136776	-0.812881	5.040876	-38.766463	117.412084	-0.358966	0.692158	0.626148	-0.858956	-0.507446	0.068510	0.365156	-0.513240	0.776689
47503														6.057251	0.643869	7.478131	0.100688	0.010814	0.124843	0.999998	-0.000567	-0.002123	0.000117	-0.476836	-0.306282	0.138254	-0.812222	4.983583	-39.004927	117.401677	-0.357638	0.689904	0.629387	-0.859283	-0.507027	0.067506	0.365689	-0.516679	0.774154
47504														6.092556	0.643224	7.471569	0.101284	0.010802	0.124730	0.999998	-0.000542	-0.002064	0.000139	-0.476604	-0.307649	0.139691	-0.811596	4.926024	-39.236876	117.396635	-0.356402	0.687667	0.632528	-0.859570	-0.506671	0.066509	0.366220	-0.519998	0.771677
47505														6.092019	0.667671	7.448660	0.101282	0.011210	0.124342	0.999998	-0.000531	-0.002013	0.000158	-0.476369	-0.308977	0.141101	-0.810985	4.867860	-39.463220	117.393510	-0.355212	0.685463	0.635583	-0.859850	-0.506326	0.065513	0.366719	-0.523235	0.769248
47506														6.135996	0.648226	7.379724	0.102024	0.010876	0.123191	0.999998	-0.000434	-0.001957	0.000184	-0.476100	-0.310298	0.142415	-0.810408	4.817902	-39.683337	117.393629	-0.354087	0.683289	0.638544	-0.860054	-0.506092	0.064637	0.367328	-0.526295	0.766866
47507														6.227349	0.654598	7.311057	0.103555	0.010985	0.122044	0.999998	-0.000476	-0.001909	0.000159	-0.475841	-0.311570	0.143723	-0.809842	4.764983	-39.898012	117.394972	-0.353000	0.681152	0.641423	-0.860271	-0.505839	0.063729	0.367866	-0.529301	0.764536
