// Start Time: Unknown
// Update Rate: 60.0Hz
//Filter Profile: human (46.1)
// Option Flags: AHS Disabled ICC Disabled
// Firmware Version: 4.0.2
0	sampleTimeFine	Year	Month	Day	Second	UTC_Nano	UTC_Year	UTC_Month	UTC_Day	UTC_Hour	UTC_Minute	UTC_Second	UTC_Valid	Acc_X	Acc_Y	Acc_Z	Mat[1][1]	Mat[2][1]	Mat[3][1]	Mat[1][2]	Mat[2][2]	Mat[3][2]	Mat[1][3]	Mat[2][3]	Mat[3][3]
0	6303851													0.005979	0.158204	-0.162158	-0.424175	-0.888813	0.173458	-0.001280	0.192132	0.981368	-0.905579	0.416050	-0.082635
1	6304017													8.815228	-0.011943	-4.126187	-0.424488	-0.888787	0.172821	-0.001436	0.191532	0.981485	-0.905432	0.416381	-0.082579
2	6304184													8.751842	-0.031442	-4.122788	-0.424525	-0.888720	0.173075	-0.001601	0.191892	0.981415	-0.905415	0.416358	-0.082886
3	6304351													8.720119	-0.013111	-4.142487	-0.424937	-0.888572	0.172827	-0.002044	0.191864	0.981419	-0.905221	0.416688	-0.083346
4	6304517													8.817858	-0.001967	-4.137400	-0.425624	-0.888325	0.172402	-0.002162	0.191518	0.981487	-0.904897	0.417372	-0.083435
5	6304684													8.837337	-0.031839	-4.136381	-0.425942	-0.888151	0.172513	-0.002037	0.191615	0.981468	-0.904748	0.417697	-0.083426
6	6304851													8.884053	-0.015192	-4.109527	-0.425912	-0.888180	0.172439	-0.002000	0.191513	0.981488	-0.904762	0.417683	-0.083344
7	6305017													8.863986	0.018333	-4.093352	-0.425475	-0.888424	0.172260	-0.002069	0.191303	0.981529	-0.904968	0.417260	-0.083233
8	6305184													8.895625	0.071115	-4.084825	-0.424722	-0.888772	0.172323	-0.002073	0.191299	0.981530	-0.905321	0.416521	-0.083091
9	6305351													8.882826	0.075071	-4.057710	-0.423719	-0.889208	0.172542	-0.001977	0.191394	0.981511	-0.905791	0.415544	-0.082855
10	6305517													8.830311	0.021165	-4.042952	-0.422607	-0.889679	0.172844	-0.001844	0.191555	0.981480	-0.906311	0.414462	-0.082593
11	6305684													8.786606	-0.023300	-4.029969	-0.421494	-0.890121	0.173285	-0.001943	0.191975	0.981398	-0.906829	0.413317	-0.082646
12	6305851													8.751653	-0.060353	-4.013589	-0.420564	-0.890524	0.173473	-0.002271	0.192237	0.981346	-0.907260	0.412325	-0.082871
13	6306017													8.732083	-0.095924	-4.023365	-0.419868	-0.890859	0.173439	-0.002811	0.192375	0.981318	-0.907581	0.411536	-0.083276
14	6306184													8.729751	-0.127749	-4.010098	-0.419421	-0.891128	0.173136	-0.003467	0.192294	0.981331	-0.907785	0.410991	-0.083742
15	6306351													8.760186	-0.146943	-4.017474	-0.419148	-0.891347	0.172669	-0.004090	0.192033	0.981380	-0.907909	0.410638	-0.084136
16	6306517													8.835342	-0.180915	-4.048496	-0.419083	-0.891517	0.171949	-0.004818	0.191563	0.981468	-0.907935	0.410489	-0.084576
17	6306684													8.738214	-0.130975	-4.035262	-0.419065	-0.891711	0.170985	-0.005657	0.190880	0.981597	-0.907939	0.410385	-0.085035
18	6306851													8.749877	-0.067993	-4.035009	-0.419319	-0.891765	0.170080	-0.006305	0.190202	0.981725	-0.907817	0.410583	-0.085378
19	6307017													8.800727	-0.068847	-4.034888	-0.419657	-0.891738	0.169387	-0.006764	0.189682	0.981822	-0.907658	0.410883	-0.085633
20	6307184													8.843006	-0.061822	-4.055338	-0.420007	-0.891690	0.168770	-0.007145	0.189211	0.981910	-0.907493	0.411203	-0.085841
21	6307351													8.827827	-0.053956	-4.039557	-0.420302	-0.891641	0.168295	-0.007491	0.188876	0.981972	-0.907353	0.411464	-0.086064
22	6307517													8.830500	-0.028944	-4.037702	-0.420537	-0.891576	0.168049	-0.007852	0.188793	0.981986	-0.907242	0.411641	-0.086395
23	6307684													8.815515	-0.037064	-4.056921	-0.420698	-0.891518	0.167956	-0.008151	0.188844	0.981973	-0.907164	0.411745	-0.086713
24	6307851													8.787436	-0.086800	-4.082679	-0.420834	-0.891428	0.168092	-0.008368	0.189106	0.981921	-0.907099	0.411819	-0.087042
25	6308017													8.769094	-0.117032	-4.100482	-0.421013	-0.891325	0.168188	-0.008582	0.189329	0.981876	-0.907014	0.411940	-0.087359
26	6308184													8.770458	-0.154965	-4.083214	-0.421187	-0.891211	0.168359	-0.008761	0.189616	0.981819	-0.906932	0.412055	-0.087672
27	6308351													8.773946	-0.155614	-4.100151	-0.421401	-0.891088	0.168475	-0.008855	0.189809	0.981781	-0.906831	0.412232	-0.087876
28	6308517													8.799673	-0.141297	-4.111120	-0.421595	-0.890994	0.168484	-0.008870	0.189847	0.981774	-0.906741	0.412416	-0.087942
29	6308684													8.778706	-0.121213	-4.124899	-0.421740	-0.890915	0.168541	-0.008760	0.189875	0.981769	-0.906674	0.412575	-0.087883
30	6308851													8.813613	-0.086418	-4.122793	-0.421825	-0.890883	0.168494	-0.008608	0.189763	0.981792	-0.906636	0.412694	-0.087716
31	6309017													8.857758	-0.066457	-4.097204	-0.421860	-0.890853	0.168570	-0.008483	0.189794	0.981787	-0.906621	0.412747	-0.087624
32	6309184													8.844129	-0.039653	-4.083668	-0.421689	-0.890904	0.168726	-0.008371	0.189897	0.981768	-0.906702	0.412588	-0.087535
33	6309351													8.800827	-0.032008	-4.071593	-0.421424	-0.890995	0.168907	-0.008301	0.190037	0.981742	-0.906826	0.412327	-0.087482
34	6309517													8.770729	-0.064271	-4.095408	-0.421142	-0.891085	0.169139	-0.008255	0.190241	0.981703	-0.906957	0.412039	-0.087475
35	6309684													8.789882	-0.085737	-4.082279	-0.420869	-0.891171	0.169362	-0.008270	0.190464	0.981659	-0.907084	0.411749	-0.087530
36	6309851													8.814857	-0.111850	-4.060912	-0.420564	-0.891273	0.169586	-0.008327	0.190705	0.981612	-0.907225	0.411418	-0.087625
37	6310017													8.803689	-0.114377	-4.073617	-0.420247	-0.891414	0.169630	-0.008434	0.190768	0.981599	-0.907371	0.411083	-0.087688
38	6310184													8.799331	-0.121282	-4.098203	-0.419935	-0.891582	0.169520	-0.008564	0.190672	0.981616	-0.907514	0.410763	-0.087705
39	6310351													8.770181	-0.101085	-4.081755	-0.419695	-0.891733	0.169319	-0.008752	0.190510	0.981646	-0.907623	0.410511	-0.087760
40	6310518													8.748697	-0.080196	-4.085788	-0.419585	-0.891831	0.169076	-0.008896	0.190296	0.981686	-0.907673	0.410397	-0.087779
41	6310684													8.746316	-0.056304	-4.052343	-0.419585	-0.891886	0.168782	-0.008963	0.190004	0.981742	-0.907672	0.410411	-0.087717
42	6310851													8.762352	-0.006902	-4.057554	-0.419695	-0.891889	0.168492	-0.009003	0.189714	0.981798	-0.907621	0.410539	-0.087651
43	6311018													8.769446	0.024819	-4.047269	-0.419861	-0.891825	0.168417	-0.008979	0.189638	0.981813	-0.907544	0.410713	-0.087629
44	6311184													8.829506	0.040372	-4.059757	-0.420023	-0.891759	0.168363	-0.008982	0.189596	0.981821	-0.907469	0.410876	-0.087645
45	6311351													8.914662	0.059998	-4.089307	-0.420065	-0.891716	0.168485	-0.008981	0.189735	0.981794	-0.907449	0.410905	-0.087709
46	6311518													8.864032	0.033072	-4.095013	-0.419934	-0.891724	0.168772	-0.009056	0.190072	0.981728	-0.907510	0.410733	-0.087893
47	6311684													8.830241	-0.009726	-4.066689	-0.419732	-0.891777	0.168994	-0.009237	0.190376	0.981668	-0.907601	0.410476	-0.088145
48	6311851													8.714487	-0.036493	-4.054941	-0.419539	-0.891815	0.169271	-0.009515	0.190786	0.981586	-0.907687	0.410203	-0.088527
49	6312018													8.741148	-0.044200	-4.076263	-0.419600	-0.891773	0.169341	-0.009745	0.190974	0.981547	-0.907657	0.410207	-0.088823
50	6312184													8.798392	-0.057354	-4.072655	-0.419694	-0.891690	0.169544	-0.009750	0.191210	0.981501	-0.907613	0.410277	-0.088944
51	6312351													8.807730	-0.104629	-4.066883	-0.419819	-0.891610	0.169660	-0.009640	0.191301	0.981484	-0.907557	0.410410	-0.088907
52	6312518													8.862035	-0.092263	-4.063476	-0.419833	-0.891608	0.169634	-0.009576	0.191244	0.981496	-0.907551	0.410440	-0.088828
53	6312684													8.863014	-0.043916	-4.065062	-0.419717	-0.891691	0.169483	-0.009547	0.191053	0.981533	-0.907605	0.410348	-0.088702
54	6313018													8.867995	0.022927	-4.051932	-0.419459	-0.891827	0.169406	-0.009471	0.190906	0.981563	-0.907725	0.410121	-0.088524
55	6313184													8.849614	0.040380	-4.035201	-0.419102	-0.891996	0.169398	-0.009389	0.190822	0.981580	-0.907890	0.409792	-0.088349
56	6313351													8.788814	0.025066	-4.010913	-0.418684	-0.892208	0.169316	-0.009361	0.190674	0.981609	-0.908084	0.409399	-0.088184
57	6313518													8.770529	0.018602	-4.017476	-0.418335	-0.892365	0.169353	-0.009430	0.190708	0.981601	-0.908244	0.409041	-0.088195
58	6313684													8.808949	-0.025225	-4.018430	-0.418052	-0.892473	0.169482	-0.009649	0.190920	0.981558	-0.908372	0.408707	-0.088426
59	6313851													8.839461	-0.048029	-4.036769	-0.417802	-0.892606	0.169396	-0.009985	0.190949	0.981549	-0.908483	0.408402	-0.088692
60	6314018													8.817565	-0.027308	-4.030973	-0.417549	-0.892766	0.169181	-0.010293	0.190823	0.981570	-0.908596	0.408113	-0.088867
61	6314184													8.798824	-0.118060	-4.026715	-0.417369	-0.892891	0.168961	-0.010642	0.190719	0.981587	-0.908675	0.407886	-0.089103
62	6314351													8.783154	-0.113657	-4.043919	-0.417212	-0.893035	0.168589	-0.011061	0.190482	0.981628	-0.908742	0.407682	-0.089349
63	6314518													8.702126	-0.076207	-4.022700	-0.417259	-0.893104	0.168107	-0.011452	0.190132	0.981692	-0.908715	0.407695	-0.089562
64	6314684													8.750043	-0.058647	-4.049724	-0.417482	-0.893070	0.167735	-0.011635	0.189830	0.981748	-0.908611	0.407911	-0.089642
65	6314851													8.792747	-0.058452	-4.073320	-0.417842	-0.892986	0.167285	-0.011782	0.189440	0.981822	-0.908443	0.408275	-0.089677
66	6315018													8.820218	-0.063832	-4.031435	-0.418202	-0.892888	0.166909	-0.011919	0.189127	0.981880	-0.908276	0.408635	-0.089736
67	6315184													8.831492	-0.035851	-4.059225	-0.418489	-0.892783	0.166748	-0.012049	0.189040	0.981895	-0.908142	0.408903	-0.089868
68	6315351													8.821236	-0.003415	-4.056010	-0.418705	-0.892715	0.166571	-0.012185	0.188930	0.981915	-0.908041	0.409103	-0.089984
69	6315518													8.792784	-0.029346	-4.099021	-0.418872	-0.892648	0.166514	-0.012307	0.188940	0.981912	-0.907962	0.409246	-0.090127
70	6315684													8.803828	-0.039298	-4.091954	-0.419049	-0.892558	0.166549	-0.012448	0.189061	0.981886	-0.907878	0.409385	-0.090336
71	6315851													8.807183	-0.065877	-4.084871	-0.419193	-0.892467	0.166675	-0.012578	0.189275	0.981844	-0.907810	0.409485	-0.090568
72	6316018													8.797274	-0.086657	-4.111099	-0.419345	-0.892391	0.166701	-0.012673	0.189363	0.981825	-0.907739	0.409610	-0.090718
73	6316184													8.808876	-0.092437	-4.079911	-0.419448	-0.892348	0.166669	-0.012756	0.189377	0.981822	-0.907690	0.409697	-0.090816
74	6316351													8.801908	-0.083869	-4.091968	-0.419477	-0.892346	0.166610	-0.012749	0.189311	0.981834	-0.907677	0.409733	-0.090788
75	6316518													8.845724	-0.087742	-4.116479	-0.419469	-0.892367	0.166514	-0.012718	0.189191	0.981858	-0.907680	0.409742	-0.090709
76	6316684													8.835238	-0.080947	-4.089300	-0.419376	-0.892445	0.166331	-0.012703	0.188973	0.981900	-0.907724	0.409673	-0.090587
77	6316851													8.803123	-0.075601	-4.091972	-0.419196	-0.892585	0.166030	-0.012786	0.188660	0.981959	-0.907806	0.409511	-0.090498
78	6317018													8.823086	-0.066747	-4.066013	-0.419003	-0.892738	0.165696	-0.012951	0.188345	0.982017	-0.907893	0.409322	-0.090479
79	6317184													8.850698	-0.073324	-4.061136	-0.418682	-0.892951	0.165359	-0.013220	0.188061	0.982068	-0.908037	0.408988	-0.090542
80	6317351													8.872025	-0.079612	-4.056571	-0.418275	-0.893194	0.165079	-0.013525	0.187846	0.982105	-0.908220	0.408557	-0.090651
81	6317518													8.827761	-0.088373	-4.026368	-0.417766	-0.893498	0.164721	-0.013870	0.187551	0.982157	-0.908449	0.408027	-0.090745
82	6317684													8.786138	-0.060008	-4.016960	-0.417270	-0.893788	0.164406	-0.014077	0.187243	0.982213	-0.908673	0.407534	-0.090712
83	6317851													8.785404	-0.073582	-4.003325	-0.416864	-0.894017	0.164187	-0.014139	0.186986	0.982261	-0.908859	0.407147	-0.090588
84	6318018													8.808942	-0.052134	-4.002076	-0.416591	-0.894186	0.163961	-0.014123	0.186701	0.982315	-0.908984	0.406909	-0.090407
85	6318184													8.810349	-0.010702	-4.003980	-0.416366	-0.894320	0.163799	-0.014123	0.186498	0.982354	-0.909087	0.406706	-0.090282
86	6318351													8.778096	0.014555	-3.982070	-0.416300	-0.894361	0.163746	-0.014097	0.186421	0.982369	-0.909118	0.406651	-0.090215
87	6318518													8.827070	0.029432	-3.967237	-0.416366	-0.894330	0.163746	-0.014062	0.186413	0.982371	-0.909088	0.406723	-0.090192
88	6318684													8.797471	-0.025485	-3.996762	-0.416596	-0.894198	0.163887	-0.014048	0.186586	0.982338	-0.908983	0.406935	-0.090293
89	6318851													8.756874	-0.037240	-3.986435	-0.416840	-0.894055	0.164043	-0.014183	0.186844	0.982287	-0.908869	0.407130	-0.090565
90	6319018													8.674651	-0.028095	-4.024865	-0.417431	-0.893746	0.164224	-0.014339	0.187179	0.982221	-0.908596	0.407655	-0.090950
91	6319184													8.739522	-0.058446	-4.035036	-0.418227	-0.893360	0.164297	-0.014427	0.187386	0.982180	-0.908228	0.408404	-0.091259
92	6319351													8.753546	-0.068956	-4.051116	-0.419149	-0.892899	0.164453	-0.014348	0.187624	0.982136	-0.907804	0.409302	-0.091454
93	6319518													8.800111	-0.108208	-4.070171	-0.420144	-0.892417	0.164530	-0.014097	0.187706	0.982124	-0.907348	0.410315	-0.091444
94	6319684													8.873355	-0.102098	-4.101950	-0.421045	-0.891977	0.164614	-0.013760	0.187745	0.982121	-0.906935	0.411252	-0.091322
95	6319851													8.856861	-0.053067	-4.083887	-0.421797	-0.891620	0.164623	-0.013429	0.187688	0.982137	-0.906591	0.412052	-0.091140
96	6320018													8.873235	0.031112	-4.102146	-0.422380	-0.891330	0.164703	-0.013009	0.187649	0.982150	-0.906326	0.412698	-0.090855
97	6320184													8.883979	0.046280	-4.110911	-0.422738	-0.891134	0.164842	-0.012564	0.187640	0.982158	-0.906165	0.413124	-0.090519
98	6320351													8.867332	0.060765	-4.091312	-0.422875	-0.891018	0.165119	-0.012175	0.187782	0.982135	-0.906106	0.413310	-0.090256
99	6320518													8.819459	0.047927	-4.095338	-0.422901	-0.890954	0.165394	-0.011964	0.187992	0.982098	-0.906097	0.413351	-0.090162
100	6320684													8.808074	0.032166	-4.089566	-0.422839	-0.890928	0.165692	-0.011919	0.188294	0.982040	-0.906126	0.413270	-0.090237
101	6320851													8.799622	-0.013832	-4.104814	-0.422745	-0.890915	0.166003	-0.012042	0.188681	0.981965	-0.906169	0.413122	-0.090492
102	6321018													8.779037	-0.030396	-4.109399	-0.422578	-0.890961	0.166179	-0.012223	0.188940	0.981913	-0.906244	0.412904	-0.090732
103	6321184													8.765116	-0.093251	-4.113118	-0.422513	-0.891001	0.166131	-0.012524	0.189017	0.981894	-0.906271	0.412782	-0.091021
104	6321351													8.741692	-0.126848	-4.128551	-0.422462	-0.891079	0.165842	-0.012987	0.188904	0.981910	-0.906288	0.412666	-0.091377
105	6321518													8.690404	-0.079218	-4.119778	-0.422621	-0.891115	0.165244	-0.013451	0.188475	0.981986	-0.906207	0.412785	-0.091640
106	6321684													8.712787	-0.062222	-4.126982	-0.422921	-0.891104	0.164532	-0.013824	0.187893	0.982092	-0.906061	0.413073	-0.091782
107	6321851													8.768366	-0.071633	-4.146832	-0.423311	-0.891061	0.163759	-0.014169	0.187241	0.982212	-0.905873	0.413461	-0.091887
108	6322018													8.807346	-0.049700	-4.136816	-0.423729	-0.890998	0.163024	-0.014627	0.186687	0.982311	-0.905671	0.413848	-0.092137
109	6322184													8.805861	-0.028893	-4.117854	-0.424090	-0.890959	0.162294	-0.015118	0.186148	0.982405	-0.905494	0.414175	-0.092413
110	6322351													8.799839	-0.010561	-4.147991	-0.424351	-0.890943	0.161699	-0.015626	0.185754	0.982472	-0.905363	0.414386	-0.092747
111	6322518													8.743834	-0.021668	-4.124283	-0.424587	-0.890922	0.161194	-0.016143	0.185460	0.982519	-0.905243	0.414563	-0.093126
112	6322684													8.773249	-0.044652	-4.137593	-0.424850	-0.890874	0.160767	-0.016628	0.185241	0.982552	-0.905111	0.414764	-0.093513
113	6322851													8.789725	-0.087847	-4.148377	-0.425040	-0.890833	0.160493	-0.017041	0.185150	0.982563	-0.905014	0.414893	-0.093877
114	6323018													8.801603	-0.116088	-4.141933	-0.425174	-0.890821	0.160203	-0.017362	0.184992	0.982587	-0.904945	0.414989	-0.094120
115	6323184													8.823908	-0.107101	-4.156085	-0.425159	-0.890882	0.159904	-0.017601	0.184771	0.982624	-0.904947	0.414957	-0.094238
116	6323351													8.836050	-0.110083	-4.133763	-0.425023	-0.890972	0.159766	-0.017663	0.184632	0.982649	-0.905010	0.414826	-0.094210
117	6323518													8.812263	-0.082740	-4.123175	-0.424765	-0.891106	0.159700	-0.017619	0.184509	0.982673	-0.905132	0.414591	-0.094073
118	6323684													8.796451	-0.059720	-4.115675	-0.424409	-0.891270	0.159731	-0.017479	0.184438	0.982689	-0.905302	0.414270	-0.093855
119	6323851													8.772530	-0.055760	-4.103177	-0.424010	-0.891436	0.159869	-0.017301	0.184463	0.982687	-0.905492	0.413903	-0.093637
120	6324018													8.780462	-0.038373	-4.097705	-0.423631	-0.891584	0.160047	-0.017151	0.184548	0.982674	-0.905672	0.413546	-0.093472
121	6324184													8.800674	-0.021749	-4.093763	-0.423216	-0.891735	0.160305	-0.017070	0.184748	0.982638	-0.905868	0.413131	-0.093410
122	6324351													8.797156	-0.048326	-4.090930	-0.422780	-0.891878	0.160657	-0.016998	0.185053	0.982581	-0.906073	0.412684	-0.093397
123	6324518													8.791210	-0.080498	-4.093290	-0.422322	-0.892023	0.161058	-0.016908	0.185402	0.982517	-0.906288	0.412216	-0.093382
124	6324684													8.757923	-0.098545	-4.100904	-0.421894	-0.892171	0.161361	-0.016823	0.185649	0.982472	-0.906489	0.411784	-0.093333
125	6324851													8.768972	-0.106187	-4.091256	-0.421554	-0.892284	0.161621	-0.016678	0.185831	0.982440	-0.906650	0.411456	-0.093219
126	6325018													8.764046	-0.115052	-4.083514	-0.421232	-0.892434	0.161630	-0.016547	0.185744	0.982459	-0.906802	0.411169	-0.093008
127	6325184													8.778047	-0.086009	-4.087752	-0.420955	-0.892576	0.161570	-0.016445	0.185602	0.982487	-0.906932	0.410926	-0.092809
128	6325351													8.861440	-0.054985	-4.125189	-0.420656	-0.892727	0.161513	-0.016359	0.185466	0.982515	-0.907073	0.410658	-0.092621
129	6325518													8.919508	-0.026465	-4.126802	-0.420105	-0.892993	0.161479	-0.016343	0.185359	0.982535	-0.907329	0.410128	-0.092464
130	6325684													8.858540	-0.041774	-4.120670	-0.419392	-0.893336	0.161435	-0.016371	0.185243	0.982556	-0.907657	0.409434	-0.092314
131	6325851													8.887331	-0.027464	-4.120306	-0.418471	-0.893766	0.161446	-0.016462	0.185194	0.982564	-0.908081	0.408517	-0.092212
132	6326018													8.787132	-0.040460	-4.110888	-0.417361	-0.894285	0.161441	-0.016589	0.185122	0.982576	-0.908589	0.407411	-0.092098
133	6326184													8.795597	-0.065520	-4.115370	-0.416264	-0.894785	0.161504	-0.016701	0.185119	0.982574	-0.909090	0.406313	-0.092002
134	6326351													8.802840	-0.070277	-4.099058	-0.415090	-0.895303	0.161653	-0.016720	0.185161	0.982566	-0.909627	0.405151	-0.091828
135	6326518													8.829920	-0.084061	-4.056575	-0.413842	-0.895835	0.161908	-0.016588	0.185244	0.982553	-0.910197	0.403936	-0.091522
136	6326684													8.866629	-0.080877	-4.034740	-0.412445	-0.896428	0.162190	-0.016368	0.185302	0.982545	-0.910835	0.402591	-0.091100
137	6326851													8.895109	-0.051468	-4.010187	-0.410904	-0.897084	0.162475	-0.016176	0.185362	0.982537	-0.911535	0.401101	-0.090677
138	6327018													8.917555	-0.026719	-3.979496	-0.409198	-0.897808	0.162781	-0.016000	0.185433	0.982527	-0.912305	0.399443	-0.090243
139	6327185													8.922317	0.007201	-3.936793	-0.407310	-0.898586	0.163225	-0.015762	0.185611	0.982497	-0.913154	0.397608	-0.089764
140	6327351													8.895195	-0.021251	-3.912564	-0.405322	-0.899396	0.163708	-0.015605	0.185858	0.982453	-0.914041	0.395655	-0.089367
141	6327518													8.868267	-0.029284	-3.885279	-0.403344	-0.900208	0.164129	-0.015562	0.186089	0.982410	-0.914916	0.393695	-0.089067
142	6327685													8.884033	-0.050625	-3.878353	-0.401379	-0.901023	0.164479	-0.015573	0.186267	0.982376	-0.915780	0.391743	-0.088795
143	6327851													8.870861	-0.090177	-3.856118	-0.399477	-0.901814	0.164773	-0.015648	0.186418	0.982346	-0.916609	0.389847	-0.088582
144	6328018													8.919314	-0.064535	-3.834935	-0.397618	-0.902587	0.165036	-0.015735	0.186547	0.982320	-0.917416	0.387991	-0.088377
145	6328185													8.921312	-0.096284	-3.802904	-0.395786	-0.903365	0.165183	-0.015790	0.186538	0.982321	-0.918207	0.386181	-0.088093
146	6328351													8.952633	-0.108517	-3.804786	-0.393991	-0.904145	0.165205	-0.015950	0.186442	0.982336	-0.918976	0.384397	-0.087877
147	6328518													8.850107	-0.077096	-3.801817	-0.392180	-0.904975	0.164969	-0.016216	0.186110	0.982395	-0.919746	0.382600	-0.087664
148	6328685													8.897450	-0.033689	-3.774507	-0.390632	-0.905682	0.164763	-0.016364	0.185788	0.982454	-0.920402	0.381081	-0.087395
149	6328851													8.934244	-0.033170	-3.786701	-0.389143	-0.906342	0.164655	-0.016407	0.185535	0.982501	-0.921031	0.379632	-0.087070
150	6329018													9.015994	-0.000245	-3.771216	-0.387686	-0.906986	0.164550	-0.016428	0.185281	0.982548	-0.921645	0.378217	-0.086731
151	6329185													9.056023	-0.028016	-3.791471	-0.385981	-0.907718	0.164522	-0.016541	0.185123	0.982576	-0.922359	0.376534	-0.086469
152	6329351													9.090259	0.060251	-3.761374	-0.384114	-0.908480	0.164681	-0.016585	0.185125	0.982575	-0.923137	0.374690	-0.086176
153	6329518													9.236083	0.002327	-3.774564	-0.381939	-0.909318	0.165113	-0.016489	0.185334	0.982537	-0.924040	0.372547	-0.085780
154	6329685													9.358934	-0.004117	-3.806565	-0.378995	-0.910479	0.165502	-0.016535	0.185478	0.982509	-0.925251	0.369629	-0.085350
155	6329851													9.449300	0.055769	-3.775769	-0.375163	-0.911993	0.165893	-0.016622	0.185555	0.982493	-0.926810	0.365838	-0.084772
156	6330018													9.321996	-0.013918	-3.739300	-0.370233	-0.913934	0.166290	-0.016762	0.185554	0.982491	-0.928787	0.360964	-0.084017
157	6330185													9.122888	-0.084805	-3.700794	-0.364755	-0.916085	0.166559	-0.017123	0.185453	0.982504	-0.930946	0.355521	-0.083331
158	6330351													9.043728	-0.070341	-3.641350	-0.358970	-0.918346	0.166674	-0.017779	0.185272	0.982527	-0.933180	0.349735	-0.082834
159	6330518													8.981839	-0.046231	-3.549973	-0.353122	-0.920602	0.166723	-0.018604	0.185078	0.982548	-0.935392	0.343857	-0.082482
160	6330685													8.957292	0.001386	-3.496429	-0.347385	-0.922752	0.166892	-0.019359	0.184995	0.982549	-0.937523	0.338092	-0.082128
161	6330851													8.949826	-0.079650	-3.413724	-0.341846	-0.924768	0.167171	-0.019954	0.184990	0.982538	-0.939544	0.332541	-0.081692
162	6331018													9.015860	-0.101140	-3.307403	-0.336584	-0.926650	0.167427	-0.020565	0.184992	0.982525	-0.941429	0.327259	-0.081322
163	6331185													9.005694	-0.133618	-3.208962	-0.331579	-0.928417	0.167624	-0.021154	0.184947	0.982521	-0.943190	0.322237	-0.080964
164	6331351													8.964207	-0.131182	-3.168725	-0.326980	-0.930038	0.167673	-0.021748	0.184784	0.982538	-0.944781	0.317624	-0.080647
165	6331518													8.991115	-0.123567	-3.098280	-0.322905	-0.931464	0.167650	-0.022261	0.184565	0.982568	-0.946169	0.313544	-0.080333
166	6331685													9.000291	-0.160872	-3.039216	-0.319451	-0.932670	0.167564	-0.022643	0.184292	0.982611	-0.947332	0.310101	-0.079991
167	6331851													9.013445	-0.151274	-2.990131	-0.316517	-0.933711	0.167336	-0.022948	0.183891	0.982679	-0.948309	0.307194	-0.079631
168	6332018													9.052806	-0.209757	-2.993777	-0.314133	-0.934583	0.166960	-0.023169	0.183356	0.982773	-0.949096	0.304853	-0.079252
169	6332185													9.127335	-0.218020	-2.951135	-0.312258	-0.935314	0.166379	-0.023368	0.182646	0.982901	-0.949710	0.303031	-0.078889
170	6332351													9.228559	-0.174257	-2.908391	-0.310757	-0.935944	0.165646	-0.023538	0.181799	0.983054	-0.950198	0.301592	-0.078526
171	6332518													9.362900	-0.159593	-2.872695	-0.309395	-0.936524	0.164915	-0.023603	0.180934	0.983212	-0.950641	0.300308	-0.078085
172	6332685													9.366281	-0.142828	-2.840434	-0.308002	-0.937105	0.164224	-0.023630	0.180098	0.983365	-0.951092	0.298998	-0.077614
173	6332851													9.329353	-0.195895	-2.855282	-0.306638	-0.937680	0.163494	-0.023698	0.179236	0.983521	-0.951531	0.297710	-0.077182
174	6333018													9.166156	-0.215341	-2.850059	-0.305400	-0.938235	0.162622	-0.023900	0.178280	0.983690	-0.951924	0.296532	-0.076870
175	6333185													9.168029	-0.112780	-2.854249	-0.304571	-0.938667	0.161683	-0.024075	0.177280	0.983866	-0.952185	0.295765	-0.076593
176	6333351													9.238428	-0.064938	-2.860069	-0.303896	-0.939012	0.160947	-0.024082	0.176454	0.984014	-0.952401	0.295162	-0.076237
177	6333518													9.306211	-0.066209	-2.890709	-0.303218	-0.939308	0.160494	-0.023898	0.175866	0.984124	-0.952621	0.294569	-0.075774
178	6333685													9.379103	-0.102351	-2.901161	-0.302335	-0.939626	0.160301	-0.023666	0.175518	0.984192	-0.952908	0.293762	-0.075302
179	6333851													9.471674	-0.098539	-2.918417	-0.301056	-0.940038	0.160291	-0.023453	0.175337	0.984229	-0.953318	0.292549	-0.074833
180	6334018													9.593148	-0.038191	-2.940960	-0.299155	-0.940611	0.160488	-0.023253	0.175327	0.984236	-0.953921	0.290707	-0.074322
181	6334185													9.631184	-0.023944	-2.918877	-0.296444	-0.941381	0.161008	-0.022916	0.175548	0.984204	-0.954775	0.288072	-0.073613
182	6334351													9.547751	-0.092059	-2.929429	-0.292953	-0.942353	0.161710	-0.022563	0.175897	0.984150	-0.955861	0.284661	-0.072792
183	6334518													9.466912	-0.086786	-2.879133	-0.288981	-0.943444	0.162491	-0.022313	0.176324	0.984079	-0.957075	0.280754	-0.072005
184	6334685													9.460611	-0.036768	-2.865525	-0.284665	-0.944605	0.163362	-0.022128	0.176842	0.983990	-0.958372	0.276493	-0.071243
185	6334851													9.439519	-0.042220	-2.865838	-0.280042	-0.945802	0.164425	-0.021885	0.177524	0.983873	-0.959738	0.271928	-0.070413
186	6335018													9.450535	-0.038633	-2.822491	-0.275109	-0.947048	0.165576	-0.021572	0.178258	0.983747	-0.961171	0.267066	-0.069470
187	6335185													9.459523	0.019794	-2.795228	-0.269939	-0.948296	0.166934	-0.021152	0.179169	0.983591	-0.962645	0.261979	-0.068423
188	6335351													9.502721	-0.018853	-2.765530	-0.264465	-0.949539	0.168626	-0.020515	0.180351	0.983388	-0.964177	0.256612	-0.067177
189	6335518													9.445657	0.077873	-2.695820	-0.258810	-0.950734	0.170654	-0.019678	0.181827	0.983134	-0.965728	0.251086	-0.065767
190	6335685													9.739129	0.366936	-2.614456	-0.252896	-0.951781	0.173655	-0.018098	0.184112	0.982739	-0.967324	0.245388	-0.063786
191	6335851													9.953033	0.583065	-2.602827	-0.245713	-0.952810	0.178264	-0.015300	0.187691	0.982109	-0.969222	0.238590	-0.060696
192	6336018													9.697510	0.285638	-2.572425	-0.237338	-0.953784	0.184302	-0.011779	0.192535	0.981219	-0.971356	0.230710	-0.056930
193	6336185													9.364986	0.069278	-2.496489	-0.228496	-0.954703	0.190611	-0.008782	0.197804	0.980202	-0.973505	0.222299	-0.053582
194	6336351													9.175740	0.017510	-2.390453	-0.220053	-0.955440	0.196753	-0.006749	0.203183	0.979117	-0.975465	0.214130	-0.051159
195	6336518													9.148286	0.068229	-2.262154	-0.212359	-0.955973	0.202532	-0.005639	0.208454	0.978016	-0.977176	0.206548	-0.049658
196	6336685													9.284197	0.037134	-2.110781	-0.205495	-0.956287	0.208056	-0.005132	0.213644	0.976898	-0.978645	0.199680	-0.048811
197	6336851													9.553944	0.063417	-1.981156	-0.199139	-0.956498	0.213202	-0.004959	0.218541	0.975815	-0.979959	0.193266	-0.048263
198	6337018													9.628618	-0.021787	-1.899807	-0.192683	-0.956722	0.218075	-0.004707	0.223139	0.974775	-0.981250	0.186796	-0.047498
199	6337185													9.476601	-0.236279	-1.831394	-0.186405	-0.956972	0.222393	-0.004544	0.227198	0.973838	-0.982462	0.180518	-0.046700
200	6337351													9.449057	-0.300331	-1.777256	-0.180576	-0.957285	0.225828	-0.004685	0.230437	0.973076	-0.983550	0.174656	-0.046096
201	6337518													9.422997	-0.286871	-1.716291	-0.175252	-0.957661	0.228412	-0.005063	0.232877	0.972493	-0.984511	0.169275	-0.045660
202	6337685													9.515324	-0.185202	-1.658410	-0.170374	-0.958091	0.230291	-0.005361	0.234606	0.972076	-0.985365	0.164382	-0.045107
203	6337851													9.615297	-0.187004	-1.567290	-0.165577	-0.958581	0.231745	-0.005431	0.235872	0.971769	-0.986182	0.159644	-0.044261
204	6338018													9.675919	-0.189972	-1.502688	-0.160747	-0.959152	0.232785	-0.005234	0.236677	0.971574	-0.986982	0.154959	-0.043065
205	6338185													9.714466	-0.128384	-1.442352	-0.155762	-0.959835	0.233358	-0.004877	0.236986	0.971501	-0.987783	0.150185	-0.041594
206	6338351													9.673553	-0.059637	-1.404118	-0.150578	-0.960624	0.233511	-0.004422	0.236856	0.971535	-0.988588	0.145259	-0.039913
207	6338518													9.688094	-0.004655	-1.417216	-0.145365	-0.961459	0.233380	-0.003870	0.236436	0.971639	-0.989370	0.140339	-0.038090
208	6338685													9.612699	0.020902	-1.351250	-0.140127	-0.962314	0.233059	-0.003279	0.235831	0.971788	-0.990128	0.135410	-0.036201
209	6338851													9.643361	0.053165	-1.315795	-0.134958	-0.963190	0.232487	-0.002824	0.235007	0.971990	-0.990847	0.130522	-0.034436
210	6339018													9.657112	0.106394	-1.320810	-0.129778	-0.964082	0.231741	-0.002493	0.234034	0.972225	-0.991540	0.125596	-0.032776
211	6339185													9.767638	0.139429	-1.270658	-0.124476	-0.964977	0.230924	-0.002265	0.233010	0.972472	-0.992220	0.120526	-0.031190
212	6339351													9.826799	0.178994	-1.218189	-0.118791	-0.965860	0.230226	-0.002091	0.232110	0.972687	-0.992917	0.115065	-0.029592
213	6339518													9.856010	0.154454	-1.149842	-0.112731	-0.966717	0.229674	-0.001895	0.231356	0.972867	-0.993624	0.109237	-0.027913
214	6339685													9.852255	0.157468	-1.086092	-0.106337	-0.967542	0.229250	-0.001660	0.230729	0.973017	-0.994329	0.103088	-0.026141
215	6339851													9.766356	0.177085	-1.008295	-0.099630	-0.968327	0.228946	-0.001346	0.230222	0.973137	-0.995024	0.096646	-0.024241
216	6340018													9.726598	0.163639	-0.966238	-0.092890	-0.969017	0.228863	-0.000971	0.229945	0.973203	-0.995676	0.090178	-0.022300
217	6340185													9.608786	0.108863	-0.906317	-0.086277	-0.969625	0.228876	-0.000716	0.229792	0.973239	-0.996271	0.083805	-0.020520
218	6340351													9.643296	0.056996	-0.839855	-0.080105	-0.970156	0.228866	-0.000541	0.229646	0.973274	-0.996786	0.077840	-0.018921
219	6340518													9.732520	0.136070	-0.805166	-0.074131	-0.970646	0.228802	-0.000404	0.229462	0.973317	-0.997248	0.072060	-0.017402
220	6340685													9.696951	0.110066	-0.715231	-0.068355	-0.971093	0.228705	-0.000263	0.229258	0.973366	-0.997661	0.066474	-0.015926
221	6340851													9.722045	0.094173	-0.642995	-0.062789	-0.971519	0.228493	-0.000125	0.228952	0.973438	-0.998027	0.061092	-0.014497
222	6341018													9.787412	0.076982	-0.576343	-0.057383	-0.971949	0.228082	-0.000102	0.228465	0.973552	-0.998352	0.055842	-0.013209
223	6341185													9.830378	0.106363	-0.541131	-0.051879	-0.972367	0.227619	-0.000115	0.227932	0.973677	-0.998653	0.050488	-0.011937
224	6341351													9.761977	0.117462	-0.416551	-0.046474	-0.972786	0.226995	-0.000074	0.227244	0.973838	-0.998920	0.045241	-0.010633
225	6341518													9.715190	0.144291	-0.362792	-0.041192	-0.973175	0.226350	0.000067	0.226540	0.974002	-0.999151	0.040136	-0.009267
226	6341685													9.628712	0.202643	-0.303230	-0.036270	-0.973506	0.225765	0.000273	0.225903	0.974150	-0.999342	0.035394	-0.007927
227	6341851													9.647785	0.187419	-0.242477	-0.031925	-0.973784	0.225224	0.000446	0.225325	0.974284	-0.999490	0.031204	-0.006759
228	6342018													9.722355	0.222097	-0.212351	-0.028027	-0.974027	0.224691	0.000482	0.224766	0.974413	-0.999607	0.027418	-0.005830
229	6342185													9.797991	0.222175	-0.205071	-0.024427	-0.974237	0.224198	0.000446	0.224254	0.974531	-0.999702	0.023905	-0.005043
230	6342351													9.848616	0.164801	-0.178195	-0.020793	-0.974425	0.223751	0.000231	0.223794	0.974636	-0.999784	0.020318	-0.004429
231	6342518													9.927690	0.087430	-0.144014	-0.017133	-0.974626	0.223184	-0.000192	0.223220	0.974768	-0.999853	0.016657	-0.004012
232	6342685													9.933777	0.064489	-0.087259	-0.013237	-0.974869	0.222386	-0.000735	0.222415	0.974952	-0.999912	0.012742	-0.003661
233	6342851													9.935156	0.024429	-0.032797	-0.009178	-0.975128	0.221454	-0.001209	0.221474	0.975165	-0.999957	0.008683	-0.003211
234	6343018													9.852758	0.041598	0.011886	-0.005081	-0.975410	0.220338	-0.001612	0.220348	0.975420	-0.999986	0.004601	-0.002692
235	6343185													9.815273	0.022897	0.068773	-0.000982	-0.975691	0.219151	-0.001810	0.219152	0.975689	-0.999998	0.000562	-0.001981
236	6343351													9.822798	0.037340	0.097567	0.003103	-0.975958	0.217937	-0.001916	0.217932	0.975962	-0.999993	-0.003446	-0.001194
237	6343518													9.856227	0.059066	0.148694	0.007281	-0.976216	0.216679	-0.001938	0.216670	0.976243	-0.999972	-0.007528	-0.000315
238	6343685													9.915732	0.104179	0.131635	0.011793	-0.976428	0.215521	-0.001874	0.215514	0.976499	-0.999929	-0.011920	0.000712
239	6343852													10.063179	0.081148	0.201467	0.016935	-0.976587	0.214455	-0.001586	0.214459	0.976732	-0.999855	-0.016881	0.002083
240	6344018													9.987700	-0.019160	0.233452	0.022872	-0.976728	0.213258	-0.001112	0.213288	0.976989	-0.999738	-0.022583	0.003793
241	6344185													9.849119	-0.049673	0.264986	0.029161	-0.976874	0.211818	-0.000738	0.211887	0.977294	-0.999574	-0.028655	0.005458
242	6344352													9.740797	-0.021524	0.334801	0.035381	-0.977057	0.210018	-0.000545	0.210130	0.977673	-0.999374	-0.034705	0.006902
243	6344518													9.688055	0.102908	0.372061	0.041267	-0.977244	0.208067	-0.000389	0.208228	0.978080	-0.999148	-0.040444	0.008213
244	6344685													9.739524	0.157956	0.424857	0.046806	-0.977392	0.206192	-0.000157	0.206411	0.978465	-0.998904	-0.045831	0.009508
245	6344852													9.796039	0.182644	0.465386	0.052130	-0.977477	0.204501	0.000086	0.204783	0.978807	-0.998640	-0.051007	0.010759
246	6345018													9.829814	0.177862	0.502876	0.057394	-0.977512	0.202919	0.000220	0.203266	0.979123	-0.998352	-0.056151	0.011881
247	6345185													9.801016	0.183711	0.579511	0.062584	-0.977459	0.201636	0.000274	0.202049	0.979375	-0.998040	-0.061238	0.012912
248	6345352													9.749599	0.210306	0.653506	0.067602	-0.977337	0.200603	0.000240	0.201079	0.979575	-0.997712	-0.066173	0.013828
249	6345518													9.695715	0.266652	0.721896	0.072302	-0.977139	0.199929	0.000190	0.200467	0.979700	-0.997383	-0.070797	0.014680
250	6345685													9.690228	0.280595	0.794132	0.076555	-0.976863	0.199695	0.000218	0.200300	0.979735	-0.997065	-0.074960	0.015547
251	6345852													9.870323	0.286504	0.859721	0.080614	-0.976498	0.199884	0.000311	0.200562	0.979681	-0.996745	-0.078914	0.016472
252	6346018													9.894401	0.268054	0.869413	0.084746	-0.975992	0.200643	0.000371	0.201398	0.979509	-0.996403	-0.082935	0.017430
253	6346185													9.890674	0.183744	0.876193	0.088951	-0.975380	0.201796	0.000231	0.202619	0.979258	-0.996036	-0.087059	0.018249
254	6346352													9.922620	0.074816	0.933112	0.093295	-0.974711	0.203064	-0.000023	0.203951	0.978981	-0.995638	-0.091339	0.019006
255	6346518													9.892931	0.036358	0.999873	0.097933	-0.974009	0.204246	-0.000333	0.205200	0.978720	-0.995193	-0.095917	0.019772
256	6346685													9.647034	0.036724	1.080127	0.102303	-0.973324	0.205365	-0.000569	0.206390	0.978470	-0.994753	-0.100218	0.020560
257	6346852													9.657994	0.023909	1.106297	0.106072	-0.972686	0.206470	-0.000651	0.207573	0.978219	-0.994358	-0.103897	0.021384
258	6347018													9.633591	-0.014614	1.123327	0.109458	-0.972092	0.207501	-0.000587	0.208692	0.977981	-0.993991	-0.107169	0.022272
259	6347185													9.700360	-0.038234	1.083125	0.112318	-0.971577	0.208384	-0.000464	0.209659	0.977774	-0.993672	-0.109918	0.023098
260	6347352													9.818683	0.012591	1.101914	0.115104	-0.971091	0.209126	-0.000237	0.210499	0.977594	-0.993353	-0.112574	0.023999
261	6347518													9.789725	0.071493	1.111960	0.117997	-0.970573	0.209914	0.000145	0.211407	0.977398	-0.993014	-0.115300	0.025086
262	6347685													9.947001	0.103027	1.136570	0.121227	-0.969983	0.210803	0.000540	0.212433	0.977175	-0.992625	-0.118346	0.026277
263	6347852													9.779405	0.145475	1.190157	0.124908	-0.969311	0.211743	0.000909	0.213526	0.976937	-0.992168	-0.121835	0.027552
264	6348018													9.728643	0.366879	1.302257	0.128632	-0.968532	0.213072	0.001322	0.215024	0.976608	-0.991692	-0.125341	0.028940
265	6348185													9.850862	0.382675	1.368945	0.132416	-0.967589	0.215031	0.001688	0.217161	0.976134	-0.991193	-0.128893	0.030389
266	6348352													9.880206	0.261017	1.421432	0.136571	-0.966497	0.217327	0.001755	0.219619	0.975584	-0.990629	-0.132855	0.031690
267	6348518													9.817090	0.177958	1.452413	0.140765	-0.965354	0.219721	0.001332	0.222115	0.975019	-0.990042	-0.136956	0.032552
268	6348685													9.842708	0.103099	1.485269	0.145000	-0.964216	0.221952	0.000565	0.224403	0.974496	-0.989431	-0.141177	0.033083
269	6348852													9.806252	-0.027114	1.493945	0.149234	-0.963138	0.223819	-0.000382	0.226298	0.974058	-0.988802	-0.145448	0.033403
270	6349018													9.763268	-0.073520	1.575084	0.153343	-0.962176	0.225174	-0.001300	0.227673	0.973737	-0.988172	-0.149608	0.033661
271	6349185													9.662500	-0.116507	1.566041	0.157218	-0.961377	0.225912	-0.002014	0.228445	0.973555	-0.987562	-0.153515	0.033980
272	6349352													9.746912	-0.139344	1.622933	0.160729	-0.960760	0.226068	-0.002565	0.228639	0.973508	-0.986995	-0.157050	0.034285
273	6349518													9.671345	-0.097237	1.667539	0.164015	-0.960311	0.225616	-0.002923	0.228239	0.973601	-0.986454	-0.160345	0.034627
274	6349685													9.717468	0.004564	1.701320	0.166862	-0.959983	0.224920	-0.003043	0.227616	0.973746	-0.985976	-0.163166	0.035060
275	6349852													9.681165	0.034581	1.707129	0.169413	-0.959728	0.224102	-0.003074	0.226873	0.973919	-0.985540	-0.165684	0.035485
276	6350018													9.660070	0.077783	1.737233	0.171694	-0.959532	0.223205	-0.003106	0.226041	0.974113	-0.985146	-0.167942	0.035830
277	6350185													9.700289	0.172567	1.714834	0.173737	-0.959344	0.222431	-0.003122	0.225328	0.974278	-0.984787	-0.169962	0.036153
278	6350352													9.677359	0.183445	1.705786	0.175758	-0.959085	0.221957	-0.003034	0.224938	0.974368	-0.984429	-0.171927	0.036625
279	6350518													9.766413	0.214523	1.721747	0.177807	-0.958746	0.221790	-0.002824	0.224883	0.974382	-0.984061	-0.173878	0.037278
280	6350685													9.863279	0.143040	1.720773	0.180159	-0.958292	0.221852	-0.002460	0.225103	0.974332	-0.983634	-0.176080	0.038196
281	6350852													9.823413	-0.040462	1.786817	0.182957	-0.957762	0.221852	-0.001921	0.225313	0.974285	-0.983119	-0.178678	0.039382
282	6351018													9.770901	-0.035319	1.869002	0.185936	-0.957282	0.221447	-0.001466	0.225107	0.974333	-0.982561	-0.181489	0.040452
283	6351185													9.744708	-0.042180	1.898751	0.188876	-0.956858	0.220790	-0.001145	0.224622	0.974445	-0.982000	-0.184302	0.041330
284	6351352													9.727245	0.045963	1.941276	0.191723	-0.956490	0.219932	-0.000919	0.223915	0.974608	-0.981449	-0.187056	0.042051
285	6351518													9.726910	0.112539	1.946108	0.194637	-0.956087	0.219122	-0.000652	0.223268	0.974757	-0.980875	-0.189867	0.042833
286	6351685													9.704985	0.077770	1.969074	0.197389	-0.955691	0.218386	-0.000473	0.222676	0.974892	-0.980325	-0.192536	0.043501
287	6351852													9.640569	0.059775	1.953344	0.200197	-0.955279	0.217629	-0.000406	0.222045	0.975036	-0.979755	-0.195288	0.044065
288	6352018													9.676078	0.092725	2.011584	0.202804	-0.954901	0.216872	-0.000434	0.221387	0.975186	-0.979219	-0.197866	0.044483
289	6352185													9.730551	0.095993	2.003227	0.205592	-0.954446	0.216253	-0.000532	0.220865	0.975304	-0.978638	-0.200630	0.044900
290	6352352													9.542426	0.062278	1.968621	0.208484	-0.953973	0.215570	-0.000681	0.220272	0.975438	-0.978025	-0.203510	0.045274
291	6352518													9.709920	0.102943	1.977421	0.211304	-0.953483	0.214991	-0.000801	0.219788	0.975547	-0.977420	-0.206309	0.045678
292	6352685													9.747609	0.072474	2.049389	0.214621	-0.952871	0.214417	-0.000874	0.219346	0.975647	-0.976697	-0.209581	0.046243
293	6352852													9.705723	0.116986	2.130196	0.218003	-0.952213	0.213928	-0.000768	0.219032	0.975717	-0.975948	-0.212874	0.047018
294	6353018													9.612554	0.071663	2.224164	0.221255	-0.951542	0.213576	-0.000562	0.218879	0.975752	-0.975216	-0.216010	0.047894
295	6353185													9.559201	0.038395	2.253592	0.224073	-0.950939	0.213321	-0.000444	0.218787	0.975773	-0.974572	-0.218739	0.048602
296	6353352													9.640715	0.067261	2.283239	0.226586	-0.950413	0.213011	-0.000469	0.218593	0.975816	-0.973991	-0.221207	0.049084
297	6353518													9.698837	0.097749	2.341712	0.228887	-0.949911	0.212793	-0.000539	0.218472	0.975843	-0.973453	-0.223472	0.049493
298	6353685													9.621544	0.116218	2.398057	0.231233	-0.949374	0.212652	-0.000549	0.218448	0.975848	-0.972898	-0.225765	0.049991
299	6353852													9.570976	-0.007349	2.432255	0.233105	-0.948936	0.212560	-0.000571	0.218448	0.975848	-0.972451	-0.227596	0.050379
300	6354018													9.571565	-0.020037	2.457263	0.234772	-0.948603	0.212214	-0.000668	0.218158	0.975913	-0.972050	-0.229259	0.050584
301	6354185													9.582582	0.044259	2.467310	0.236019	-0.948407	0.211706	-0.000620	0.217714	0.976012	-0.971748	-0.230489	0.050796
302	6354352													9.603440	-0.013119	2.442297	0.237093	-0.948278	0.211082	-0.000438	0.217173	0.976133	-0.971487	-0.231527	0.051075
303	6354518													9.662952	-0.057003	2.463786	0.238062	-0.948258	0.210078	-0.000323	0.216219	0.976345	-0.971250	-0.232499	0.051168
304	6354685													9.619471	0.013795	2.461578	0.238970	-0.948332	0.208708	-0.000218	0.214883	0.976640	-0.971027	-0.233434	0.051144
305	6354852													9.573568	0.103191	2.476570	0.239859	-0.948436	0.207214	0.000017	0.213449	0.976954	-0.970808	-0.234328	0.051214
306	6355018													9.539499	0.093913	2.449981	0.240485	-0.948613	0.205669	0.000336	0.211968	0.977276	-0.970653	-0.234951	0.051294
307	6355185													9.575091	0.018111	2.403895	0.240967	-0.948882	0.203860	0.000591	0.210192	0.977660	-0.970533	-0.235463	0.051210
308	6355352													9.604486	0.084169	2.404710	0.241408	-0.949201	0.201843	0.000875	0.208207	0.978084	-0.970423	-0.235941	0.051094
309	6355518													9.653309	0.092549	2.409571	0.241904	-0.949524	0.199717	0.001190	0.206120	0.978526	-0.970299	-0.236472	0.050991
310	6355685													9.477179	0.167867	2.452543	0.242258	-0.949863	0.197663	0.001599	0.204123	0.978944	-0.970210	-0.236841	0.050969
311	6355852													9.472538	0.193256	2.479332	0.242013	-0.950290	0.195904	0.002039	0.202404	0.979300	-0.970271	-0.236604	0.050923
312	6356018													9.519204	0.131225	2.495651	0.241309	-0.950779	0.194394	0.002298	0.200873	0.979615	-0.970446	-0.235943	0.050657
313	6356185													9.585037	0.143058	2.521602	0.240130	-0.951385	0.192885	0.002338	0.199265	0.979943	-0.970738	-0.234863	0.050074
314	6356352													9.503072	0.245411	2.546376	0.238419	-0.952051	0.191717	0.002341	0.197973	0.980205	-0.971160	-0.233251	0.049430
315	6356518													9.565871	0.089594	2.568918	0.236175	-0.952782	0.190862	0.002390	0.196988	0.980403	-0.971708	-0.231090	0.048801
316	6356685													9.670039	0.031338	2.556281	0.233618	-0.953582	0.190010	0.002425	0.195988	0.980603	-0.972326	-0.228625	0.048098
317	6356852													9.578907	0.050329	2.460425	0.230912	-0.954427	0.189074	0.002485	0.194903	0.980819	-0.972971	-0.226013	0.047377
318	6357018													9.608089	0.116545	2.430120	0.227865	-0.955319	0.188264	0.002584	0.193943	0.981009	-0.973689	-0.223052	0.046661
319	6357185													9.656251	0.044544	2.338495	0.224792	-0.956189	0.187539	0.002639	0.193061	0.981183	-0.974403	-0.220067	0.045922
320	6357352													9.817619	0.027176	2.317326	0.221704	-0.957070	0.186722	0.002618	0.192071	0.981378	-0.975111	-0.217086	0.045089
321	6357518													9.910193	0.071429	2.262818	0.219311	-0.957808	0.185761	0.002554	0.190959	0.981595	-0.975652	-0.214800	0.044326
322	6357685													9.756495	0.031437	2.187855	0.217424	-0.958444	0.184696	0.002543	0.189778	0.981824	-0.976074	-0.213002	0.043699
323	6357852													9.591934	-0.000778	2.125322	0.215735	-0.959067	0.183434	0.002496	0.188399	0.982089	-0.976449	-0.211413	0.043038
324	6358018													9.488301	0.036162	2.051060	0.213739	-0.959779	0.182042	0.002413	0.186866	0.982382	-0.976888	-0.209535	0.042257
325	6358185													9.498480	0.115372	2.066265	0.211206	-0.960602	0.180656	0.002342	0.185322	0.982675	-0.977439	-0.207123	0.041391
326	6358352													9.636659	0.099381	2.068041	0.208310	-0.961459	0.179453	0.002262	0.183951	0.982933	-0.978060	-0.204349	0.040494
327	6358518													9.692517	0.171463	2.042943	0.205463	-0.962265	0.178410	0.002136	0.182740	0.983159	-0.978662	-0.201622	0.039602
328	6358685													9.618863	0.186825	1.986878	0.202520	-0.963023	0.177688	0.001929	0.181840	0.983326	-0.979276	-0.198800	0.038684
329	6358852													9.675227	0.123693	1.995690	0.199358	-0.963768	0.177223	0.001621	0.181178	0.983449	-0.979925	-0.195771	0.037682
330	6359018													9.683591	0.048949	2.013268	0.195988	-0.964526	0.176859	0.001111	0.180575	0.983561	-0.980606	-0.192570	0.036462
331	6359185													9.686791	0.079379	2.019567	0.192239	-0.965342	0.176518	0.000595	0.179988	0.983669	-0.981348	-0.188994	0.035175
332	6359352													9.596124	0.108280	2.010236	0.188137	-0.966177	0.176373	0.000268	0.179630	0.983734	-0.982143	-0.185030	0.034054
333	6359518													9.631051	0.039670	1.973890	0.183458	-0.967063	0.176441	0.000113	0.179508	0.983757	-0.983027	-0.180458	0.033041
334	6359685													9.698581	0.028773	1.895906	0.178604	-0.967939	0.176622	0.000095	0.179525	0.983753	-0.983921	-0.175686	0.032156
335	6359852													9.620846	0.015796	1.857560	0.173463	-0.968821	0.176908	0.000163	0.179659	0.983729	-0.984840	-0.170612	0.031323
336	6360018													9.755944	0.041052	1.767700	0.168128	-0.969693	0.177283	0.000328	0.179898	0.983685	-0.985765	-0.165327	0.030564
337	6360185													9.810376	0.036059	1.667853	0.162951	-0.970483	0.177790	0.000558	0.180290	0.983613	-0.986634	-0.160182	0.029920
338	6360352													9.746261	-0.020793	1.637830	0.157844	-0.971218	0.178383	0.000744	0.180764	0.983526	-0.987464	-0.155110	0.029256
339	6360519													9.907969	-0.089738	1.566890	0.152865	-0.971952	0.178724	0.000716	0.180959	0.983490	-0.988247	-0.150214	0.028359
340	6360685													9.808074	-0.020528	1.487081	0.148213	-0.972647	0.178860	0.000641	0.180952	0.983492	-0.988955	-0.145652	0.027443
341	6360852													9.706895	0.011540	1.376156	0.143554	-0.973356	0.178803	0.000582	0.180758	0.983527	-0.989642	-0.141086	0.026515
342	6361019													9.699760	0.035569	1.331008	0.138717	-0.974071	0.178727	0.000524	0.180544	0.983567	-0.990332	-0.136344	0.025555
343	6361185													9.742045	0.049286	1.343329	0.133638	-0.974782	0.178723	0.000379	0.180391	0.983595	-0.991030	-0.131378	0.024477
344	6361352													9.730480	0.016753	1.338133	0.128380	-0.975495	0.178684	0.000076	0.180185	0.983633	-0.991725	-0.126265	0.023207
345	6361519													9.697946	0.051787	1.287199	0.122796	-0.976219	0.178653	-0.000364	0.179971	0.983672	-0.992432	-0.120856	0.021744
346	6361685													9.721820	0.017660	1.266224	0.116817	-0.976953	0.178651	-0.000827	0.179786	0.983705	-0.993153	-0.115062	0.020194
347	6361852													9.706122	0.062672	1.283829	0.110667	-0.977671	0.178639	-0.001204	0.179611	0.983737	-0.993857	-0.109082	0.018700
348	6362019													9.706251	0.042977	1.227072	0.104138	-0.978357	0.178808	-0.001326	0.179649	0.983730	-0.994562	-0.102681	0.017411
349	6362185													9.757945	-0.062631	1.198810	0.097316	-0.979040	0.178913	-0.001369	0.179634	0.983733	-0.995253	-0.095978	0.016141
350	6362352													9.745380	-0.077102	1.104787	0.090225	-0.979739	0.178803	-0.001416	0.179409	0.983774	-0.995920	-0.089015	0.014800
351	6362519													9.834908	-0.008014	1.048899	0.082952	-0.980412	0.178638	-0.001296	0.179149	0.983821	-0.996553	-0.081841	0.013590
352	6362685													9.801682	-0.031541	0.937440	0.075646	-0.981041	0.178429	-0.000959	0.178870	0.983872	-0.997134	-0.074598	0.012590
353	6362852													9.726724	0.013449	0.841281	0.068108	-0.981635	0.178198	-0.000408	0.178585	0.983924	-0.997678	-0.067086	0.011762
354	6363019													9.728601	0.013912	0.740618	0.060334	-0.982182	0.177982	0.000287	0.178324	0.983972	-0.998178	-0.059315	0.011041
355	6363185													9.812096	-0.004631	0.614295	0.052299	-0.982698	0.177678	0.000890	0.177967	0.984036	-0.998631	-0.051306	0.010183
356	6363352													9.711692	0.049839	0.494125	0.044036	-0.983172	0.177297	0.001344	0.177527	0.984115	-0.999029	-0.043098	0.009139
357	6363519													9.654122	0.076772	0.398006	0.035323	-0.983593	0.176911	0.001784	0.177083	0.984194	-0.999374	-0.034449	0.008010
358	6363685													9.645176	0.086407	0.274213	0.026159	-0.983941	0.176568	0.002220	0.176685	0.984265	-0.999655	-0.025355	0.006806
359	6363852													9.694941	0.080967	0.190258	0.016639	-0.984205	0.176248	0.002641	0.176315	0.984330	-0.999858	-0.015913	0.005533
360	6364019													9.792979	0.092356	0.096830	0.007031	-0.984376	0.175937	0.002998	0.175961	0.984393	-0.999971	-0.006394	0.004188
361	6364185													9.875879	0.140556	-0.019417	-0.002453	-0.984432	0.175747	0.003350	0.175738	0.984431	-0.999991	0.003004	0.002867
362	6364352													9.898231	0.160674	-0.115058	-0.011606	-0.984362	0.175773	0.003742	0.175741	0.984429	-0.999926	0.012084	0.001644
363	6364519													9.922043	0.160036	-0.254247	-0.020368	-0.984178	0.176011	0.004169	0.175962	0.984388	-0.999784	0.020784	0.000519
364	6364685													9.958458	0.122088	-0.356378	-0.028712	-0.983901	0.176394	0.004472	0.176339	0.984319	-0.999578	0.029050	-0.000663
365	6364852													9.893576	0.120734	-0.443828	-0.036611	-0.983550	0.176887	0.004702	0.176835	0.984229	-0.999319	0.036865	-0.001850
366	6365019													9.884122	0.140733	-0.513904	-0.044188	-0.983122	0.177533	0.004896	0.177492	0.984110	-0.999011	0.044355	-0.003029
367	6365185													9.886249	0.123423	-0.629030	-0.051476	-0.982628	0.178306	0.005089	0.178282	0.983966	-0.998661	0.051558	-0.004177
368	6365352													9.830361	0.094698	-0.718741	-0.058424	-0.982086	0.179148	0.005266	0.179149	0.983808	-0.998278	0.058421	-0.005295
369	6365519													9.812295	0.089312	-0.790851	-0.065105	-0.981511	0.179995	0.005442	0.180026	0.983647	-0.997864	0.065020	-0.006380
370	6365685													9.757691	0.107406	-0.856838	-0.071682	-0.980890	0.180875	0.005672	0.180937	0.983478	-0.997411	0.071523	-0.007406
371	6365852													9.826262	0.064652	-0.918828	-0.077992	-0.980240	0.181789	0.005887	0.181889	0.983302	-0.996937	0.077760	-0.008415
372	6366019													9.849065	0.056540	-0.965381	-0.084052	-0.979572	0.182683	0.006090	0.182824	0.983127	-0.996443	0.083746	-0.009401
373	6366185													9.855410	0.063629	-0.988685	-0.089727	-0.978916	0.183500	0.006372	0.183675	0.982966	-0.995946	0.089368	-0.010243
374	6366352													9.783488	0.056906	-1.041361	-0.095132	-0.978258	0.184285	0.006701	0.184491	0.982811	-0.995442	0.094732	-0.010996
375	6366519													9.763774	0.048059	-1.085411	-0.100397	-0.977590	0.185034	0.006977	0.185277	0.982662	-0.994923	0.099947	-0.011781
376	6366685													9.736385	0.083498	-1.136945	-0.105530	-0.976914	0.185748	0.007295	0.186025	0.982518	-0.994389	0.105040	-0.012505
377	6366852													9.758102	0.090283	-1.159000	-0.110596	-0.976221	0.186444	0.007603	0.186759	0.982376	-0.993836	0.110064	-0.013233
378	6367019													9.780452	0.117635	-1.164078	-0.115551	-0.975502	0.187199	0.007898	0.187553	0.982223	-0.993270	0.114975	-0.013967
379	6367185													9.787842	0.189626	-1.165804	-0.120301	-0.974769	0.188025	0.008176	0.188421	0.982054	-0.992704	0.119680	-0.014697
380	6367352													9.699861	0.247309	-1.225845	-0.125028	-0.973973	0.189063	0.008555	0.189493	0.981845	-0.992116	0.124376	-0.015359
381	6367519													9.592899	0.239794	-1.278442	-0.129920	-0.973075	0.190381	0.008924	0.190853	0.981578	-0.991484	0.129226	-0.016112
382	6367685													9.544033	0.182288	-1.320866	-0.135147	-0.972060	0.191925	0.009156	0.192469	0.981260	-0.990783	0.134372	-0.017112
383	6367852													9.610093	0.170623	-1.361805	-0.140709	-0.970953	0.193521	0.009242	0.194169	0.980924	-0.990008	0.139813	-0.018347
384	6368019													9.606796	0.141854	-1.412836	-0.146353	-0.969783	0.195195	0.009199	0.195977	0.980565	-0.989190	0.145305	-0.019760
385	6368185													9.628152	0.135891	-1.467517	-0.152120	-0.968553	0.196886	0.009117	0.197821	0.980196	-0.988320	0.150902	-0.021263
386	6368352													9.579144	0.085186	-1.526371	-0.157929	-0.967286	0.198533	0.008963	0.199644	0.979828	-0.987410	0.156523	-0.022859
387	6368519													9.559383	0.037498	-1.599629	-0.163925	-0.965974	0.200055	0.008770	0.201363	0.979477	-0.986434	0.162315	-0.024537
388	6368685													9.639278	0.018730	-1.677746	-0.169936	-0.964655	0.201400	0.008585	0.202916	0.979158	-0.985418	0.168123	-0.026201
389	6368852													9.721978	0.021957	-1.760790	-0.175971	-0.963315	0.202627	0.008534	0.204339	0.978863	-0.984358	0.173980	-0.027736
390	6369019													9.676949	-0.016119	-1.804458	-0.181683	-0.962035	0.203667	0.008674	0.205538	0.978611	-0.983319	0.179563	-0.028998
391	6369185													9.607683	-0.029255	-1.824964	-0.187331	-0.960793	0.204411	0.008966	0.206414	0.978424	-0.982256	0.185122	-0.030053
392	6369352													9.602118	-0.031439	-1.904519	-0.192893	-0.959587	0.204904	0.009417	0.207005	0.978295	-0.981175	0.190636	-0.030894
393	6369519													9.554922	-0.014437	-1.932232	-0.198327	-0.958442	0.205074	0.010012	0.207238	0.978239	-0.980085	0.196065	-0.031505
394	6369685													9.598478	0.039836	-1.998919	-0.203677	-0.957338	0.204986	0.010760	0.207173	0.978245	-0.978979	0.201452	-0.031895
395	6369852													9.672467	0.073971	-2.011469	-0.208731	-0.956305	0.204724	0.011584	0.206903	0.978293	-0.977904	0.206572	-0.032109
396	6370019													9.732517	0.106364	-2.070711	-0.213345	-0.955372	0.204325	0.012406	0.206474	0.978373	-0.976898	0.211266	-0.032198
397	6370185													9.647999	0.154091	-2.156980	-0.217566	-0.954523	0.203841	0.013238	0.205939	0.978475	-0.975956	0.215582	-0.032169
398	6370352													9.452707	0.195657	-2.216037	-0.221690	-0.953683	0.203327	0.014102	0.205358	0.978585	-0.975015	0.219810	-0.032077
399	6370519													9.384658	0.202540	-2.249878	-0.226049	-0.952762	0.202844	0.014978	0.204810	0.978687	-0.974001	0.224269	-0.032026
400	6370685													9.387624	0.204674	-2.278814	-0.230610	-0.951765	0.202390	0.015842	0.204296	0.978781	-0.972917	0.228923	-0.032035
401	6370852													9.482465	0.216939	-2.286509	-0.235359	-0.950693	0.201964	0.016624	0.203833	0.978865	-0.971766	0.233742	-0.032170
402	6371019													9.471694	0.246869	-2.309890	-0.240050	-0.949612	0.201524	0.017227	0.203394	0.978945	-0.970608	0.238468	-0.032466
403	6371185													9.408934	0.256802	-2.353428	-0.244851	-0.948460	0.201178	0.017702	0.203086	0.979001	-0.969399	0.243270	-0.032936
404	6371352													9.374644	0.251219	-2.419738	-0.249737	-0.947240	0.200917	0.018110	0.202886	0.979035	-0.968144	0.248140	-0.033513
405	6371519													9.330827	0.214545	-2.447577	-0.254826	-0.945928	0.200706	0.018445	0.202766	0.979054	-0.966811	0.253191	-0.034222
406	6371685													9.406456	0.184622	-2.497466	-0.260063	-0.944566	0.200407	0.018682	0.202588	0.979086	-0.965411	0.258368	-0.035039
407	6371852													9.500793	0.194437	-2.518063	-0.265201	-0.943213	0.200046	0.018753	0.202390	0.979125	-0.964011	0.263416	-0.035986
408	6372019													9.551403	0.172297	-2.564788	-0.270074	-0.941912	0.199656	0.018776	0.202170	0.979170	-0.962657	0.268197	-0.036916
409	6372185													9.532291	0.154999	-2.602125	-0.274556	-0.940719	0.199164	0.018738	0.201851	0.979237	-0.961389	0.272587	-0.037792
410	6372352													9.489369	0.149713	-2.670049	-0.278766	-0.939597	0.198612	0.018684	0.201465	0.979318	-0.960177	0.276711	-0.038606
411	6372519													9.416049	0.166236	-2.723809	-0.282742	-0.938554	0.197925	0.018627	0.200933	0.979428	-0.959015	0.280612	-0.039329
412	6372685													9.330186	0.213371	-2.756162	-0.286688	-0.937440	0.197525	0.018726	0.200657	0.979482	-0.957841	0.284505	-0.039972
413	6372852													9.291229	0.183737	-2.791744	-0.290699	-0.936362	0.196775	0.018734	0.200047	0.979607	-0.956631	0.288457	-0.040612
414	6373019													9.306741	0.204863	-2.829190	-0.294709	-0.935210	0.196286	0.018822	0.199688	0.979679	-0.955402	0.292415	-0.041247
415	6373185													9.276981	0.218547	-2.898756	-0.298654	-0.934052	0.195838	0.018912	0.199371	0.979742	-0.954174	0.296307	-0.041878
416	6373352													9.249251	0.218536	-2.934804	-0.302609	-0.932882	0.195343	0.018969	0.199017	0.979812	-0.952926	0.300206	-0.042529
417	6373519													9.224988	0.222654	-2.983326	-0.306575	-0.931682	0.194887	0.019059	0.198696	0.979876	-0.951656	0.304120	-0.043159
418	6373685													9.196633	0.202622	-3.020043	-0.310554	-0.930464	0.194402	0.019109	0.198362	0.979943	-0.950364	0.308040	-0.043822
419	6373852													9.216974	0.199171	-3.079267	-0.314589	-0.929213	0.193901	0.019119	0.198029	0.980010	-0.949035	0.312008	-0.044532
420	6374019													9.247949	0.180797	-3.102041	-0.318548	-0.927964	0.193414	0.019080	0.197724	0.980072	-0.947715	0.315891	-0.045279
421	6374185													9.228880	0.184109	-3.150720	-0.322402	-0.926733	0.192933	0.019038	0.197427	0.980133	-0.946411	0.319670	-0.046007
422	6374352													9.233171	0.170181	-3.189478	-0.326163	-0.925533	0.192371	0.018938	0.197062	0.980208	-0.945124	0.323351	-0.046747
423	6374519													9.187247	0.189680	-3.227708	-0.329832	-0.924347	0.191815	0.018832	0.196703	0.980282	-0.943852	0.326940	-0.047471
424	6374685													9.188707	0.181304	-3.275265	-0.333448	-0.923160	0.191281	0.018723	0.196368	0.980351	-0.942582	0.330478	-0.048195
425	6374852													9.149959	0.193214	-3.286913	-0.337053	-0.921953	0.190784	0.018607	0.196079	0.980412	-0.941302	0.334001	-0.048935
426	6375019													9.135331	0.179981	-3.364734	-0.340657	-0.920732	0.190276	0.018437	0.195800	0.980470	-0.940007	0.337512	-0.049725
427	6375185													9.103435	0.188177	-3.365119	-0.344274	-0.919480	0.189822	0.018267	0.195583	0.980517	-0.938692	0.341034	-0.050538
428	6375352													9.112459	0.177783	-3.399255	-0.347886	-0.918216	0.189353	0.018022	0.195382	0.980562	-0.937364	0.344536	-0.051423
429	6375519													9.047050	0.189615	-3.436708	-0.351498	-0.916926	0.188933	0.017742	0.195251	0.980593	-0.936020	0.348029	-0.052362
430	6375685													9.021490	0.196510	-3.467610	-0.355197	-0.915572	0.188579	0.017463	0.195199	0.980608	-0.934628	0.351602	-0.053346
431	6375852													9.061291	0.191380	-3.470602	-0.358967	-0.914154	0.188323	0.017208	0.195254	0.980602	-0.933192	0.355244	-0.054359
432	6376019													9.002728	0.182151	-3.495495	-0.362754	-0.912701	0.188112	0.016945	0.195368	0.980584	-0.931731	0.358898	-0.055405
433	6376185													9.034389	0.189713	-3.570708	-0.366665	-0.911167	0.187964	0.016758	0.195534	0.980554	-0.930202	0.362685	-0.056426
434	6376352													8.935319	0.147722	-3.605788	-0.370542	-0.909617	0.187871	0.016596	0.195753	0.980513	-0.928667	0.366440	-0.057439
435	6376519													8.881978	0.121906	-3.630668	-0.374657	-0.907950	0.187772	0.016388	0.196007	0.980466	-0.927018	0.370416	-0.058555
436	6376685													8.949907	0.104899	-3.662144	-0.378921	-0.906208	0.187633	0.016010	0.196303	0.980413	-0.925291	0.374503	-0.059875
437	6376852													8.976714	0.140790	-3.698801	-0.383248	-0.904422	0.187462	0.015570	0.196604	0.980359	-0.923514	0.378640	-0.061266
438	6377019													9.009967	0.157590	-3.739001	-0.387510	-0.902627	0.187352	0.015214	0.196942	0.980297	-0.921740	0.382725	-0.062584
439	6377186													8.902230	0.121395	-3.761077	-0.391739	-0.900808	0.187313	0.014988	0.197309	0.980227	-0.919954	0.386801	-0.063793
440	6377352													8.909688	0.102540	-3.793261	-0.396051	-0.898935	0.187244	0.014755	0.197662	0.980159	-0.918110	0.390956	-0.065021
441	6377519													8.912492	0.115273	-3.831726	-0.400323	-0.897053	0.187185	0.014578	0.198006	0.980092	-0.916258	0.395082	-0.066189
442	6377686													8.933748	0.115438	-3.838680	-0.404542	-0.895169	0.187131	0.014485	0.198325	0.980029	-0.914405	0.399174	-0.067264
443	6377852													8.989902	0.129855	-3.884062	-0.408590	-0.893327	0.187137	0.014552	0.198631	0.979966	-0.912602	0.403128	-0.068159
444	6378019													8.950328	0.125607	-3.905615	-0.412393	-0.891573	0.187163	0.014715	0.198901	0.979909	-0.910887	0.406862	-0.068906
445	6378186													8.883733	0.099750	-3.966188	-0.416027	-0.889874	0.187206	0.014928	0.199157	0.979854	-0.909230	0.410440	-0.069571
446	6378352													8.849524	0.103344	-4.018798	-0.419607	-0.888181	0.187256	0.015133	0.199422	0.979797	-0.907580	0.413964	-0.070237
447	6378519													8.864069	0.092254	-4.051250	-0.423131	-0.886516	0.187218	0.015297	0.199608	0.979756	-0.905940	0.417429	-0.070900
448	6378686													8.857521	0.114320	-4.099710	-0.426559	-0.884888	0.187136	0.015448	0.199746	0.979726	-0.904328	0.420802	-0.071533
449	6378852													8.808046	0.148554	-4.133699	-0.429890	-0.883299	0.187022	0.015622	0.199831	0.979706	-0.902746	0.424088	-0.072107
450	6379019													8.773030	0.128567	-4.193879	-0.433176	-0.881717	0.186906	0.015791	0.199916	0.979686	-0.901171	0.427328	-0.072676
451	6379186													8.814266	0.114052	-4.257988	-0.436405	-0.880169	0.186691	0.015844	0.199943	0.979680	-0.899611	0.430495	-0.073311
452	6379352													8.653342	0.148471	-4.247167	-0.439517	-0.878672	0.186441	0.015838	0.199951	0.979678	-0.898095	0.433538	-0.073965
453	6379519													8.584969	0.160185	-4.295758	-0.442790	-0.877086	0.186166	0.015868	0.199932	0.979681	-0.896485	0.436747	-0.074610
454	6379686													8.619648	0.136579	-4.297881	-0.446225	-0.875399	0.185902	0.015898	0.199943	0.979679	-0.894780	0.440112	-0.075302
455	6379852													8.652369	0.143697	-4.349587	-0.449748	-0.873652	0.185630	0.015884	0.199979	0.979671	-0.893014	0.443554	-0.076063
456	6380019													8.671509	0.149772	-4.368779	-0.453240	-0.871920	0.185282	0.015844	0.199944	0.979679	-0.891248	0.446965	-0.076808
457	6380186													8.686100	0.149623	-4.414890	-0.456666	-0.870203	0.184938	0.015825	0.199901	0.979688	-0.889497	0.450317	-0.077517
458	6380352													8.719617	0.130357	-4.447615	-0.459910	-0.868566	0.184596	0.015822	0.199837	0.979701	-0.887825	0.453495	-0.078165
459	6380519													8.695834	0.136336	-4.473997	-0.462951	-0.867027	0.184230	0.015832	0.199723	0.979724	-0.886243	0.456481	-0.078735
460	6380686													8.718142	0.136109	-4.520891	-0.465779	-0.865593	0.183846	0.015821	0.199580	0.979754	-0.884760	0.459258	-0.079266
461	6380852													8.677655	0.166245	-4.525925	-0.468321	-0.864292	0.183507	0.015806	0.199462	0.979778	-0.883417	0.461751	-0.079752
462	6381019													8.619845	0.183555	-4.573160	-0.470602	-0.863111	0.183230	0.015794	0.199388	0.979793	-0.882204	0.463987	-0.080200
463	6381186													8.593698	0.196365	-4.623128	-0.472679	-0.862017	0.183033	0.015787	0.199384	0.979794	-0.881093	0.466018	-0.080636
464	6381352													8.576025	0.198294	-4.637875	-0.474573	-0.860985	0.182991	0.015756	0.199550	0.979761	-0.880075	0.467851	-0.081135
465	6381519													8.617753	0.181687	-4.669450	-0.476179	-0.860084	0.183055	0.015603	0.199874	0.979697	-0.879210	0.469368	-0.081756
466	6381686													8.702910	0.168916	-4.694607	-0.477388	-0.859377	0.183224	0.015354	0.200329	0.979608	-0.878558	0.470467	-0.082440
467	6381852													8.710474	0.139617	-4.732821	-0.478050	-0.858947	0.183517	0.015035	0.200905	0.979495	-0.878204	0.471007	-0.083129
468	6382019													8.656043	0.139186	-4.726737	-0.478222	-0.858761	0.183938	0.014695	0.201586	0.979361	-0.878116	0.471055	-0.083784
469	6382186													8.609349	0.156087	-4.720930	-0.478049	-0.858746	0.184457	0.014380	0.202328	0.979212	-0.878216	0.470764	-0.084373
470	6382352													8.525585	0.132299	-4.697107	-0.477598	-0.858868	0.185056	0.014095	0.203114	0.979054	-0.878466	0.470202	-0.084901
471	6382519													8.491632	0.125148	-4.684302	-0.477033	-0.859037	0.185729	0.013866	0.203941	0.978885	-0.878776	0.469536	-0.085375
472	6382686													8.450448	0.113939	-4.696724	-0.476454	-0.859211	0.186410	0.013623	0.204782	0.978713	-0.879094	0.468851	-0.085864
473	6382852													8.443761	0.078579	-4.672833	-0.475916	-0.859377	0.187019	0.013347	0.205563	0.978553	-0.879389	0.468205	-0.086361
474	6383019													8.428474	0.046002	-4.663795	-0.475464	-0.859522	0.187499	0.012970	0.206259	0.978411	-0.879640	0.467631	-0.086921
475	6383186													8.431624	0.058553	-4.653128	-0.475132	-0.859635	0.187821	0.012521	0.206827	0.978297	-0.879825	0.467172	-0.087506
476	6383352													8.398909	0.064134	-4.645027	-0.474933	-0.859689	0.188079	0.012048	0.207350	0.978193	-0.879939	0.466842	-0.088120
477	6383519													8.469628	0.076357	-4.650248	-0.474904	-0.859651	0.188325	0.011643	0.207841	0.978093	-0.879961	0.466693	-0.088696
478	6383686													8.516494	0.086648	-4.627542	-0.474820	-0.859647	0.188555	0.011307	0.208271	0.978006	-0.880010	0.466509	-0.089171
479	6383852													8.523204	0.108097	-4.627936	-0.474714	-0.859646	0.188824	0.011043	0.208704	0.977916	-0.880071	0.466316	-0.089581
480	6384019													8.529997	0.077696	-4.625057	-0.474555	-0.859658	0.189172	0.010855	0.209180	0.977817	-0.880159	0.466082	-0.089936
481	6384186													8.494222	0.058498	-4.608643	-0.474350	-0.859717	0.189414	0.010590	0.209573	0.977736	-0.880272	0.465795	-0.090306
482	6384352													8.526238	0.051103	-4.606678	-0.474159	-0.859785	0.189587	0.010256	0.209924	0.977664	-0.880379	0.465513	-0.090719
483	6384519													8.505136	0.068310	-4.598233	-0.473968	-0.859842	0.189805	0.009957	0.210308	0.977585	-0.880486	0.465234	-0.091117
484	6384686													8.508338	0.063333	-4.604863	-0.473810	-0.859876	0.190045	0.009668	0.210715	0.977500	-0.880574	0.464987	-0.091525
485	6384852													8.475346	0.046457	-4.567975	-0.473579	-0.859960	0.190241	0.009336	0.211085	0.977423	-0.880702	0.464664	-0.091937
486	6385019													8.470185	0.046396	-4.605689	-0.473464	-0.859987	0.190404	0.008968	0.211450	0.977348	-0.880767	0.464447	-0.092402
487	6385186													8.514021	0.024496	-4.611341	-0.473327	-0.860029	0.190558	0.008672	0.211766	0.977282	-0.880844	0.464226	-0.092776
488	6385352													8.421956	0.033154	-4.616611	-0.473253	-0.860038	0.190699	0.008418	0.212050	0.977223	-0.880886	0.464079	-0.093114
489	6385519													8.523894	0.030909	-4.623614	-0.473302	-0.859977	0.190852	0.008251	0.212318	0.977166	-0.880862	0.464069	-0.093395
490	6385686													8.549307	0.006188	-4.622194	-0.473224	-0.859991	0.190984	0.008231	0.212469	0.977133	-0.880904	0.463974	-0.093467
491	6385852													8.619838	0.022153	-4.606890	-0.472995	-0.860093	0.191092	0.008305	0.212525	0.977120	-0.881026	0.463760	-0.093380
492	6386019													8.657272	0.048478	-4.623864	-0.472479	-0.860356	0.191182	0.008454	0.212488	0.977127	-0.881302	0.463288	-0.093122
493	6386186													8.686701	0.075903	-4.616488	-0.471607	-0.860809	0.191298	0.008689	0.212392	0.977146	-0.881766	0.462491	-0.092686
494	6386352													8.621804	0.063522	-4.584298	-0.470412	-0.861425	0.191469	0.008978	0.212292	0.977165	-0.882401	0.461389	-0.092131
495	6386519													8.585564	0.067270	-4.600199	-0.469006	-0.862158	0.191617	0.009203	0.212177	0.977188	-0.883147	0.460071	-0.091578
496	6386686													8.576416	0.071354	-4.604885	-0.467438	-0.862983	0.191734	0.009342	0.212053	0.977214	-0.883977	0.458578	-0.091059
497	6386852													8.594740	0.079697	-4.607378	-0.465710	-0.863890	0.191857	0.009424	0.211949	0.977235	-0.884887	0.456916	-0.090566
498	6387019													8.619017	0.077651	-4.588642	-0.463810	-0.864880	0.191997	0.009520	0.211839	0.977258	-0.885883	0.455090	-0.090019
499	6387186													8.590701	0.006517	-4.584298	-0.461700	-0.866001	0.192029	0.009510	0.211639	0.977302	-0.886985	0.453047	-0.089478
500	6387352													8.730304	-0.039196	-4.632753	-0.459432	-0.867252	0.191822	0.009263	0.211273	0.977383	-0.888165	0.450818	-0.089032
501	6387519													8.740808	-0.016860	-4.633871	-0.456617	-0.868833	0.191391	0.008855	0.210678	0.977515	-0.889619	0.448045	-0.088505
502	6387686													8.697303	0.115487	-4.630726	-0.453398	-0.870601	0.191010	0.008655	0.209992	0.977665	-0.891266	0.444924	-0.087674
503	6387852													8.676430	0.154865	-4.581473	-0.449750	-0.872486	0.191030	0.009001	0.209444	0.977779	-0.893109	0.441476	-0.086344
504	6388019													8.671049	0.095204	-4.552998	-0.445760	-0.874457	0.191370	0.009739	0.209035	0.977860	-0.895099	0.437755	-0.084663
505	6388186													8.686408	0.163219	-4.484291	-0.441471	-0.876519	0.191877	0.010726	0.208673	0.977927	-0.897211	0.433785	-0.082722
506	6388352													8.708224	0.149420	-4.432184	-0.436906	-0.878637	0.192638	0.012022	0.208436	0.977962	-0.899427	0.429594	-0.080504
507	6388519													8.678562	0.169496	-4.331286	-0.432128	-0.880805	0.193518	0.013411	0.208287	0.977976	-0.901713	0.425206	-0.078195
508	6388686													8.719766	0.113812	-4.225145	-0.427362	-0.882919	0.194464	0.014784	0.208243	0.977965	-0.903960	0.420820	-0.075942
509	6388852													8.776429	0.141519	-4.139770	-0.422587	-0.885014	0.195375	0.015928	0.208283	0.977939	-0.906183	0.416376	-0.073922
510	6389019													8.747844	0.177196	-4.043147	-0.417882	-0.887036	0.196319	0.016799	0.208510	0.977876	-0.908346	0.411934	-0.072231
511	6389186													8.711037	0.218452	-3.966883	-0.413454	-0.888879	0.197356	0.017437	0.208981	0.977764	-0.910358	0.407702	-0.070904
512	6389352													8.730364	0.232439	-3.894944	-0.409329	-0.890541	0.198463	0.017804	0.209683	0.977607	-0.912213	0.403696	-0.069974
513	6389519													8.753483	0.215029	-3.861312	-0.405532	-0.892013	0.199641	0.017941	0.210597	0.977408	-0.913905	0.399952	-0.069400
514	6389686													8.800850	0.196339	-3.809292	-0.401993	-0.893359	0.200779	0.017796	0.211612	0.977192	-0.915470	0.396397	-0.069169
515	6389852													8.843292	0.178863	-3.759275	-0.398702	-0.894587	0.201871	0.017472	0.212674	0.976967	-0.916914	0.393045	-0.069163
516	6390019													8.905197	0.155826	-3.752577	-0.395528	-0.895764	0.202888	0.017076	0.213691	0.976752	-0.918295	0.389798	-0.069225
517	6390186													8.932457	0.089298	-3.738791	-0.392405	-0.896933	0.203789	0.016577	0.214627	0.976555	-0.919643	0.386583	-0.069353
518	6390352													8.943815	0.081539	-3.688876	-0.389287	-0.898135	0.204471	0.015977	0.215365	0.976403	-0.920978	0.383368	-0.069490
519	6390519													8.968241	0.081442	-3.675329	-0.386180	-0.899360	0.204982	0.015357	0.215921	0.976290	-0.922296	0.380171	-0.069573
520	6390686													8.998871	0.119790	-3.652786	-0.383040	-0.900618	0.205348	0.014710	0.216327	0.976210	-0.923615	0.376948	-0.069613
521	6390852													8.979470	0.129901	-3.619487	-0.379899	-0.901884	0.205627	0.014074	0.216632	0.976152	-0.924921	0.373733	-0.069605
522	6391019													9.051460	0.118839	-3.613010	-0.376718	-0.903177	0.205804	0.013435	0.216821	0.976119	-0.926231	0.370486	-0.069546
523	6391186													9.086818	0.122426	-3.593033	-0.373426	-0.904504	0.205975	0.012820	0.216984	0.976091	-0.927571	0.367139	-0.069432
524	6391352													9.106997	0.083519	-3.561464	-0.369923	-0.905918	0.206083	0.012185	0.217069	0.976080	-0.928982	0.363586	-0.069260
525	6391519													9.090837	0.084459	-3.535953	-0.366270	-0.907401	0.206082	0.011452	0.217060	0.976091	-0.930438	0.359873	-0.069111
526	6391686													9.088230	0.108593	-3.496379	-0.362483	-0.908933	0.206025	0.010661	0.217001	0.976113	-0.931929	0.356021	-0.068969
527	6391852													9.110389	0.127123	-3.478376	-0.358643	-0.910462	0.205995	0.009871	0.216964	0.976130	-0.933423	0.352115	-0.068825
528	6392019													9.106693	0.125263	-3.454586	-0.354746	-0.911986	0.206002	0.009038	0.216976	0.976135	-0.934919	0.348142	-0.068728
529	6392186													9.110621	0.111149	-3.380205	-0.350840	-0.913487	0.206040	0.008253	0.217001	0.976137	-0.936399	0.344169	-0.068593
530	6392352													9.107582	0.094305	-3.346565	-0.347019	-0.914930	0.206107	0.007552	0.217031	0.976136	-0.937828	0.340294	-0.068404
531	6392519													9.041904	0.074935	-3.337965	-0.343320	-0.916310	0.206172	0.006919	0.217042	0.976138	-0.939193	0.336554	-0.068175
532	6392686													9.040255	0.055647	-3.339072	-0.339943	-0.917565	0.206185	0.006346	0.216999	0.976151	-0.940425	0.333144	-0.067945
533	6392852													9.099156	0.035794	-3.295893	-0.336792	-0.918744	0.206110	0.005774	0.216879	0.976181	-0.941561	0.329960	-0.067739
534	6393019													9.045239	-0.005140	-3.277851	-0.333823	-0.919866	0.205932	0.005229	0.216653	0.976235	-0.942621	0.326967	-0.067513
535	6393186													9.115778	-0.023887	-3.292732	-0.331070	-0.920941	0.205572	0.004624	0.216271	0.976322	-0.943595	0.324181	-0.067342
536	6393352													9.135377	-0.011257	-3.254889	-0.328318	-0.922039	0.205064	0.004030	0.215729	0.976445	-0.944559	0.321411	-0.067112
537	6393519													9.261879	0.041594	-3.283905	-0.325490	-0.923154	0.204556	0.003605	0.215124	0.976580	-0.945539	0.318604	-0.066693
538	6393686													9.361014	-0.000129	-3.304415	-0.322225	-0.924368	0.204243	0.003494	0.214588	0.976698	-0.946657	0.315430	-0.065916
539	6393853													9.468887	-0.007900	-3.311188	-0.318264	-0.925762	0.204137	0.003719	0.214113	0.976802	-0.947995	0.311640	-0.064702
540	6394019													9.562500	-0.099439	-3.316710	-0.313337	-0.927443	0.204133	0.004169	0.213612	0.976910	-0.949633	0.306952	-0.063066
541	6394186													9.667549	-0.152674	-3.269186	-0.307241	-0.929527	0.203918	0.004618	0.212824	0.977080	-0.951620	0.301141	-0.061095
542	6394353													9.704879	-0.048976	-3.176141	-0.299878	-0.932027	0.203468	0.005071	0.211724	0.977316	-0.953964	0.294107	-0.058765
543	6394519													9.650799	0.020606	-3.089396	-0.291233	-0.934884	0.202919	0.005621	0.210438	0.977591	-0.956636	0.285847	-0.056032
544	6394686													9.557870	0.096581	-2.948866	-0.281755	-0.937906	0.202352	0.006225	0.209105	0.977873	-0.959466	0.276780	-0.053078
545	6394853													9.411154	0.108023	-2.815132	-0.271667	-0.941005	0.201758	0.006774	0.207768	0.978155	-0.962368	0.267099	-0.050070
546	6395019													9.338286	0.130073	-2.651853	-0.261589	-0.943974	0.201205	0.007198	0.206550	0.978410	-0.965153	0.257389	-0.047236
547	6395186													9.390302	0.207830	-2.494767	-0.251698	-0.946754	0.200762	0.007446	0.205540	0.978620	-0.967777	0.247811	-0.044685
548	6395353													9.284560	0.206851	-2.333733	-0.242086	-0.949307	0.200527	0.007541	0.204827	0.978769	-0.970225	0.238459	-0.042427
549	6395519													9.147644	0.192410	-2.235752	-0.233095	-0.951566	0.200470	0.007476	0.204389	0.978861	-0.972425	0.229666	-0.040528
550	6395686													9.079756	0.132884	-2.150512	-0.225137	-0.953462	0.200560	0.007274	0.204194	0.978903	-0.974300	0.221846	-0.039036
551	6395853													9.094803	0.078974	-2.089724	-0.218249	-0.955023	0.200742	0.006889	0.204188	0.978907	-0.975869	0.215029	-0.037985
552	6396019													9.104540	0.079500	-2.050182	-0.212443	-0.956286	0.200960	0.006427	0.204283	0.978891	-0.977152	0.209250	-0.037252
553	6396186													9.282868	0.054675	-2.039490	-0.207541	-0.957303	0.201238	0.006021	0.204464	0.978856	-0.978208	0.204364	-0.036671
554	6396353													9.431581	0.009363	-1.993712	-0.203132	-0.958174	0.201594	0.005710	0.204723	0.978803	-0.979135	0.199977	-0.036115
555	6396519													9.539874	-0.063582	-1.963689	-0.198905	-0.959002	0.201871	0.005420	0.204907	0.978766	-0.980004	0.195776	-0.035559
556	6396686													9.708338	-0.050417	-1.921890	-0.194493	-0.959890	0.201948	0.005128	0.204882	0.978773	-0.980891	0.191400	-0.034926
557	6396853													9.766352	-0.004763	-1.892938	-0.189587	-0.960887	0.201874	0.004908	0.204673	0.978818	-0.981852	0.186562	-0.034088
558	6397019													9.778749	0.035001	-1.856361	-0.184110	-0.961971	0.201781	0.004734	0.204420	0.978872	-0.982894	0.181175	-0.033082
559	6397186													9.736444	0.033422	-1.817529	-0.178137	-0.963119	0.201667	0.004579	0.204131	0.978933	-0.983995	0.175308	-0.031953
560	6397353													9.744608	0.096484	-1.771597	-0.171684	-0.964305	0.201596	0.004470	0.203869	0.978988	-0.985142	0.168978	-0.030691
561	6397519													9.744754	0.075251	-1.724955	-0.164728	-0.965511	0.201629	0.004422	0.203696	0.979024	-0.986329	0.162164	-0.029285
562	6397686													9.850638	0.056528	-1.667784	-0.157201	-0.966742	0.201739	0.004417	0.203588	0.979047	-0.987557	0.154799	-0.027734
563	6397853													9.813067	0.062719	-1.602830	-0.149056	-0.968000	0.201889	0.004405	0.203517	0.979061	-0.988819	0.146825	-0.026071
564	6398019													9.839312	0.050947	-1.503050	-0.140379	-0.969254	0.202088	0.004398	0.203497	0.979066	-0.990088	0.138329	-0.024304
565	6398186													9.742032	0.063120	-1.404747	-0.131308	-0.970484	0.202283	0.004368	0.203481	0.979069	-0.991332	0.129443	-0.022479
566	6398353													9.709610	0.083769	-1.302045	-0.122056	-0.971642	0.202521	0.004372	0.203518	0.979061	-0.992514	0.120386	-0.020593
567	6398519													9.687682	0.048262	-1.207580	-0.112825	-0.972705	0.202768	0.004382	0.203582	0.979048	-0.993605	0.111349	-0.018707
568	6398686													9.700026	0.037510	-1.123060	-0.103617	-0.973699	0.202911	0.004337	0.203565	0.979052	-0.994608	0.102326	-0.016870
569	6398853													9.603680	0.063104	-1.013808	-0.094584	-0.974592	0.203037	0.004290	0.203550	0.979055	-0.995508	0.093474	-0.015071
570	6399019													9.556890	0.065729	-0.908817	-0.085972	-0.975373	0.203114	0.004178	0.203514	0.979063	-0.996289	0.085021	-0.013421
571	6399186													9.543468	0.023622	-0.809861	-0.077900	-0.976027	0.203233	0.004029	0.203543	0.979058	-0.996953	0.077088	-0.011924
572	6399353													9.554978	-0.086072	-0.732808	-0.070471	-0.976594	0.203220	0.003814	0.203461	0.979076	-0.997507	0.069771	-0.010614
573	6399519													9.593597	-0.075734	-0.653232	-0.063635	-0.977135	0.202875	0.003490	0.203068	0.979158	-0.997967	0.063017	-0.009512
574	6399686													9.647329	-0.016482	-0.580328	-0.057298	-0.977643	0.202312	0.003257	0.202461	0.979285	-0.998352	0.056770	-0.008416
575	6399853													9.668713	0.007609	-0.540532	-0.051375	-0.978107	0.201663	0.003202	0.201768	0.979428	-0.998674	0.050963	-0.007234
576	6400019													9.665482	-0.021743	-0.505416	-0.045816	-0.978548	0.200858	0.003268	0.200921	0.979602	-0.998945	0.045538	-0.006008
577	6400186													9.717974	0.041641	-0.461499	-0.040593	-0.978960	0.199973	0.003466	0.199999	0.979790	-0.999170	0.040465	-0.004725
578	6400353													9.810262	0.043652	-0.468999	-0.035438	-0.979332	0.199130	0.003787	0.199122	0.979967	-0.999365	0.035482	-0.003348
579	6400519													9.880252	0.046654	-0.421903	-0.030121	-0.979677	0.198309	0.004158	0.198274	0.980138	-0.999538	0.030347	-0.001898
580	6400686													9.976521	0.029937	-0.359879	-0.024335	-0.980003	0.197491	0.004470	0.197441	0.980305	-0.999694	0.024739	-0.000424
581	6400853													10.057528	0.076899	-0.262160	-0.017846	-0.980306	0.196678	0.004685	0.196625	0.980467	-0.999830	0.018419	0.001084
582	6401019													10.047513	0.100434	-0.208555	-0.010669	-0.980549	0.195985	0.004915	0.195942	0.980603	-0.999931	0.011426	0.002729
583	6401186													9.976730	0.126780	-0.073438	-0.002811	-0.980709	0.195453	0.005118	0.195437	0.980703	-0.999983	0.003758	0.004470
584	6401353													9.893193	0.123816	0.035758	0.005444	-0.980785	0.195018	0.005235	0.195046	0.980780	-0.999971	-0.004319	0.006197
585	6401519													9.871097	0.069729	0.107812	0.013946	-0.980752	0.194757	0.005262	0.194845	0.980820	-0.999889	-0.012654	0.007878
586	6401686													9.869454	-0.033321	0.221644	0.022665	-0.980655	0.194427	0.005004	0.194586	0.980873	-0.999731	-0.021258	0.009318
587	6401853													9.836983	-0.015172	0.354153	0.031580	-0.980500	0.193966	0.004565	0.194202	0.980951	-0.999491	-0.030093	0.010608
588	6402019													9.739660	0.014099	0.444602	0.040476	-0.980273	0.193462	0.004071	0.193781	0.981036	-0.999172	-0.038921	0.011834
589	6402186													9.681684	0.055732	0.568806	0.049009	-0.979963	0.193058	0.003577	0.193461	0.981101	-0.998792	-0.047392	0.012986
590	6402353													9.657620	0.027950	0.681631	0.057200	-0.979588	0.192705	0.003121	0.193195	0.981155	-0.998358	-0.055521	0.014108
591	6402519													9.702038	0.136401	0.773214	0.064913	-0.979127	0.192604	0.002828	0.193191	0.981157	-0.997887	-0.063145	0.015310
592	6402686													9.777575	0.122710	0.860672	0.072322	-0.978580	0.192744	0.002798	0.193449	0.981106	-0.997377	-0.070416	0.016729
593	6402853													9.779218	0.145852	0.992346	0.079410	-0.977957	0.193115	0.002847	0.193949	0.981008	-0.996838	-0.077353	0.018185
594	6403019													9.739120	0.120815	1.087258	0.086161	-0.977281	0.193643	0.002835	0.194605	0.980878	-0.996277	-0.083965	0.019538
595	6403186													9.613580	0.104297	1.128754	0.092257	-0.976596	0.194290	0.002708	0.195368	0.980726	-0.995732	-0.089953	0.020669
596	6403353													9.638541	0.088471	1.186174	0.097537	-0.975925	0.195084	0.002473	0.196256	0.980550	-0.995229	-0.095157	0.021556
597	6403519													9.659780	0.055886	1.177482	0.102166	-0.975278	0.195946	0.002118	0.197189	0.980363	-0.994765	-0.099745	0.022211
598	6403686													9.689696	0.058812	1.177459	0.106261	-0.974662	0.196831	0.001678	0.198127	0.980175	-0.994337	-0.103824	0.022689
599	6403853													9.782810	0.085168	1.184588	0.110047	-0.974045	0.197801	0.001299	0.199150	0.979968	-0.993926	-0.107585	0.023181
600	6404019													9.958341	0.030101	1.126876	0.114043	-0.973363	0.198895	0.000946	0.200307	0.979733	-0.993475	-0.111544	0.023765
601	6404186													9.869633	-0.030638	1.128716	0.118406	-0.972620	0.199976	0.000485	0.201449	0.979499	-0.992965	-0.115881	0.024324
602	6404353													9.834218	-0.056569	1.143042	0.123025	-0.971840	0.200977	0.000030	0.202519	0.979278	-0.992404	-0.120470	0.024944
603	6404519													9.710148	-0.060125	1.145492	0.127665	-0.971040	0.201948	-0.000366	0.203568	0.979061	-0.991817	-0.125065	0.025633
604	6404686													9.683234	-0.089735	1.108672	0.132166	-0.970246	0.202868	-0.000691	0.204573	0.978851	-0.991227	-0.129511	0.026368
605	6404853													9.593225	-0.145659	1.035015	0.136611	-0.969455	0.203704	-0.000988	0.205498	0.978657	-0.990624	-0.133896	0.027116
606	6405019													9.666073	-0.073369	0.976233	0.141024	-0.968670	0.204426	-0.001171	0.206326	0.978483	-0.990006	-0.138229	0.027962
607	6405186													10.010406	0.000225	0.994243	0.146072	-0.967766	0.205165	-0.001220	0.207213	0.978295	-0.989273	-0.143151	0.029088
608	6405353													10.417598	0.010371	1.086368	0.152853	-0.966557	0.205920	-0.001090	0.208204	0.978085	-0.988248	-0.149728	0.030771
609	6405519													10.091896	-0.018297	1.284300	0.161286	-0.965059	0.206516	-0.001045	0.209088	0.977896	-0.986907	-0.157937	0.032715
610	6405686													9.852484	-0.048284	1.429040	0.170290	-0.963439	0.206849	-0.001102	0.209729	0.977759	-0.985393	-0.166731	0.034653
611	6405853													9.611924	-0.002851	1.610141	0.179023	-0.961834	0.206946	-0.001309	0.210111	0.977677	-0.983844	-0.175298	0.036356
612	6406019													9.515729	0.023365	1.797375	0.186953	-0.960313	0.206996	-0.001535	0.210425	0.977609	-0.982368	-0.183084	0.037866
613	6406186													9.598820	-0.010198	1.934709	0.193999	-0.958927	0.206939	-0.001844	0.210589	0.977573	-0.981000	-0.190030	0.039086
614	6406353													9.697090	0.015229	2.023038	0.200483	-0.957621	0.206807	-0.002126	0.210667	0.977556	-0.979695	-0.196423	0.040199
615	6406519													9.662612	0.018374	2.080971	0.206654	-0.956352	0.206605	-0.002382	0.210670	0.977554	-0.978411	-0.202508	0.041258
616	6406686													9.610751	0.038621	2.139100	0.212450	-0.955127	0.206391	-0.002649	0.210649	0.977558	-0.977168	-0.208229	0.042223
617	6406853													9.555612	0.022339	2.178345	0.217796	-0.953947	0.206275	-0.003018	0.210689	0.977548	-0.975990	-0.213529	0.043008
618	6407019													9.570548	0.020256	2.229019	0.222793	-0.952816	0.206169	-0.003642	0.210670	0.977551	-0.974859	-0.218543	0.043465
619	6407186													9.800663	0.070385	2.333815	0.227760	-0.951627	0.206234	-0.004374	0.210798	0.977520	-0.973708	-0.223542	0.043849
620	6407353													9.826879	-0.000172	2.370869	0.233333	-0.950252	0.206342	-0.005193	0.210979	0.977477	-0.972383	-0.229149	0.044294
621	6407519													9.667513	-0.025711	2.468036	0.239147	-0.948768	0.206514	-0.006130	0.211206	0.977422	-0.970964	-0.235013	0.044693
622	6407686													9.588688	-0.085236	2.535317	0.244968	-0.947250	0.206658	-0.007123	0.211388	0.977376	-0.969505	-0.240898	0.045036
623	6407853													9.461196	-0.072250	2.636477	0.250417	-0.945809	0.206727	-0.008157	0.211461	0.977352	-0.968104	-0.246432	0.045239
624	6408019													9.496984	-0.039496	2.740990	0.255497	-0.944417	0.206877	-0.009093	0.211623	0.977309	-0.966767	-0.251581	0.045482
625	6408186													9.440073	-0.153744	2.803656	0.260165	-0.943095	0.207090	-0.009901	0.211859	0.977250	-0.965514	-0.256296	0.045780
626	6408353													9.407170	-0.166644	2.830089	0.264514	-0.941852	0.207238	-0.010468	0.212075	0.977197	-0.964325	-0.260652	0.046237
627	6408519													9.448903	-0.212725	2.888964	0.268373	-0.940744	0.207306	-0.010844	0.212237	0.977158	-0.963254	-0.264491	0.046758
628	6408686													9.549271	-0.177173	2.901131	0.272059	-0.939697	0.207251	-0.011221	0.212262	0.977148	-0.962215	-0.268167	0.047203
629	6408853													9.507891	-0.134350	2.929450	0.275730	-0.938649	0.207151	-0.011548	0.212254	0.977146	-0.961166	-0.271821	0.047685
630	6409019													9.448031	-0.061248	2.926165	0.279138	-0.937629	0.207206	-0.011723	0.212439	0.977104	-0.960179	-0.275176	0.048308
631	6409186													9.403580	-0.104558	2.875530	0.282444	-0.936598	0.207387	-0.011852	0.212766	0.977031	-0.959211	-0.278414	0.048993
632	6409353													9.255444	-0.150823	2.839620	0.285248	-0.935697	0.207616	-0.012102	0.213082	0.976959	-0.958377	-0.281188	0.049458
633	6409519													9.457363	-0.109834	2.823558	0.287427	-0.934983	0.207826	-0.012514	0.213298	0.976907	-0.957721	-0.283390	0.049607
634	6409686													9.679471	-0.121219	2.879223	0.289897	-0.934172	0.208045	-0.013002	0.213516	0.976853	-0.956969	-0.285892	0.049752
635	6409853													9.732566	-0.071852	2.959730	0.292844	-0.933189	0.208327	-0.013444	0.213839	0.976776	-0.956066	-0.288844	0.050075
636	6410019													9.636106	-0.178800	3.024503	0.296147	-0.932084	0.208605	-0.013875	0.214181	0.976696	-0.955041	-0.292140	0.050496
637	6410186													9.453169	-0.224763	3.021305	0.299426	-0.931044	0.208568	-0.014272	0.214203	0.976685	-0.954013	-0.295422	0.050850
638	6410353													9.360821	-0.166954	3.040453	0.302275	-0.930153	0.208436	-0.014490	0.214156	0.976692	-0.953111	-0.298250	0.051256
639	6410520													9.383919	-0.158134	3.007995	0.304793	-0.929363	0.208292	-0.014505	0.214143	0.976695	-0.952308	-0.300710	0.051789
640	6410686													9.484321	-0.251318	2.984733	0.307278	-0.928595	0.208067	-0.014325	0.214107	0.976705	-0.951512	-0.303100	0.052489
641	6410853													9.487357	-0.271258	2.973698	0.310106	-0.927758	0.207604	-0.014076	0.213865	0.976762	-0.950598	-0.305822	0.053262
642	6411020													9.563169	-0.278977	2.973901	0.313409	-0.926824	0.206815	-0.013740	0.213339	0.976882	-0.949519	-0.309005	0.054128
643	6411186													9.425818	-0.215466	3.052606	0.317144	-0.925783	0.205780	-0.013286	0.212623	0.977044	-0.948284	-0.312598	0.055132
644	6411353													9.397891	-0.201248	3.057409	0.320930	-0.924750	0.204551	-0.012680	0.211761	0.977239	-0.947018	-0.316219	0.056235
645	6411520													9.300165	-0.119590	3.079511	0.324519	-0.923776	0.203287	-0.011867	0.210925	0.977430	-0.945805	-0.319607	0.057486
646	6411686													9.196755	-0.095574	2.986195	0.327557	-0.922948	0.202172	-0.010912	0.210267	0.977583	-0.944768	-0.322421	0.058803
647	6411853													9.161536	0.011012	2.901512	0.329920	-0.922308	0.201248	-0.010014	0.209753	0.977703	-0.943956	-0.324580	0.059966
648	6412020													9.438158	0.155828	2.944467	0.332083	-0.921660	0.200659	-0.009255	0.209538	0.977757	-0.943205	-0.326553	0.061054
649	6412186													10.062473	0.112820	3.119267	0.335387	-0.920496	0.200508	-0.008808	0.209762	0.977713	-0.942039	-0.329678	0.062244
650	6412353													9.611979	0.008051	3.294790	0.340209	-0.918790	0.200206	-0.008682	0.209828	0.977700	-0.940310	-0.334361	0.063408
651	6412520													9.312252	-0.005729	3.447605	0.344521	-0.917229	0.199992	-0.009118	0.209755	0.977712	-0.938734	-0.338665	0.063902
652	6412686													9.238339	0.018044	3.588550	0.347917	-0.915963	0.199913	-0.009869	0.209645	0.977728	-0.937473	-0.342141	0.063899
653	6412853													9.201966	-0.037473	3.624322	0.350414	-0.914992	0.199999	-0.010669	0.209625	0.977724	-0.936534	-0.344742	0.063693
654	6413020													9.239293	-0.162124	3.674486	0.352038	-0.914346	0.200103	-0.011385	0.209589	0.977723	-0.935916	-0.346474	0.063373
655	6413186													9.324580	-0.266355	3.659269	0.353363	-0.913868	0.199950	-0.011965	0.209306	0.977777	-0.935410	-0.347903	0.063026
656	6413353													9.275978	-0.335142	3.619305	0.354550	-0.913530	0.199393	-0.012344	0.208655	0.977912	-0.934955	-0.349180	0.062702
657	6413520													9.241671	-0.396373	3.614028	0.355626	-0.913343	0.198329	-0.012426	0.207562	0.978143	-0.934546	-0.350317	0.062465
658	6413686													9.319896	-0.528219	3.613076	0.356609	-0.913348	0.196532	-0.011893	0.205908	0.978499	-0.934178	-0.351279	0.062566
659	6413853													9.390096	-0.470847	3.615158	0.357642	-0.913493	0.193964	-0.010405	0.203791	0.978959	-0.933801	-0.352135	0.063379
660	6414020													9.291248	-0.413526	3.554079	0.358831	-0.913701	0.190764	-0.007965	0.201370	0.979483	-0.933368	-0.352988	0.064981
661	6414186													9.231545	-0.243128	3.497828	0.359880	-0.914018	0.187238	-0.004936	0.198816	0.980024	-0.932986	-0.353615	0.067038
662	6414353													9.377620	0.055795	3.499628	0.361280	-0.914148	0.183876	-0.001646	0.196570	0.980488	-0.932456	-0.354533	0.069512
663	6414520													9.359202	0.210367	3.585718	0.363113	-0.913971	0.181124	0.001569	0.194992	0.980804	-0.931744	-0.355859	0.072238
664	6414686													9.291864	0.212013	3.677552	0.365316	-0.913472	0.179202	0.004310	0.194165	0.980959	-0.930874	-0.357587	0.074869
665	6414853													9.093510	0.144273	3.788623	0.367161	-0.912999	0.177833	0.006262	0.193608	0.981059	-0.930136	-0.359093	0.076803
666	6415020													9.090577	0.206394	3.812805	0.368388	-0.912683	0.176917	0.007607	0.193253	0.981119	-0.929641	-0.360087	0.078135
667	6415186													9.101072	0.215493	3.820514	0.368931	-0.912556	0.176443	0.008608	0.193181	0.981125	-0.929417	-0.360448	0.079126
668	6415353													9.313735	0.236151	3.799518	0.369267	-0.912446	0.176309	0.009344	0.193353	0.981085	-0.929277	-0.360634	0.079925
669	6415520													9.301725	0.242737	3.751038	0.369980	-0.912133	0.176429	0.009888	0.193760	0.980999	-0.928987	-0.361206	0.080707
670	6415686													9.292340	0.160103	3.769782	0.371030	-0.911648	0.176731	0.010111	0.194270	0.980896	-0.928566	-0.362155	0.081298
671	6415853													9.232218	0.096377	3.790875	0.372145	-0.911135	0.177037	0.010022	0.194670	0.980818	-0.928121	-0.363232	0.081577
672	6416020													9.082641	0.113021	3.760195	0.373231	-0.910631	0.177339	0.010017	0.195097	0.980733	-0.927684	-0.364264	0.081938
673	6416186													9.182781	0.091137	3.757317	0.373926	-0.910275	0.177705	0.010097	0.195588	0.980634	-0.927404	-0.364890	0.082327
674	6416353													9.189563	0.086733	3.716207	0.374468	-0.909973	0.178107	0.010089	0.196070	0.980538	-0.927185	-0.365383	0.082603
675	6416520													9.271807	0.055783	3.718710	0.374610	-0.909828	0.178549	0.009934	0.196499	0.980454	-0.927129	-0.365514	0.082649
676	6416686													9.329165	0.183958	3.718872	0.374868	-0.909614	0.179100	0.009615	0.196992	0.980358	-0.927028	-0.365783	0.082592
677	6416853													9.284817	0.365558	3.731963	0.375119	-0.909281	0.180261	0.009120	0.198072	0.980145	-0.926932	-0.366027	0.082594
678	6417020													9.327861	0.337768	3.732401	0.375405	-0.908760	0.182280	0.008208	0.199916	0.979779	-0.926825	-0.366318	0.082508
679	6417186													9.281817	0.288831	3.724619	0.375985	-0.907972	0.184989	0.006752	0.202317	0.979297	-0.926601	-0.366952	0.082199
680	6417353													9.231214	0.234277	3.662476	0.376719	-0.907009	0.188197	0.004951	0.205134	0.978721	-0.926315	-0.367771	0.081768
681	6417520													9.282104	0.045913	3.594205	0.377656	-0.905908	0.191589	0.003059	0.208131	0.978096	-0.925941	-0.368798	0.081373
682	6417686													9.283293	-0.136294	3.604413	0.378669	-0.904823	0.194691	0.001186	0.210830	0.977522	-0.925531	-0.369927	0.080908
683	6417853													9.237676	-0.140646	3.668116	0.379752	-0.903820	0.197228	-0.000395	0.213040	0.977043	-0.925088	-0.371112	0.080546
684	6418020													9.196691	-0.154193	3.752668	0.380635	-0.902995	0.199293	-0.001450	0.214933	0.976628	-0.924724	-0.372028	0.080501
685	6418186													9.151641	-0.139290	3.804388	0.381290	-0.902385	0.200796	-0.002190	0.216322	0.976320	-0.924453	-0.372701	0.080506
686	6418353													9.122561	-0.055993	3.835165	0.381456	-0.902066	0.201910	-0.002711	0.217333	0.976094	-0.924383	-0.372884	0.080458
687	6418520													9.120142	0.083291	3.832680	0.381151	-0.901971	0.202910	-0.003026	0.218259	0.975886	-0.924508	-0.372574	0.080460
688	6418686													9.227972	-0.064284	3.826878	0.380187	-0.902186	0.203759	-0.003338	0.218961	0.975728	-0.924904	-0.371639	0.080235
689	6418853													9.251320	-0.077424	3.856670	0.378919	-0.902620	0.204200	-0.003805	0.219133	0.975688	-0.925422	-0.370483	0.079599
690	6419020													9.165719	0.090326	3.921023	0.377270	-0.903231	0.204552	-0.004054	0.219261	0.975658	-0.926094	-0.368916	0.079059
691	6419186													9.186176	-0.038205	3.915729	0.375072	-0.904040	0.205018	-0.004005	0.219582	0.975586	-0.926987	-0.366736	0.078739
692	6419353													9.230140	-0.186161	3.902296	0.372470	-0.905112	0.205034	-0.003978	0.219372	0.975633	-0.928036	-0.364210	0.078109
693	6419520													9.300000	-0.055633	3.896759	0.369779	-0.906323	0.204551	-0.003875	0.218650	0.975796	-0.929112	-0.361622	0.077340
694	6419686													9.247119	0.105560	3.858733	0.366862	-0.907601	0.204141	-0.003860	0.217954	0.975951	-0.930267	-0.358827	0.076456
695	6419853													9.189004	0.157784	3.838911	0.363781	-0.908862	0.204041	-0.003766	0.217612	0.976028	-0.931477	-0.355829	0.075740
696	6420020													9.210110	0.083592	3.750930	0.360502	-0.910119	0.204258	-0.003770	0.217559	0.976040	-0.932751	-0.352634	0.074999
697	6420186													9.299690	0.016077	3.714638	0.357002	-0.911414	0.204633	-0.004014	0.217570	0.976036	-0.934095	-0.349268	0.074015
698	6420353													9.204723	0.108362	3.677409	0.353496	-0.912646	0.205228	-0.004634	0.217682	0.976009	-0.935425	-0.345966	0.072720
699	6420520													9.097450	0.115761	3.588632	0.349749	-0.913834	0.206355	-0.005365	0.218309	0.975865	-0.936828	-0.342415	0.071450
700	6420686													8.880527	0.053937	3.464163	0.345303	-0.915165	0.207941	-0.006528	0.219223	0.975653	-0.938469	-0.338253	0.069724
701	6420853													8.905093	0.095325	3.424564	0.339423	-0.916889	0.210015	-0.008568	0.220247	0.975407	-0.940595	-0.332875	0.066901
702	6421020													9.463823	0.414743	3.439133	0.332602	-0.918767	0.212704	-0.011266	0.221657	0.975060	-0.943000	-0.326703	0.063372
703	6421186													9.751768	0.483460	3.379252	0.326693	-0.919869	0.217053	-0.013974	0.224928	0.974275	-0.945027	-0.321322	0.060628
704	6421353													9.563102	-0.052685	3.220724	0.321371	-0.920481	0.222342	-0.016869	0.229195	0.973234	-0.946803	-0.316520	0.058129
705	6421520													9.167290	-0.484093	3.095988	0.315985	-0.921045	0.227659	-0.019962	0.233446	0.972165	-0.948554	-0.311734	0.055380
706	6421686													9.001607	-0.868572	3.033982	0.309509	-0.922134	0.232107	-0.022652	0.236874	0.971276	-0.950627	-0.305877	0.052426
707	6421853													9.214306	-0.960476	3.002894	0.301962	-0.923858	0.235170	-0.024050	0.239224	0.970667	-0.953017	-0.298760	0.050017
708	6422020													9.508281	-0.902813	2.935606	0.294261	-0.925941	0.236736	-0.023754	0.240541	0.970348	-0.955430	-0.291159	0.048787
709	6422186													9.647527	-0.763489	2.876845	0.286885	-0.928206	0.236919	-0.021834	0.240915	0.970301	-0.957716	-0.283538	0.048848
710	6422353													9.652413	-0.575845	2.772483	0.280084	-0.930519	0.235983	-0.018971	0.240409	0.970486	-0.959788	-0.276294	0.049682
711	6422520													9.518018	-0.302706	2.678520	0.273415	-0.932921	0.234314	-0.015860	0.239190	0.970843	-0.961765	-0.269160	0.050602
712	6422686													9.600121	-0.055740	2.659365	0.266539	-0.935379	0.232427	-0.012880	0.237673	0.971260	-0.963738	-0.261872	0.051302
713	6422853													9.699499	0.083623	2.561671	0.259856	-0.937708	0.230605	-0.010161	0.236140	0.971666	-0.965594	-0.254836	0.051835
714	6423020													9.677173	0.110095	2.461642	0.253293	-0.939902	0.228967	-0.007939	0.234658	0.972046	-0.967357	-0.248030	0.051976
715	6423186													9.730707	0.143426	2.379817	0.247024	-0.941928	0.227490	-0.006377	0.233180	0.972413	-0.968988	-0.241660	0.051595
716	6423353													9.641175	0.189470	2.315830	0.241032	-0.943768	0.226285	-0.005385	0.231855	0.972735	-0.970502	-0.235679	0.050802
717	6423520													9.537953	0.109434	2.250890	0.234919	-0.945513	0.225429	-0.004839	0.230779	0.972994	-0.972003	-0.229666	0.049639
718	6423686													9.568228	0.041787	2.196649	0.228607	-0.947221	0.224745	-0.004625	0.229799	0.973227	-0.973508	-0.223526	0.048153
719	6423853													9.624859	0.004603	2.169298	0.222186	-0.948906	0.224080	-0.004563	0.228810	0.973460	-0.974994	-0.217312	0.046508
720	6424020													9.653481	-0.020622	2.125809	0.215841	-0.950512	0.223472	-0.004414	0.227914	0.973671	-0.976419	-0.211144	0.044998
721	6424186													9.537927	-0.102581	2.090003	0.209577	-0.952057	0.222858	-0.004011	0.227080	0.973868	-0.977784	-0.204995	0.043773
722	6424353													9.554228	-0.142907	2.054983	0.202856	-0.953671	0.222175	-0.003223	0.226240	0.974066	-0.979203	-0.198311	0.042820
723	6424520													9.693506	-0.143303	2.030098	0.195974	-0.955327	0.221232	-0.002173	0.225183	0.974314	-0.980607	-0.191421	0.042054
724	6424686													9.750661	-0.086424	1.984439	0.189109	-0.956965	0.220127	-0.000851	0.224012	0.974586	-0.981956	-0.184491	0.041548
725	6424853													9.724945	-0.031885	1.918374	0.182293	-0.958562	0.218926	0.000700	0.222783	0.974868	-0.983244	-0.177558	0.041283
726	6425020													9.681216	0.056909	1.861078	0.175415	-0.960109	0.217764	0.002355	0.221602	0.975134	-0.984492	-0.170541	0.041133
727	6425186													9.720536	0.127077	1.794057	0.168461	-0.961583	0.216748	0.004156	0.220581	0.975360	-0.985700	-0.163409	0.041156
728	6425353													9.708113	0.094152	1.702514	0.161393	-0.962994	0.215860	0.006049	0.219689	0.975551	-0.986872	-0.156141	0.041281
729	6425520													9.751901	0.115567	1.606936	0.154226	-0.964355	0.215020	0.007858	0.218814	0.975735	-0.988004	-0.148795	0.041325
730	6425686													9.777194	0.147717	1.512888	0.147004	-0.965655	0.214241	0.009656	0.217985	0.975904	-0.989089	-0.141394	0.041369
731	6425853													9.777221	0.160764	1.381712	0.139874	-0.966867	0.213551	0.011378	0.217226	0.976055	-0.990104	-0.134095	0.041385
732	6426020													9.690408	0.177414	1.336116	0.132739	-0.968014	0.212908	0.013014	0.216493	0.976197	-0.991066	-0.126809	0.041335
733	6426186													9.760845	0.171498	1.276844	0.125355	-0.969136	0.212277	0.014560	0.215739	0.976343	-0.992005	-0.119298	0.041155
734	6426353													9.835552	0.193990	1.209908	0.118070	-0.970188	0.211650	0.016042	0.214976	0.976487	-0.992876	-0.111898	0.040946
735	6426520													9.845675	0.203934	1.116660	0.110935	-0.971168	0.211012	0.017431	0.214191	0.976636	-0.993675	-0.104665	0.040690
736	6426686													9.709558	0.239229	1.059004	0.103832	-0.972098	0.210342	0.018639	0.213349	0.976798	-0.994420	-0.097502	0.040271
737	6426853													9.687530	0.264051	1.022662	0.096283	-0.973007	0.209729	0.019694	0.212529	0.976956	-0.995159	-0.089933	0.039625
738	6427020													9.850357	0.261694	0.918163	0.088564	-0.973868	0.209137	0.020600	0.211708	0.977116	-0.995857	-0.082229	0.038812
739	6427187													9.866852	0.250829	0.856158	0.080972	-0.974665	0.208500	0.021396	0.210839	0.977287	-0.996487	-0.074672	0.037926
740	6427353													9.790194	0.261116	0.766293	0.073395	-0.975401	0.207859	0.022076	0.209959	0.977461	-0.997059	-0.067152	0.036943
741	6427520													9.704068	0.246902	0.694005	0.065607	-0.976092	0.207220	0.022650	0.209071	0.977638	-0.997588	-0.059447	0.035825
742	6427687													9.748914	0.239673	0.624189	0.057471	-0.976748	0.206546	0.023128	0.208135	0.977827	-0.998079	-0.051419	0.034552
743	6427853													9.804215	0.210507	0.545422	0.049143	-0.977358	0.205805	0.023591	0.207133	0.978028	-0.998513	-0.043208	0.033236
744	6428020													9.860722	0.193605	0.441567	0.040735	-0.977914	0.205001	0.024016	0.206070	0.978242	-0.998881	-0.034925	0.031880
745	6428187													9.814784	0.178189	0.364690	0.032454	-0.978406	0.204127	0.024411	0.204950	0.978468	-0.999175	-0.026772	0.030536
746	6428353													9.738469	0.195912	0.302277	0.023991	-0.978847	0.203184	0.024752	0.203761	0.978708	-0.999406	-0.018451	0.029117
747	6428520													9.859673	0.214634	0.199963	0.015445	-0.979220	0.202214	0.025071	0.202553	0.978950	-0.999566	-0.010050	0.027679
748	6428687													9.860945	0.186177	0.108410	0.006999	-0.979537	0.201142	0.025383	0.201256	0.979210	-0.999653	-0.001748	0.026272
749	6428853													9.763322	0.202362	-0.026713	-0.001408	-0.979792	0.200014	0.025750	0.199913	0.979475	-0.999667	0.006529	0.024948
750	6429020													9.798964	0.229553	-0.120272	-0.009756	-0.979971	0.198902	0.026132	0.198594	0.979733	-0.999611	0.014756	0.023671
751	6429187													9.919983	0.239807	-0.192417	-0.017967	-0.980074	0.197818	0.026486	0.197314	0.979982	-0.999488	0.022847	0.022413
752	6429353													9.951585	0.302688	-0.299107	-0.025661	-0.980113	0.196775	0.026795	0.196095	0.980219	-0.999312	0.030426	0.021230
753	6429520													9.894517	0.297498	-0.372604	-0.033052	-0.980069	0.195889	0.027061	0.195047	0.980421	-0.999087	0.037706	0.020075
754	6429687													9.927053	0.288804	-0.412702	-0.040089	-0.979961	0.195111	0.027270	0.194123	0.980598	-0.998824	0.044632	0.018941
755	6429853													9.929037	0.326848	-0.460692	-0.046761	-0.979785	0.194514	0.027486	0.193391	0.980737	-0.998528	0.051206	0.017887
756	6430020													9.889581	0.298835	-0.516857	-0.053181	-0.979544	0.194077	0.027730	0.192828	0.980841	-0.998200	0.057544	0.016908
757	6430187													9.790687	0.266767	-0.560533	-0.059469	-0.979255	0.193709	0.027906	0.192346	0.980930	-0.997840	0.063740	0.015889
758	6430353													9.803393	0.287451	-0.594501	-0.065741	-0.978913	0.193412	0.028054	0.191941	0.981005	-0.997442	0.069918	0.014844
759	6430520													9.850245	0.310585	-0.663422	-0.071822	-0.978524	0.193214	0.028187	0.191646	0.981059	-0.997019	0.075908	0.013817
760	6430687													9.811370	0.368927	-0.677077	-0.077708	-0.978082	0.193176	0.028362	0.191515	0.981080	-0.996573	0.081716	0.012858
761	6430853													9.762913	0.315684	-0.735278	-0.083465	-0.977588	0.193274	0.028575	0.191523	0.981072	-0.996101	0.087408	0.011949
762	6431020													9.728607	0.326031	-0.805702	-0.089218	-0.977028	0.193534	0.028790	0.191698	0.981032	-0.995596	0.093098	0.011026
763	6431187													9.698757	0.380937	-0.863861	-0.094983	-0.976398	0.193971	0.029029	0.192052	0.980955	-0.995056	0.098804	0.010102
764	6431353													9.587289	0.446185	-0.935347	-0.100812	-0.975646	0.194813	0.029443	0.192799	0.980796	-0.994470	0.104612	0.009290
765	6431520													9.558850	0.560360	-1.006257	-0.107009	-0.974739	0.196045	0.029929	0.193930	0.980559	-0.993808	0.110796	0.008420
766	6431687													9.570716	0.721445	-1.099433	-0.113508	-0.973619	0.197942	0.030274	0.195748	0.980187	-0.993076	0.117252	0.007257
767	6431853													9.631189	0.663185	-1.176325	-0.120376	-0.972241	0.200643	0.030327	0.198417	0.979648	-0.992265	0.124011	0.005600
768	6432020													9.836365	0.493798	-1.256684	-0.127249	-0.970713	0.203774	0.029940	0.201591	0.979012	-0.991419	0.130679	0.003411
769	6432187													9.822696	0.296562	-1.316670	-0.133793	-0.969146	0.207017	0.029019	0.204975	0.978337	-0.990584	0.136902	0.000699
770	6432353													9.769193	0.174093	-1.374848	-0.140195	-0.967581	0.210079	0.027786	0.208247	0.977682	-0.989734	0.142903	-0.002310
771	6432520													9.702577	0.052126	-1.432768	-0.146494	-0.966057	0.212774	0.026377	0.211203	0.977086	-0.988860	0.148750	-0.005458
772	6432687													9.613480	0.031430	-1.487486	-0.152753	-0.964599	0.214977	0.024960	0.213695	0.976582	-0.987949	0.154541	-0.008566
773	6432853													9.597696	0.027770	-1.517145	-0.159058	-0.963187	0.216729	0.023709	0.215734	0.976164	-0.986984	0.160406	-0.011478
774	6433020													9.587420	0.072279	-1.557748	-0.165532	-0.961787	0.218092	0.022714	0.217366	0.975826	-0.985943	0.166484	-0.014135
775	6433187													9.637500	0.075172	-1.674422	-0.172066	-0.960395	0.219169	0.022064	0.218674	0.975549	-0.984838	0.172695	-0.016437
776	6433353													9.596835	0.088820	-1.731498	-0.178579	-0.959028	0.219943	0.021622	0.219657	0.975337	-0.983688	0.178931	-0.018490
777	6433520													9.538840	0.063100	-1.788780	-0.185286	-0.957632	0.220479	0.021333	0.220392	0.975178	-0.982453	0.185390	-0.020407
778	6433687													9.545986	0.056819	-1.849730	-0.192132	-0.956232	0.220695	0.021118	0.220805	0.975089	-0.981142	0.192006	-0.022230
779	6433853													9.540485	0.041232	-1.903110	-0.199119	-0.954817	0.220628	0.021000	0.220927	0.975064	-0.979750	0.198787	-0.023940
780	6434020													9.520103	0.120569	-1.965405	-0.206170	-0.953386	0.220336	0.021037	0.220804	0.975091	-0.978290	0.205670	-0.025467
781	6434187													9.394688	0.145050	-2.043129	-0.213321	-0.951908	0.219921	0.021140	0.220552	0.975146	-0.976753	0.212668	-0.026925
782	6434353													9.383882	0.201674	-2.096613	-0.220739	-0.950317	0.219482	0.021217	0.220301	0.975201	-0.975102	0.219922	-0.028466
783	6434520													9.498675	0.222264	-2.149951	-0.228351	-0.948628	0.219000	0.021194	0.220046	0.975259	-0.973348	0.227343	-0.030143
784	6434687													9.539794	0.210927	-2.240350	-0.235735	-0.946924	0.218549	0.021097	0.219848	0.975306	-0.971588	0.234525	-0.031848
785	6434853													9.276407	0.168077	-2.312826	-0.243018	-0.945163	0.218194	0.020980	0.219763	0.975328	-0.969795	0.241600	-0.033577
786	6435020													9.205131	0.109428	-2.388297	-0.250874	-0.943200	0.217797	0.020993	0.219638	0.975356	-0.967792	0.249264	-0.035301
787	6435187													9.376492	0.102465	-2.466455	-0.259129	-0.941083	0.217292	0.021186	0.219385	0.975408	-0.965610	0.257360	-0.036911
788	6435353													9.454784	0.153457	-2.560357	-0.267338	-0.938875	0.216898	0.021472	0.219231	0.975437	-0.963364	0.265429	-0.038450
789	6435520													9.520482	0.199938	-2.648289	-0.275222	-0.936658	0.216622	0.021874	0.219164	0.975443	-0.961132	0.273202	-0.039830
790	6435687													9.519361	0.185853	-2.729223	-0.282772	-0.934446	0.216452	0.022363	0.219177	0.975429	-0.958926	0.280665	-0.041080
791	6435853													9.475123	0.206384	-2.799436	-0.289949	-0.932292	0.216245	0.022873	0.219136	0.975426	-0.956769	0.287770	-0.042214
792	6436020													9.474539	0.187352	-2.893811	-0.296806	-0.930167	0.216092	0.023330	0.219159	0.975410	-0.954653	0.294549	-0.043347
793	6436187													9.504302	0.162986	-2.977330	-0.303327	-0.928108	0.215891	0.023693	0.219149	0.975404	-0.952592	0.300981	-0.044484
794	6436353													9.386288	0.142916	-3.025273	-0.309369	-0.926191	0.215551	0.023984	0.218999	0.975430	-0.950640	0.306938	-0.045537
795	6436520													9.266563	0.094059	-3.120281	-0.315209	-0.924345	0.215011	0.024049	0.218708	0.975494	-0.948718	0.312655	-0.046709
796	6436687													9.186499	0.131067	-3.127264	-0.320914	-0.922572	0.214183	0.023883	0.218189	0.975614	-0.946807	0.318204	-0.047987
797	6436853													9.302696	0.193700	-3.205376	-0.326665	-0.920756	0.213304	0.023724	0.217626	0.975744	-0.944842	0.323802	-0.049246
798	6437020													9.338022	0.168500	-3.262043	-0.332058	-0.919029	0.212424	0.023626	0.217028	0.975879	-0.942963	0.329067	-0.050352
799	6437187													9.225705	0.086944	-3.273416	-0.337160	-0.917399	0.211428	0.023575	0.216280	0.976047	-0.941152	0.334068	-0.051294
800	6437353													9.193868	0.092598	-3.319555	-0.342057	-0.915852	0.210266	0.023547	0.215340	0.976255	-0.939384	0.338886	-0.052093
801	6437520													9.148085	0.117012	-3.348650	-0.346712	-0.914394	0.208982	0.023633	0.214215	0.976501	-0.937674	0.343504	-0.052661
802	6437687													9.074070	0.125379	-3.345807	-0.351252	-0.912960	0.207670	0.023887	0.212993	0.976762	-0.935976	0.348050	-0.053007
803	6437853													9.068464	0.170172	-3.366818	-0.355767	-0.911506	0.206366	0.024438	0.211664	0.977037	-0.934255	0.352641	-0.053028
804	6438020													9.106185	0.238737	-3.390367	-0.360347	-0.909987	0.205119	0.025115	0.210348	0.977304	-0.932480	0.357320	-0.052944
805	6438187													9.130563	0.347983	-3.447902	-0.364794	-0.908447	0.204083	0.025711	0.209276	0.977519	-0.930733	0.361840	-0.052985
806	6438353													9.109519	0.521138	-3.480618	-0.369162	-0.906817	0.203475	0.026204	0.208696	0.977629	-0.928996	0.366235	-0.053280
807	6438520													9.105721	0.586311	-3.532782	-0.373521	-0.905004	0.203593	0.026641	0.208922	0.977569	-0.927239	0.370567	-0.053927
808	6438687													9.098606	0.538071	-3.582341	-0.377787	-0.903041	0.204435	0.026930	0.209987	0.977333	-0.925501	0.374730	-0.055012
809	6438853													9.020071	0.395571	-3.656436	-0.381983	-0.900954	0.205841	0.027064	0.211730	0.976953	-0.923773	0.378750	-0.056494
810	6439020													9.060477	0.271728	-3.722153	-0.386079	-0.898837	0.207448	0.026977	0.213787	0.976508	-0.922071	0.382605	-0.058291
811	6439187													8.949211	0.240383	-3.771284	-0.389970	-0.896761	0.209149	0.026844	0.215964	0.976032	-0.920436	0.386237	-0.060146
812	6439353													8.853192	0.187051	-3.817792	-0.393977	-0.894602	0.210877	0.026880	0.218120	0.975552	-0.918727	0.390014	-0.061887
813	6439520													8.846265	0.171987	-3.851511	-0.398143	-0.892384	0.212447	0.027034	0.220079	0.975107	-0.916925	0.393975	-0.063498
814	6439687													8.824207	0.198952	-3.898295	-0.402357	-0.890153	0.213860	0.027288	0.221838	0.974702	-0.915076	0.398014	-0.064968
815	6439853													8.795900	0.200161	-3.949217	-0.406617	-0.887898	0.215177	0.027585	0.223487	0.974316	-0.913182	0.402109	-0.066381
816	6440020													8.855550	0.186403	-4.001577	-0.410887	-0.885660	0.216284	0.027843	0.224935	0.973976	-0.911261	0.406216	-0.067764
817	6440187													8.877809	0.219314	-4.068610	-0.415044	-0.883485	0.217240	0.028099	0.226216	0.973672	-0.909367	0.410221	-0.069065
818	6440353													8.965193	0.195431	-4.120692	-0.418942	-0.881438	0.218070	0.028380	0.227334	0.973403	-0.907569	0.413988	-0.070225
819	6440520													8.914793	0.216334	-4.139909	-0.422510	-0.879577	0.218700	0.028604	0.228235	0.973186	-0.905907	0.417436	-0.071272
820	6440687													8.883642	0.213272	-4.165513	-0.425913	-0.877814	0.219180	0.028856	0.228949	0.973011	-0.904304	0.420743	-0.072182
821	6440853													8.871871	0.235387	-4.201483	-0.429061	-0.876194	0.219525	0.029148	0.229475	0.972878	-0.902805	0.423823	-0.072920
822	6441020													8.855416	0.228900	-4.250369	-0.431958	-0.874702	0.219791	0.029462	0.229884	0.972772	-0.901413	0.426672	-0.073530
823	6441187													8.782902	0.224766	-4.255732	-0.434531	-0.873397	0.219911	0.029775	0.230103	0.972711	-0.900164	0.429221	-0.073981
824	6441353													8.743138	0.242759	-4.302619	-0.436954	-0.872199	0.219862	0.030087	0.230122	0.972696	-0.898980	0.431639	-0.074311
825	6441520													8.729723	0.285377	-4.312345	-0.439201	-0.871093	0.219772	0.030423	0.230068	0.972699	-0.897873	0.433897	-0.074545
826	6441687													8.756884	0.288637	-4.361919	-0.441266	-0.870084	0.219632	0.030745	0.229947	0.972717	-0.896849	0.435980	-0.074717
827	6441853													8.818727	0.292183	-4.367989	-0.443051	-0.869212	0.219493	0.031044	0.229812	0.972740	-0.895959	0.437787	-0.074835
828	6442020													8.855316	0.301339	-4.387972	-0.444405	-0.868567	0.219306	0.031309	0.229600	0.972781	-0.895279	0.439175	-0.074841
829	6442187													8.896160	0.296342	-4.404592	-0.445266	-0.868175	0.219111	0.031491	0.229373	0.972829	-0.894844	0.440068	-0.074792
830	6442353													8.844415	0.326551	-4.399636	-0.445598	-0.868057	0.218906	0.031602	0.229119	0.972885	-0.894675	0.440434	-0.074662
831	6442520													8.794394	0.346678	-4.398445	-0.445459	-0.868160	0.218778	0.031651	0.228939	0.972926	-0.894743	0.440323	-0.074505
832	6442687													8.780815	0.328614	-4.389215	-0.444978	-0.868440	0.218646	0.031579	0.228782	0.972965	-0.894985	0.439853	-0.074379
833	6442853													8.870835	0.321768	-4.391126	-0.444122	-0.868896	0.218577	0.031421	0.228702	0.972989	-0.895415	0.438994	-0.074270
834	6443020													8.837833	0.312066	-4.373328	-0.442700	-0.869637	0.218512	0.031179	0.228615	0.973017	-0.896127	0.437568	-0.074093
835	6443187													8.719631	0.378901	-4.340314	-0.440882	-0.870564	0.218497	0.030838	0.228597	0.973033	-0.897035	0.435731	-0.073938
836	6443353													8.626886	0.484159	-4.296519	-0.438987	-0.871467	0.218712	0.030440	0.228856	0.972984	-0.897977	0.433786	-0.073937
837	6443520													8.673039	0.531213	-4.249342	-0.437197	-0.872235	0.219236	0.029978	0.229498	0.972847	-0.898866	0.431898	-0.074188
838	6443687													8.825314	0.550859	-4.208684	-0.435392	-0.872900	0.220181	0.029345	0.230688	0.972585	-0.899763	0.429917	-0.074825
839	6443854													8.854676	0.524941	-4.231822	-0.433231	-0.873628	0.221553	0.028366	0.232481	0.972187	-0.900837	0.427466	-0.075936
840	6444020													8.853209	0.363231	-4.302356	-0.430882	-0.874340	0.223316	0.026998	0.234866	0.971653	-0.902004	0.424697	-0.077594
841	6444187													8.673058	0.246096	-4.253514	-0.428373	-0.875109	0.225126	0.025254	0.237451	0.971071	-0.903249	0.421666	-0.079617
842	6444354													8.562427	0.200628	-4.184364	-0.426194	-0.875710	0.226914	0.023375	0.240092	0.970469	-0.904330	0.418912	-0.081856
843	6444520													8.691036	0.159795	-4.146171	-0.424251	-0.876187	0.228707	0.021632	0.242685	0.969864	-0.905286	0.416413	-0.084006
844	6444687													8.674993	0.107141	-4.124578	-0.422251	-0.876688	0.230483	0.020197	0.245100	0.969287	-0.906254	0.413938	-0.085787
845	6444854													8.663969	0.032626	-4.097687	-0.420420	-0.877129	0.232148	0.019246	0.247179	0.968779	-0.907125	0.411762	-0.087038
846	6445020													8.744681	-0.032780	-4.058298	-0.418709	-0.877565	0.233586	0.018768	0.248801	0.968373	-0.907926	0.409851	-0.087705
847	6445187													8.757878	-0.012770	-4.004724	-0.417059	-0.878050	0.234714	0.018721	0.249891	0.968093	-0.908687	0.408146	-0.087781
848	6445354													8.760156	-0.014980	-3.966008	-0.415467	-0.878583	0.235540	0.018960	0.250526	0.967924	-0.909411	0.406606	-0.087427
849	6445520													8.773606	0.027824	-3.971354	-0.413981	-0.879153	0.236029	0.019370	0.250725	0.967865	-0.910080	0.405249	-0.086766
850	6445687													8.769060	0.034137	-3.982258	-0.412695	-0.879722	0.236159	0.019765	0.250558	0.967900	-0.910655	0.404115	-0.086017
851	6445854													8.806781	0.073460	-3.941524	-0.411490	-0.880341	0.235957	0.020059	0.250081	0.968017	-0.911194	0.403062	-0.085247
852	6446020													8.789035	0.116378	-3.957503	-0.410318	-0.881021	0.235458	0.020222	0.249340	0.968205	-0.911718	0.402033	-0.084492
853	6446187													8.867069	0.128488	-3.979312	-0.409278	-0.881702	0.234720	0.020221	0.248424	0.968440	-0.912185	0.401108	-0.083845
854	6446354													8.881533	0.135623	-3.979234	-0.408131	-0.882483	0.233779	0.019994	0.247376	0.968713	-0.912704	0.400036	-0.083317
855	6446520													8.790086	0.171024	-3.968997	-0.407054	-0.883268	0.232690	0.019595	0.246247	0.969009	-0.913194	0.398998	-0.082928
856	6446687													8.825290	0.151578	-3.961666	-0.406099	-0.884009	0.231539	0.019112	0.245101	0.969309	-0.913629	0.398061	-0.082640
857	6446854													8.804706	0.131323	-3.951264	-0.405157	-0.884758	0.230326	0.018543	0.243926	0.969617	-0.914059	0.397118	-0.082422
858	6447020													8.814059	0.141437	-3.952548	-0.404202	-0.885521	0.229070	0.017869	0.242747	0.969925	-0.914495	0.396139	-0.082295
859	6447187													8.835877	0.189585	-3.965452	-0.403292	-0.886266	0.227789	0.017127	0.241576	0.970231	-0.914911	0.395188	-0.082247
860	6447354													8.910333	0.242637	-3.920895	-0.402336	-0.886977	0.226708	0.016395	0.240614	0.970482	-0.915345	0.394177	-0.082266
861	6447520													8.980796	0.233215	-3.916847	-0.401216	-0.887686	0.225919	0.015699	0.239940	0.970661	-0.915849	0.392991	-0.082332
862	6447687													8.964681	0.230263	-3.907585	-0.399876	-0.888422	0.225401	0.015022	0.239533	0.970772	-0.916446	0.391575	-0.082438
863	6447854													8.899445	0.180799	-3.891518	-0.398485	-0.889125	0.225093	0.014395	0.239327	0.970832	-0.917062	0.390102	-0.082570
864	6448020													8.919113	0.149429	-3.892984	-0.397074	-0.889784	0.224983	0.013847	0.239301	0.970847	-0.917682	0.388613	-0.082700
865	6448187													8.941508	0.086647	-3.872747	-0.395655	-0.890411	0.224999	0.013381	0.239375	0.970835	-0.918302	0.387127	-0.082795
866	6448354													9.010960	0.046043	-3.848890	-0.394134	-0.891064	0.225085	0.013043	0.239462	0.970818	-0.918961	0.385568	-0.082758
867	6448520													9.055866	0.025748	-3.857632	-0.392298	-0.891872	0.225093	0.012768	0.239406	0.970836	-0.919750	0.383731	-0.082531
868	6448687													9.041324	0.060604	-3.811424	-0.390145	-0.892819	0.225081	0.012568	0.239267	0.970873	-0.920667	0.381610	-0.082128
869	6448854													9.051439	0.074014	-3.790602	-0.387736	-0.893870	0.225070	0.012414	0.239086	0.970919	-0.921687	0.379254	-0.081606
870	6449020													9.026511	0.059822	-3.760304	-0.385024	-0.895060	0.224998	0.012223	0.238826	0.970985	-0.922825	0.376603	-0.081014
871	6449187													9.005457	0.083892	-3.754969	-0.382095	-0.896346	0.224874	0.012065	0.238478	0.971073	-0.924044	0.373755	-0.080307
872	6449354													9.017715	0.066177	-3.725642	-0.379020	-0.897689	0.224718	0.011913	0.238083	0.971172	-0.925312	0.370771	-0.079544
