// Start Time: Unknown
// Update Rate: 20.0Hz
// Filter Profile: human (46.1)
// Option Flags: AHS Disabled ICC Disabled
// Firmware Version: 4.0.2
0	sampleTimeFine	Year	Month	Day	Second	UTC_Nano	UTC_Year	UTC_Month	UTC_Day	UTC_Hour	UTC_Minute	UTC_Second	UTC_Valid	Acc_X	Acc_Y	Acc_Z	Mat[1][1]	Mat[2][1]	Mat[3][1]	Mat[1][2]	Mat[2][2]	Mat[3][2]	Mat[1][3]	Mat[2][3]	Mat[3][3]
0	5766642270.000000													9.715805	0.397601	-1.093201	-0.111080	-0.859756	0.498478	0.044823	0.496737	0.866743	-0.992800	0.118621	-0.016641
1	5766692273.000000													9.725824	0.450722	-1.100181	-0.111134	-0.859909	0.498203	0.044848	0.496458	0.866901	-0.992793	0.118685	-0.016608
2	5766742275.000000													9.733571	0.409002	-1.083753	-0.111010	-0.859585	0.498788	0.045091	0.497017	0.866568	-0.992796	0.118689	-0.016414
3	5766792277.000000													9.721428	0.426951	-1.102829	-0.111117	-0.859751	0.498479	0.045284	0.496684	0.866749	-0.992775	0.118884	-0.016257
4	5766842279.000000													9.718418	0.436028	-1.097103	-0.110979	-0.859462	0.499007	0.045238	0.497220	0.866445	-0.992793	0.118731	-0.016301
5	5766892281.000000													9.745260	0.423547	-1.100282	-0.111091	-0.859358	0.499162	0.045270	0.497374	0.866354	-0.992779	0.118841	-0.016350
6	5766942283.000000													9.720109	0.467715	-1.102876	-0.111054	-0.859311	0.499251	0.045550	0.497429	0.866308	-0.992770	0.118948	-0.016100
7	5766992286.000000													9.697722	0.389500	-1.092846	-0.111065	-0.859232	0.499384	0.045818	0.497532	0.866235	-0.992756	0.119089	-0.015890
8	5767042288.000000													9.748629	0.429647	-1.090741	-0.111105	-0.859625	0.498699	0.045727	0.496853	0.866629	-0.992756	0.119091	-0.015895
9	5767092290.000000													9.724478	0.482480	-1.095639	-0.111007	-0.859553	0.498844	0.045806	0.496988	0.866548	-0.992763	0.119043	-0.015797
10	5767142292.000000													9.725864	0.427538	-1.101405	-0.110963	-0.859698	0.498604	0.046135	0.496706	0.866692	-0.992753	0.119174	-0.015453
11	5767192294.000000													9.729671	0.458785	-1.077423	-0.110716	-0.859822	0.498445	0.046410	0.496508	0.866790	-0.992768	0.119100	-0.015067
12	5767242297.000000													9.714559	0.424018	-1.088330	-0.110531	-0.859757	0.498599	0.046549	0.496644	0.866705	-0.992782	0.119007	-0.014874
13	5767292299.000000													9.744342	0.448826	-1.108337	-0.110303	-0.859598	0.498924	0.046779	0.496940	0.866523	-0.992797	0.118920	-0.014603
14	5767342301.000000													9.706021	0.433550	-1.070875	-0.110095	-0.859626	0.498922	0.046820	0.496930	0.866526	-0.992818	0.118760	-0.014462
15	5767392303.000000													9.738232	0.460540	-1.090666	-0.110025	-0.859792	0.498651	0.046739	0.496666	0.866682	-0.992829	0.118663	-0.014459
16	5767442305.000000													9.729180	0.468433	-1.072681	-0.109893	-0.859690	0.498856	0.046833	0.496859	0.866566	-0.992839	0.118592	-0.014340
17	5767492307.000000													9.736065	0.465852	-1.095904	-0.109780	-0.859668	0.498918	0.047063	0.496893	0.866535	-0.992841	0.118609	-0.014090
18	5767542310.000000													9.717550	0.466528	-1.066716	-0.109687	-0.859787	0.498734	0.047309	0.496677	0.866645	-0.992840	0.118654	-0.013803
19	5767592312.000000													9.749013	0.458247	-1.066532	-0.109521	-0.859644	0.499016	0.047489	0.496938	0.866486	-0.992849	0.118596	-0.013602
20	5767642314.000000													9.720533	0.469121	-1.098603	-0.109414	-0.859459	0.499358	0.047868	0.497235	0.866294	-0.992843	0.118688	-0.013264
21	5767692316.000000													9.709174	0.405052	-1.066786	-0.109174	-0.859430	0.499460	0.048174	0.497299	0.866241	-0.992855	0.118632	-0.012889
22	5767742318.000000													9.743634	0.469582	-1.079056	-0.109168	-0.859600	0.499170	0.048099	0.497015	0.866408	-0.992859	0.118593	-0.012912
23	5767792320.000000													9.731576	0.510821	-1.059288	-0.108831	-0.859443	0.499514	0.048246	0.497339	0.866214	-0.992889	0.118370	-0.012661
24	5767842323.000000													9.717880	0.452102	-1.076674	-0.108715	-0.859399	0.499614	0.048318	0.497430	0.866157	-0.992898	0.118304	-0.012554
25	5767892325.000000													9.723496	0.483347	-1.070221	-0.108529	-0.859358	0.499725	0.048253	0.497547	0.866094	-0.992921	0.118110	-0.012532
26	5767942327.000000													9.735857	0.473851	-1.056686	-0.108297	-0.859368	0.499758	0.048397	0.497561	0.866078	-0.992940	0.117981	-0.012293
27	5767992329.000000													9.719388	0.450448	-1.067063	-0.108199	-0.859255	0.499975	0.048573	0.497757	0.865955	-0.992942	0.117980	-0.012120
28	5768042331.000000													9.728448	0.468336	-1.068248	-0.108024	-0.859293	0.499947	0.048626	0.497721	0.865973	-0.992958	0.117856	-0.011981
29	5768092333.000000													9.732483	0.480102	-1.058686	-0.107837	-0.859290	0.499992	0.048746	0.497750	0.865950	-0.992973	0.117754	-0.011789
30	5768142336.000000													9.724627	0.460982	-1.050108	-0.107796	-0.859223	0.500115	0.048828	0.497864	0.865879	-0.992973	0.117758	-0.011714
31	5768192338.000000													9.729970	0.494012	-1.081715	-0.107676	-0.859312	0.499988	0.048889	0.497727	0.865955	-0.992983	0.117687	-0.011582
32	5768242340.000000													9.718843	0.478027	-1.047561	-0.107582	-0.859125	0.500331	0.048945	0.498065	0.865757	-0.992991	0.117628	-0.011533
33	5768292342.000000													9.748394	0.483614	-1.051857	-0.107452	-0.859324	0.500016	0.049004	0.497739	0.865941	-0.993002	0.117550	-0.011373
34	5768342344.000000													9.717578	0.507496	-1.080381	-0.107414	-0.859198	0.500241	0.049303	0.497929	0.865815	-0.992991	0.117664	-0.011124
35	5768392347.000000													9.725611	0.406371	-1.081221	-0.107290	-0.859110	0.500419	0.049679	0.498064	0.865716	-0.992986	0.117743	-0.010757
36	5768442349.000000													9.738883	0.468755	-1.058581	-0.107287	-0.859417	0.499891	0.049631	0.497537	0.866022	-0.992989	0.117723	-0.010726
37	5768492351.000000													9.719568	0.496921	-1.050492	-0.107129	-0.859415	0.499929	0.049760	0.497558	0.866003	-0.992999	0.117651	-0.010538
38	5768542353.000000													9.723485	0.479180	-1.042975	-0.107122	-0.859625	0.499570	0.049824	0.497189	0.866211	-0.992997	0.117681	-0.010430
39	5768592355.000000													9.734884	0.499438	-1.032625	-0.106967	-0.859624	0.499605	0.049817	0.497223	0.866191	-0.993014	0.117543	-0.010363
40	5768642357.000000													9.717731	0.505058	-1.060482	-0.106900	-0.859545	0.499755	0.049961	0.497356	0.866107	-0.993014	0.117555	-0.010224
41	5768692360.000000													9.716114	0.461609	-1.040993	-0.106883	-0.859510	0.499819	0.050011	0.497415	0.866070	-0.993013	0.117564	-0.010180
42	5768742362.000000													9.730454	0.502219	-1.058617	-0.106869	-0.859766	0.499380	0.050080	0.496965	0.866324	-0.993011	0.117592	-0.010053
43	5768792364.000000													9.723504	0.500461	-1.036601	-0.106937	-0.859625	0.499608	0.050076	0.497196	0.866192	-0.993004	0.117647	-0.010122
44	5768842366.000000													9.726757	0.480232	-1.035399	-0.106822	-0.859668	0.499560	0.049846	0.497173	0.866218	-0.993028	0.117433	-0.010258
45	5768892368.000000													9.731579	0.526757	-1.046424	-0.106836	-0.859729	0.499452	0.049845	0.497065	0.866281	-0.993026	0.117445	-0.010251
46	5768942370.000000													9.742496	0.470184	-1.060884	-0.106803	-0.859567	0.499738	0.049932	0.497342	0.866117	-0.993026	0.117457	-0.010198
47	5768992373.000000													9.731586	0.475296	-1.041418	-0.106746	-0.859486	0.499889	0.049705	0.497521	0.866027	-0.993043	0.117292	-0.010388
48	5769042375.000000													9.728364	0.512978	-1.038441	-0.106711	-0.859150	0.500475	0.049610	0.498121	0.865687	-0.993052	0.117207	-0.010532
49	5769092377.000000													9.729578	0.432641	-1.070948	-0.106617	-0.858807	0.501082	0.049903	0.498697	0.865339	-0.993047	0.117266	-0.010313
50	5769142379.000000													9.713124	0.408936	-1.073617	-0.106656	-0.859200	0.500399	0.049793	0.498023	0.865733	-0.993048	0.117252	-0.010335
51	5769192381.000000													9.726663	0.522228	-1.045915	-0.106613	-0.859240	0.500341	0.049413	0.498009	0.865763	-0.993072	0.117025	-0.010636
52	5769242383.000000													9.728704	0.470077	-1.039613	-0.106543	-0.859259	0.500322	0.049234	0.498010	0.865772	-0.993088	0.116875	-0.010755
53	5769292386.000000													9.733657	0.505161	-1.051073	-0.106584	-0.859599	0.499730	0.049038	0.497437	0.866113	-0.993094	0.116820	-0.010866
54	5769342388.000000													9.732974	0.502249	-1.032512	-0.106540	-0.859565	0.499797	0.048968	0.497512	0.866074	-0.993102	0.116745	-0.010914
55	5769392390.000000													9.716005	0.466528	-1.060688	-0.106467	-0.859309	0.500253	0.048867	0.497983	0.865809	-0.993115	0.116626	-0.011027
56	5769442392.000000													9.739770	0.470811	-1.070724	-0.106407	-0.859373	0.500155	0.048818	0.497889	0.865866	-0.993123	0.116551	-0.011026
57	5769492394.000000													9.719525	0.473481	-1.044021	-0.106381	-0.859313	0.500264	0.048827	0.497997	0.865803	-0.993126	0.116532	-0.011020
58	5769542396.000000													9.707427	0.422839	-1.056608	-0.106289	-0.859148	0.500567	0.048785	0.498307	0.865627	-0.993138	0.116427	-0.011051
59	5769592399.000000													9.693045	0.455339	-1.097633	-0.106684	-0.859674	0.499579	0.048817	0.497312	0.866197	-0.993094	0.116797	-0.011088
60	5769642401.000000													9.771442	0.477024	-0.997428	-0.106892	-0.860562	0.498003	0.048965	0.495709	0.867107	-0.993064	0.117071	-0.010850
61	5769692403.000000													9.720150	0.534571	-0.998840	-0.106745	-0.860743	0.497722	0.048654	0.495460	0.867267	-0.993095	0.116793	-0.011009
62	5769742405.000000													9.734728	0.535966	-1.044355	-0.106644	-0.860271	0.498559	0.048567	0.496313	0.866784	-0.993110	0.116651	-0.011148
63	5769792407.000000													9.713500	0.437763	-1.068072	-0.106464	-0.860007	0.499053	0.048804	0.496781	0.866503	-0.993118	0.116607	-0.010917
64	5769842410.000000													9.730309	0.390300	-1.062290	-0.106445	-0.860332	0.498496	0.048705	0.496231	0.866823	-0.993125	0.116548	-0.010919
65	5769892412.000000													9.734794	0.498872	-1.051449	-0.106453	-0.860471	0.498254	0.048568	0.496004	0.866961	-0.993131	0.116490	-0.011010
66	5769942414.000000													9.718951	0.448847	-1.061913	-0.106487	-0.860451	0.498282	0.048594	0.496029	0.866945	-0.993126	0.116532	-0.011008
67	5769992416.000000													9.714065	0.507795	-1.041183	-0.106702	-0.860671	0.497856	0.048802	0.495578	0.867191	-0.993093	0.116827	-0.010877
68	5770042418.000000													9.756175	0.480822	-1.019117	-0.106715	-0.860637	0.497912	0.048874	0.495626	0.867160	-0.993088	0.116874	-0.010828
69	5770092420.000000													9.723923	0.456333	-1.047993	-0.106741	-0.860365	0.498375	0.048791	0.496103	0.866892	-0.993089	0.116850	-0.010976
70	5770142423.000000													9.726350	0.459170	-1.071275	-0.106895	-0.860527	0.498064	0.048585	0.495815	0.867068	-0.993083	0.116884	-0.011191
71	5770192425.000000													9.727381	0.477144	-1.037507	-0.106967	-0.860726	0.497703	0.048495	0.495463	0.867274	-0.993079	0.116906	-0.011257
72	5770242427.000000													9.726700	0.457908	-1.028593	-0.107055	-0.860558	0.497974	0.048328	0.495757	0.867116	-0.993078	0.116896	-0.011484
73	5770292429.000000													9.721772	0.458924	-1.069168	-0.107100	-0.860393	0.498250	0.048316	0.496037	0.866956	-0.993074	0.116924	-0.011555
74	5770342431.000000													9.717414	0.445702	-1.036631	-0.107101	-0.860319	0.498377	0.048344	0.496161	0.866883	-0.993072	0.116938	-0.011548
75	5770392433.000000													9.737458	0.459301	-1.052136	-0.107149	-0.860326	0.498356	0.048220	0.496155	0.866894	-0.993073	0.116917	-0.011678
76	5770442436.000000													9.720804	0.490206	-1.084377	-0.107271	-0.860132	0.498664	0.048636	0.496418	0.866720	-0.993039	0.117227	-0.011418
77	5770492438.000000													9.710848	0.375089	-1.070734	-0.107357	-0.860161	0.498596	0.048916	0.496318	0.866762	-0.993016	0.117442	-0.011208
78	5770542440.000000													9.736452	0.498632	-1.057831	-0.107537	-0.860643	0.497724	0.048543	0.495485	0.867259	-0.993015	0.117424	-0.011505
79	5770592442.000000													9.725180	0.531545	-1.043185	-0.107528	-0.860096	0.498671	0.048532	0.496440	0.866713	-0.993017	0.117397	-0.011639
80	5770642444.000000													9.719141	0.451096	-1.064853	-0.107640	-0.860093	0.498652	0.048814	0.496389	0.866727	-0.992991	0.117635	-0.011447
81	5770692446.000000													9.743155	0.453254	-1.078500	-0.107711	-0.860179	0.498488	0.048963	0.496206	0.866823	-0.992976	0.117773	-0.011330
82	5770742449.000000													9.710925	0.465032	-1.060614	-0.107768	-0.860038	0.498719	0.048957	0.496441	0.866689	-0.992970	0.117817	-0.011396
83	5770792451.000000													9.737641	0.471328	-1.068736	-0.107805	-0.859961	0.498844	0.048944	0.496569	0.866616	-0.992967	0.117841	-0.011443
84	5770842453.000000													9.710664	0.457487	-1.079039	-0.107937	-0.860049	0.498664	0.048984	0.496384	0.866720	-0.992950	0.117978	-0.011450
85	5770892455.000000													9.735202	0.470138	-1.073457	-0.107923	-0.860225	0.498364	0.049016	0.496078	0.866894	-0.992950	0.117986	-0.011373
86	5770942457.000000													9.715564	0.468164	-1.069213	-0.107954	-0.860342	0.498154	0.049003	0.495869	0.867014	-0.992947	0.118009	-0.011372
87	5770992459.000000													9.725923	0.493170	-1.061197	-0.107944	-0.860496	0.497890	0.048953	0.495608	0.867165	-0.992951	0.117978	-0.011374
88	5771042462.000000													9.724253	0.499900	-1.060255	-0.107935	-0.860514	0.497862	0.049182	0.495552	0.867185	-0.992941	0.118085	-0.011166
89	5771092464.000000													9.729516	0.476412	-1.066226	-0.107848	-0.860378	0.498115	0.049436	0.495777	0.867042	-0.992937	0.118134	-0.010935
90	5771142466.000000													9.715704	0.448038	-1.073165	-0.107777	-0.860212	0.498417	0.049839	0.496032	0.866873	-0.992925	0.118270	-0.010589
91	5771192468.000000													9.720789	0.443463	-1.064181	-0.107824	-0.860546	0.497830	0.049821	0.495443	0.867210	-0.992921	0.118308	-0.010547
92	5771242470.000000													9.742119	0.490560	-1.052342	-0.107754	-0.860425	0.498054	0.049747	0.495677	0.867081	-0.992932	0.118208	-0.010607
93	5771292473.000000													9.716205	0.502377	-1.058341	-0.107747	-0.860510	0.497908	0.049825	0.495520	0.867166	-0.992929	0.118243	-0.010516
94	5771342475.000000													9.724799	0.511397	-1.043412	-0.107630	-0.860585	0.497805	0.049887	0.495408	0.867227	-0.992939	0.118174	-0.010389
95	5771392477.000000													9.732514	0.480201	-1.058422	-0.107560	-0.860466	0.498025	0.050107	0.495603	0.867103	-0.992935	0.118220	-0.010191
96	5771442479.000000													9.712120	0.470493	-1.063112	-0.107476	-0.860502	0.497982	0.050150	0.495553	0.867129	-0.992942	0.118169	-0.010106
97	5771492481.000000													9.741727	0.492349	-1.063994	-0.107397	-0.860633	0.497771	0.050171	0.495338	0.867250	-0.992949	0.118114	-0.010019
98	5771542483.000000													9.723009	0.490828	-1.071639	-0.107297	-0.860563	0.497914	0.050272	0.495469	0.867170	-0.992955	0.118076	-0.009900
99	5771592486.000000													9.716514	0.483722	-1.062484	-0.107213	-0.860579	0.497905	0.050124	0.495477	0.867174	-0.992972	0.117929	-0.009986
100	5771642488.000000													9.732710	0.481243	-1.068314	-0.106997	-0.860485	0.498115	0.050210	0.495675	0.867056	-0.992991	0.117783	-0.009831
101	5771692490.000000													9.737835	0.441427	-1.043609	-0.106971	-0.860900	0.497401	0.050394	0.494934	0.867468	-0.992984	0.117860	-0.009559
102	5771742492.000000													9.732752	0.505506	-1.034927	-0.106775	-0.861193	0.496936	0.050508	0.494450	0.867738	-0.993000	0.117752	-0.009298
103	5771792494.000000													9.732183	0.514342	-1.051049	-0.106719	-0.861293	0.496774	0.050542	0.494283	0.867831	-0.993004	0.117722	-0.009218
104	5771842496.000000													9.734552	0.493647	-1.067027	-0.106504	-0.861053	0.497238	0.050797	0.494717	0.867568	-0.993014	0.117657	-0.008950
105	5771892499.000000													9.717904	0.459061	-1.056981	-0.106401	-0.861370	0.496710	0.050546	0.494214	0.867870	-0.993038	0.117449	-0.009046
106	5771942501.000000													9.729326	0.533406	-1.043159	-0.106096	-0.861380	0.496757	0.050734	0.494237	0.867846	-0.993061	0.117278	-0.008736
107	5771992503.000000													9.719584	0.454573	-1.059200	-0.106022	-0.861580	0.496426	0.051009	0.493870	0.868038	-0.993055	0.117353	-0.008412
108	5772042505.000000													9.728586	0.517774	-1.031128	-0.105916	-0.861952	0.495803	0.051141	0.493225	0.868397	-0.993059	0.117333	-0.008160
109	5772092507.000000													9.744176	0.499077	-1.029300	-0.105744	-0.861618	0.496420	0.051358	0.493821	0.868046	-0.993066	0.117286	-0.007968
110	5772142509.000000													9.718328	0.483378	-1.043085	-0.105716	-0.861645	0.496379	0.051491	0.493763	0.868071	-0.993062	0.117328	-0.007832
111	5772192512.000000													9.744222	0.490439	-1.035895	-0.105718	-0.861743	0.496208	0.051445	0.493596	0.868168	-0.993064	0.117309	-0.007850
112	5772242514.000000													9.736126	0.557698	-1.033773	-0.105689	-0.861299	0.496985	0.051631	0.494357	0.867724	-0.993058	0.117369	-0.007778
113	5772292516.000000													9.721602	0.483088	-1.039391	-0.105613	-0.860612	0.498189	0.052012	0.495525	0.867035	-0.993046	0.117482	-0.007572
114	5772342518.000000													9.729164	0.454384	-1.056981	-0.105577	-0.860671	0.498095	0.052100	0.495419	0.867090	-0.993045	0.117496	-0.007463
115	5772392520.000000													9.722901	0.519230	-1.036911	-0.105567	-0.860754	0.497954	0.052144	0.495272	0.867172	-0.993044	0.117510	-0.007401
116	5772442523.000000													9.724182	0.505164	-1.042839	-0.105528	-0.860726	0.498011	0.052276	0.495314	0.867140	-0.993041	0.117542	-0.007274
117	5772492525.000000													9.737352	0.534743	-1.033042	-0.105486	-0.860949	0.497634	0.052582	0.494897	0.867359	-0.993030	0.117660	-0.006934
118	5772542527.000000													9.734901	0.529129	-1.033952	-0.105514	-0.860696	0.498066	0.052844	0.495301	0.867113	-0.993013	0.117813	-0.006779
119	5772592529.000000													9.701377	0.459490	-1.040704	-0.105378	-0.860195	0.498958	0.053042	0.496176	0.866600	-0.993017	0.117787	-0.006660
120	5772642531.000000													9.740017	0.490294	-1.066960	-0.105501	-0.860536	0.498345	0.053048	0.495558	0.866954	-0.993003	0.117901	-0.006632
121	5772692533.000000													9.760531	0.562825	-1.018969	-0.105424	-0.860554	0.498329	0.053189	0.495525	0.866964	-0.993004	0.117905	-0.006468
122	5772742536.000000													9.713084	0.493585	-1.056716	-0.105490	-0.860244	0.498851	0.053406	0.496025	0.866664	-0.992985	0.118066	-0.006384
123	5772792538.000000													9.735951	0.498817	-1.036370	-0.105462	-0.860426	0.498542	0.053403	0.495714	0.866842	-0.992988	0.118043	-0.006330
124	5772842540.000000													9.734795	0.515422	-1.045873	-0.105452	-0.860597	0.498249	0.053447	0.495413	0.867012	-0.992987	0.118058	-0.006246
125	5772892542.000000													9.724251	0.561858	-1.045567	-0.105554	-0.860763	0.497942	0.053544	0.495093	0.867188	-0.992971	0.118197	-0.006170
126	5772942544.000000													9.724688	0.517595	-1.036433	-0.105527	-0.860612	0.498207	0.053606	0.495353	0.867036	-0.992970	0.118203	-0.006139
127	5772992546.000000													9.742698	0.534892	-1.045828	-0.105518	-0.860745	0.497979	0.053713	0.495111	0.867168	-0.992966	0.118250	-0.006010
128	5773042549.000000													9.723905	0.524887	-1.056331	-0.105563	-0.860563	0.498285	0.053614	0.495430	0.866992	-0.992966	0.118237	-0.006161
129	5773092551.000000													9.740123	0.517724	-1.052282	-0.105540	-0.860483	0.498428	0.053650	0.495570	0.866909	-0.992967	0.118234	-0.006137
130	5773142553.000000													9.718350	0.525885	-1.026418	-0.105572	-0.860494	0.498402	0.053453	0.495567	0.866923	-0.992974	0.118164	-0.006323
131	5773192555.000000													9.737477	0.546529	-1.052230	-0.105556	-0.860504	0.498388	0.053299	0.495572	0.866930	-0.992984	0.118073	-0.006447
132	5773242557.000000													9.710088	0.523674	-1.025467	-0.105572	-0.860374	0.498608	0.053204	0.495805	0.866802	-0.992987	0.118038	-0.006568
133	5773292559.000000													9.749627	0.505208	-1.049360	-0.105468	-0.860333	0.498701	0.053054	0.495916	0.866748	-0.993006	0.117873	-0.006659
134	5773342562.000000													9.725076	0.546074	-1.035755	-0.105544	-0.860406	0.498560	0.053290	0.495746	0.866831	-0.992986	0.118057	-0.006472
135	5773392564.000000													9.719947	0.452737	-1.034599	-0.105523	-0.860523	0.498363	0.053357	0.495540	0.866945	-0.992984	0.118074	-0.006376
136	5773442566.000000													9.735879	0.544323	-1.041936	-0.105633	-0.860795	0.497869	0.053027	0.495081	0.867227	-0.992990	0.118009	-0.006652
137	5773492568.000000													9.720740	0.519648	-1.031863	-0.105582	-0.860715	0.498018	0.052998	0.495235	0.867141	-0.992997	0.117948	-0.006672
138	5773542570.000000													9.728419	0.508606	-1.040706	-0.105707	-0.860928	0.497624	0.052830	0.494858	0.867366	-0.992993	0.117976	-0.006827
139	5773592572.000000													9.732821	0.541694	-1.048545	-0.105744	-0.860990	0.497509	0.052713	0.494757	0.867431	-0.992995	0.117951	-0.006932
140	5773642575.000000													9.720270	0.502602	-1.047814	-0.105766	-0.860731	0.497951	0.052662	0.495209	0.867177	-0.992996	0.117941	-0.007048
141	5773692577.000000													9.726213	0.499922	-1.056430	-0.105774	-0.860884	0.497685	0.052365	0.494976	0.867327	-0.993010	0.117802	-0.007276
142	5773742579.000000													9.714340	0.536889	-1.061688	-0.105882	-0.860890	0.497652	0.052268	0.494955	0.867345	-0.993004	0.117848	-0.007409
143	5773792581.000000													9.742064	0.493383	-1.031093	-0.105923	-0.860977	0.497493	0.051860	0.494843	0.867433	-0.993021	0.117681	-0.007765
144	5773842583.000000													9.725163	0.535658	-1.044610	-0.106058	-0.860907	0.497585	0.051699	0.494957	0.867378	-0.993015	0.117717	-0.007986
145	5773892586.000000													9.721865	0.528293	-1.056387	-0.106055	-0.860902	0.497595	0.051542	0.494985	0.867371	-0.993024	0.117636	-0.008123
146	5773942588.000000													9.735822	0.513637	-1.031096	-0.106090	-0.860804	0.497756	0.051482	0.495155	0.867278	-0.993023	0.117636	-0.008215
147	5773992590.000000													9.720350	0.488046	-1.055532	-0.106190	-0.860727	0.497868	0.051323	0.495287	0.867212	-0.993020	0.117641	-0.008419
148	5774042592.000000													9.741077	0.528335	-1.062090	-0.106463	-0.860865	0.497571	0.051536	0.494965	0.867383	-0.992980	0.117987	-0.008330
149	5774092594.000000													9.725307	0.504987	-1.069229	-0.106501	-0.860465	0.498255	0.052160	0.495580	0.866995	-0.992944	0.118325	-0.007898
150	5774142596.000000													9.743129	0.348663	-1.056756	-0.106419	-0.860631	0.497986	0.051933	0.495336	0.867148	-0.992964	0.118143	-0.008018
151	5774192599.000000													9.731077	0.560820	-1.059867	-0.106411	-0.860855	0.497599	0.051589	0.494987	0.867368	-0.992983	0.117969	-0.008261
152	5774242601.000000													9.718466	0.480055	-1.034938	-0.106194	-0.860496	0.498267	0.051630	0.495653	0.866985	-0.993004	0.117794	-0.008208
153	5774292603.000000													9.733377	0.506827	-1.057837	-0.106246	-0.860856	0.497632	0.051589	0.495019	0.867349	-0.993001	0.117824	-0.008183
154	5774342605.000000													9.725828	0.504801	-1.040828	-0.106151	-0.860688	0.497943	0.051683	0.495320	0.867172	-0.993006	0.117787	-0.008096
155	5774392607.000000													9.730605	0.449482	-1.043609	-0.106068	-0.860571	0.498163	0.051592	0.495552	0.867045	-0.993020	0.117667	-0.008163
156	5774442609.000000													9.735522	0.494818	-1.057310	-0.106012	-0.860620	0.498090	0.051470	0.495492	0.867086	-0.993032	0.117559	-0.008232
157	5774492612.000000													9.720723	0.516764	-1.040412	-0.105987	-0.860665	0.498018	0.051505	0.495415	0.867128	-0.993033	0.117555	-0.008179
158	5774542614.000000													9.720848	0.487245	-1.043989	-0.105989	-0.860486	0.498327	0.051521	0.495724	0.866950	-0.993032	0.117562	-0.008208
159	5774592616.000000													9.720152	0.487963	-1.046008	-0.105946	-0.860630	0.498088	0.051502	0.495485	0.867088	-0.993037	0.117517	-0.008170
160	5774642618.000000													9.739404	0.485389	-1.040025	-0.106006	-0.860806	0.497770	0.051600	0.495154	0.867271	-0.993026	0.117621	-0.008071
161	5774692620.000000													9.716666	0.510017	-1.055722	-0.106032	-0.861055	0.497334	0.051642	0.494710	0.867522	-0.993021	0.117669	-0.007988
162	5774742622.000000													9.732711	0.485629	-1.035393	-0.106068	-0.861080	0.497283	0.051626	0.494661	0.867551	-0.993018	0.117693	-0.008013
163	5774792625.000000													9.740276	0.532464	-1.041538	-0.106020	-0.861162	0.497152	0.051752	0.494514	0.867628	-0.993016	0.117715	-0.007862
164	5774842627.000000													9.718726	0.533857	-1.045843	-0.106014	-0.861043	0.497360	0.052113	0.494680	0.867511	-0.992998	0.117888	-0.007571
165	5774892629.000000													9.708888	0.452661	-1.065312	-0.105928	-0.861121	0.497242	0.052422	0.494524	0.867582	-0.992991	0.117967	-0.007242
166	5774942631.000000													9.739780	0.466047	-1.063359	-0.106118	-0.861933	0.495792	0.052267	0.493083	0.868411	-0.992979	0.118068	-0.007274
167	5774992633.000000													9.737081	0.555635	-1.032973	-0.106160	-0.862325	0.495102	0.052227	0.492393	0.868805	-0.992976	0.118090	-0.007236
168	5775042635.000000													9.719237	0.524549	-1.050049	-0.106164	-0.862394	0.494980	0.052366	0.492254	0.868875	-0.992969	0.118163	-0.007099
169	5775092638.000000													9.742604	0.533679	-1.047995	-0.106221	-0.862426	0.494913	0.052556	0.492164	0.868915	-0.992953	0.118307	-0.006953
170	5775142640.000000													9.734062	0.501403	-1.047427	-0.106188	-0.862142	0.495414	0.052878	0.492629	0.868631	-0.992939	0.118435	-0.006723
171	5775192642.000000													9.718098	0.491992	-1.051812	-0.106118	-0.861887	0.495873	0.053108	0.493065	0.868370	-0.992934	0.118484	-0.006550
172	5775242644.000000													9.733147	0.510145	-1.061698	-0.106082	-0.861735	0.496145	0.053272	0.493319	0.868216	-0.992929	0.118533	-0.006426
173	5775292646.000000													9.735405	0.507700	-1.033896	-0.106033	-0.861581	0.496423	0.053375	0.493586	0.868058	-0.992929	0.118540	-0.006349
174	5775342649.000000													9.715801	0.531209	-1.050497	-0.105890	-0.861412	0.496745	0.053476	0.493898	0.867874	-0.992939	0.118463	-0.006234
175	5775392651.000000													9.719376	0.527942	-1.036763	-0.105823	-0.861293	0.496967	0.053539	0.494113	0.867748	-0.992943	0.118435	-0.006176
176	5775442653.000000													9.725024	0.521222	-1.055586	-0.105844	-0.861183	0.497153	0.053713	0.494280	0.867642	-0.992931	0.118538	-0.006060
177	5775492655.000000													9.733389	0.526116	-1.049272	-0.105812	-0.861155	0.497207	0.053813	0.494323	0.867611	-0.992929	0.118560	-0.005964
178	5775542657.000000													9.719721	0.537850	-1.027724	-0.105708	-0.861020	0.497464	0.054022	0.494556	0.867465	-0.992929	0.118572	-0.005765
179	5775592659.000000													9.736747	0.500560	-1.057292	-0.105731	-0.860941	0.497595	0.054180	0.494669	0.867391	-0.992918	0.118670	-0.005656
180	5775642662.000000													9.719183	0.533927	-1.025853	-0.105690	-0.860925	0.497632	0.054355	0.494685	0.867371	-0.992912	0.118722	-0.005488
181	5775692664.000000													9.728861	0.509994	-1.062053	-0.105598	-0.860684	0.498068	0.054808	0.495070	0.867123	-0.992897	0.118865	-0.005106
182	5775742666.000000													9.710360	0.481618	-1.059538	-0.105645	-0.861044	0.497436	0.054882	0.494424	0.867486	-0.992888	0.118946	-0.004977
183	5775792668.000000													9.749910	0.563046	-1.045249	-0.105636	-0.861198	0.497170	0.054758	0.494171	0.867638	-0.992896	0.118878	-0.005045
184	5775842670.000000													9.726597	0.566528	-1.041098	-0.105511	-0.861202	0.497191	0.054888	0.494176	0.867627	-0.992902	0.118834	-0.004871
185	5775892672.000000													9.717463	0.532497	-1.046696	-0.105518	-0.861260	0.497088	0.054732	0.494091	0.867686	-0.992910	0.118763	-0.004997
186	5775942675.000000													9.755200	0.556265	-1.045401	-0.105467	-0.861278	0.497069	0.054688	0.494077	0.867696	-0.992918	0.118697	-0.005007
187	5775992677.000000													9.707573	0.507940	-1.043809	-0.105386	-0.861210	0.497204	0.054198	0.494271	0.867617	-0.992953	0.118383	-0.005413
188	5776042679.000000													9.728774	0.550311	-1.044730	-0.105173	-0.861489	0.496764	0.053464	0.493914	0.867865	-0.993016	0.117835	-0.005888
189	5776092681.000000													9.725392	0.601485	-1.070871	-0.105295	-0.861419	0.496861	0.053403	0.494019	0.867809	-0.993006	0.117910	-0.006016
190	5776142683.000000													9.730283	0.587122	-1.160958	-0.105142	-0.860186	0.499024	0.053740	0.496157	0.866568	-0.993004	0.117930	-0.005940
191	5776192685.000000													9.704998	0.255732	-0.942144	-0.105880	-0.860964	0.497525	0.053484	0.494682	0.867427	-0.992940	0.118453	-0.006329
192	5776242688.000000													9.729245	0.412407	-1.026490	-0.106438	-0.862934	0.493980	0.052375	0.491247	0.869444	-0.992939	0.118414	-0.007091
193	5776292690.000000													9.710238	0.662208	-1.032204	-0.106552	-0.863967	0.492146	0.050900	0.489575	0.870474	-0.993004	0.117801	-0.008189
194	5776342692.000000													9.753594	0.780898	-1.067955	-0.106556	-0.864360	0.491454	0.051328	0.488828	0.870869	-0.992981	0.118022	-0.007722
195	5776392694.000000													9.735225	0.557082	-1.010329	-0.106455	-0.864022	0.492071	0.052213	0.489343	0.870527	-0.992946	0.118365	-0.006980
196	5776442696.000000													9.745066	0.499541	-1.077677	-0.106282	-0.863314	0.493348	0.052604	0.490582	0.869806	-0.992944	0.118397	-0.006726
197	5776492699.000000													9.711010	0.398017	-1.034965	-0.106043	-0.862503	0.494817	0.052407	0.492084	0.868969	-0.992980	0.118080	-0.006981
198	5776542701.000000													9.743835	0.384740	-1.084137	-0.105722	-0.862415	0.495039	0.051728	0.492385	0.868839	-0.993049	0.117463	-0.007445
199	5776592703.000000													9.719579	0.442514	-1.057677	-0.105799	-0.862556	0.494777	0.050782	0.492234	0.868980	-0.993090	0.117063	-0.008275
200	5776642705.000000													9.734346	0.530758	-1.033980	-0.105577	-0.862402	0.495092	0.050257	0.492610	0.868798	-0.993140	0.116607	-0.008667
201	5776692707.000000													9.736795	0.454819	-1.032483	-0.105496	-0.862399	0.495115	0.049809	0.492686	0.868781	-0.993172	0.116313	-0.009021
202	5776742709.000000													9.726998	0.475377	-1.063055	-0.105362	-0.862517	0.494937	0.049265	0.492569	0.868878	-0.993213	0.115930	-0.009406
203	5776792712.000000													9.735914	0.539446	-1.019285	-0.105277	-0.862477	0.495025	0.049049	0.492682	0.868826	-0.993233	0.115748	-0.009565
204	5776842714.000000													9.718673	0.472346	-1.069523	-0.105124	-0.862152	0.495623	0.048914	0.493299	0.868484	-0.993255	0.115541	-0.009686
205	5776892716.000000													9.733477	0.487486	-1.041001	-0.105074	-0.862091	0.495741	0.048767	0.493434	0.868415	-0.993268	0.115423	-0.009805
206	5776942718.000000													9.736902	0.484782	-1.050456	-0.104887	-0.861750	0.496372	0.048693	0.494076	0.868054	-0.993291	0.115217	-0.009861
207	5776992720.000000													9.721370	0.419520	-1.055350	-0.104859	-0.861806	0.496282	0.048332	0.494027	0.868102	-0.993312	0.115014	-0.010151
208	5777042722.000000													9.742514	0.511259	-1.060729	-0.104684	-0.862133	0.495750	0.048103	0.493516	0.868406	-0.993342	0.114755	-0.010192
209	5777092725.000000													9.731925	0.479845	-1.028844	-0.104572	-0.862225	0.495613	0.047896	0.493401	0.868482	-0.993363	0.114557	-0.010299
210	5777142727.000000													9.733627	0.469787	-1.046201	-0.104459	-0.862367	0.495390	0.047810	0.493185	0.868610	-0.993379	0.114419	-0.010288
211	5777192729.000000													9.739876	0.442572	-1.000139	-0.104319	-0.862599	0.495015	0.047500	0.492841	0.868822	-0.993409	0.114148	-0.010439
212	5777242731.000000													9.711746	0.434669	-1.066294	-0.104152	-0.862754	0.494781	0.047280	0.492630	0.868954	-0.993437	0.113897	-0.010518
213	5777292733.000000													9.746065	0.455619	-1.028815	-0.104141	-0.863437	0.493590	0.047000	0.491462	0.869630	-0.993451	0.113763	-0.010600
214	5777342735.000000													9.733054	0.526591	-1.022586	-0.104014	-0.863644	0.493254	0.046904	0.491133	0.869821	-0.993469	0.113609	-0.010577
215	5777392738.000000													9.724345	0.525426	-1.029718	-0.104004	-0.863457	0.493584	0.047279	0.491422	0.869637	-0.993452	0.113782	-0.010286
216	5777442740.000000													9.737703	0.455555	-1.030436	-0.103895	-0.863126	0.494186	0.047740	0.491975	0.869300	-0.993442	0.113909	-0.009908
217	5777492742.000000													9.730927	0.390545	-1.032674	-0.103712	-0.863060	0.494340	0.047580	0.492146	0.869212	-0.993469	0.113669	-0.009977
218	5777542744.000000													9.730390	0.444798	-1.039032	-0.103627	-0.863121	0.494251	0.047360	0.492081	0.869260	-0.993488	0.113487	-0.010115
219	5777592746.000000													9.733094	0.439540	-1.036805	-0.103490	-0.863239	0.494074	0.047191	0.491920	0.869361	-0.993510	0.113286	-0.010172
220	5777642748.000000													9.728220	0.449448	-1.029849	-0.103416	-0.863526	0.493586	0.046950	0.491456	0.869636	-0.993529	0.113108	-0.010282
221	5777692751.000000													9.743399	0.477209	-1.020809	-0.103323	-0.863583	0.493507	0.046711	0.491403	0.869679	-0.993550	0.112910	-0.010434
222	5777742753.000000													9.720390	0.428413	-1.014217	-0.103184	-0.863567	0.493564	0.046499	0.491482	0.869645	-0.993575	0.112683	-0.010558
223	5777792755.000000													9.735615	0.447354	-1.022803	-0.103197	-0.863864	0.493040	0.046301	0.490977	0.869941	-0.993583	0.112604	-0.010670
224	5777842757.000000													9.717669	0.485663	-1.006963	-0.103084	-0.863732	0.493295	0.046324	0.491230	0.869797	-0.993593	0.112513	-0.010626
225	5777892759.000000													9.735114	0.419051	-0.997715	-0.103079	-0.863560	0.493598	0.046382	0.491528	0.869626	-0.993591	0.112534	-0.010613
226	5777942762.000000													9.731633	0.476453	-1.022270	-0.102983	-0.863363	0.493963	0.046483	0.491883	0.869419	-0.993596	0.112497	-0.010524
227	5777992764.000000													9.725169	0.402055	-1.013266	-0.102951	-0.863158	0.494328	0.046694	0.492227	0.869214	-0.993590	0.112569	-0.010371
228	5778042766.000000													9.748929	0.401124	-1.019371	-0.102996	-0.863409	0.493880	0.046516	0.491796	0.869467	-0.993594	0.112525	-0.010491
229	5778092768.000000													9.735983	0.451415	-1.003438	-0.102982	-0.863407	0.493886	0.046464	0.491808	0.869463	-0.993597	0.112487	-0.010530
230	5778142770.000000													9.714803	0.461678	-1.027522	-0.103110	-0.863397	0.493877	0.046622	0.491783	0.869469	-0.993577	0.112677	-0.010454
231	5778192772.000000													9.741375	0.423454	-1.012955	-0.103099	-0.863209	0.494207	0.046674	0.492108	0.869282	-0.993575	0.112689	-0.010447
232	5778242775.000000													9.723350	0.476841	-1.028177	-0.103304	-0.863335	0.493945	0.046734	0.491840	0.869430	-0.993551	0.112900	-0.010462
233	5778292777.000000													9.748248	0.451321	-1.034028	-0.103250	-0.863101	0.494365	0.046857	0.492249	0.869193	-0.993551	0.112908	-0.010382
234	5778342779.000000													9.726176	0.418921	-1.035188	-0.103319	-0.862927	0.494654	0.046996	0.492525	0.869028	-0.993537	0.113034	-0.010334
235	5778392781.000000													9.737720	0.389215	-1.009940	-0.103111	-0.862797	0.494923	0.046703	0.492827	0.868873	-0.993573	0.112705	-0.010521
236	5778442783.000000													9.707019	0.433000	-1.042024	-0.103154	-0.863010	0.494544	0.046062	0.492518	0.869082	-0.993598	0.112429	-0.011053
237	5778492785.000000													9.742177	0.521757	-1.004641	-0.103232	-0.863380	0.493881	0.046062	0.491852	0.869460	-0.993590	0.112505	-0.011005
238	5778542788.000000													9.727345	0.454413	-1.024612	-0.103336	-0.863296	0.494005	0.046057	0.491978	0.869389	-0.993580	0.112591	-0.011078
239	5778592790.000000													9.735375	0.496756	-1.025646	-0.103503	-0.863454	0.493694	0.046040	0.491669	0.869564	-0.993563	0.112732	-0.011135
240	5778642792.000000													9.734395	0.502676	-1.031999	-0.103638	-0.863178	0.494149	0.046251	0.492105	0.869306	-0.993539	0.112948	-0.011078
241	5778692794.000000													9.737275	0.411300	-1.032373	-0.103740	-0.863080	0.494298	0.046648	0.492210	0.869226	-0.993510	0.113232	-0.010801
242	5778742796.000000													9.737917	0.437097	-1.054472	-0.104028	-0.863400	0.493679	0.046887	0.491563	0.869579	-0.993469	0.113608	-0.010654
243	5778792798.000000													9.736505	0.500259	-1.015183	-0.104066	-0.863394	0.493681	0.047043	0.491548	0.869579	-0.993457	0.113718	-0.010537
244	5778842801.000000													9.728711	0.429720	-1.024126	-0.104085	-0.863191	0.494032	0.047144	0.491890	0.869380	-0.993450	0.113780	-0.010504
245	5778892803.000000													9.739619	0.458424	-1.049697	-0.104194	-0.863416	0.493616	0.047033	0.491484	0.869616	-0.993444	0.113826	-0.010601
246	5778942805.000000													9.741455	0.456635	-1.026130	-0.104268	-0.863510	0.493435	0.046943	0.491313	0.869717	-0.993441	0.113847	-0.010692
247	5778992807.000000													9.725817	0.442674	-1.023899	-0.104080	-0.863633	0.493260	0.046457	0.491190	0.869813	-0.993483	0.113445	-0.011002
248	5779042809.000000													9.738200	0.511389	-1.022062	-0.104221	-0.863595	0.493296	0.045879	0.491295	0.869784	-0.993495	0.113281	-0.011583
249	5779092811.000000													9.734087	0.468646	-1.040577	-0.104121	-0.863303	0.493828	0.045654	0.491855	0.869479	-0.993516	0.113076	-0.011799
250	5779142814.000000													9.729275	0.451001	-1.037517	-0.104156	-0.863092	0.494189	0.045559	0.492230	0.869272	-0.993517	0.113055	-0.011947
251	5779192816.000000													9.732296	0.419717	-1.039904	-0.104117	-0.863030	0.494306	0.045310	0.492376	0.869203	-0.993532	0.112896	-0.012160
252	5779242818.000000													9.729818	0.477270	-1.034203	-0.104188	-0.862971	0.494394	0.045157	0.492482	0.869150	-0.993532	0.112880	-0.012342
253	5779292820.000000													9.737556	0.428776	-1.032367	-0.104109	-0.862762	0.494776	0.045196	0.492861	0.868933	-0.993538	0.112825	-0.012318
254	5779342822.000000													9.735776	0.400363	-1.024322	-0.104201	-0.862754	0.494770	0.044932	0.492886	0.868933	-0.993541	0.112774	-0.012594
255	5779392825.000000													9.741158	0.438468	-1.042681	-0.104047	-0.862537	0.495180	0.044653	0.493329	0.868696	-0.993569	0.112497	-0.012814
256	5779442827.000000													9.715821	0.383455	-1.043745	-0.104003	-0.862474	0.495300	0.044573	0.493458	0.868626	-0.993578	0.112417	-0.012878
257	5779492829.000000													9.733649	0.369173	-1.014375	-0.103931	-0.862744	0.494844	0.044034	0.493059	0.868881	-0.993609	0.112093	-0.013254
258	5779542831.000000													9.746602	0.500611	-1.031756	-0.103873	-0.862895	0.494593	0.043550	0.492860	0.869018	-0.993637	0.111807	-0.013616
259	5779592833.000000													9.711149	0.441967	-1.028973	-0.103918	-0.862807	0.494737	0.043368	0.493026	0.868933	-0.993640	0.111754	-0.013817
260	5779642835.000000													9.745326	0.430711	-1.025507	-0.103912	-0.862992	0.494416	0.043159	0.492727	0.869113	-0.993650	0.111649	-0.013955
261	5779692838.000000													9.728309	0.462862	-1.027634	-0.103939	-0.862956	0.494473	0.043319	0.492766	0.869083	-0.993640	0.111752	-0.013835
262	5779742840.000000													9.732196	0.387217	-1.038133	-0.103904	-0.862861	0.494646	0.043357	0.492936	0.868985	-0.993642	0.111737	-0.013807
263	5779792842.000000													9.720510	0.414763	-1.005836	-0.103939	-0.862919	0.494538	0.043331	0.492830	0.869046	-0.993639	0.111757	-0.013833
264	5779842844.000000													9.741685	0.439774	-1.038131	-0.103870	-0.862762	0.494827	0.043261	0.493128	0.868881	-0.993650	0.111657	-0.013897
265	5779892846.000000													9.730677	0.389558	-1.000725	-0.103714	-0.862721	0.494930	0.043092	0.493249	0.868820	-0.993673	0.111436	-0.013981
266	5779942848.000000													9.717202	0.386943	-1.041545	-0.103595	-0.862818	0.494785	0.042756	0.493139	0.868899	-0.993700	0.111169	-0.014196
267	5779992851.000000													9.741312	0.473990	-1.029040	-0.103573	-0.862972	0.494522	0.042579	0.492894	0.869047	-0.993710	0.111066	-0.014306
268	5780042853.000000													9.727399	0.431426	-1.013200	-0.103438	-0.862753	0.494933	0.042688	0.493293	0.868815	-0.993719	0.110996	-0.014196
269	5780092855.000000													9.745545	0.406061	-1.019347	-0.103291	-0.862633	0.495172	0.042629	0.493538	0.868679	-0.993737	0.110836	-0.014205
270	5780142857.000000													9.730979	0.419146	-1.012273	-0.103266	-0.862549	0.495323	0.042713	0.493681	0.868594	-0.993736	0.110853	-0.014139
271	5780192859.000000													9.727283	0.365425	-1.032264	-0.103106	-0.862460	0.495511	0.043138	0.493820	0.868493	-0.993735	0.110922	-0.013711
272	5780242861.000000													9.732925	0.370846	-1.041040	-0.102999	-0.862804	0.494935	0.042949	0.493260	0.868821	-0.993754	0.110745	-0.013749
273	5780292864.000000													9.728025	0.472771	-0.984220	-0.102859	-0.862732	0.495089	0.042849	0.493424	0.868733	-0.993773	0.110571	-0.013785
274	5780342866.000000													9.739245	0.387400	-1.032134	-0.102675	-0.862524	0.495490	0.042785	0.493832	0.868504	-0.993794	0.110373	-0.013801
275	5780392868.000000													9.728328	0.413788	-1.019197	-0.102603	-0.862709	0.495183	0.042908	0.493509	0.868682	-0.993797	0.110377	-0.013618
276	5780442870.000000													9.739508	0.414800	-1.021853	-0.102548	-0.862811	0.495017	0.042948	0.493336	0.868778	-0.993800	0.110351	-0.013535
277	5780492872.000000													9.728988	0.448189	-1.012314	-0.102533	-0.862987	0.494712	0.042891	0.493036	0.868951	-0.993804	0.110315	-0.013538
278	5780542875.000000													9.727345	0.436106	-1.021380	-0.102491	-0.862732	0.495166	0.043095	0.493469	0.868695	-0.993800	0.110373	-0.013396
279	5780592877.000000													9.722920	0.379696	-1.006130	-0.102475	-0.862769	0.495105	0.043114	0.493405	0.868731	-0.993801	0.110369	-0.013364
280	5780642879.000000													9.749309	0.431236	-1.005067	-0.102454	-0.862943	0.494805	0.043003	0.493116	0.868900	-0.993808	0.110300	-0.013413
281	5780692881.000000													9.722836	0.425258	-1.018300	-0.102497	-0.863151	0.494434	0.042944	0.492749	0.869111	-0.993806	0.110314	-0.013438
282	5780742883.000000													9.743187	0.433233	-1.008619	-0.102510	-0.863377	0.494036	0.042941	0.492348	0.869338	-0.993805	0.110330	-0.013396
283	5780792885.000000													9.731275	0.451530	-1.011162	-0.102498	-0.863365	0.494059	0.043108	0.492353	0.869327	-0.993799	0.110403	-0.013247
284	5780842888.000000													9.746276	0.405447	-1.011818	-0.102531	-0.863366	0.494052	0.043268	0.492328	0.869333	-0.993788	0.110510	-0.013123
285	5780892890.000000													9.721670	0.424175	-1.025158	-0.102548	-0.863225	0.494295	0.043525	0.492545	0.869198	-0.993775	0.110648	-0.012938
286	5780942892.000000													9.731163	0.367576	-1.026610	-0.102535	-0.863388	0.494013	0.043606	0.492251	0.869360	-0.993773	0.110681	-0.012824
287	5780992894.000000													9.743382	0.421367	-1.003827	-0.102587	-0.863513	0.493782	0.043592	0.492021	0.869491	-0.993768	0.110723	-0.012833
288	5781042896.000000													9.725807	0.429122	-1.017109	-0.102611	-0.863393	0.493987	0.043633	0.492224	0.869375	-0.993764	0.110761	-0.012835
289	5781092898.000000													9.733191	0.451587	-1.004523	-0.102653	-0.863550	0.493704	0.043714	0.491930	0.869536	-0.993756	0.110843	-0.012749
290	5781142901.000000													9.727118	0.427104	-0.997110	-0.102747	-0.863346	0.494041	0.043804	0.492261	0.869345	-0.993743	0.110964	-0.012761
291	5781192903.000000													9.723268	0.394359	-1.034706	-0.102757	-0.863165	0.494355	0.043829	0.492574	0.869166	-0.993740	0.110980	-0.012784
292	5781242905.000000													9.724720	0.409442	-1.008032	-0.102815	-0.863293	0.494120	0.043766	0.492346	0.869299	-0.993737	0.111002	-0.012838
293	5781292907.000000													9.735134	0.438824	-1.036689	-0.102927	-0.863405	0.493900	0.043738	0.492129	0.869423	-0.993727	0.111090	-0.012890
294	5781342909.000000													9.729196	0.425906	-1.012853	-0.103002	-0.863366	0.493954	0.043730	0.492185	0.869392	-0.993719	0.111150	-0.012941
295	5781392911.000000													9.737646	0.419099	-1.011022	-0.103115	-0.863378	0.493908	0.043686	0.492145	0.869416	-0.993710	0.111227	-0.013030
296	5781442914.000000													9.729129	0.448424	-1.030451	-0.103149	-0.863302	0.494035	0.043737	0.492268	0.869344	-0.993704	0.111280	-0.013018
297	5781492916.000000													9.726308	0.421187	-1.014718	-0.103237	-0.863384	0.493872	0.043681	0.492110	0.869436	-0.993697	0.111331	-0.013091
298	5781542918.000000													9.718559	0.438741	-1.027516	-0.103305	-0.863336	0.493943	0.043796	0.492170	0.869397	-0.993685	0.111446	-0.013034
299	5781592920.000000													9.744391	0.405554	-1.024890	-0.103397	-0.863428	0.493762	0.043743	0.491995	0.869498	-0.993678	0.111502	-0.013102
300	5781642922.000000													9.727542	0.468439	-1.030704	-0.103484	-0.863268	0.494024	0.043915	0.492241	0.869351	-0.993661	0.111659	-0.013029
301	5781692924.000000													9.735112	0.368496	-1.035301	-0.103543	-0.863210	0.494112	0.044100	0.492309	0.869302	-0.993647	0.111800	-0.012908
302	5781742927.000000													9.735553	0.422550	-1.009200	-0.103600	-0.863521	0.493557	0.043969	0.491765	0.869617	-0.993647	0.111793	-0.012979
303	5781792929.000000													9.724909	0.468248	-1.015469	-0.103587	-0.863467	0.493654	0.043797	0.491883	0.869559	-0.993656	0.111695	-0.013136
304	5781842931.000000													9.736279	0.453347	-1.034353	-0.103649	-0.863514	0.493558	0.043934	0.491772	0.869615	-0.993643	0.111819	-0.013034
305	5781892933.000000													9.732658	0.417915	-1.025426	-0.103623	-0.863474	0.493634	0.044017	0.491839	0.869573	-0.993642	0.111836	-0.012959
306	5781942935.000000													9.730274	0.430824	-1.032805	-0.103686	-0.863446	0.493670	0.044078	0.491869	0.869553	-0.993633	0.111920	-0.012941
307	5781992938.000000													9.741133	0.415668	-1.037179	-0.103721	-0.863348	0.493835	0.043904	0.492054	0.869457	-0.993637	0.111862	-0.013132
308	5782042940.000000													9.733890	0.438550	-1.031237	-0.103800	-0.863377	0.493768	0.043807	0.491999	0.869493	-0.993633	0.111884	-0.013248
309	5782092942.000000													9.737636	0.455270	-1.033432	-0.103804	-0.863347	0.493819	0.043807	0.492051	0.869463	-0.993633	0.111886	-0.013256
310	5782142944.000000													9.737309	0.402971	-1.030564	-0.103794	-0.863381	0.493761	0.043749	0.491999	0.869496	-0.993636	0.111850	-0.013295
311	5782192946.000000													9.740490	0.458377	-1.038388	-0.103855	-0.863348	0.493805	0.043669	0.492053	0.869469	-0.993633	0.111863	-0.013400
312	5782242948.000000													9.731879	0.427106	-1.021200	-0.103811	-0.863165	0.494135	0.043744	0.492376	0.869283	-0.993635	0.111857	-0.013356
313	5782292951.000000													9.721579	0.404259	-1.040348	-0.103800	-0.863133	0.494194	0.043902	0.492417	0.869251	-0.993629	0.111925	-0.013220
314	5782342953.000000													9.745737	0.407220	-1.026411	-0.103756	-0.863116	0.494231	0.043832	0.492462	0.869229	-0.993636	0.111851	-0.013264
315	5782392955.000000													9.720588	0.424925	-1.033367	-0.103749	-0.863258	0.493986	0.043621	0.492239	0.869366	-0.993646	0.111744	-0.013413
316	5782442957.000000													9.732553	0.439781	-1.047147	-0.103708	-0.862994	0.494456	0.043858	0.492685	0.869102	-0.993640	0.111819	-0.013246
317	5782492959.000000													9.746542	0.383921	-1.035925	-0.103698	-0.863235	0.494037	0.043800	0.492270	0.869340	-0.993644	0.111787	-0.013238
318	5782542961.000000													9.732727	0.445427	-1.021430	-0.103579	-0.863174	0.494168	0.043629	0.492419	0.869264	-0.993664	0.111598	-0.013345
319	5782592964.000000													9.711103	0.417986	-1.051712	-0.103655	-0.863231	0.494052	0.043462	0.492322	0.869327	-0.993663	0.111583	-0.013514
320	5782642966.000000													9.734527	0.464261	-1.010254	-0.103639	-0.863466	0.493645	0.043450	0.491913	0.869559	-0.993665	0.111569	-0.013464
321	5782692968.000000													9.749616	0.431612	-1.035989	-0.103616	-0.863386	0.493790	0.043438	0.492060	0.869477	-0.993668	0.111541	-0.013481
322	5782742970.000000													9.723802	0.442596	-1.036831	-0.103676	-0.863401	0.493751	0.043528	0.492012	0.869499	-0.993658	0.111638	-0.013428
323	5782792972.000000													9.732663	0.408734	-1.031383	-0.103606	-0.863312	0.493920	0.043512	0.492183	0.869403	-0.993666	0.111567	-0.013428
324	5782842974.000000													9.731058	0.444705	-1.039026	-0.103675	-0.863279	0.493964	0.043730	0.492204	0.869381	-0.993649	0.111734	-0.013278
325	5782892977.000000													9.741278	0.405530	-1.028144	-0.103590	-0.863276	0.493987	0.043774	0.492221	0.869369	-0.993656	0.111681	-0.013200
326	5782942979.000000													9.734665	0.420056	-1.037448	-0.103631	-0.863309	0.493921	0.043834	0.492148	0.869407	-0.993649	0.111748	-0.013160
327	5782992981.000000													9.731077	0.409884	-1.034916	-0.103630	-0.863272	0.493986	0.043747	0.492223	0.869369	-0.993653	0.111703	-0.013243
328	5783042983.000000													9.729850	0.444337	-1.033616	-0.103562	-0.863334	0.493892	0.043784	0.492123	0.869424	-0.993659	0.111663	-0.013165
329	5783092985.000000													9.724001	0.417834	-1.019802	-0.103522	-0.863228	0.494085	0.043801	0.492315	0.869314	-0.993662	0.111635	-0.013155
330	5783142987.000000													9.742914	0.416591	-1.023494	-0.103506	-0.863286	0.493987	0.043809	0.492216	0.869370	-0.993664	0.111626	-0.013128
331	5783192990.000000													9.714684	0.443586	-1.020815	-0.103571	-0.863117	0.494269	0.043982	0.492481	0.869211	-0.993649	0.111764	-0.013045
332	5783242992.000000													9.721477	0.378666	-1.039582	-0.103547	-0.863102	0.494301	0.044159	0.492493	0.869196	-0.993644	0.111831	-0.012883
333	5783292994.000000													9.762308	0.464156	-1.026142	-0.103632	-0.863346	0.493855	0.044133	0.492048	0.869448	-0.993636	0.111898	-0.012890
334	5783342996.000000													9.715069	0.487829	-1.031301	-0.103647	-0.863266	0.493993	0.044277	0.492171	0.869372	-0.993628	0.111980	-0.012789
335	5783392998.000000													9.709338	0.432456	-1.024089	-0.103666	-0.863251	0.494016	0.044506	0.492168	0.869362	-0.993616	0.112110	-0.012601
336	5783443001.000000													9.746365	0.398183	-1.027091	-0.103671	-0.863486	0.493604	0.044558	0.491747	0.869597	-0.993613	0.112145	-0.012505
337	5783493003.000000													9.730980	0.447055	-1.040690	-0.103781	-0.863908	0.492841	0.044553	0.490981	0.870030	-0.993602	0.112251	-0.012465
338	5783543005.000000													9.726604	0.424531	-1.030512	-0.103789	-0.864119	0.492469	0.044591	0.490602	0.870242	-0.993599	0.112281	-0.012388
339	5783593007.000000													9.722048	0.414025	-1.049321	-0.103889	-0.864205	0.492298	0.044591	0.490431	0.870338	-0.993589	0.112371	-0.012415
