// Start Time: Unknown
// Update Rate: 60.0Hz
//Filter Profile: human (46.1)
// Option Flags: AHS Disabled ICC Disabled
// Firmware Version: 4.0.2
0	sampleTimeFine	Year	Month	Day	Second	UTC_Nano	UTC_Year	UTC_Month	UTC_Day	UTC_Hour	UTC_Minute	UTC_Second	UTC_Valid	Acc_X	Acc_Y	Acc_Z	Mat[1][1]	Mat[2][1]	Mat[3][1]	Mat[1][2]	Mat[2][2]	Mat[3][2]	Mat[1][3]	Mat[2][3]	Mat[3][3]
0	4994276													0.093559	0.196618	0.161868	-0.003662	-0.760988	-0.648756	-0.034032	-0.648289	0.760633	-0.999414	0.024864	-0.023524
1	4994443													9.831862	-0.459965	0.014224	-0.003314	-0.760856	-0.648912	-0.034730	-0.648436	0.760476	-0.999391	0.025057	-0.024275
2	4994609													9.787765	-0.443354	0.083243	-0.002059	-0.760507	-0.649327	-0.037406	-0.648815	0.760026	-0.999298	0.025854	-0.027111
3	4994776													9.831631	-0.402564	0.087114	0.000014	-0.761507	-0.648157	-0.039760	-0.647645	0.760904	-0.999209	0.025760	-0.030287
4	4994943													9.800119	-0.470118	0.048111	0.001925	-0.762220	-0.647315	-0.041042	-0.646831	0.761528	-0.999156	0.025101	-0.032529
5	4995109													9.746126	-0.474334	0.037398	0.003024	-0.762505	-0.646975	-0.042300	-0.646497	0.761743	-0.999100	0.025063	-0.034209
6	4995276													9.767953	-0.468079	-0.000730	0.003714	-0.763176	-0.646180	-0.043432	-0.645698	0.762357	-0.999049	0.025234	-0.035544
7	4995443													9.758037	-0.455347	0.010674	0.004152	-0.763468	-0.645833	-0.044348	-0.645343	0.762604	-0.999008	0.025475	-0.036538
8	4995609													9.769861	-0.447681	0.021611	0.004376	-0.763614	-0.645658	-0.045058	-0.645159	0.762719	-0.998975	0.025754	-0.037231
9	4995776													9.831933	-0.471786	0.016623	0.004511	-0.764272	-0.644878	-0.045589	-0.644372	0.763352	-0.998950	0.025956	-0.037749
10	4995943													9.843716	-0.457761	0.013561	0.004519	-0.764329	-0.644810	-0.046062	-0.644291	0.763392	-0.998928	0.026252	-0.038118
11	4996109													9.811959	-0.440580	0.037620	0.004493	-0.764591	-0.644500	-0.046505	-0.643969	0.763637	-0.998908	0.026542	-0.038450
12	4996276													9.832899	-0.426959	0.019319	0.004277	-0.764960	-0.644064	-0.046865	-0.643515	0.763997	-0.998892	0.026916	-0.038602
13	4996443													9.894178	-0.433265	-0.021761	0.004070	-0.764995	-0.644024	-0.047060	-0.643462	0.764030	-0.998884	0.027198	-0.038620
14	4996609													9.789281	-0.467207	-0.030391	0.003925	-0.765095	-0.643906	-0.047182	-0.643336	0.764129	-0.998879	0.027382	-0.038624
15	4996776													9.762943	-0.427795	0.012729	0.003615	-0.765151	-0.643841	-0.047362	-0.643254	0.764187	-0.998871	0.027731	-0.038564
16	4996943													9.790196	-0.447534	-0.037272	0.003256	-0.765429	-0.643512	-0.047469	-0.642908	0.764471	-0.998867	0.028058	-0.038427
17	4997109													9.776160	-0.445202	0.006881	0.002958	-0.765622	-0.643284	-0.047496	-0.642668	0.764671	-0.998867	0.028291	-0.038265
18	4997276													9.772721	-0.437967	-0.005203	0.002558	-0.765706	-0.643186	-0.047514	-0.642555	0.764765	-0.998867	0.028604	-0.038026
19	4997443													9.802993	-0.469127	0.010961	0.002171	-0.765732	-0.643156	-0.047543	-0.642509	0.764802	-0.998867	0.028917	-0.037800
20	4997609													9.819201	-0.444568	0.048933	0.001792	-0.765740	-0.643148	-0.047604	-0.642485	0.764818	-0.998865	0.029246	-0.037604
21	4997776													9.824327	-0.471644	0.030525	0.001451	-0.765917	-0.642938	-0.047596	-0.642263	0.765005	-0.998866	0.029492	-0.037387
22	4997943													9.856414	-0.458736	0.040859	0.001142	-0.765952	-0.642897	-0.047610	-0.642210	0.765049	-0.998865	0.029734	-0.037200
23	4998109													9.844558	-0.450570	0.011596	0.000800	-0.766118	-0.642699	-0.047606	-0.642000	0.765225	-0.998866	0.029984	-0.036986
24	4998276													9.821976	-0.439096	-0.003736	0.000474	-0.766118	-0.642700	-0.047584	-0.641989	0.765235	-0.998867	0.030220	-0.036759
25	4998443													9.819909	-0.445311	-0.041424	0.000144	-0.766045	-0.642788	-0.047559	-0.642065	0.765173	-0.998868	0.030460	-0.036524
26	4998609													9.810256	-0.445519	-0.053888	-0.000139	-0.766195	-0.642609	-0.047555	-0.641876	0.765332	-0.998869	0.030666	-0.036347
27	4998776													9.794599	-0.443573	-0.065561	-0.000387	-0.766174	-0.642633	-0.047506	-0.641893	0.765321	-0.998871	0.030825	-0.036149
28	4998943													9.793810	-0.450099	-0.063051	-0.000605	-0.766098	-0.642724	-0.047512	-0.641976	0.765251	-0.998871	0.031000	-0.036010
29	4999109													9.811085	-0.444261	-0.028077	-0.000783	-0.766034	-0.642800	-0.047543	-0.642045	0.765192	-0.998869	0.031160	-0.035917
30	4999276													9.812680	-0.449233	-0.007159	-0.000883	-0.766095	-0.642727	-0.047610	-0.641966	0.765253	-0.998866	0.031275	-0.035907
31	4999443													9.802145	-0.468165	0.003637	-0.000991	-0.766123	-0.642693	-0.047670	-0.641926	0.765283	-0.998863	0.031395	-0.035885
32	4999609													9.815856	-0.449622	0.009041	-0.001070	-0.766063	-0.642765	-0.047724	-0.641994	0.765223	-0.998860	0.031494	-0.035873
33	4999776													9.819689	-0.452052	0.003778	-0.001175	-0.766009	-0.642829	-0.047849	-0.642050	0.765168	-0.998854	0.031657	-0.035898
34	4999943													9.801224	-0.418263	-0.034079	-0.001268	-0.765893	-0.642967	-0.047980	-0.642180	0.765051	-0.998847	0.031820	-0.035933
35	5000109													9.837911	-0.404272	-0.034915	-0.001398	-0.765939	-0.642912	-0.048084	-0.642118	0.765097	-0.998842	0.031983	-0.035932
36	5000276													9.859778	-0.474581	-0.102887	-0.001569	-0.765924	-0.642929	-0.048205	-0.642125	0.765083	-0.998836	0.032193	-0.035914
37	5000443													9.812301	-0.446613	-0.116558	-0.001579	-0.765807	-0.643068	-0.048423	-0.642256	0.764959	-0.998826	0.032348	-0.036069
38	5000610													9.828039	-0.359469	-0.010446	-0.001453	-0.765794	-0.643085	-0.048584	-0.642272	0.764935	-0.998818	0.032355	-0.036273
39	5000776													9.827632	-0.369332	-0.053531	-0.001438	-0.766008	-0.642829	-0.048505	-0.642020	0.765152	-0.998822	0.032281	-0.036232
40	5000943													9.853958	-0.488534	-0.036937	-0.001186	-0.766189	-0.642614	-0.048511	-0.641814	0.765325	-0.998822	0.032082	-0.036408
41	5001110													9.814276	-0.395273	0.085256	-0.001026	-0.766166	-0.642642	-0.048683	-0.641842	0.765290	-0.998814	0.032071	-0.036640
42	5001276													9.845943	-0.400161	0.052155	-0.000931	-0.766294	-0.642490	-0.048860	-0.641688	0.765408	-0.998805	0.032104	-0.036843
43	5001443													9.786959	-0.479270	0.053799	-0.000833	-0.766363	-0.642407	-0.049037	-0.641603	0.765468	-0.998797	0.032139	-0.037046
44	5001610													9.812824	-0.480016	0.021696	-0.000886	-0.766320	-0.642458	-0.049277	-0.641645	0.765417	-0.998785	0.032337	-0.037194
45	5001776													9.801632	-0.471945	-0.009198	-0.000837	-0.766227	-0.642570	-0.049575	-0.641748	0.765312	-0.998770	0.032495	-0.037449
46	5001943													9.778339	-0.463869	0.015712	-0.000693	-0.766140	-0.642674	-0.049882	-0.641847	0.765208	-0.998755	0.032588	-0.037772
47	5002110													9.796015	-0.468381	-0.035452	-0.000536	-0.766262	-0.642528	-0.050241	-0.641696	0.765312	-0.998737	0.032691	-0.038154
48	5002276													9.809877	-0.491194	-0.029851	-0.000387	-0.766282	-0.642504	-0.050559	-0.641667	0.765315	-0.998721	0.032780	-0.038495
49	5002443													9.839117	-0.460134	0.005483	-0.000194	-0.766087	-0.642737	-0.050866	-0.641898	0.765101	-0.998705	0.032843	-0.038843
50	5002610													9.828458	-0.461543	0.007591	-0.000082	-0.765957	-0.642891	-0.051168	-0.642046	0.764957	-0.998690	0.032958	-0.039140
51	5002776													9.793353	-0.438248	0.036588	0.000009	-0.765861	-0.643006	-0.051513	-0.642152	0.764844	-0.998672	0.033117	-0.039458
52	5002943													9.883700	-0.418935	0.022766	0.000044	-0.765895	-0.642966	-0.051713	-0.642107	0.764869	-0.998662	0.033216	-0.039635
53	5003110													9.830295	-0.466266	0.009974	0.000157	-0.766024	-0.642812	-0.051826	-0.641954	0.764989	-0.998656	0.033194	-0.039801
54	5003276													9.736211	-0.456904	0.032892	0.000225	-0.765915	-0.642941	-0.052047	-0.642079	0.764870	-0.998645	0.033291	-0.040009
55	5003443													9.823280	-0.436143	-0.024590	0.000107	-0.766015	-0.642823	-0.052180	-0.641951	0.764968	-0.998638	0.033461	-0.040039
56	5003776													9.792636	-0.479594	0.011852	0.000011	-0.766314	-0.642466	-0.052338	-0.641586	0.765263	-0.998629	0.033617	-0.040115
57	5003943													9.806882	-0.481715	0.003501	-0.000128	-0.766407	-0.642356	-0.052405	-0.641468	0.765358	-0.998626	0.033760	-0.040082
58	5004110													9.800374	-0.452283	0.010550	-0.000219	-0.766447	-0.642307	-0.052446	-0.641414	0.765400	-0.998624	0.033854	-0.040057
59	5004276													9.820100	-0.470250	0.000809	-0.000320	-0.766473	-0.642276	-0.052479	-0.641378	0.765428	-0.998622	0.033951	-0.040019
60	5004443													9.823695	-0.485785	0.023767	-0.000473	-0.766442	-0.642314	-0.052514	-0.641408	0.765400	-0.998620	0.034093	-0.039945
61	5004610													9.839080	-0.485771	0.006605	-0.000579	-0.766448	-0.642306	-0.052539	-0.641395	0.765409	-0.998619	0.034189	-0.039897
62	5004776													9.814865	-0.483413	0.047066	-0.000704	-0.766340	-0.642435	-0.052570	-0.641519	0.765304	-0.998617	0.034311	-0.039835
63	5004943													9.805388	-0.477617	0.029232	-0.000838	-0.766306	-0.642475	-0.052614	-0.641552	0.765273	-0.998615	0.034445	-0.039781
64	5005110													9.813331	-0.478117	0.013919	-0.000929	-0.766184	-0.642621	-0.052670	-0.641691	0.765152	-0.998612	0.034558	-0.039758
65	5005276													9.807878	-0.474255	0.001459	-0.001046	-0.766082	-0.642742	-0.052730	-0.641806	0.765052	-0.998608	0.034692	-0.039724
66	5005443													9.821517	-0.476737	0.006090	-0.001171	-0.766044	-0.642787	-0.052801	-0.641843	0.765016	-0.998604	0.034836	-0.039696
67	5005610													9.826381	-0.475861	-0.000079	-0.001237	-0.765975	-0.642869	-0.052877	-0.641920	0.764947	-0.998600	0.034939	-0.039708
68	5005776													9.809602	-0.472628	0.002178	-0.001286	-0.765936	-0.642915	-0.052977	-0.641961	0.764905	-0.998595	0.035043	-0.039751
69	5005943													9.816117	-0.458298	0.011515	-0.001324	-0.765921	-0.642934	-0.053074	-0.641974	0.764887	-0.998590	0.035136	-0.039800
70	5006110													9.805929	-0.488597	0.004923	-0.001355	-0.765907	-0.642950	-0.053171	-0.641986	0.764871	-0.998585	0.035222	-0.039854
71	5006276													9.794452	-0.476234	0.001863	-0.001404	-0.765857	-0.643009	-0.053285	-0.642039	0.764818	-0.998578	0.035337	-0.039907
72	5006443													9.804030	-0.456859	-0.006871	-0.001471	-0.765761	-0.643124	-0.053393	-0.642147	0.764720	-0.998573	0.035463	-0.039941
73	5006610													9.828094	-0.431115	-0.001073	-0.001566	-0.765759	-0.643126	-0.053416	-0.642145	0.764720	-0.998571	0.035551	-0.039898
74	5006776													9.838344	-0.523947	-0.078387	-0.001668	-0.765751	-0.643135	-0.053509	-0.642146	0.764712	-0.998566	0.035689	-0.039903
75	5006943													9.814274	-0.476594	-0.048707	-0.001626	-0.765651	-0.643254	-0.053641	-0.642262	0.764606	-0.998559	0.035747	-0.040026
76	5007110													9.834641	-0.398146	0.050271	-0.001480	-0.765774	-0.643108	-0.053707	-0.642119	0.764721	-0.998556	0.035671	-0.040177
77	5007276													9.805373	-0.394450	0.012688	-0.001481	-0.766141	-0.642670	-0.053546	-0.641688	0.765094	-0.998564	0.035545	-0.040074
78	5007443													9.858408	-0.521844	-0.001624	-0.001339	-0.766079	-0.642745	-0.053452	-0.641772	0.765030	-0.998570	0.035380	-0.040089
79	5007610													9.831963	-0.426223	0.055617	-0.001335	-0.766047	-0.642783	-0.053467	-0.641809	0.764998	-0.998569	0.035389	-0.040101
80	5007776													9.816185	-0.419403	0.040565	-0.001307	-0.766227	-0.642569	-0.053480	-0.641596	0.765176	-0.998568	0.035365	-0.040140
81	5007943													9.763700	-0.474695	0.059014	-0.001369	-0.766455	-0.642297	-0.053513	-0.641321	0.765404	-0.998566	0.035419	-0.040137
82	5008110													9.813450	-0.514817	-0.011540	-0.001590	-0.766597	-0.642126	-0.053588	-0.641139	0.765551	-0.998562	0.035627	-0.040061
83	5008276													9.813958	-0.497750	-0.016058	-0.001641	-0.766614	-0.642107	-0.053688	-0.641114	0.765566	-0.998556	0.035729	-0.040106
84	5008443													9.782858	-0.472747	0.041115	-0.001637	-0.766485	-0.642260	-0.053821	-0.641263	0.765432	-0.998549	0.035820	-0.040203
85	5008610													9.797315	-0.496426	-0.015979	-0.001679	-0.766563	-0.642167	-0.054003	-0.641161	0.765504	-0.998539	0.035964	-0.040320
86	5008776													9.826633	-0.496807	-0.008685	-0.001619	-0.766649	-0.642064	-0.054164	-0.641055	0.765581	-0.998531	0.036016	-0.040487
87	5008943													9.834201	-0.461048	0.044033	-0.001490	-0.766549	-0.642184	-0.054329	-0.641174	0.765470	-0.998522	0.036030	-0.040691
88	5009110													9.817048	-0.471842	0.003452	-0.001473	-0.766519	-0.642219	-0.054505	-0.641204	0.765432	-0.998512	0.036132	-0.040835
89	5009276													9.789963	-0.465242	0.025098	-0.001426	-0.766511	-0.642229	-0.054794	-0.641205	0.765411	-0.998497	0.036282	-0.041086
90	5009443													9.869685	-0.417605	-0.011641	-0.001416	-0.766547	-0.642187	-0.054914	-0.641159	0.765441	-0.998490	0.036349	-0.041186
91	5009610													9.828502	-0.470929	-0.035440	-0.001326	-0.766647	-0.642067	-0.055018	-0.641039	0.765534	-0.998485	0.036340	-0.041329
92	5009776													9.757243	-0.454676	0.023605	-0.001262	-0.766593	-0.642132	-0.055166	-0.641101	0.765471	-0.998476	0.036390	-0.041481
93	5009943													9.827876	-0.449043	-0.016633	-0.001353	-0.766703	-0.642001	-0.055266	-0.640963	0.765579	-0.998471	0.036517	-0.041506
94	5010110													9.808178	-0.470196	-0.018890	-0.001329	-0.766869	-0.641802	-0.055294	-0.640764	0.765744	-0.998469	0.036506	-0.041551
95	5010276													9.789466	-0.468891	-0.007152	-0.001391	-0.766883	-0.641785	-0.055304	-0.640744	0.765760	-0.998469	0.036559	-0.041521
96	5010443													9.812873	-0.486021	-0.008783	-0.001452	-0.767047	-0.641589	-0.055316	-0.640546	0.765925	-0.998468	0.036602	-0.041500
97	5010610													9.790541	-0.459875	0.021360	-0.001487	-0.767160	-0.641454	-0.055302	-0.640410	0.766040	-0.998469	0.036613	-0.041473
98	5010776													9.807538	-0.446357	0.030265	-0.001619	-0.767285	-0.641304	-0.055238	-0.640257	0.766172	-0.998472	0.036665	-0.041346
99	5010943													9.817315	-0.479637	0.025885	-0.001764	-0.767335	-0.641244	-0.055183	-0.640193	0.766230	-0.998475	0.036737	-0.041215
100	5011110													9.800772	-0.472986	0.017963	-0.001867	-0.767462	-0.641092	-0.055107	-0.640040	0.766363	-0.998479	0.036759	-0.041098
101	5011276													9.814844	-0.457862	0.025745	-0.002009	-0.767541	-0.640997	-0.055031	-0.639942	0.766450	-0.998483	0.036814	-0.040953
102	5011443													9.805199	-0.457547	0.023639	-0.002171	-0.767519	-0.641022	-0.054985	-0.639962	0.766437	-0.998485	0.036910	-0.040813
103	5011610													9.809855	-0.461023	-0.001448	-0.002345	-0.767626	-0.640894	-0.054941	-0.639828	0.766551	-0.998487	0.037008	-0.040674
104	5011776													9.817000	-0.478450	-0.002493	-0.002505	-0.767698	-0.640807	-0.054880	-0.639737	0.766632	-0.998490	0.037088	-0.040529
105	5011943													9.819283	-0.491238	-0.008250	-0.002663	-0.767664	-0.640847	-0.054846	-0.639772	0.766605	-0.998491	0.037190	-0.040400
106	5012110													9.821900	-0.472415	-0.006928	-0.002784	-0.767590	-0.640936	-0.054846	-0.639856	0.766535	-0.998491	0.037287	-0.040318
107	5012276													9.826324	-0.458738	0.019662	-0.002901	-0.767685	-0.640820	-0.054867	-0.639736	0.766634	-0.998489	0.037384	-0.040265
108	5012443													9.813152	-0.461713	-0.011648	-0.002965	-0.767702	-0.640800	-0.054910	-0.639711	0.766651	-0.998487	0.037459	-0.040258
109	5012610													9.799079	-0.465125	0.015376	-0.002998	-0.767659	-0.640851	-0.054985	-0.639758	0.766607	-0.998483	0.037535	-0.040292
110	5012776													9.790688	-0.458298	0.008339	-0.003077	-0.767672	-0.640835	-0.055089	-0.639735	0.766619	-0.998477	0.037662	-0.040322
111	5012943													9.783398	-0.462121	-0.028139	-0.003125	-0.767634	-0.640881	-0.055185	-0.639775	0.766578	-0.998471	0.037763	-0.040363
112	5013110													9.831169	-0.442538	-0.013865	-0.003195	-0.767631	-0.640884	-0.055239	-0.639773	0.766576	-0.998468	0.037851	-0.040359
113	5013276													9.858316	-0.484447	-0.073040	-0.003245	-0.767681	-0.640824	-0.055308	-0.639708	0.766625	-0.998464	0.037930	-0.040383
114	5013443													9.805326	-0.452894	-0.040792	-0.003152	-0.767458	-0.641091	-0.055455	-0.639974	0.766393	-0.998456	0.037967	-0.040542
115	5013610													9.848290	-0.386598	0.033774	-0.002928	-0.767492	-0.641052	-0.055531	-0.639941	0.766415	-0.998453	0.037842	-0.040745
116	5013776													9.816191	-0.378895	0.015722	-0.002819	-0.767738	-0.640758	-0.055407	-0.639656	0.766662	-0.998460	0.037664	-0.040734
117	5013943													9.872342	-0.529504	-0.033023	-0.002649	-0.767791	-0.640695	-0.055269	-0.639605	0.766714	-0.998468	0.037441	-0.040740
118	5014110													9.825973	-0.429565	0.072597	-0.002490	-0.767687	-0.640820	-0.055309	-0.639736	0.766602	-0.998466	0.037352	-0.040867
119	5014276													9.836769	-0.411364	0.053404	-0.002427	-0.767825	-0.640656	-0.055342	-0.639572	0.766736	-0.998464	0.037316	-0.040941
120	5014443													9.767276	-0.477520	0.034306	-0.002365	-0.768021	-0.640420	-0.055425	-0.639337	0.766927	-0.998460	0.037309	-0.041055
121	5014610													9.792779	-0.517878	0.003859	-0.002452	-0.768207	-0.640197	-0.055480	-0.639108	0.767113	-0.998457	0.037399	-0.041053
122	5014776													9.819982	-0.508257	-0.029220	-0.002367	-0.768157	-0.640257	-0.055581	-0.639168	0.767056	-0.998451	0.037401	-0.041182
123	5014943													9.775875	-0.474999	0.036525	-0.002169	-0.768124	-0.640297	-0.055717	-0.639211	0.767010	-0.998444	0.037339	-0.041411
124	5015110													9.790590	-0.491500	-0.019263	-0.001996	-0.768117	-0.640306	-0.055887	-0.639221	0.766990	-0.998435	0.037316	-0.041652
125	5015276													9.826092	-0.495381	-0.024833	-0.001724	-0.768041	-0.640399	-0.056050	-0.639319	0.766896	-0.998426	0.037216	-0.041946
126	5015443													9.837132	-0.472833	0.058762	-0.001417	-0.767888	-0.640583	-0.056203	-0.639510	0.766726	-0.998418	0.037089	-0.042251
127	5015610													9.811709	-0.465036	0.040494	-0.001288	-0.767786	-0.640705	-0.056305	-0.639633	0.766616	-0.998413	0.037062	-0.042407
128	5015776													9.803953	-0.449558	0.054616	-0.001319	-0.767744	-0.640756	-0.056520	-0.639675	0.766565	-0.998401	0.037227	-0.042549
129	5015943													9.881662	-0.417966	-0.010622	-0.001322	-0.767757	-0.640740	-0.056574	-0.639657	0.766576	-0.998398	0.037262	-0.042589
130	5016110													9.807469	-0.479616	-0.028417	-0.001265	-0.767725	-0.640778	-0.056570	-0.639697	0.766542	-0.998398	0.037218	-0.042621
131	5016276													9.750936	-0.453022	0.035738	-0.001279	-0.767708	-0.640798	-0.056627	-0.639715	0.766524	-0.998395	0.037267	-0.042655
132	5016443													9.833072	-0.448968	-0.006208	-0.001404	-0.767797	-0.640692	-0.056635	-0.639603	0.766616	-0.998394	0.037362	-0.042586
133	5016610													9.801193	-0.480156	-0.006652	-0.001496	-0.767920	-0.640544	-0.056603	-0.639452	0.766744	-0.998396	0.037403	-0.042510
134	5016776													9.780169	-0.480835	0.001506	-0.001616	-0.768042	-0.640397	-0.056546	-0.639303	0.766873	-0.998399	0.037451	-0.042396
135	5016943													9.807177	-0.481386	0.023002	-0.001795	-0.768155	-0.640262	-0.056498	-0.639162	0.766994	-0.998401	0.037551	-0.042251
136	5017110													9.807205	-0.468962	0.020367	-0.001912	-0.768189	-0.640220	-0.056411	-0.639119	0.767037	-0.998406	0.037582	-0.042113
137	5017277													9.816482	-0.450781	0.028288	-0.001990	-0.768417	-0.639946	-0.056298	-0.638847	0.767271	-0.998412	0.037555	-0.041989
138	5017443													9.800650	-0.493227	0.034081	-0.002087	-0.768635	-0.639684	-0.056198	-0.638584	0.767497	-0.998417	0.037551	-0.041863
139	5017610													9.817787	-0.484540	0.040540	-0.002250	-0.768569	-0.639763	-0.056090	-0.638661	0.767441	-0.998423	0.037611	-0.041672
140	5017777													9.826506	-0.477495	0.015896	-0.002318	-0.768626	-0.639694	-0.056002	-0.638592	0.767505	-0.998428	0.037603	-0.041564
141	5017943													9.804955	-0.462593	0.025953	-0.002348	-0.768628	-0.639691	-0.055921	-0.638591	0.767512	-0.998432	0.037574	-0.041483
142	5018110													9.816257	-0.472603	-0.024948	-0.002404	-0.768629	-0.639690	-0.055858	-0.638590	0.767517	-0.998436	0.037577	-0.041399
143	5018277													9.818846	-0.476894	-0.022534	-0.002414	-0.768582	-0.639747	-0.055815	-0.638648	0.767472	-0.998438	0.037560	-0.041356
144	5018443													9.815476	-0.463863	0.009852	-0.002455	-0.768643	-0.639673	-0.055797	-0.638573	0.767536	-0.998439	0.037576	-0.041321
145	5018610													9.816435	-0.453430	-0.002766	-0.002506	-0.768582	-0.639746	-0.055809	-0.638644	0.767476	-0.998438	0.037627	-0.041293
146	5018777													9.822250	-0.457086	0.019601	-0.002521	-0.768610	-0.639713	-0.055806	-0.638610	0.767504	-0.998438	0.037634	-0.041283
147	5018943													9.807212	-0.452147	-0.004696	-0.002559	-0.768660	-0.639652	-0.055839	-0.638546	0.767555	-0.998437	0.037681	-0.041287
148	5019110													9.816906	-0.465133	0.005777	-0.002566	-0.768596	-0.639730	-0.055843	-0.638624	0.767490	-0.998436	0.037694	-0.041282
149	5019277													9.780549	-0.465607	0.032359	-0.002582	-0.768652	-0.639662	-0.055866	-0.638555	0.767546	-0.998435	0.037717	-0.041292
150	5019443													9.795875	-0.454232	0.014382	-0.002628	-0.768549	-0.639786	-0.055897	-0.638675	0.767444	-0.998433	0.037779	-0.041281
151	5019610													9.803758	-0.429259	0.008408	-0.002623	-0.768560	-0.639773	-0.055906	-0.638662	0.767454	-0.998433	0.037781	-0.041292
152	5019777													9.851851	-0.465933	-0.038677	-0.002650	-0.768676	-0.639633	-0.055872	-0.638522	0.767573	-0.998434	0.037771	-0.041255
153	5019943													9.822568	-0.513990	-0.070345	-0.002652	-0.768701	-0.639602	-0.055956	-0.638488	0.767595	-0.998430	0.037825	-0.041320
154	5020110													9.827998	-0.417385	0.003597	-0.002450	-0.768599	-0.639726	-0.056013	-0.638618	0.767483	-0.998427	0.037713	-0.041486
155	5020277													9.812351	-0.363199	0.025180	-0.002305	-0.768864	-0.639408	-0.055960	-0.638309	0.767744	-0.998430	0.037551	-0.041554
156	5020443													9.865047	-0.450643	-0.032824	-0.002252	-0.769155	-0.639059	-0.055729	-0.637971	0.768041	-0.998443	0.037344	-0.041428
157	5020610													9.842122	-0.481907	0.037755	-0.001918	-0.769051	-0.639185	-0.055651	-0.638113	0.767929	-0.998448	0.037044	-0.041574
158	5020777													9.815702	-0.392553	0.089333	-0.001841	-0.769056	-0.639179	-0.055682	-0.638110	0.767929	-0.998447	0.037004	-0.041648
159	5020943													9.815320	-0.446486	0.029852	-0.001765	-0.769317	-0.638865	-0.055673	-0.637799	0.768188	-0.998447	0.036924	-0.041705
160	5021110													9.777043	-0.525180	0.030419	-0.001796	-0.769491	-0.638655	-0.055710	-0.637588	0.768361	-0.998445	0.036960	-0.041723
161	5021277													9.792227	-0.517684	-0.024813	-0.001814	-0.769502	-0.638641	-0.055800	-0.637570	0.768369	-0.998440	0.037030	-0.041782
162	5021443													9.794164	-0.483077	0.005535	-0.001656	-0.769427	-0.638732	-0.055944	-0.637661	0.768283	-0.998433	0.037006	-0.041989
163	5021610													9.773494	-0.501888	0.008003	-0.001527	-0.769541	-0.638595	-0.056130	-0.637523	0.768384	-0.998422	0.037018	-0.042221
164	5021777													9.804387	-0.485106	-0.004302	-0.001369	-0.769485	-0.638663	-0.056316	-0.637591	0.768314	-0.998412	0.037019	-0.042462
165	5021943													9.837679	-0.467503	0.053567	-0.001183	-0.769399	-0.638767	-0.056485	-0.637696	0.768214	-0.998403	0.036989	-0.042706
166	5022110													9.817566	-0.463183	0.022001	-0.001159	-0.769333	-0.638847	-0.056609	-0.637773	0.768141	-0.998396	0.037055	-0.042812
167	5022277													9.811142	-0.466851	0.055304	-0.001089	-0.769065	-0.639170	-0.056847	-0.638089	0.767861	-0.998382	0.037171	-0.043024
168	5022443													9.849964	-0.421464	0.026214	-0.001150	-0.769044	-0.639195	-0.056972	-0.638107	0.767837	-0.998375	0.037299	-0.043080
169	5022610													9.825912	-0.441794	-0.009445	-0.001106	-0.769057	-0.639179	-0.056994	-0.638092	0.767848	-0.998374	0.037278	-0.043126
170	5022777													9.758332	-0.468930	0.034174	-0.001007	-0.769073	-0.639160	-0.057020	-0.638077	0.767859	-0.998373	0.037218	-0.043210
171	5022943													9.800289	-0.441223	-0.004914	-0.001214	-0.769110	-0.639115	-0.057057	-0.638021	0.767902	-0.998370	0.037398	-0.043108
172	5023110													9.820201	-0.448864	-0.042582	-0.001333	-0.769300	-0.638886	-0.057010	-0.637789	0.768098	-0.998373	0.037447	-0.043007
173	5023277													9.789471	-0.491911	-0.022813	-0.001286	-0.769379	-0.638791	-0.056964	-0.637698	0.768177	-0.998375	0.037376	-0.043007
174	5023443													9.768689	-0.462146	0.044316	-0.001376	-0.769405	-0.638759	-0.056902	-0.637665	0.768210	-0.998379	0.037404	-0.042903
175	5023610													9.817253	-0.454497	0.012553	-0.001478	-0.769433	-0.638726	-0.056827	-0.637630	0.768244	-0.998383	0.037433	-0.042782
176	5023777													9.804493	-0.482452	0.033184	-0.001541	-0.769441	-0.638716	-0.056722	-0.637621	0.768259	-0.998389	0.037413	-0.042662
177	5023943													9.820887	-0.503866	0.071681	-0.001638	-0.769509	-0.638634	-0.056599	-0.637540	0.768335	-0.998396	0.037405	-0.042509
178	5024110													9.809501	-0.501245	0.036724	-0.001774	-0.769545	-0.638591	-0.056482	-0.637495	0.768381	-0.998402	0.037432	-0.042334
179	5024277													9.810324	-0.475500	0.026053	-0.001913	-0.769516	-0.638625	-0.056365	-0.637528	0.768363	-0.998408	0.037466	-0.042154
180	5024443													9.810485	-0.475735	-0.021453	-0.002093	-0.769490	-0.638655	-0.056232	-0.637555	0.768350	-0.998416	0.037521	-0.041936
181	5024610													9.815680	-0.479341	0.005951	-0.002241	-0.769547	-0.638586	-0.056124	-0.637484	0.768416	-0.998421	0.037562	-0.041762
182	5024777													9.807130	-0.460719	0.008865	-0.002352	-0.769583	-0.638542	-0.056026	-0.637440	0.768461	-0.998427	0.037583	-0.041618
183	5024943													9.813459	-0.489114	-0.010611	-0.002452	-0.769569	-0.638559	-0.055946	-0.637455	0.768454	-0.998431	0.037609	-0.041491
184	5025110													9.810602	-0.484372	-0.000004	-0.002527	-0.769522	-0.638616	-0.055880	-0.637511	0.768412	-0.998434	0.037628	-0.041390
185	5025277													9.826423	-0.467309	0.003481	-0.002552	-0.769440	-0.638714	-0.055816	-0.637610	0.768334	-0.998438	0.037611	-0.041320
186	5025610													9.818188	-0.471426	0.013161	-0.002502	-0.769234	-0.638962	-0.055749	-0.637863	0.768129	-0.998442	0.037543	-0.041288
187	5025777													9.815788	-0.447173	0.024772	-0.002452	-0.769152	-0.639062	-0.055711	-0.637966	0.768047	-0.998444	0.037486	-0.041286
188	5025943													9.824889	-0.470547	0.016247	-0.002386	-0.769111	-0.639110	-0.055733	-0.638016	0.768003	-0.998443	0.037452	-0.041342
189	5026110													9.793722	-0.466542	0.012339	-0.002345	-0.769004	-0.639240	-0.055763	-0.638147	0.767893	-0.998441	0.037447	-0.041385
190	5026277													9.787357	-0.442559	-0.027530	-0.002353	-0.768953	-0.639301	-0.055769	-0.638207	0.767842	-0.998441	0.037460	-0.041382
191	5026443													9.815844	-0.426316	-0.024754	-0.002341	-0.769001	-0.639243	-0.055677	-0.638153	0.767893	-0.998446	0.037389	-0.041322
192	5026610													9.825719	-0.502675	-0.068792	-0.002313	-0.769098	-0.639127	-0.055677	-0.638038	0.767989	-0.998446	0.037361	-0.041345
193	5026777													9.803733	-0.448981	-0.052519	-0.002178	-0.769033	-0.639205	-0.055703	-0.638121	0.767918	-0.998445	0.037278	-0.041448
194	5026943													9.834710	-0.375985	0.020749	-0.001941	-0.769056	-0.639178	-0.055690	-0.638104	0.767933	-0.998446	0.037086	-0.041590
195	5027110													9.802292	-0.392081	0.011645	-0.001799	-0.769408	-0.638755	-0.055477	-0.637696	0.768288	-0.998458	0.036818	-0.041538
196	5027277													9.880899	-0.513343	-0.025541	-0.001592	-0.769535	-0.638603	-0.055241	-0.637561	0.768417	-0.998472	0.036501	-0.041495
197	5027443													9.812567	-0.442101	0.063085	-0.001309	-0.769343	-0.638835	-0.055212	-0.637805	0.768216	-0.998474	0.036277	-0.041642
198	5027610													9.830225	-0.411228	0.046605	-0.001128	-0.769386	-0.638783	-0.055194	-0.637762	0.768254	-0.998475	0.036124	-0.041746
199	5027777													9.776518	-0.488159	0.063939	-0.000982	-0.769577	-0.638554	-0.055156	-0.637540	0.768440	-0.998477	0.035975	-0.041821
200	5027943													9.780996	-0.524697	0.057765	-0.001146	-0.769594	-0.638533	-0.055207	-0.637511	0.768461	-0.998474	0.036132	-0.041757
201	5028110													9.807751	-0.477226	-0.003972	-0.001139	-0.769450	-0.638706	-0.055319	-0.637679	0.768313	-0.998468	0.036208	-0.041839
202	5028277													9.769082	-0.462088	0.025122	-0.000922	-0.769327	-0.638854	-0.055473	-0.637831	0.768176	-0.998460	0.036147	-0.042089
203	5028443													9.760915	-0.474245	0.017984	-0.000914	-0.769225	-0.638978	-0.055640	-0.637949	0.768066	-0.998450	0.036255	-0.042217
204	5028610													9.827770	-0.475193	0.002891	-0.000854	-0.769126	-0.639096	-0.055755	-0.638066	0.767961	-0.998444	0.036289	-0.042337
205	5028777													9.837940	-0.448682	0.038123	-0.000771	-0.768905	-0.639363	-0.055835	-0.638332	0.767733	-0.998440	0.036291	-0.042439
206	5028943													9.829704	-0.465002	0.027095	-0.000720	-0.768777	-0.639517	-0.055957	-0.638484	0.767598	-0.998433	0.036338	-0.042558
207	5029110													9.814400	-0.410456	0.054568	-0.000695	-0.768776	-0.639517	-0.056135	-0.638479	0.767589	-0.998423	0.036433	-0.042711
208	5029277													9.851010	-0.421796	0.017409	-0.000635	-0.768888	-0.639383	-0.056123	-0.638348	0.767699	-0.998424	0.036372	-0.042747
209	5029443													9.803862	-0.469384	0.000300	-0.000561	-0.768919	-0.639346	-0.056078	-0.638316	0.767729	-0.998426	0.036284	-0.042761
210	5029610													9.757445	-0.446461	0.032118	-0.000619	-0.768911	-0.639355	-0.056115	-0.638321	0.767722	-0.998424	0.036353	-0.042752
211	5029777													9.825641	-0.443410	-0.038298	-0.000675	-0.769021	-0.639223	-0.056058	-0.638189	0.767837	-0.998427	0.036352	-0.042679
212	5029943													9.798395	-0.497007	-0.012020	-0.000668	-0.769161	-0.639054	-0.055965	-0.638024	0.767980	-0.998433	0.036277	-0.042620
213	5030110													9.784307	-0.494589	0.013640	-0.000687	-0.769213	-0.638992	-0.055869	-0.637965	0.768036	-0.998438	0.036227	-0.042537
214	5030277													9.805327	-0.466484	0.038423	-0.000717	-0.769257	-0.638939	-0.055758	-0.637914	0.768086	-0.998444	0.036177	-0.042435
215	5030443													9.813614	-0.467407	0.042428	-0.000732	-0.769299	-0.638889	-0.055663	-0.637867	0.768132	-0.998449	0.036124	-0.042355
216	5030610													9.813085	-0.490505	0.031453	-0.000770	-0.769374	-0.638798	-0.055533	-0.637779	0.768214	-0.998457	0.036066	-0.042235
217	5030777													9.821318	-0.482280	0.040350	-0.000825	-0.769398	-0.638769	-0.055427	-0.637752	0.768245	-0.998462	0.036039	-0.042120
218	5030943													9.819936	-0.474427	0.021711	-0.000874	-0.769440	-0.638718	-0.055345	-0.637702	0.768292	-0.998467	0.036021	-0.042027
219	5031110													9.821942	-0.465504	-0.001470	-0.000869	-0.769462	-0.638692	-0.055240	-0.637680	0.768318	-0.998473	0.035950	-0.041951
220	5031277													9.819468	-0.467146	-0.013869	-0.000887	-0.769405	-0.638761	-0.055142	-0.637752	0.768266	-0.998478	0.035904	-0.041861
221	5031443													9.816006	-0.461535	0.000197	-0.000923	-0.769415	-0.638748	-0.055058	-0.637740	0.768281	-0.998483	0.035877	-0.041774
222	5031610													9.798532	-0.479827	0.001466	-0.000915	-0.769336	-0.638844	-0.055002	-0.637839	0.768203	-0.998486	0.035841	-0.041732
223	5031777													9.810055	-0.467535	0.009227	-0.000902	-0.769290	-0.638899	-0.054939	-0.637897	0.768160	-0.998489	0.035793	-0.041689
224	5031943													9.806781	-0.481168	0.000179	-0.000862	-0.769192	-0.639017	-0.054885	-0.638017	0.768063	-0.998492	0.035734	-0.041667
225	5032110													9.806072	-0.471668	0.021103	-0.000810	-0.769020	-0.639225	-0.054867	-0.638228	0.767890	-0.998493	0.035694	-0.041677
226	5032277													9.821095	-0.460456	0.030243	-0.000758	-0.768938	-0.639323	-0.054886	-0.638327	0.767806	-0.998492	0.035672	-0.041720
227	5032443													9.837965	-0.465004	0.044740	-0.000668	-0.768892	-0.639378	-0.054958	-0.638384	0.767754	-0.998488	0.035652	-0.041831
228	5032610													9.813213	-0.449071	0.040497	-0.000557	-0.768821	-0.639464	-0.055003	-0.638472	0.767677	-0.998486	0.035600	-0.041931
229	5032777													9.788598	-0.455476	0.021032	-0.000462	-0.768815	-0.639471	-0.055004	-0.638484	0.767667	-0.998486	0.035528	-0.041993
230	5032943													9.807441	-0.455620	0.027877	-0.000369	-0.768833	-0.639450	-0.055023	-0.638465	0.767681	-0.998485	0.035468	-0.042067
231	5033110													9.790897	-0.458946	-0.016466	-0.000314	-0.768779	-0.639514	-0.055098	-0.638530	0.767622	-0.998481	0.035477	-0.042158
232	5033277													9.815770	-0.430354	-0.006180	-0.000199	-0.768734	-0.639569	-0.055150	-0.638587	0.767571	-0.998478	0.035425	-0.042268
233	5033443													9.852076	-0.436026	-0.004671	-0.000076	-0.768844	-0.639437	-0.055131	-0.638461	0.767677	-0.998479	0.035311	-0.042338
234	5033610													9.829558	-0.527268	-0.041672	0.000018	-0.768798	-0.639491	-0.055226	-0.638516	0.767624	-0.998474	0.035303	-0.042469
235	5033777													9.821675	-0.443150	0.002504	0.000256	-0.768725	-0.639580	-0.055312	-0.638611	0.767539	-0.998469	0.035180	-0.042683
236	5033944													9.813993	-0.386960	0.088583	0.000491	-0.768777	-0.639516	-0.055352	-0.638557	0.767582	-0.998467	0.035021	-0.042867
237	5034110													9.822185	-0.445368	0.018608	0.000597	-0.769016	-0.639229	-0.055130	-0.638282	0.767826	-0.998479	0.034782	-0.042777
238	5034277													9.858312	-0.533719	0.026946	0.000994	-0.768917	-0.639348	-0.054944	-0.638424	0.767721	-0.998489	0.034366	-0.042882
239	5034444													9.783316	-0.457099	0.098001	0.001262	-0.768704	-0.639604	-0.054925	-0.638692	0.767500	-0.998490	0.034162	-0.043027
240	5034610													9.793344	-0.436151	0.106288	0.001407	-0.768753	-0.639544	-0.054924	-0.638639	0.767544	-0.998490	0.034046	-0.043121
241	5034777													9.804820	-0.520006	0.042153	0.001471	-0.768849	-0.639429	-0.054963	-0.638525	0.767636	-0.998487	0.034016	-0.043198
242	5034944													9.809748	-0.528124	0.007986	0.001535	-0.768869	-0.639405	-0.055019	-0.638502	0.767651	-0.998484	0.034001	-0.043283
243	5035110													9.804585	-0.512465	0.018857	0.001707	-0.768765	-0.639529	-0.055142	-0.638630	0.767536	-0.998477	0.033954	-0.043481
244	5035277													9.783528	-0.471706	0.059406	0.001908	-0.768677	-0.639634	-0.055278	-0.638738	0.767436	-0.998469	0.033894	-0.043709
245	5035444													9.784952	-0.484128	0.022306	0.002026	-0.768607	-0.639718	-0.055429	-0.638822	0.767355	-0.998461	0.033905	-0.043898
246	5035610													9.813741	-0.503234	0.011942	0.002159	-0.768527	-0.639813	-0.055583	-0.638918	0.767264	-0.998452	0.033906	-0.044096
247	5035777													9.822433	-0.461779	0.051218	0.002193	-0.768341	-0.640037	-0.055731	-0.639138	0.767070	-0.998443	0.033988	-0.044222
248	5035944													9.798370	-0.473314	0.055674	0.002240	-0.768182	-0.640228	-0.055882	-0.639325	0.766903	-0.998435	0.034060	-0.044359
249	5036110													9.827420	-0.436735	0.043679	0.002098	-0.768187	-0.640222	-0.056026	-0.639308	0.766907	-0.998427	0.034261	-0.044380
250	5036277													9.864698	-0.462783	0.012921	0.002086	-0.768231	-0.640169	-0.056017	-0.639255	0.766952	-0.998428	0.034261	-0.044368
251	5036444													9.788827	-0.496102	0.022126	0.002214	-0.768170	-0.640242	-0.055982	-0.639334	0.766888	-0.998429	0.034144	-0.044419
252	5036610													9.780105	-0.462360	0.050499	0.002106	-0.768227	-0.640174	-0.055998	-0.639261	0.766948	-0.998429	0.034233	-0.044365
253	5036777													9.821967	-0.472431	-0.015735	0.002148	-0.768348	-0.640029	-0.055948	-0.639120	0.767069	-0.998431	0.034160	-0.044360
254	5036944													9.790769	-0.482698	0.052671	0.002247	-0.768327	-0.640053	-0.055867	-0.639152	0.767049	-0.998436	0.034035	-0.044360
255	5037110													9.766318	-0.463812	0.056658	0.002053	-0.768353	-0.640023	-0.055733	-0.639118	0.767087	-0.998444	0.034096	-0.044134
256	5037277													9.825946	-0.476793	0.016067	0.001807	-0.768422	-0.639941	-0.055556	-0.639031	0.767172	-0.998454	0.034166	-0.043845
257	5037444													9.822009	-0.496896	0.048407	0.001654	-0.768423	-0.639941	-0.055379	-0.639030	0.767186	-0.998464	0.034170	-0.043612
258	5037610													9.793875	-0.485745	0.034865	0.001438	-0.768451	-0.639907	-0.055179	-0.638994	0.767230	-0.998475	0.034206	-0.043321
259	5037777													9.826616	-0.479032	0.031257	0.001223	-0.768473	-0.639881	-0.054937	-0.638967	0.767270	-0.998489	0.034215	-0.042999
260	5037944													9.803077	-0.492507	0.046704	0.001008	-0.768495	-0.639855	-0.054719	-0.638939	0.767309	-0.998501	0.034239	-0.042695
261	5038110													9.807286	-0.476419	0.030766	0.000776	-0.768489	-0.639862	-0.054512	-0.638943	0.767320	-0.998513	0.034284	-0.042388
262	5038277													9.812865	-0.489220	0.029353	0.000532	-0.768466	-0.639890	-0.054329	-0.638967	0.767313	-0.998523	0.034357	-0.042090
263	5038444													9.820835	-0.486566	0.006114	0.000333	-0.768495	-0.639856	-0.054201	-0.638929	0.767354	-0.998530	0.034426	-0.041866
264	5038610													9.815469	-0.489252	0.012670	0.000156	-0.768440	-0.639922	-0.054096	-0.638992	0.767309	-0.998536	0.034498	-0.041669
265	5038777													9.821159	-0.486500	-0.011134	0.000057	-0.768402	-0.639968	-0.054034	-0.639035	0.767277	-0.998539	0.034536	-0.041556
266	5038944													9.801670	-0.459050	-0.014709	-0.000110	-0.768301	-0.640089	-0.054002	-0.639151	0.767183	-0.998541	0.034650	-0.041419
267	5039110													9.842090	-0.472509	-0.009596	-0.000278	-0.768262	-0.640136	-0.054002	-0.639190	0.767150	-0.998541	0.034782	-0.041310
268	5039277													9.823849	-0.459321	-0.001627	-0.000303	-0.768171	-0.640244	-0.054001	-0.639297	0.767061	-0.998541	0.034806	-0.041288
269	5039444													9.801311	-0.455698	0.003637	-0.000349	-0.768123	-0.640303	-0.053970	-0.639355	0.767015	-0.998542	0.034825	-0.041233
270	5039610													9.819956	-0.462947	-0.007274	-0.000404	-0.768042	-0.640400	-0.053926	-0.639451	0.766938	-0.998545	0.034844	-0.041159
271	5039777													9.807089	-0.460101	0.010540	-0.000398	-0.767875	-0.640600	-0.053927	-0.639651	0.766771	-0.998545	0.034851	-0.041155
272	5039944													9.787989	-0.446476	0.026360	-0.000385	-0.767791	-0.640701	-0.053935	-0.639752	0.766687	-0.998544	0.034851	-0.041165
273	5040110													9.779344	-0.435870	0.007338	-0.000413	-0.767700	-0.640809	-0.053941	-0.639859	0.766597	-0.998544	0.034883	-0.041146
274	5040277													9.815701	-0.463650	-0.037013	-0.000511	-0.767705	-0.640803	-0.053916	-0.639850	0.766606	-0.998545	0.034941	-0.041064
275	5040444													9.804971	-0.502306	-0.044140	-0.000493	-0.767694	-0.640816	-0.053990	-0.639861	0.766592	-0.998541	0.034976	-0.041132
276	5040610													9.802932	-0.429804	-0.040711	-0.000458	-0.767628	-0.640895	-0.054063	-0.639939	0.766522	-0.998537	0.035000	-0.041208
277	5040777													9.853925	-0.380269	0.001949	-0.000332	-0.767731	-0.640772	-0.054030	-0.639823	0.766621	-0.998539	0.034876	-0.041268
278	5040944													9.899548	-0.427262	0.029637	-0.000135	-0.767904	-0.640565	-0.053825	-0.639631	0.766796	-0.998550	0.034582	-0.041246
279	5041110													9.812133	-0.514514	0.106848	0.000225	-0.767843	-0.640638	-0.053730	-0.639722	0.766726	-0.998555	0.034248	-0.041400
280	5041277													9.778749	-0.462997	0.134015	0.000336	-0.767823	-0.640662	-0.053748	-0.639750	0.766702	-0.998554	0.034177	-0.041484
281	5041444													9.813617	-0.475875	0.076753	0.000438	-0.767905	-0.640564	-0.053694	-0.639658	0.766782	-0.998557	0.034058	-0.041512
282	5041610													9.773138	-0.486110	0.035927	0.000602	-0.767898	-0.640572	-0.053676	-0.639673	0.766771	-0.998558	0.033922	-0.041603
283	5041777													9.766063	-0.477094	0.025845	0.000658	-0.767897	-0.640573	-0.053722	-0.639675	0.766765	-0.998556	0.033908	-0.041674
284	5041944													9.793706	-0.480048	0.012594	0.000836	-0.767735	-0.640767	-0.053790	-0.639874	0.766595	-0.998552	0.033826	-0.041831
285	5042110													9.780535	-0.445091	0.033921	0.001055	-0.767584	-0.640947	-0.053872	-0.640060	0.766434	-0.998547	0.033720	-0.042026
286	5042277													9.804224	-0.478743	0.011736	0.001236	-0.767507	-0.641039	-0.053953	-0.640157	0.766347	-0.998543	0.033639	-0.042200
287	5042444													9.831533	-0.486937	0.047419	0.001425	-0.767408	-0.641157	-0.054043	-0.640280	0.766238	-0.998538	0.033558	-0.042386
288	5042610													9.837456	-0.482422	0.050795	0.001509	-0.767315	-0.641268	-0.054151	-0.640391	0.766138	-0.998532	0.033569	-0.042518
289	5042777													9.790286	-0.475892	0.054556	0.001675	-0.767225	-0.641376	-0.054338	-0.640500	0.766034	-0.998521	0.033568	-0.042762
290	5042944													9.829775	-0.441455	0.029526	0.001639	-0.767341	-0.641237	-0.054504	-0.640353	0.766145	-0.998512	0.033695	-0.042873
291	5043110													9.824660	-0.482699	0.011158	0.001673	-0.767396	-0.641171	-0.054601	-0.640285	0.766194	-0.998507	0.033727	-0.042972
292	5043277													9.743948	-0.467562	0.036417	0.001828	-0.767294	-0.641293	-0.054729	-0.640410	0.766081	-0.998500	0.033697	-0.043164
293	5043444													9.775583	-0.452249	0.070126	0.001708	-0.767309	-0.641275	-0.054845	-0.640383	0.766095	-0.998493	0.033862	-0.043176
294	5043610													9.818348	-0.476080	0.003992	0.001576	-0.767379	-0.641192	-0.054897	-0.640292	0.766167	-0.998491	0.033991	-0.043136
295	5043777													9.783988	-0.462500	0.024958	0.001472	-0.767344	-0.641234	-0.054908	-0.640329	0.766136	-0.998490	0.034082	-0.043076
296	5043944													9.777966	-0.466105	0.019118	0.001326	-0.767437	-0.641123	-0.054903	-0.640212	0.766234	-0.998491	0.034183	-0.042983
297	5044110													9.815306	-0.471723	0.036109	0.001287	-0.767433	-0.641128	-0.054898	-0.640216	0.766231	-0.998491	0.034211	-0.042954
298	5044277													9.806364	-0.479509	0.068420	0.001258	-0.767459	-0.641096	-0.054827	-0.640186	0.766261	-0.998495	0.034185	-0.042883
299	5044444													9.833702	-0.466513	0.037944	0.001166	-0.767568	-0.640967	-0.054736	-0.640055	0.766377	-0.998500	0.034191	-0.042760
300	5044610													9.816731	-0.491779	0.038323	0.001127	-0.767630	-0.640892	-0.054601	-0.639984	0.766446	-0.998508	0.034130	-0.042634
301	5044777													9.812222	-0.486947	0.057184	0.001079	-0.767690	-0.640821	-0.054472	-0.639915	0.766513	-0.998515	0.034079	-0.042508
302	5044944													9.815280	-0.483628	0.037021	0.001054	-0.767810	-0.640676	-0.054327	-0.639774	0.766640	-0.998523	0.033998	-0.042387
303	5045110													9.818284	-0.489482	0.033752	0.001081	-0.767848	-0.640632	-0.054185	-0.639736	0.766683	-0.998530	0.033884	-0.042298
304	5045277													9.816671	-0.487902	0.022594	0.001097	-0.767828	-0.640655	-0.054065	-0.639764	0.766667	-0.998537	0.033796	-0.042215
305	5045444													9.792027	-0.492497	0.014430	0.001131	-0.767732	-0.640770	-0.053924	-0.639884	0.766577	-0.998544	0.033686	-0.042123
306	5045610													9.803545	-0.482586	0.022400	0.001126	-0.767629	-0.640893	-0.053789	-0.640012	0.766480	-0.998552	0.033610	-0.042010
307	5045777													9.822801	-0.470856	0.016539	0.001172	-0.767534	-0.641007	-0.053690	-0.640131	0.766387	-0.998557	0.033518	-0.041959
308	5045944													9.820505	-0.472853	0.028949	0.001274	-0.767500	-0.641048	-0.053637	-0.640178	0.766352	-0.998560	0.033408	-0.041981
309	5046110													9.798350	-0.474999	0.021833	0.001397	-0.767483	-0.641068	-0.053580	-0.640205	0.766333	-0.998563	0.033278	-0.042016
310	5046277													9.806919	-0.486584	0.029312	0.001490	-0.767421	-0.641142	-0.053547	-0.640284	0.766269	-0.998564	0.033189	-0.042047
311	5046444													9.798579	-0.472067	0.040383	0.001561	-0.767334	-0.641246	-0.053549	-0.640391	0.766180	-0.998564	0.033142	-0.042089
312	5046610													9.789701	-0.460374	0.009835	0.001605	-0.767322	-0.641260	-0.053555	-0.640406	0.766167	-0.998564	0.033113	-0.042122
313	5046777													9.814858	-0.461145	-0.006151	0.001561	-0.767326	-0.641256	-0.053556	-0.640400	0.766172	-0.998564	0.033148	-0.042095
314	5046944													9.834870	-0.490384	-0.026611	0.001509	-0.767375	-0.641196	-0.053569	-0.640339	0.766222	-0.998563	0.033192	-0.042074
315	5047110													9.836249	-0.498182	-0.048600	0.001571	-0.767398	-0.641169	-0.053693	-0.640309	0.766238	-0.998556	0.033222	-0.042210
316	5047277													9.803253	-0.398158	0.023133	0.001773	-0.767414	-0.641150	-0.053714	-0.640298	0.766246	-0.998555	0.033080	-0.042356
317	5047444													9.860919	-0.417372	0.015027	0.001836	-0.767672	-0.640840	-0.053527	-0.639998	0.766510	-0.998565	0.032895	-0.042266
318	5047610													9.898685	-0.502509	0.060629	0.002168	-0.767732	-0.640768	-0.053304	-0.639947	0.766568	-0.998576	0.032493	-0.042310
319	5047777													9.769679	-0.469596	0.141236	0.002510	-0.767555	-0.640979	-0.053299	-0.640172	0.766380	-0.998575	0.032240	-0.042517
320	5047944													9.830762	-0.432342	0.129380	0.002556	-0.767596	-0.640929	-0.053312	-0.640125	0.766419	-0.998575	0.032210	-0.042558
321	5048110													9.817279	-0.499224	0.079564	0.002653	-0.767798	-0.640686	-0.053253	-0.639888	0.766621	-0.998578	0.032085	-0.042585
322	5048277													9.775219	-0.519830	0.065477	0.002763	-0.767865	-0.640605	-0.053242	-0.639812	0.766685	-0.998578	0.031989	-0.042651
323	5048444													9.779834	-0.510059	0.033134	0.002765	-0.767850	-0.640624	-0.053296	-0.639829	0.766667	-0.998575	0.032023	-0.042692
324	5048610													9.781461	-0.502476	0.019311	0.002901	-0.767755	-0.640736	-0.053360	-0.639945	0.766566	-0.998571	0.031966	-0.042824
325	5048777													9.768258	-0.485804	0.042541	0.003039	-0.767728	-0.640769	-0.053486	-0.639979	0.766528	-0.998564	0.031943	-0.043008
326	5048944													9.798223	-0.502042	0.021028	0.003112	-0.767742	-0.640752	-0.053554	-0.639963	0.766537	-0.998560	0.031930	-0.043107
327	5049110													9.834605	-0.486243	0.067447	0.003152	-0.767665	-0.640844	-0.053646	-0.640054	0.766455	-0.998555	0.031963	-0.043200
328	5049277													9.807714	-0.488358	0.032032	0.003109	-0.767585	-0.640940	-0.053721	-0.640145	0.766373	-0.998551	0.032049	-0.043226
329	5049444													9.784654	-0.456362	0.089276	0.003079	-0.767494	-0.641049	-0.053894	-0.640248	0.766276	-0.998542	0.032189	-0.043335
330	5049610													9.880761	-0.426420	0.034521	0.002897	-0.767542	-0.640992	-0.053945	-0.640182	0.766327	-0.998540	0.032358	-0.043260
331	5049777													9.827502	-0.487817	0.005623	0.002760	-0.767546	-0.640987	-0.053954	-0.640171	0.766336	-0.998540	0.032468	-0.043179
332	5049944													9.736952	-0.483358	0.072816	0.002734	-0.767455	-0.641097	-0.054001	-0.640277	0.766244	-0.998537	0.032525	-0.043194
333	5050110													9.821533	-0.472449	0.031811	0.002447	-0.767504	-0.641039	-0.054009	-0.640207	0.766301	-0.998537	0.032747	-0.043018
334	5050277													9.796540	-0.478379	0.029700	0.002249	-0.767552	-0.640982	-0.053975	-0.640143	0.766358	-0.998540	0.032873	-0.042868
335	5050444													9.775533	-0.479877	0.057424	0.002013	-0.767635	-0.640884	-0.053915	-0.640036	0.766451	-0.998544	0.033011	-0.042675
336	5050611													9.808813	-0.493695	0.033354	0.001752	-0.767667	-0.640846	-0.053830	-0.639990	0.766495	-0.998549	0.033154	-0.042445
337	5050777													9.802272	-0.464527	0.041534	0.001562	-0.767668	-0.640846	-0.053737	-0.639985	0.766506	-0.998554	0.033239	-0.042252
338	5050944													9.819718	-0.477045	0.042847	0.001362	-0.767693	-0.640817	-0.053611	-0.639952	0.766543	-0.998561	0.033311	-0.042029
339	5051111													9.819285	-0.491904	0.051261	0.001213	-0.767801	-0.640687	-0.053456	-0.639821	0.766662	-0.998569	0.033318	-0.041820
340	5051277													9.835687	-0.487727	0.055567	0.001069	-0.767866	-0.640610	-0.053292	-0.639744	0.766738	-0.998578	0.033320	-0.041605
341	5051444													9.826744	-0.488379	0.044111	0.000896	-0.767855	-0.640623	-0.053148	-0.639754	0.766740	-0.998586	0.033361	-0.041383
342	5051611													9.806693	-0.480699	0.014147	0.000780	-0.767866	-0.640610	-0.052997	-0.639742	0.766761	-0.998594	0.033352	-0.041194
343	5051777													9.816314	-0.481061	0.017008	0.000723	-0.767865	-0.640612	-0.052864	-0.639746	0.766767	-0.998601	0.033311	-0.041055
344	5051944													9.795193	-0.458284	-0.000962	0.000710	-0.767827	-0.640657	-0.052721	-0.639795	0.766735	-0.998609	0.033232	-0.040935
345	5052111													9.802219	-0.481000	0.013951	0.000681	-0.767816	-0.640670	-0.052604	-0.639810	0.766731	-0.998615	0.033180	-0.040826
346	5052277													9.821421	-0.475189	-0.005901	0.000705	-0.767739	-0.640762	-0.052518	-0.639907	0.766656	-0.998620	0.033111	-0.040771
347	5052444													9.814693	-0.470629	0.005948	0.000727	-0.767689	-0.640822	-0.052476	-0.639968	0.766607	-0.998622	0.033070	-0.040750
348	5052611													9.808213	-0.470454	0.018557	0.000730	-0.767665	-0.640851	-0.052448	-0.639998	0.766584	-0.998623	0.033051	-0.040729
349	5052777													9.815305	-0.470385	0.010894	0.000766	-0.767590	-0.640940	-0.052448	-0.640089	0.766508	-0.998623	0.033029	-0.040748
350	5052944													9.815215	-0.481129	0.012779	0.000859	-0.767508	-0.641039	-0.052467	-0.640191	0.766422	-0.998622	0.032975	-0.040819
351	5053111													9.797563	-0.473564	0.027965	0.000917	-0.767499	-0.641049	-0.052561	-0.640200	0.766408	-0.998617	0.032991	-0.040928
352	5053277													9.782963	-0.440765	0.014179	0.000954	-0.767491	-0.641059	-0.052652	-0.640209	0.766395	-0.998612	0.033022	-0.041020
353	5053444													9.822447	-0.435392	-0.006008	0.000953	-0.767550	-0.640988	-0.052681	-0.640137	0.766452	-0.998611	0.033038	-0.041046
354	5053611													9.845078	-0.480052	-0.015607	0.000943	-0.767608	-0.640919	-0.052736	-0.640065	0.766509	-0.998608	0.033077	-0.041084
355	5053777													9.794747	-0.486746	-0.044462	0.001003	-0.767586	-0.640946	-0.052818	-0.640092	0.766481	-0.998604	0.033084	-0.041184
356	5053944													9.825810	-0.391445	0.062607	0.001228	-0.767591	-0.640938	-0.052849	-0.640093	0.766478	-0.998602	0.032932	-0.041353
357	5054111													9.833822	-0.390753	0.036205	0.001346	-0.767893	-0.640577	-0.052699	-0.639742	0.766781	-0.998610	0.032726	-0.041329
358	5054277													9.866652	-0.511572	0.012909	0.001647	-0.767960	-0.640496	-0.052531	-0.639678	0.766845	-0.998618	0.032383	-0.041395
359	5054444													9.785054	-0.470719	0.108400	0.001907	-0.767888	-0.640581	-0.052513	-0.639775	0.766766	-0.998618	0.032177	-0.041544
360	5054611													9.837283	-0.436462	0.093285	0.002058	-0.767934	-0.640525	-0.052526	-0.639726	0.766807	-0.998617	0.032066	-0.041653
361	5054777													9.782890	-0.498401	0.065005	0.002221	-0.768063	-0.640371	-0.052504	-0.639578	0.766931	-0.998618	0.031918	-0.041747
362	5054944													9.781646	-0.529604	0.043215	0.002296	-0.768116	-0.640307	-0.052536	-0.639517	0.766980	-0.998616	0.031879	-0.041822
363	5055111													9.809955	-0.508501	0.050141	0.002448	-0.768004	-0.640440	-0.052627	-0.639653	0.766860	-0.998611	0.031827	-0.041984
364	5055277													9.773509	-0.498781	0.029620	0.002722	-0.767879	-0.640589	-0.052746	-0.639810	0.766721	-0.998604	0.031702	-0.042244
365	5055444													9.775149	-0.490154	0.011879	0.002972	-0.767827	-0.640650	-0.052906	-0.639877	0.766654	-0.998595	0.031616	-0.042525
366	5055611													9.796139	-0.499773	0.010756	0.003232	-0.767784	-0.640700	-0.053060	-0.639933	0.766597	-0.998586	0.031518	-0.042807
367	5055777													9.842651	-0.491617	0.051333	0.003526	-0.767698	-0.640803	-0.053221	-0.640042	0.766494	-0.998577	0.031402	-0.043114
368	5055944													9.825110	-0.483927	0.057445	0.003710	-0.767615	-0.640901	-0.053372	-0.640144	0.766399	-0.998568	0.031363	-0.043344
369	5056111													9.798040	-0.484763	0.084997	0.003914	-0.767507	-0.641029	-0.053613	-0.640273	0.766274	-0.998554	0.031369	-0.043654
370	5056277													9.827370	-0.433311	0.047710	0.003920	-0.767610	-0.640905	-0.053748	-0.640146	0.766371	-0.998547	0.031444	-0.043767
371	5056444													9.839919	-0.483199	0.032039	0.003980	-0.767728	-0.640764	-0.053813	-0.640005	0.766484	-0.998543	0.031430	-0.043861
372	5056611													9.757854	-0.495936	0.076423	0.004174	-0.767628	-0.640882	-0.053935	-0.640128	0.766373	-0.998536	0.031367	-0.044074
373	5056777													9.802034	-0.460438	0.060739	0.003979	-0.767659	-0.640846	-0.054087	-0.640078	0.766404	-0.998528	0.031612	-0.044067
374	5056944													9.808775	-0.470897	0.015077	0.003957	-0.767697	-0.640801	-0.054121	-0.640031	0.766440	-0.998527	0.031648	-0.044081
375	5057111													9.790719	-0.508183	0.062301	0.003926	-0.767729	-0.640762	-0.054134	-0.639991	0.766473	-0.998526	0.031678	-0.044073
376	5057277													9.800492	-0.488717	0.052914	0.003821	-0.767816	-0.640659	-0.054144	-0.639882	0.766563	-0.998526	0.031758	-0.044018
377	5057444													9.816528	-0.489551	0.047789	0.003724	-0.767789	-0.640692	-0.054095	-0.639913	0.766541	-0.998529	0.031804	-0.043917
378	5057611													9.819890	-0.469628	0.063939	0.003616	-0.767834	-0.640639	-0.053973	-0.639859	0.766595	-0.998536	0.031805	-0.043756
379	5057777													9.808650	-0.506552	0.051515	0.003473	-0.767931	-0.640523	-0.053867	-0.639741	0.766701	-0.998542	0.031840	-0.043588
380	5057944													9.828118	-0.500351	0.051090	0.003363	-0.767986	-0.640457	-0.053705	-0.639676	0.766767	-0.998551	0.031817	-0.043396
381	5058111													9.823881	-0.496642	0.082196	0.003263	-0.767994	-0.640448	-0.053562	-0.639667	0.766784	-0.998559	0.031802	-0.043222
382	5058277													9.802284	-0.490319	0.037160	0.003231	-0.767996	-0.640446	-0.053415	-0.639668	0.766793	-0.998567	0.031732	-0.043090
383	5058444													9.818237	-0.493763	0.054033	0.003187	-0.768009	-0.640431	-0.053269	-0.639656	0.766813	-0.998575	0.031671	-0.042950
384	5058611													9.808950	-0.504617	0.047059	0.003163	-0.768026	-0.640410	-0.053116	-0.639639	0.766838	-0.998583	0.031590	-0.042818
385	5058777													9.806425	-0.490198	0.030426	0.003128	-0.767962	-0.640487	-0.052962	-0.639719	0.766782	-0.998592	0.031523	-0.042674
386	5058944													9.826327	-0.487844	0.011408	0.003096	-0.767928	-0.640529	-0.052855	-0.639762	0.766753	-0.998597	0.031482	-0.042570
387	5059111													9.837027	-0.492934	0.028349	0.003102	-0.767890	-0.640575	-0.052767	-0.639811	0.766719	-0.998602	0.031423	-0.042503
388	5059277													9.809030	-0.482394	0.033936	0.003179	-0.767793	-0.640690	-0.052717	-0.639931	0.766622	-0.998604	0.031338	-0.042510
389	5059444													9.802832	-0.475078	0.035869	0.003276	-0.767742	-0.640751	-0.052664	-0.639998	0.766570	-0.998607	0.031233	-0.042529
390	5059611													9.789718	-0.482677	0.061546	0.003331	-0.767713	-0.640785	-0.052632	-0.640035	0.766541	-0.998608	0.031173	-0.042538
391	5059777													9.793297	-0.469678	0.044656	0.003353	-0.767685	-0.640819	-0.052657	-0.640069	0.766511	-0.998607	0.031174	-0.042570
392	5059944													9.783591	-0.456281	0.029050	0.003412	-0.767682	-0.640822	-0.052640	-0.640075	0.766507	-0.998608	0.031118	-0.042594
393	5060111													9.846827	-0.471902	0.029965	0.003416	-0.767731	-0.640763	-0.052574	-0.640018	0.766559	-0.998611	0.031069	-0.042549
394	5060277													9.809268	-0.527963	-0.041008	0.003472	-0.767743	-0.640749	-0.052624	-0.640005	0.766567	-0.998608	0.031057	-0.042624
395	5060444													9.822680	-0.439371	0.023649	0.003763	-0.767661	-0.640845	-0.052640	-0.640113	0.766475	-0.998606	0.030850	-0.042818
396	5060611													9.817166	-0.380948	0.096047	0.004036	-0.767855	-0.640611	-0.052561	-0.639894	0.766664	-0.998610	0.030576	-0.042942
397	5060777													9.861378	-0.464783	0.026321	0.004203	-0.768090	-0.640328	-0.052281	-0.639627	0.766905	-0.998624	0.030253	-0.042845
398	5060944													9.828472	-0.505637	0.077351	0.004582	-0.767962	-0.640479	-0.052138	-0.639798	0.766773	-0.998629	0.029879	-0.042971
399	5061111													9.807351	-0.411228	0.131618	0.004702	-0.767987	-0.640448	-0.052102	-0.639774	0.766795	-0.998631	0.029763	-0.043022
400	5061277													9.803992	-0.451192	0.112081	0.004885	-0.768169	-0.640228	-0.052037	-0.639564	0.766975	-0.998633	0.029569	-0.043097
401	5061444													9.776103	-0.524830	0.088025	0.004996	-0.768253	-0.640127	-0.051997	-0.639469	0.767057	-0.998635	0.029452	-0.043142
402	5061611													9.788824	-0.514809	0.049741	0.005111	-0.768277	-0.640097	-0.051972	-0.639445	0.767078	-0.998635	0.029347	-0.043197
403	5061777													9.788990	-0.503927	0.055193	0.005327	-0.768202	-0.640185	-0.051992	-0.639541	0.766997	-0.998633	0.029199	-0.043347
404	5061944													9.764295	-0.488384	0.074874	0.005571	-0.768183	-0.640206	-0.052069	-0.639570	0.766967	-0.998628	0.029062	-0.043562
405	5062111													9.799417	-0.496619	0.041485	0.005788	-0.768151	-0.640242	-0.052140	-0.639614	0.766926	-0.998623	0.028943	-0.043753
406	5062277													9.819614	-0.481049	0.075760	0.006029	-0.768065	-0.640343	-0.052187	-0.639724	0.766831	-0.998619	0.028794	-0.043940
407	5062444													9.826936	-0.484389	0.117379	0.006172	-0.767936	-0.640497	-0.052240	-0.639882	0.766695	-0.998615	0.028727	-0.044066
408	5062611													9.833287	-0.494925	0.077555	0.006277	-0.767803	-0.640655	-0.052334	-0.640042	0.766556	-0.998610	0.028716	-0.044200
409	5062777													9.794517	-0.427822	0.101214	0.006305	-0.767724	-0.640750	-0.052482	-0.640133	0.766469	-0.998602	0.028795	-0.044328
410	5062944													9.864824	-0.418220	0.040676	0.006371	-0.767799	-0.640659	-0.052415	-0.640048	0.766545	-0.998605	0.028697	-0.044322
411	5063111													9.799587	-0.515456	0.052295	0.006503	-0.767774	-0.640687	-0.052379	-0.640083	0.766518	-0.998606	0.028573	-0.044378
412	5063277													9.744261	-0.477104	0.105395	0.006475	-0.767711	-0.640764	-0.052445	-0.640156	0.766452	-0.998603	0.028642	-0.044408
413	5063444													9.832212	-0.458659	0.035798	0.006428	-0.767746	-0.640722	-0.052423	-0.640113	0.766490	-0.998604	0.028661	-0.044362
414	5063611													9.777750	-0.496563	0.062122	0.006459	-0.767803	-0.640653	-0.052360	-0.640047	0.766549	-0.998607	0.028594	-0.044336
415	5063777													9.791626	-0.489554	0.094251	0.006431	-0.767806	-0.640650	-0.052343	-0.640043	0.766554	-0.998608	0.028604	-0.044305
416	5063944													9.808868	-0.498849	0.077085	0.006375	-0.767869	-0.640575	-0.052296	-0.639967	0.766621	-0.998611	0.028613	-0.044236
417	5064111													9.821507	-0.477238	0.104747	0.006375	-0.767908	-0.640528	-0.052248	-0.639922	0.766661	-0.998614	0.028579	-0.044202
418	5064277													9.812243	-0.474208	0.096411	0.006343	-0.768010	-0.640407	-0.052161	-0.639802	0.766768	-0.998619	0.028541	-0.044118
419	5064444													9.827339	-0.497744	0.084109	0.006291	-0.768101	-0.640298	-0.052070	-0.639693	0.766865	-0.998624	0.028516	-0.044020
420	5064611													9.808832	-0.474373	0.097902	0.006229	-0.768098	-0.640302	-0.051975	-0.639698	0.766867	-0.998629	0.028503	-0.043906
421	5064777													9.812737	-0.475174	0.078047	0.006172	-0.768097	-0.640304	-0.051880	-0.639699	0.766872	-0.998634	0.028486	-0.043797
422	5064944													9.819249	-0.494221	0.041427	0.006134	-0.768063	-0.640345	-0.051833	-0.639740	0.766841	-0.998637	0.028487	-0.043735
423	5065111													9.815062	-0.480710	0.054262	0.006149	-0.768018	-0.640398	-0.051771	-0.639796	0.766799	-0.998640	0.028439	-0.043695
424	5065277													9.804526	-0.474788	0.061940	0.006180	-0.767961	-0.640467	-0.051711	-0.639867	0.766744	-0.998643	0.028381	-0.043667
425	5065444													9.795979	-0.490806	0.070780	0.006214	-0.767920	-0.640515	-0.051636	-0.639919	0.766705	-0.998647	0.028309	-0.043629
426	5065611													9.816299	-0.478682	0.069139	0.006213	-0.767838	-0.640614	-0.051603	-0.640019	0.766625	-0.998648	0.028294	-0.043600
427	5065777													9.805614	-0.483653	0.087409	0.006236	-0.767736	-0.640736	-0.051635	-0.640140	0.766521	-0.998647	0.028304	-0.043634
428	5065944													9.815335	-0.464060	0.078714	0.006255	-0.767670	-0.640814	-0.051681	-0.640219	0.766452	-0.998644	0.028324	-0.043679
429	5066111													9.829459	-0.469967	0.072107	0.006283	-0.767644	-0.640845	-0.051719	-0.640250	0.766424	-0.998642	0.028328	-0.043724
430	5066277													9.797488	-0.474645	0.093157	0.006292	-0.767632	-0.640860	-0.051747	-0.640264	0.766410	-0.998640	0.028341	-0.043751
431	5066444													9.791688	-0.479466	0.074060	0.006300	-0.767608	-0.640889	-0.051795	-0.640291	0.766384	-0.998638	0.028367	-0.043792
432	5066611													9.763812	-0.471173	0.060816	0.006285	-0.767546	-0.640962	-0.051865	-0.640363	0.766320	-0.998634	0.028427	-0.043834
433	5066777													9.775960	-0.450477	0.060395	0.006267	-0.767544	-0.640966	-0.051935	-0.640363	0.766315	-0.998631	0.028486	-0.043876
434	5066944													9.838669	-0.469860	0.045886	0.006241	-0.767559	-0.640948	-0.051938	-0.640344	0.766330	-0.998631	0.028507	-0.043862
435	5067111													9.813466	-0.527930	-0.007070	0.006248	-0.767585	-0.640916	-0.052039	-0.640310	0.766352	-0.998625	0.028565	-0.043945
436	5067278													9.813749	-0.457294	0.056454	0.006404	-0.767466	-0.641057	-0.052124	-0.640455	0.766225	-0.998620	0.028507	-0.044105
437	5067444													9.848246	-0.392099	0.138499	0.006600	-0.767580	-0.640920	-0.052143	-0.640326	0.766332	-0.998618	0.028362	-0.044250
438	5067611													9.819997	-0.463801	0.083470	0.006713	-0.767863	-0.640579	-0.051939	-0.639997	0.766620	-0.998628	0.028125	-0.044179
439	5067778													9.846465	-0.529217	0.105559	0.006974	-0.767771	-0.640686	-0.051853	-0.640118	0.766525	-0.998630	0.027876	-0.044275
440	5067944													9.812621	-0.445183	0.160265	0.007074	-0.767649	-0.640832	-0.051867	-0.640267	0.766399	-0.998629	0.027817	-0.044345
441	5068111													9.829227	-0.444862	0.128686	0.007169	-0.767746	-0.640715	-0.051861	-0.640154	0.766494	-0.998629	0.027733	-0.044405
442	5068278													9.775595	-0.539389	0.112854	0.007212	-0.767849	-0.640590	-0.051879	-0.640032	0.766595	-0.998627	0.027704	-0.044451
443	5068444													9.795929	-0.533359	0.069690	0.007186	-0.767880	-0.640553	-0.051917	-0.639992	0.766626	-0.998626	0.027746	-0.044465
444	5068611													9.785234	-0.526429	0.071333	0.007311	-0.767750	-0.640708	-0.052016	-0.640149	0.766488	-0.998619	0.027724	-0.044615
445	5068778													9.772966	-0.497540	0.070489	0.007445	-0.767666	-0.640807	-0.052170	-0.640251	0.766392	-0.998610	0.027725	-0.044816
446	5068944													9.788899	-0.506665	0.044093	0.007569	-0.767636	-0.640841	-0.052325	-0.640286	0.766353	-0.998601	0.027732	-0.045013
447	5069111													9.821008	-0.497695	0.082568	0.007720	-0.767549	-0.640944	-0.052497	-0.640391	0.766253	-0.998591	0.027732	-0.045238
448	5069278													9.831630	-0.485909	0.126165	0.007828	-0.767465	-0.641043	-0.052636	-0.640490	0.766160	-0.998583	0.027745	-0.045410
449	5069444													9.826900	-0.508876	0.083454	0.007834	-0.767373	-0.641153	-0.052785	-0.640596	0.766061	-0.998575	0.027842	-0.045524
450	5069611													9.796081	-0.459293	0.110592	0.007873	-0.767323	-0.641213	-0.052967	-0.640653	0.766002	-0.998565	0.027932	-0.045687
451	5069778													9.858817	-0.433976	0.072175	0.007859	-0.767407	-0.641113	-0.052988	-0.640551	0.766085	-0.998564	0.027951	-0.045697
452	5069944													9.800206	-0.514591	0.036720	0.007874	-0.767440	-0.641072	-0.052951	-0.640513	0.766120	-0.998566	0.027913	-0.045680
453	5070111													9.758171	-0.482022	0.087475	0.007859	-0.767360	-0.641169	-0.053022	-0.640606	0.766037	-0.998562	0.027976	-0.045722
454	5070278													9.817175	-0.469520	0.039825	0.007719	-0.767434	-0.641082	-0.052994	-0.640514	0.766116	-0.998565	0.028060	-0.045613
455	5070444													9.795796	-0.498255	0.069779	0.007665	-0.767531	-0.640965	-0.052926	-0.640397	0.766218	-0.998569	0.028051	-0.045531
456	5070611													9.791420	-0.528717	0.089977	0.007595	-0.767591	-0.640895	-0.052839	-0.640326	0.766284	-0.998574	0.028044	-0.045422
457	5070778													9.811581	-0.507814	0.092198	0.007441	-0.767630	-0.640851	-0.052737	-0.640278	0.766331	-0.998581	0.028095	-0.045247
458	5070944													9.808225	-0.504552	0.103613	0.007331	-0.767611	-0.640874	-0.052602	-0.640300	0.766322	-0.998589	0.028094	-0.045072
459	5071111													9.812226	-0.505629	0.121140	0.007177	-0.767667	-0.640809	-0.052456	-0.640232	0.766388	-0.998597	0.028114	-0.044864
460	5071278													9.822794	-0.492519	0.079878	0.007050	-0.767740	-0.640723	-0.052298	-0.640145	0.766472	-0.998607	0.028105	-0.044664
461	5071444													9.810693	-0.488370	0.092098	0.006949	-0.767764	-0.640696	-0.052128	-0.640118	0.766506	-0.998616	0.028071	-0.044470
462	5071611													9.805138	-0.489887	0.075594	0.006857	-0.767785	-0.640671	-0.051924	-0.640095	0.766539	-0.998628	0.028010	-0.044256
463	5071778													9.829696	-0.485198	0.083758	0.006762	-0.767767	-0.640693	-0.051737	-0.640118	0.766533	-0.998638	0.027964	-0.044051
464	5071944													9.822694	-0.490187	0.062180	0.006689	-0.767751	-0.640713	-0.051551	-0.640140	0.766526	-0.998648	0.027902	-0.043861
465	5072111													9.826395	-0.493849	0.061972	0.006629	-0.767708	-0.640766	-0.051396	-0.640195	0.766491	-0.998656	0.027852	-0.043701
466	5072278													9.811035	-0.493173	0.072000	0.006583	-0.767652	-0.640833	-0.051282	-0.640263	0.766442	-0.998663	0.027818	-0.043581
467	5072444													9.804073	-0.468470	0.089164	0.006530	-0.767546	-0.640961	-0.051163	-0.640391	0.766343	-0.998669	0.027790	-0.043452
468	5072611													9.813639	-0.471612	0.071370	0.006503	-0.767505	-0.641010	-0.051049	-0.640443	0.766308	-0.998675	0.027740	-0.043345
469	5072778													9.804984	-0.484062	0.074738	0.006462	-0.767411	-0.641123	-0.051009	-0.640555	0.766217	-0.998677	0.027752	-0.043284
470	5072944													9.833025	-0.478686	0.066353	0.006468	-0.767347	-0.641199	-0.050998	-0.640631	0.766153	-0.998678	0.027744	-0.043277
471	5073111													9.813978	-0.473762	0.077804	0.006497	-0.767355	-0.641189	-0.050997	-0.640623	0.766160	-0.998678	0.027721	-0.043294
472	5073278													9.810534	-0.485345	0.069590	0.006516	-0.767358	-0.641185	-0.051013	-0.640619	0.766162	-0.998677	0.027716	-0.043319
473	5073444													9.819257	-0.484572	0.041244	0.006569	-0.767399	-0.641137	-0.051034	-0.640572	0.766200	-0.998675	0.027687	-0.043372
474	5073611													9.793741	-0.453231	0.037897	0.006612	-0.767383	-0.641154	-0.051051	-0.640591	0.766183	-0.998674	0.027666	-0.043411
475	5073778													9.790778	-0.438339	0.065581	0.006670	-0.767414	-0.641118	-0.051078	-0.640556	0.766211	-0.998672	0.027636	-0.043470
476	5073944													9.850924	-0.454264	0.046512	0.006747	-0.767518	-0.640992	-0.051069	-0.640435	0.766313	-0.998672	0.027564	-0.043517
477	5074111													9.835861	-0.534743	0.043812	0.006877	-0.767621	-0.640867	-0.051145	-0.640313	0.766409	-0.998668	0.027507	-0.043663
478	5074278													9.815709	-0.481312	0.054310	0.007175	-0.767522	-0.640983	-0.051244	-0.640439	0.766297	-0.998660	0.027349	-0.043926
479	5074444													9.842270	-0.381059	0.127912	0.007500	-0.767621	-0.640861	-0.051277	-0.640331	0.766386	-0.998656	0.027114	-0.044163
480	5074611													9.831511	-0.430377	0.072678	0.007731	-0.767917	-0.640503	-0.051099	-0.639988	0.766684	-0.998664	0.026802	-0.044187
481	5074778													9.853861	-0.530458	0.067622	0.008142	-0.767849	-0.640580	-0.050943	-0.640088	0.766611	-0.998668	0.026391	-0.044328
482	5074944													9.800470	-0.435670	0.184753	0.008419	-0.767639	-0.640827	-0.050952	-0.640346	0.766394	-0.998666	0.026199	-0.044504
483	5075111													9.824100	-0.450856	0.126279	0.008615	-0.767723	-0.640724	-0.050934	-0.640253	0.766474	-0.998665	0.026031	-0.044619
484	5075278													9.794233	-0.511956	0.097770	0.008792	-0.767808	-0.640620	-0.050930	-0.640157	0.766554	-0.998664	0.025888	-0.044733
485	5075444													9.795628	-0.521251	0.067211	0.008880	-0.767744	-0.640696	-0.050987	-0.640235	0.766485	-0.998660	0.025861	-0.044830
486	5075611													9.779643	-0.502720	0.068202	0.009101	-0.767539	-0.640938	-0.051098	-0.640484	0.766270	-0.998652	0.025777	-0.045048
487	5075778													9.771733	-0.487840	0.118515	0.009359	-0.767390	-0.641112	-0.051286	-0.640665	0.766106	-0.998640	0.025710	-0.045352
488	5075944													9.787337	-0.502357	0.073791	0.009620	-0.767349	-0.641157	-0.051444	-0.640718	0.766051	-0.998630	0.025614	-0.045640
489	5076111													9.817374	-0.496038	0.111885	0.009902	-0.767291	-0.641223	-0.051591	-0.640792	0.765979	-0.998619	0.025496	-0.045931
490	5076278													9.820312	-0.477737	0.152630	0.010103	-0.767202	-0.641326	-0.051734	-0.640901	0.765879	-0.998610	0.025441	-0.046165
491	5076444													9.865704	-0.500269	0.074958	0.010209	-0.767180	-0.641351	-0.051917	-0.640926	0.765845	-0.998599	0.025479	-0.046372
492	5076611													9.798415	-0.475574	0.131506	0.010396	-0.767162	-0.641369	-0.052197	-0.640946	0.765809	-0.998583	0.025516	-0.046707
493	5076778													9.868145	-0.464397	0.133140	0.010547	-0.767301	-0.641201	-0.052319	-0.640782	0.765938	-0.998575	0.025468	-0.046903
494	5076944													9.812573	-0.527544	0.105651	0.010820	-0.767393	-0.641085	-0.052381	-0.640677	0.766021	-0.998569	0.025292	-0.047129
495	5077111													9.775392	-0.497102	0.196083	0.011079	-0.767438	-0.641028	-0.052535	-0.640628	0.766052	-0.998558	0.025190	-0.047415
496	5077278													9.812382	-0.497525	0.118993	0.011266	-0.767596	-0.640835	-0.052641	-0.640443	0.766200	-0.998550	0.025102	-0.047622
497	5077444													9.814332	-0.503622	0.147544	0.011608	-0.767683	-0.640724	-0.052703	-0.640347	0.766276	-0.998543	0.024873	-0.047892
498	5077611													9.791996	-0.508416	0.186745	0.011976	-0.767741	-0.640648	-0.052735	-0.640288	0.766323	-0.998537	0.024607	-0.048155
499	5077778													9.837956	-0.504178	0.194504	0.012374	-0.767753	-0.640626	-0.052688	-0.640286	0.766328	-0.998534	0.024271	-0.048374
500	5077944													9.822012	-0.495822	0.239057	0.012966	-0.767582	-0.640819	-0.052568	-0.640510	0.766148	-0.998533	0.023753	-0.048655
501	5078111													9.872074	-0.491044	0.156937	0.013794	-0.767545	-0.640847	-0.052348	-0.640584	0.766102	-0.998534	0.022979	-0.049016
502	5078278													9.885551	-0.505302	0.139573	0.015180	-0.767411	-0.640976	-0.052081	-0.640787	0.765950	-0.998527	0.021756	-0.049694
503	5078444													9.870515	-0.497452	0.118501	0.016971	-0.767299	-0.641065	-0.051814	-0.640971	0.765814	-0.998513	0.020220	-0.050635
504	5078611													9.876362	-0.501999	0.096352	0.019140	-0.767255	-0.641056	-0.051528	-0.641079	0.765743	-0.998488	0.018376	-0.051806
505	5078778													9.867505	-0.486559	0.100355	0.021610	-0.767277	-0.640952	-0.051241	-0.641109	0.765737	-0.998452	0.016295	-0.053171
506	5078944													9.842048	-0.495596	0.137453	0.024199	-0.767400	-0.640712	-0.051014	-0.641012	0.765834	-0.998405	0.014153	-0.054660
507	5079111													9.877028	-0.507532	0.104439	0.027067	-0.767563	-0.640402	-0.050796	-0.640865	0.765971	-0.998342	0.011797	-0.056336
508	5079278													9.874227	-0.498933	0.105979	0.030159	-0.767839	-0.639933	-0.050603	-0.640576	0.766226	-0.998263	0.009274	-0.058174
509	5079444													9.873813	-0.497851	0.117726	0.033520	-0.768074	-0.639483	-0.050438	-0.640327	0.766445	-0.998165	0.006563	-0.060204
510	5079611													9.809659	-0.513423	0.212866	0.036770	-0.768495	-0.638799	-0.050264	-0.639844	0.766859	-0.998059	0.003912	-0.062155
511	5079778													9.844953	-0.490859	0.251271	0.039947	-0.768944	-0.638067	-0.050169	-0.639315	0.767307	-0.997942	0.001360	-0.064116
512	5079944													9.881761	-0.483749	0.152317	0.042707	-0.769575	-0.637127	-0.050243	-0.638556	0.767933	-0.997824	-0.000784	-0.065937
513	5080111													9.947204	-0.502857	0.113550	0.046247	-0.770075	-0.636274	-0.050404	-0.637943	0.768432	-0.997658	-0.003467	-0.068317
514	5080278													9.893278	-0.466301	0.223883	0.050346	-0.770464	-0.635492	-0.050510	-0.637449	0.768835	-0.997454	-0.006609	-0.071009
515	5080444													9.783229	-0.500805	0.329507	0.054680	-0.770799	-0.634728	-0.050473	-0.637000	0.769210	-0.997227	-0.010024	-0.073736
516	5080611													9.796697	-0.484026	0.382654	0.058628	-0.771088	-0.634024	-0.050547	-0.636595	0.769540	-0.996999	-0.013069	-0.076299
517	5080778													9.834532	-0.472705	0.346025	0.062577	-0.771362	-0.633313	-0.050675	-0.636194	0.769863	-0.996753	-0.016083	-0.078900
518	5080944													9.907286	-0.404826	0.384378	0.066847	-0.771558	-0.632637	-0.050841	-0.635865	0.770124	-0.996467	-0.019316	-0.081732
519	5081111													9.907247	-0.459260	0.514591	0.071825	-0.771566	-0.632081	-0.051000	-0.635730	0.770225	-0.996113	-0.023085	-0.085011
520	5081278													9.810725	-0.447230	0.688175	0.077166	-0.771223	-0.631871	-0.051215	-0.635990	0.769996	-0.995702	-0.027056	-0.088575
521	5081444													9.730299	-0.356288	0.961667	0.082360	-0.770817	-0.631711	-0.051483	-0.636309	0.769715	-0.995272	-0.030872	-0.092090
522	5081611													9.700315	-0.364788	0.998596	0.086932	-0.770712	-0.631226	-0.051492	-0.636254	0.769759	-0.994883	-0.034414	-0.094996
523	5081778													9.770864	-0.466421	1.014593	0.091072	-0.770641	-0.630729	-0.051443	-0.636156	0.769844	-0.994515	-0.037664	-0.097580
524	5081944													9.821107	-0.489849	1.025557	0.095654	-0.770362	-0.630390	-0.051432	-0.636273	0.769747	-0.994085	-0.041207	-0.100483
525	5082111													9.722866	-0.458006	1.151107	0.100541	-0.770151	-0.629888	-0.051517	-0.636276	0.769739	-0.993598	-0.044941	-0.103648
526	5082278													9.653144	-0.498822	1.213792	0.105186	-0.770150	-0.629130	-0.051593	-0.636014	0.769951	-0.993113	-0.048529	-0.106634
527	5082444													9.661620	-0.519116	1.245286	0.109422	-0.770197	-0.628350	-0.051724	-0.635701	0.770200	-0.992649	-0.051776	-0.109398
528	5082611													9.727413	-0.532260	1.214707	0.113737	-0.770168	-0.627618	-0.051889	-0.635460	0.770388	-0.992155	-0.055056	-0.112239
529	5082778													9.761283	-0.532893	1.264270	0.118560	-0.769929	-0.627019	-0.052111	-0.635427	0.770400	-0.991579	-0.058664	-0.115458
530	5082944													9.693256	-0.537771	1.405436	0.124003	-0.769612	-0.626355	-0.052380	-0.635423	0.770385	-0.990898	-0.062721	-0.119107
531	5083111													9.663158	-0.537339	1.516353	0.129370	-0.769372	-0.625564	-0.052737	-0.635311	0.770454	-0.990193	-0.066684	-0.122765
532	5083278													9.694586	-0.521997	1.527882	0.134633	-0.769236	-0.624620	-0.053159	-0.635058	0.770633	-0.989469	-0.070548	-0.126392
533	5083444													9.752761	-0.559414	1.405111	0.139803	-0.769166	-0.623569	-0.053581	-0.634708	0.770892	-0.988729	-0.074361	-0.129947
534	5083611													9.829143	-0.550554	1.430298	0.145700	-0.768817	-0.622649	-0.054253	-0.634627	0.770912	-0.987840	-0.078541	-0.134176
535	5083778													9.804660	-0.556226	1.456314	0.152255	-0.768516	-0.621451	-0.054765	-0.634376	0.771082	-0.986823	-0.083367	-0.138674
536	5083945													9.784528	-0.539085	1.472607	0.159151	-0.768293	-0.619997	-0.055220	-0.633946	0.771404	-0.985709	-0.088533	-0.143318
537	5084111													9.787461	-0.588816	1.489057	0.166731	-0.767930	-0.618454	-0.055639	-0.633562	0.771689	-0.984431	-0.094255	-0.148361
538	5084278													9.785920	-0.566868	1.626429	0.174973	-0.767386	-0.616849	-0.056102	-0.633267	0.771897	-0.982974	-0.100455	-0.153856
539	5084445													9.728369	-0.579044	1.591057	0.183518	-0.766946	-0.614910	-0.056664	-0.632747	0.772283	-0.981382	-0.106884	-0.159579
540	5084611													9.753472	-0.597681	1.529116	0.192403	-0.766464	-0.612792	-0.057192	-0.632156	0.772727	-0.979648	-0.113628	-0.165465
541	5084778													9.789294	-0.567254	1.552895	0.201814	-0.765346	-0.611161	-0.057605	-0.632195	0.772665	-0.977728	-0.120728	-0.171674
542	5084945													9.812384	-0.550895	1.827379	0.212310	-0.763925	-0.609379	-0.057921	-0.632337	0.772525	-0.975484	-0.128718	-0.178499
543	5085111													9.617913	-0.544489	2.069103	0.223189	-0.762484	-0.607293	-0.058196	-0.632320	0.772518	-0.973036	-0.137076	-0.185501
544	5085278													9.508432	-0.504073	2.210957	0.233214	-0.761286	-0.605025	-0.058658	-0.632061	0.772695	-0.970655	-0.144714	-0.192061
545	5085445													9.549900	-0.516615	2.244277	0.242411	-0.760282	-0.602668	-0.059283	-0.631643	0.772989	-0.968361	-0.151654	-0.198189
546	5085611													9.566007	-0.517513	2.293795	0.251812	-0.759090	-0.600310	-0.059797	-0.631318	0.773216	-0.965927	-0.158808	-0.204365
547	5085778													9.451503	-0.541489	2.518008	0.261244	-0.757819	-0.597881	-0.060293	-0.630992	0.773443	-0.963388	-0.166009	-0.210534
548	5085945													9.358337	-0.565112	2.575587	0.270007	-0.756598	-0.595530	-0.060674	-0.630642	0.773698	-0.960945	-0.172771	-0.216184
549	5086111													9.345230	-0.534169	2.594184	0.278045	-0.755506	-0.593213	-0.061059	-0.630217	0.774014	-0.958625	-0.178990	-0.221360
550	5086278													9.346652	-0.565081	2.716627	0.285695	-0.754291	-0.591120	-0.061269	-0.629944	0.774220	-0.956360	-0.184973	-0.226186
551	5086445													9.250408	-0.640003	2.908542	0.293153	-0.752995	-0.589118	-0.061368	-0.629740	0.774378	-0.954094	-0.190858	-0.230820
552	5086611													9.168021	-0.714608	3.019113	0.299741	-0.751656	-0.587511	-0.061325	-0.629733	0.774387	-0.952048	-0.196086	-0.234852
553	5086778													9.237279	-0.704849	3.067066	0.305482	-0.749767	-0.586966	-0.060907	-0.630557	0.773749	-0.950248	-0.200616	-0.238290
554	5086945													9.322103	-0.526355	3.211293	0.310975	-0.747579	-0.586873	-0.060272	-0.631759	0.772818	-0.948505	-0.204956	-0.241519
555	5087111													9.201812	-0.519114	3.311981	0.316233	-0.745564	-0.586626	-0.059603	-0.632752	0.772057	-0.946807	-0.209185	-0.244535
556	5087278													9.224710	-0.547865	3.190063	0.321154	-0.743830	-0.586154	-0.059027	-0.633460	0.771521	-0.945186	-0.213178	-0.247345
557	5087445													9.370214	-0.521266	3.208658	0.326425	-0.742045	-0.585504	-0.058375	-0.634079	0.771062	-0.943419	-0.217515	-0.250296
558	5087611													9.170186	-0.516431	3.411563	0.332288	-0.740212	-0.584526	-0.057829	-0.634564	0.770704	-0.941403	-0.222293	-0.253664
559	5087778													9.042187	-0.567500	3.527690	0.337731	-0.738562	-0.583493	-0.057425	-0.634931	0.770431	-0.939489	-0.226691	-0.256848
560	5087945													9.086933	-0.548973	3.558031	0.343240	-0.736951	-0.582314	-0.057124	-0.635211	0.770223	-0.937509	-0.231107	-0.260127
561	5088111													9.204145	-0.590099	3.487987	0.349038	-0.735165	-0.581124	-0.056774	-0.635574	0.769949	-0.935387	-0.235749	-0.263578
562	5088278													9.205621	-0.572268	3.451009	0.355318	-0.733081	-0.579949	-0.056501	-0.636145	0.769498	-0.933036	-0.240648	-0.267453
563	5088445													9.160167	-0.488471	3.553803	0.361592	-0.730896	-0.578829	-0.056298	-0.636821	0.768954	-0.930635	-0.245461	-0.271417
564	5088611													9.241326	-0.503036	3.614319	0.368029	-0.728726	-0.577506	-0.056006	-0.637344	0.768541	-0.928126	-0.250502	-0.275374
565	5088778													9.110590	-0.466005	3.735917	0.375072	-0.726269	-0.576068	-0.055564	-0.637932	0.768086	-0.925329	-0.256079	-0.279624
566	5088945													9.065891	-0.507581	3.754455	0.382073	-0.723911	-0.574433	-0.055246	-0.638372	0.767743	-0.922479	-0.261599	-0.283897
567	5089111													9.033492	-0.563322	3.817436	0.389336	-0.721488	-0.572601	-0.055043	-0.638765	0.767430	-0.919450	-0.267271	-0.288407
568	5089278													8.983150	-0.569292	3.729441	0.396536	-0.719257	-0.570464	-0.054924	-0.638882	0.767342	-0.916375	-0.272947	-0.292844
569	5089445													9.077965	-0.602176	3.806617	0.403450	-0.716920	-0.568554	-0.054696	-0.639155	0.767131	-0.913366	-0.278401	-0.297079
570	5089611													8.986171	-0.609687	3.964151	0.410462	-0.714361	-0.566753	-0.054363	-0.639588	0.766793	-0.910256	-0.283929	-0.301362
571	5089778													8.919016	-0.597801	4.056106	0.417346	-0.711525	-0.565291	-0.053891	-0.640339	0.766200	-0.907148	-0.289306	-0.305588
572	5089945													8.888803	-0.563648	4.172986	0.424390	-0.708475	-0.563877	-0.053368	-0.641227	0.765493	-0.903906	-0.294774	-0.309940
573	5090111													8.840802	-0.576346	4.167400	0.431415	-0.705375	-0.562430	-0.052835	-0.642116	0.764785	-0.900605	-0.300223	-0.314286
574	5090278													8.894414	-0.564559	4.246022	0.438322	-0.702213	-0.561044	-0.052267	-0.643059	0.764031	-0.897297	-0.305568	-0.318570
575	5090445													8.878356	-0.510589	4.228850	0.445442	-0.698949	-0.559511	-0.051653	-0.643956	0.763317	-0.893820	-0.311113	-0.322947
576	5090611													8.840335	-0.533479	4.300287	0.452641	-0.695790	-0.557666	-0.051189	-0.644646	0.762765	-0.890222	-0.316713	-0.327410
577	5090778													8.786440	-0.515896	4.304840	0.459487	-0.692789	-0.555802	-0.050689	-0.645207	0.762325	-0.886737	-0.322105	-0.331581
578	5090945													8.768178	-0.489782	4.365046	0.466404	-0.689796	-0.553759	-0.050080	-0.645606	0.762026	-0.883153	-0.327680	-0.335659
579	5091111													8.645766	-0.554928	4.467417	0.473061	-0.686750	-0.551895	-0.049386	-0.646106	0.761648	-0.879645	-0.333050	-0.339563
580	5091278													8.583559	-0.484487	4.610298	0.479523	-0.683701	-0.550101	-0.048714	-0.646647	0.761232	-0.876176	-0.338231	-0.343387
581	5091445													8.511913	-0.478860	4.658653	0.485717	-0.680773	-0.548295	-0.048114	-0.647127	0.760863	-0.872791	-0.343183	-0.347075
582	5091611													8.543775	-0.453111	4.764074	0.491670	-0.677881	-0.546569	-0.047557	-0.647643	0.760458	-0.869482	-0.347901	-0.350665
583	5091778													8.539463	-0.452902	4.870733	0.497569	-0.674985	-0.544813	-0.047073	-0.648167	0.760042	-0.866146	-0.352527	-0.354281
584	5091945													8.479862	-0.445487	5.007942	0.503470	-0.672036	-0.543033	-0.046639	-0.648723	0.759594	-0.862753	-0.357107	-0.357956
585	5092111													8.449689	-0.379795	5.033509	0.509291	-0.669061	-0.541276	-0.046241	-0.649323	0.759106	-0.859351	-0.361577	-0.361632
586	5092278													8.377887	-0.315548	5.133389	0.515255	-0.666155	-0.539213	-0.045984	-0.649741	0.758763	-0.855802	-0.366162	-0.365415
587	5092445													8.313515	-0.333284	5.131319	0.521316	-0.663380	-0.536802	-0.045874	-0.649918	0.758618	-0.852130	-0.370855	-0.369245
588	5092611													8.255386	-0.391367	5.209435	0.527556	-0.660571	-0.534163	-0.045811	-0.649989	0.758562	-0.848284	-0.375713	-0.373167
589	5092778													8.228987	-0.401557	5.255098	0.533975	-0.657619	-0.531420	-0.045671	-0.650044	0.758523	-0.844266	-0.380762	-0.377142
590	5092945													8.233912	-0.397161	5.289978	0.540541	-0.654619	-0.528479	-0.045562	-0.650011	0.758557	-0.840083	-0.385953	-0.381184
591	5093111													8.193341	-0.392739	5.392771	0.547614	-0.651367	-0.525205	-0.045363	-0.649876	0.758686	-0.835501	-0.391642	-0.385429
592	5093278													8.186386	-0.455753	5.432169	0.554801	-0.647881	-0.521964	-0.044993	-0.649819	0.758756	-0.830766	-0.397474	-0.389670
593	5093445													8.161865	-0.438646	5.516831	0.562405	-0.644076	-0.518524	-0.044515	-0.649774	0.758823	-0.825663	-0.403684	-0.394107
594	5093611													8.062654	-0.520105	5.540135	0.570228	-0.639948	-0.515080	-0.043903	-0.649854	0.758790	-0.820313	-0.410069	-0.398661
595	5093778													8.047227	-0.451704	5.630816	0.578435	-0.635316	-0.511651	-0.043091	-0.650154	0.758579	-0.814589	-0.416741	-0.403449
596	5093945													7.964819	-0.397417	5.750386	0.586910	-0.630495	-0.507950	-0.042280	-0.650378	0.758433	-0.808548	-0.423655	-0.408371
597	5094111													7.818621	-0.440311	5.908968	0.595510	-0.625512	-0.504087	-0.041502	-0.650599	0.758287	-0.802275	-0.430646	-0.413398
598	5094278													7.880153	-0.401410	5.902215	0.603684	-0.620825	-0.500142	-0.040931	-0.650664	0.758262	-0.796173	-0.437279	-0.418206
599	5094445													7.789472	-0.352783	5.961625	0.612070	-0.615906	-0.496015	-0.040452	-0.650793	0.758177	-0.789769	-0.443993	-0.423245
600	5094611													7.641510	-0.318092	6.016815	0.620292	-0.611260	-0.491527	-0.040349	-0.650687	0.758273	-0.783332	-0.450518	-0.428280
601	5094778													7.591378	-0.288150	6.046864	0.628353	-0.606832	-0.486751	-0.040581	-0.650419	0.758490	-0.776869	-0.456847	-0.433319
602	5094945													7.542710	-0.266894	6.199383	0.636261	-0.602717	-0.481563	-0.041243	-0.649894	0.758905	-0.770370	-0.463001	-0.438360
603	5095111													7.536662	-0.388414	6.255491	0.644026	-0.598841	-0.476046	-0.042274	-0.649187	0.759453	-0.763835	-0.468983	-0.443409
604	5095278													7.487302	-0.523225	6.242695	0.651796	-0.594768	-0.470545	-0.043300	-0.648622	0.759878	-0.757157	-0.474911	-0.448523
605	5095445													7.430676	-0.436943	6.361310	0.659530	-0.590382	-0.465262	-0.044076	-0.648274	0.760130	-0.750384	-0.480822	-0.453578
606	5095611													7.363545	-0.489312	6.447801	0.667300	-0.585827	-0.459910	-0.044713	-0.647901	0.760411	-0.743446	-0.486859	-0.458538
607	5095778													7.334885	-0.397699	6.512067	0.675116	-0.580878	-0.454751	-0.044962	-0.647688	0.760578	-0.736340	-0.493032	-0.463382
608	5095945													7.220431	-0.449280	6.607313	0.683007	-0.575855	-0.449325	-0.045291	-0.647373	0.760827	-0.729007	-0.499299	-0.468241
609	5096111													7.167900	-0.479804	6.694003	0.690698	-0.570744	-0.444059	-0.045520	-0.647164	0.760991	-0.721709	-0.505401	-0.472975
610	5096278													7.068352	-0.439113	6.755880	0.698143	-0.565745	-0.438781	-0.045848	-0.646927	0.761172	-0.714489	-0.511290	-0.477586
611	5096445													6.940653	-0.494944	6.837868	0.705277	-0.560984	-0.433453	-0.046393	-0.646628	0.761393	-0.707413	-0.516884	-0.482078
612	5096611													6.873333	-0.512838	6.871105	0.711967	-0.556169	-0.428695	-0.046652	-0.646606	0.761397	-0.700662	-0.522090	-0.486308
613	5096778													6.806680	-0.469984	6.957597	0.718259	-0.551519	-0.424182	-0.046897	-0.646642	0.761351	-0.694193	-0.526954	-0.490321
614	5096945													6.698994	-0.481566	7.096291	0.724176	-0.547125	-0.419789	-0.047230	-0.646650	0.761323	-0.687996	-0.531505	-0.494130
615	5097111													6.666799	-0.530633	7.177065	0.729591	-0.543069	-0.415660	-0.047610	-0.646652	0.761298	-0.682225	-0.535646	-0.497647
616	5097278													6.592495	-0.524259	7.332393	0.734655	-0.539077	-0.411920	-0.047850	-0.646816	0.761144	-0.676751	-0.539468	-0.500981
617	5097445													6.528610	-0.481991	7.347690	0.739319	-0.535399	-0.408358	-0.048170	-0.646951	0.761009	-0.671630	-0.542958	-0.504093
618	5097611													6.456224	-0.541753	7.389226	0.743570	-0.532108	-0.404926	-0.048593	-0.646980	0.760957	-0.666890	-0.546148	-0.506931
619	5097778													6.449501	-0.574677	7.360653	0.747406	-0.529075	-0.401826	-0.049020	-0.647093	0.760834	-0.662557	-0.548955	-0.509576
620	5097945													6.350765	-0.483818	7.411922	0.750901	-0.526194	-0.399083	-0.049299	-0.647267	0.760667	-0.658572	-0.551511	-0.511974
621	5098111													6.385180	-0.489813	7.456911	0.754124	-0.523516	-0.396519	-0.049571	-0.647430	0.760511	-0.654858	-0.553865	-0.514194
622	5098278													6.313686	-0.515242	7.459640	0.757055	-0.521086	-0.394129	-0.049858	-0.647559	0.760382	-0.651446	-0.556000	-0.516218
623	5098445													6.290424	-0.515215	7.499276	0.759770	-0.518687	-0.392062	-0.049982	-0.647803	0.760166	-0.648268	-0.557955	-0.518107
624	5098611													6.219861	-0.508138	7.549205	0.762308	-0.516450	-0.390085	-0.050036	-0.647937	0.760049	-0.645277	-0.559873	-0.519769
625	5098778													6.181005	-0.511340	7.567305	0.764745	-0.514239	-0.388232	-0.049968	-0.648049	0.759957	-0.642393	-0.561774	-0.521288
626	5098945													6.119579	-0.482730	7.579377	0.767111	-0.511985	-0.386539	-0.049711	-0.648171	0.759871	-0.639586	-0.563690	-0.522670
627	5099111													6.089779	-0.437733	7.659166	0.769413	-0.509786	-0.384867	-0.049404	-0.648219	0.759849	-0.636839	-0.565624	-0.523934
628	5099278													6.114408	-0.474386	7.687114	0.771595	-0.507744	-0.383193	-0.049116	-0.648152	0.759925	-0.634215	-0.567534	-0.525049
629	5099445													6.034841	-0.482252	7.725753	0.773722	-0.505781	-0.381496	-0.048866	-0.648032	0.760043	-0.631638	-0.569420	-0.526113
630	5099611													5.999245	-0.448424	7.744363	0.775662	-0.503917	-0.380021	-0.048569	-0.647982	0.760106	-0.629277	-0.571128	-0.527090
631	5099778													5.985713	-0.440238	7.711765	0.777406	-0.502236	-0.378680	-0.048377	-0.647994	0.760107	-0.627136	-0.572593	-0.528051
632	5099945													5.978349	-0.441407	7.719339	0.778987	-0.500721	-0.377437	-0.048272	-0.648035	0.760079	-0.625180	-0.573872	-0.528981
633	5100111													5.999555	-0.486902	7.715069	0.780324	-0.499490	-0.376303	-0.048294	-0.648056	0.760060	-0.623508	-0.574920	-0.529816
634	5100278													5.984729	-0.450340	7.754180	0.781451	-0.498406	-0.375401	-0.048328	-0.648175	0.759956	-0.622093	-0.575726	-0.530604
635	5100445													5.960470	-0.460092	7.760181	0.782355	-0.497561	-0.374639	-0.048468	-0.648320	0.759824	-0.620944	-0.576294	-0.531332
636	5100612													6.010484	-0.442111	7.754082	0.783133	-0.496773	-0.374058	-0.048598	-0.648572	0.759600	-0.619953	-0.576690	-0.532060
637	5100778													6.017689	-0.463666	7.774805	0.783735	-0.496176	-0.373590	-0.048773	-0.648810	0.759385	-0.619178	-0.576936	-0.532695
638	5100945													6.040438	-0.440769	7.757005	0.784249	-0.495733	-0.373098	-0.049061	-0.649003	0.759202	-0.618503	-0.577099	-0.533301
639	5101112													6.053001	-0.490008	7.775902	0.784684	-0.495337	-0.372710	-0.049348	-0.649252	0.758971	-0.617928	-0.577159	-0.533902
640	5101278													5.977448	-0.440192	7.806478	0.785106	-0.494910	-0.372388	-0.049609	-0.649562	0.758688	-0.617371	-0.577177	-0.534527
641	5101445													5.996779	-0.460075	7.735625	0.785423	-0.494609	-0.372118	-0.049902	-0.649844	0.758427	-0.616944	-0.577117	-0.535085
642	5101612													6.015073	-0.447715	7.750147	0.785724	-0.494276	-0.371927	-0.050141	-0.650174	0.758129	-0.616542	-0.577031	-0.535640
643	5101778													5.988386	-0.493564	7.783358	0.785932	-0.494094	-0.371728	-0.050436	-0.650423	0.757896	-0.616252	-0.576906	-0.536109
644	5101945													6.020602	-0.438375	7.701900	0.786055	-0.493907	-0.371716	-0.050636	-0.650757	0.757596	-0.616079	-0.576690	-0.536541
645	5102112													6.064072	-0.448287	7.751537	0.786146	-0.493825	-0.371634	-0.050928	-0.651025	0.757346	-0.615940	-0.576458	-0.536950
646	5102278													6.038279	-0.536442	7.685006	0.786178	-0.493820	-0.371572	-0.051250	-0.651274	0.757110	-0.615872	-0.576180	-0.537325
647	5102445													5.998289	-0.521602	7.707190	0.786153	-0.493899	-0.371522	-0.051545	-0.651439	0.756948	-0.615879	-0.575926	-0.537589
648	5102612													6.117722	-0.489803	7.714251	0.786125	-0.493943	-0.371520	-0.051741	-0.651583	0.756810	-0.615898	-0.575725	-0.537783
649	5102778													6.095334	-0.440669	7.740379	0.786195	-0.493829	-0.371524	-0.051760	-0.651701	0.756708	-0.615807	-0.575690	-0.537925
650	5102945													6.043148	-0.443245	7.746648	0.786354	-0.493606	-0.371485	-0.051718	-0.651814	0.756613	-0.615608	-0.575753	-0.538084
651	5103112													6.064239	-0.498012	7.726857	0.786535	-0.493510	-0.371230	-0.051868	-0.651806	0.756610	-0.615364	-0.575845	-0.538265
652	5103278													6.071630	-0.501912	7.727695	0.786735	-0.493403	-0.370946	-0.052011	-0.651774	0.756628	-0.615095	-0.575973	-0.538436
653	5103445													6.047682	-0.545383	7.731937	0.786889	-0.493364	-0.370672	-0.052142	-0.651682	0.756698	-0.614887	-0.576110	-0.538527
654	5103612													6.017126	-0.513669	7.682791	0.787029	-0.493323	-0.370428	-0.052249	-0.651597	0.756763	-0.614699	-0.576240	-0.538602
655	5103778													6.038905	-0.543458	7.709359	0.787168	-0.493264	-0.370211	-0.052330	-0.651528	0.756818	-0.614514	-0.576370	-0.538674
656	5103945													5.992028	-0.549388	7.726593	0.787270	-0.493156	-0.370138	-0.052325	-0.651548	0.756800	-0.614384	-0.576439	-0.538749
657	5104112													5.996190	-0.535673	7.759537	0.787350	-0.493080	-0.370071	-0.052361	-0.651585	0.756767	-0.614279	-0.576463	-0.538843
658	5104278													6.009405	-0.574178	7.759326	0.787337	-0.493115	-0.370051	-0.052415	-0.651589	0.756759	-0.614290	-0.576429	-0.538867
659	5104445													6.039427	-0.551733	7.754381	0.787245	-0.493104	-0.370262	-0.052341	-0.651718	0.756653	-0.614415	-0.576291	-0.538872
660	5104612													5.999818	-0.547067	7.833407	0.787030	-0.493215	-0.370570	-0.052295	-0.651859	0.756535	-0.614694	-0.576037	-0.538826
661	5104778													6.001280	-0.606533	7.802342	0.786624	-0.493433	-0.371142	-0.052151	-0.652056	0.756375	-0.615226	-0.575628	-0.538656
662	5104945													5.971729	-0.557022	7.795431	0.786020	-0.493935	-0.371753	-0.052080	-0.652116	0.756328	-0.616003	-0.575128	-0.538301
663	5105112													6.015319	-0.513983	7.725945	0.785145	-0.494860	-0.372372	-0.052229	-0.652034	0.756389	-0.617105	-0.574426	-0.537787
664	5105278													6.038278	-0.515664	7.657479	0.784031	-0.496242	-0.372880	-0.052681	-0.651750	0.756602	-0.618482	-0.573555	-0.537135
665	5105445													6.065070	-0.545843	7.706118	0.782611	-0.497767	-0.373829	-0.052900	-0.651524	0.756781	-0.620260	-0.572490	-0.536221
666	5105612													5.964097	-0.492575	7.751776	0.780900	-0.499536	-0.375046	-0.053024	-0.651246	0.757012	-0.622402	-0.571264	-0.535045
667	5105778													5.978199	-0.497564	7.726574	0.778953	-0.501580	-0.376363	-0.053151	-0.650831	0.757360	-0.624825	-0.569944	-0.533626
668	5105945													6.085771	-0.497933	7.721090	0.776823	-0.503869	-0.377707	-0.053249	-0.650214	0.757883	-0.627464	-0.568628	-0.531931
669	5106112													6.129449	-0.590744	7.738860	0.774561	-0.506246	-0.379171	-0.053209	-0.649509	0.758490	-0.630258	-0.567321	-0.530020
670	5106278													6.096414	-0.521296	7.709480	0.772240	-0.508524	-0.380852	-0.052932	-0.648868	0.759058	-0.633122	-0.566016	-0.527999
671	5106445													6.101282	-0.537063	7.651570	0.769913	-0.510917	-0.382358	-0.052731	-0.648053	0.759768	-0.635967	-0.564793	-0.525885
672	5106612													6.174370	-0.578092	7.587592	0.767650	-0.513303	-0.383710	-0.052544	-0.647128	0.760569	-0.638712	-0.563689	-0.523738
673	5106778													6.198838	-0.574948	7.527342	0.765480	-0.515609	-0.384952	-0.052328	-0.646153	0.761412	-0.641329	-0.562702	-0.521598
674	5106945													6.296433	-0.559088	7.494381	0.763352	-0.517781	-0.386260	-0.052034	-0.645284	0.762168	-0.643884	-0.561704	-0.519521
675	5107112													6.281390	-0.540130	7.464431	0.761269	-0.519859	-0.387577	-0.051741	-0.644504	0.762849	-0.646368	-0.560679	-0.517539
676	5107278													6.325651	-0.519148	7.443536	0.759201	-0.521844	-0.388963	-0.051465	-0.643878	0.763395	-0.648818	-0.559552	-0.515690
677	5107445													6.400297	-0.535904	7.377220	0.757138	-0.523658	-0.390543	-0.051065	-0.643457	0.763778	-0.651256	-0.558342	-0.513926
678	5107612													6.468133	-0.512058	7.390231	0.755051	-0.525495	-0.392114	-0.050739	-0.643076	0.764120	-0.653700	-0.557054	-0.512218
679	5107778													6.494381	-0.528990	7.434781	0.752910	-0.527307	-0.393794	-0.050395	-0.642796	0.764378	-0.656191	-0.555663	-0.510541
680	5107945													6.482550	-0.512101	7.434689	0.750662	-0.529190	-0.395556	-0.050099	-0.642574	0.764584	-0.658785	-0.554127	-0.508867
681	5108112													6.503123	-0.515128	7.406854	0.748314	-0.531106	-0.397433	-0.049786	-0.642412	0.764740	-0.661474	-0.552479	-0.507168
682	5108278													6.465201	-0.526585	7.430372	0.745904	-0.533061	-0.399340	-0.049506	-0.642275	0.764874	-0.664211	-0.550752	-0.505466
683	5108445													6.486082	-0.490064	7.352414	0.743374	-0.535071	-0.401365	-0.049263	-0.642226	0.764930	-0.667060	-0.548857	-0.503773
684	5108612													6.496617	-0.469915	7.302033	0.740719	-0.537092	-0.403568	-0.048987	-0.642295	0.764891	-0.670026	-0.546800	-0.502071
685	5108778													6.480246	-0.422543	7.273163	0.737966	-0.539275	-0.405696	-0.048917	-0.642341	0.764857	-0.673063	-0.544593	-0.500405
686	5108945													6.534793	-0.452922	7.261668	0.734948	-0.541782	-0.407828	-0.049064	-0.642315	0.764869	-0.676346	-0.542129	-0.498650
687	5109112													6.587372	-0.512424	7.219208	0.731701	-0.544462	-0.410091	-0.049284	-0.642321	0.764850	-0.679842	-0.539430	-0.496820
688	5109278													6.536607	-0.476653	7.165323	0.728317	-0.547284	-0.412353	-0.049656	-0.642334	0.764814	-0.683439	-0.536552	-0.494999
689	5109445													6.648401	-0.457342	7.173015	0.724621	-0.550417	-0.414688	-0.050105	-0.642226	0.764876	-0.687324	-0.533467	-0.492949
690	5109612													6.722744	-0.380389	7.176349	0.720839	-0.553541	-0.417113	-0.050416	-0.642087	0.764973	-0.691267	-0.530393	-0.490748
691	5109778													6.675274	-0.387501	7.138299	0.717006	-0.556671	-0.419547	-0.050720	-0.641943	0.765073	-0.695219	-0.527282	-0.488512
692	5109945													6.725829	-0.397317	7.081590	0.713057	-0.560193	-0.421585	-0.051437	-0.641493	0.765403	-0.699217	-0.524091	-0.486235
693	5110112													6.810062	-0.464077	7.039459	0.708715	-0.564215	-0.423539	-0.052377	-0.640765	0.765948	-0.703548	-0.520655	-0.483671
694	5110278													6.858051	-0.464716	7.016389	0.704175	-0.568405	-0.425503	-0.053354	-0.639944	0.766567	-0.708019	-0.517095	-0.480960
695	5110445													6.883839	-0.490150	6.956991	0.699314	-0.572750	-0.427688	-0.054252	-0.639121	0.767190	-0.712753	-0.513304	-0.478019
696	5110612													6.899551	-0.515876	6.871121	0.694122	-0.577049	-0.430360	-0.054867	-0.638511	0.767654	-0.717764	-0.509233	-0.474865
697	5110778													6.954496	-0.506097	6.847482	0.688627	-0.581466	-0.433232	-0.055444	-0.637940	0.768088	-0.722993	-0.504906	-0.471541
698	5110945													7.024777	-0.528354	6.845162	0.682863	-0.585919	-0.436345	-0.055975	-0.637493	0.768420	-0.728399	-0.500301	-0.468117
699	5111112													7.102098	-0.557344	6.773663	0.676832	-0.590505	-0.439547	-0.056552	-0.637044	0.768750	-0.733962	-0.495458	-0.464566
700	5111278													7.158516	-0.570455	6.720893	0.670768	-0.595028	-0.442733	-0.057158	-0.636640	0.769040	-0.739462	-0.490541	-0.461048
701	5111445													7.186169	-0.584166	6.695166	0.664520	-0.599710	-0.445825	-0.057968	-0.636177	0.769362	-0.745018	-0.485413	-0.457517
702	5111612													7.354005	-0.607487	6.561786	0.658007	-0.604551	-0.448938	-0.058939	-0.635710	0.769675	-0.750702	-0.479991	-0.453933
703	5111778													7.387650	-0.547034	6.466962	0.651681	-0.609179	-0.451899	-0.059880	-0.635246	0.769985	-0.756126	-0.474725	-0.450455
704	5111945													7.424788	-0.598136	6.384770	0.645222	-0.613881	-0.454795	-0.060890	-0.634712	0.770346	-0.761565	-0.469352	-0.446909
705	5112112													7.486437	-0.669174	6.285186	0.638746	-0.618420	-0.457778	-0.061764	-0.634259	0.770650	-0.766935	-0.463975	-0.443326
706	5112278													7.525185	-0.692908	6.226378	0.632224	-0.622800	-0.460883	-0.062491	-0.633903	0.770883	-0.772261	-0.458570	-0.439688
707	5112445													7.552599	-0.662748	6.112931	0.625666	-0.627129	-0.463952	-0.063112	-0.633484	0.771178	-0.777534	-0.453219	-0.435929
708	5112612													7.651220	-0.686766	6.027423	0.619015	-0.631212	-0.467324	-0.063322	-0.633205	0.771389	-0.782822	-0.447909	-0.431933
709	5112778													7.699754	-0.686271	5.969581	0.612279	-0.635193	-0.470790	-0.063310	-0.632930	0.771616	-0.788103	-0.442639	-0.427744
710	5112945													7.790260	-0.710429	5.930348	0.605480	-0.639027	-0.474382	-0.063078	-0.632719	0.771808	-0.793357	-0.437391	-0.423407
711	5113112													7.780529	-0.681810	5.793184	0.598596	-0.642598	-0.478280	-0.062540	-0.632732	0.771842	-0.798606	-0.432110	-0.418938
712	5113278													7.825939	-0.652296	5.782830	0.591499	-0.646248	-0.482175	-0.061994	-0.632685	0.771924	-0.803919	-0.426700	-0.414296
713	5113445													7.898002	-0.645915	5.662673	0.584214	-0.649968	-0.486041	-0.061480	-0.632589	0.772044	-0.809267	-0.421157	-0.409528
714	5113612													7.995010	-0.645682	5.669309	0.576803	-0.653669	-0.489913	-0.060918	-0.632484	0.772174	-0.814609	-0.415548	-0.404639
715	5113778													8.047260	-0.625385	5.624981	0.569306	-0.657264	-0.493857	-0.060283	-0.632464	0.772241	-0.819912	-0.409871	-0.399687
716	5113945													8.117052	-0.625671	5.550389	0.561785	-0.660776	-0.497767	-0.059652	-0.632478	0.772278	-0.825130	-0.404162	-0.394733
717	5114112													8.082482	-0.599052	5.463416	0.554217	-0.664336	-0.501499	-0.059086	-0.632373	0.772407	-0.830272	-0.398450	-0.389725
718	5114278													8.144514	-0.626999	5.360802	0.546334	-0.668005	-0.505261	-0.058514	-0.632215	0.772581	-0.835521	-0.392522	-0.384488
719	5114445													8.197673	-0.605856	5.262629	0.538278	-0.671549	-0.509195	-0.057863	-0.632217	0.772628	-0.840779	-0.386425	-0.379166
720	5114612													8.299973	-0.583501	5.206558	0.530001	-0.675216	-0.513013	-0.057361	-0.632131	0.772736	-0.846055	-0.380124	-0.373761
721	5114778													8.296856	-0.574528	5.108495	0.521796	-0.678784	-0.516702	-0.056861	-0.632025	0.772859	-0.851173	-0.373895	-0.368385
722	5114945													8.319154	-0.572602	5.042431	0.513408	-0.682376	-0.520361	-0.056542	-0.631960	0.772936	-0.856280	-0.367409	-0.363037
723	5115112													8.387300	-0.564348	4.913903	0.504939	-0.685967	-0.523914	-0.056242	-0.631833	0.773061	-0.861321	-0.360882	-0.357617
724	5115278													8.399674	-0.566213	4.841385	0.496290	-0.689513	-0.527511	-0.055812	-0.631705	0.773197	-0.866361	-0.354288	-0.351992
725	5115445													8.465779	-0.560507	4.727055	0.487272	-0.693266	-0.530988	-0.055569	-0.631444	0.773428	-0.871481	-0.347363	-0.346209
726	5115612													8.547583	-0.539926	4.743898	0.478144	-0.697034	-0.534343	-0.055333	-0.631095	0.773730	-0.876537	-0.340387	-0.340323
727	5115778													8.604310	-0.567405	4.592129	0.468897	-0.700965	-0.537386	-0.055281	-0.630515	0.774206	-0.881521	-0.333316	-0.334396
728	5115945													8.697066	-0.606386	4.540198	0.459528	-0.704956	-0.540251	-0.055337	-0.629822	0.774766	-0.886438	-0.326130	-0.328431
729	5116112													8.774615	-0.528453	4.477540	0.450183	-0.708782	-0.543105	-0.055363	-0.629209	0.775262	-0.891219	-0.318941	-0.322500
730	5116278													8.856123	-0.466541	4.451376	0.441245	-0.712369	-0.545741	-0.055191	-0.628536	0.775820	-0.895688	-0.312207	-0.316655
731	5116445													8.847817	-0.480348	4.341344	0.432460	-0.715827	-0.548242	-0.054949	-0.627835	0.776405	-0.899977	-0.305639	-0.310847
732	5116612													8.840628	-0.530934	4.338255	0.423784	-0.719160	-0.550650	-0.054723	-0.627159	0.776966	-0.904108	-0.299133	-0.305135
733	5116778													8.883359	-0.588379	4.199358	0.415036	-0.722403	-0.553064	-0.054506	-0.626544	0.777478	-0.908171	-0.292536	-0.299414
734	5116945													8.921761	-0.516498	4.068982	0.406241	-0.725620	-0.555377	-0.054431	-0.625926	0.777981	-0.912143	-0.285818	-0.293773
735	5117112													8.963140	-0.501260	3.985235	0.397715	-0.728710	-0.557498	-0.054407	-0.625283	0.778499	-0.915894	-0.279289	-0.288332
736	5117279													8.947942	-0.569875	3.878854	0.389412	-0.731533	-0.559659	-0.054332	-0.624808	0.778886	-0.919460	-0.272900	-0.283053
737	5117445													8.998169	-0.546105	3.837711	0.381207	-0.734124	-0.561911	-0.054200	-0.624508	0.779135	-0.922900	-0.266556	-0.277856
738	5117612													9.019223	-0.514449	3.733080	0.373039	-0.736694	-0.564025	-0.054098	-0.624142	0.779435	-0.926237	-0.260247	-0.272683
739	5117779													9.152431	-0.542843	3.713452	0.364919	-0.739387	-0.565810	-0.054140	-0.623542	0.779913	-0.929464	-0.253973	-0.267573
740	5117945													9.152022	-0.522870	3.568944	0.356879	-0.742033	-0.567472	-0.054293	-0.622922	0.780397	-0.932572	-0.247698	-0.262595
741	5118112													9.192620	-0.550566	3.427786	0.348735	-0.744461	-0.569352	-0.054282	-0.622513	0.780725	-0.935648	-0.241361	-0.257503
742	5118279													9.242766	-0.517666	3.427263	0.340639	-0.746648	-0.571386	-0.054448	-0.622378	0.780821	-0.938616	-0.234867	-0.252660
743	5118445													9.369094	-0.538452	3.333484	0.332907	-0.748803	-0.573120	-0.054667	-0.622093	0.781033	-0.941374	-0.228681	-0.248034
744	5118612													9.273491	-0.485435	3.236109	0.325357	-0.750804	-0.574835	-0.054774	-0.621855	0.781215	-0.944003	-0.222688	-0.243449
745	5118779													9.234275	-0.547224	3.133453	0.317830	-0.752730	-0.576525	-0.054783	-0.621618	0.781403	-0.946564	-0.216770	-0.238806
746	5118945													9.332227	-0.557045	3.015662	0.309953	-0.754452	-0.578560	-0.054777	-0.621689	0.781347	-0.949172	-0.210490	-0.234021
747	5119112													9.394239	-0.467044	3.019810	0.302358	-0.755785	-0.580834	-0.054676	-0.622104	0.781023	-0.951625	-0.204391	-0.229421
748	5119279													9.359050	-0.475953	2.894505	0.294591	-0.757333	-0.582806	-0.054769	-0.622248	0.780902	-0.954053	-0.198127	-0.224787
749	5119445													9.468894	-0.541640	2.783515	0.287024	-0.758920	-0.584515	-0.054843	-0.622207	0.780929	-0.956352	-0.192089	-0.220209
750	5119612													9.444466	-0.512026	2.691104	0.279852	-0.760485	-0.585957	-0.054826	-0.622008	0.781089	-0.958476	-0.186463	-0.215764
751	5119779													9.430630	-0.525468	2.687196	0.272620	-0.762159	-0.587190	-0.054745	-0.621607	0.781414	-0.960563	-0.180883	-0.211187
752	5119945													9.508636	-0.519626	2.604916	0.265580	-0.763827	-0.588248	-0.054663	-0.621108	0.781816	-0.962538	-0.175479	-0.206707
753	5120112													9.538646	-0.510438	2.453390	0.258891	-0.765453	-0.589116	-0.054515	-0.620517	0.782296	-0.964367	-0.170413	-0.202375
754	5120279													9.552651	-0.515648	2.404711	0.252662	-0.766968	-0.589849	-0.054400	-0.619926	0.782773	-0.966024	-0.165689	-0.198355
755	5120445													9.581990	-0.513469	2.372162	0.246877	-0.768323	-0.590535	-0.054190	-0.619390	0.783211	-0.967530	-0.161356	-0.194548
756	5120612													9.508752	-0.478459	2.393246	0.241240	-0.769792	-0.590952	-0.054111	-0.618659	0.783794	-0.968956	-0.157105	-0.190899
757	5120779													9.600035	-0.482757	2.216117	0.235367	-0.771314	-0.591335	-0.054105	-0.617883	0.784406	-0.970399	-0.152629	-0.187161
758	5120945													9.714074	-0.489559	2.123387	0.230479	-0.772575	-0.591614	-0.054159	-0.617225	0.784920	-0.971569	-0.148867	-0.184100
759	5121112													9.573665	-0.485754	2.206475	0.225871	-0.773752	-0.591854	-0.054189	-0.616593	0.785415	-0.972649	-0.145330	-0.181199
760	5121279													9.550694	-0.523527	2.165619	0.220644	-0.775070	-0.592100	-0.054233	-0.615872	0.785978	-0.973845	-0.141309	-0.177923
761	5121445													9.625315	-0.515729	2.111526	0.215351	-0.776468	-0.592217	-0.054272	-0.615025	0.786637	-0.975027	-0.137262	-0.174587
762	5121612													9.615891	-0.469726	2.047879	0.210312	-0.777824	-0.592248	-0.054356	-0.614164	0.787305	-0.976122	-0.133388	-0.171445
763	5121779													9.678679	-0.501845	1.937225	0.205341	-0.779098	-0.592318	-0.054633	-0.613396	0.787884	-0.977164	-0.129425	-0.168520
764	5121945													9.693510	-0.538192	1.898584	0.201012	-0.780265	-0.592267	-0.055008	-0.612645	0.788442	-0.978043	-0.125907	-0.166070
765	5122112													9.591540	-0.523593	1.963719	0.196964	-0.781469	-0.592039	-0.055307	-0.611764	0.789105	-0.978849	-0.122682	-0.163716
766	5122279													9.527947	-0.509128	1.939931	0.192315	-0.782695	-0.591949	-0.055712	-0.610944	0.789711	-0.979751	-0.118895	-0.161099
767	5122445													9.636535	-0.539469	1.899514	0.187623	-0.783906	-0.591853	-0.056244	-0.610139	0.790296	-0.980630	-0.114990	-0.158566
768	5122612													9.649026	-0.542899	1.781925	0.182922	-0.784830	-0.592100	-0.056801	-0.609692	0.790600	-0.981485	-0.110986	-0.156106
769	5122779													9.660050	-0.526326	1.805209	0.178167	-0.785596	-0.592533	-0.057294	-0.609428	0.790768	-0.982331	-0.106940	-0.153590
770	5122945													9.766070	-0.525144	1.738501	0.173697	-0.786208	-0.593049	-0.057473	-0.609269	0.790878	-0.983121	-0.103289	-0.151014
771	5123112													9.675188	-0.569155	1.735846	0.169694	-0.786856	-0.593348	-0.057649	-0.608974	0.791092	-0.983809	-0.100037	-0.148701
772	5123279													9.627584	-0.631714	1.708830	0.165579	-0.787670	-0.593431	-0.058069	-0.608480	0.791442	-0.984485	-0.096586	-0.146491
773	5123445													9.656662	-0.641786	1.653268	0.161495	-0.788372	-0.593623	-0.058534	-0.608112	0.791690	-0.985136	-0.093107	-0.144354
774	5123612													9.570068	-0.594942	1.585844	0.156963	-0.789059	-0.593927	-0.058920	-0.607792	0.791907	-0.985845	-0.089306	-0.141892
775	5123779													9.584190	-0.640648	1.465654	0.151660	-0.789866	-0.594231	-0.059249	-0.607369	0.792207	-0.986655	-0.084939	-0.138913
776	5123945													9.740571	-0.634932	1.316563	0.146656	-0.790389	-0.594791	-0.059450	-0.607248	0.792285	-0.987399	-0.080832	-0.136045
777	5124112													9.766983	-0.611815	1.327223	0.142355	-0.790882	-0.595181	-0.059760	-0.607075	0.792394	-0.988010	-0.077233	-0.133683
778	5124279													9.719508	-0.600747	1.365621	0.138355	-0.791426	-0.595402	-0.060074	-0.606783	0.792594	-0.988559	-0.073891	-0.131495
779	5124445													9.733206	-0.609491	1.354038	0.134361	-0.791815	-0.595798	-0.060424	-0.606678	0.792648	-0.989089	-0.070500	-0.129358
780	5124612													9.748022	-0.645314	1.264844	0.130279	-0.792334	-0.596015	-0.060759	-0.606388	0.792844	-0.989614	-0.067078	-0.127141
781	5124779													9.684093	-0.646217	1.262845	0.126049	-0.792964	-0.596086	-0.060940	-0.605934	0.793178	-0.990150	-0.063654	-0.124701
782	5124945													9.735096	-0.595625	1.161975	0.121387	-0.793413	-0.596457	-0.061173	-0.605738	0.793309	-0.990718	-0.059810	-0.122064
783	5125112													9.835915	-0.554545	1.096725	0.117049	-0.793729	-0.596903	-0.061324	-0.605664	0.793354	-0.991231	-0.056257	-0.119567
784	5125279													9.767715	-0.605362	1.012438	0.112985	-0.793886	-0.597478	-0.061483	-0.605762	0.793267	-0.991693	-0.052893	-0.117253
785	5125445													9.748287	-0.596545	1.060866	0.109168	-0.793904	-0.598162	-0.061792	-0.606015	0.793049	-0.992101	-0.049614	-0.115214
786	5125612													9.746961	-0.611911	1.035320	0.105370	-0.794032	-0.598674	-0.062015	-0.606100	0.792967	-0.992498	-0.046429	-0.113106
787	5125779													9.745762	-0.591937	0.980374	0.101600	-0.794176	-0.599134	-0.062303	-0.606148	0.792908	-0.992872	-0.043232	-0.111064
788	5125945													9.738746	-0.617466	1.009118	0.097991	-0.794466	-0.599351	-0.062426	-0.605971	0.793034	-0.993227	-0.040295	-0.108975
789	5126112													9.748074	-0.602241	0.965123	0.094441	-0.794989	-0.599228	-0.062410	-0.605462	0.793423	-0.993572	-0.037534	-0.106796
790	5126279													9.786098	-0.597055	0.875181	0.091182	-0.795063	-0.599633	-0.062421	-0.605521	0.793378	-0.993876	-0.034912	-0.104841
791	5126445													9.811672	-0.599849	0.846547	0.088466	-0.794886	-0.600275	-0.062457	-0.605878	0.793102	-0.994119	-0.032671	-0.103246
792	5126612													9.723461	-0.605891	0.913412	0.085637	-0.794960	-0.600587	-0.062421	-0.605898	0.793089	-0.994369	-0.030429	-0.101510
793	5126779													9.809422	-0.582459	0.784372	0.082774	-0.794643	-0.601408	-0.062341	-0.606425	0.792693	-0.994617	-0.028122	-0.099735
794	5126945													9.838042	-0.610959	0.763173	0.080362	-0.794298	-0.602189	-0.062230	-0.606963	0.792290	-0.994821	-0.026196	-0.098206
795	5127112													9.787564	-0.610722	0.777268	0.078218	-0.793753	-0.603190	-0.062108	-0.607748	0.791698	-0.995000	-0.024463	-0.096835
796	5127279													9.793183	-0.618898	0.763313	0.076158	-0.793248	-0.604117	-0.062013	-0.608472	0.791148	-0.995165	-0.022790	-0.095532
797	5127445													9.808869	-0.618001	0.738659	0.074245	-0.792622	-0.605177	-0.061884	-0.609344	0.790487	-0.995318	-0.021239	-0.094292
798	5127612													9.787671	-0.636996	0.715575	0.072334	-0.792174	-0.605993	-0.061705	-0.609975	0.790014	-0.995470	-0.019752	-0.093003
799	5127779													9.783545	-0.594119	0.775652	0.070336	-0.791882	-0.606611	-0.061533	-0.610403	0.789698	-0.995624	-0.018217	-0.091660
800	5127945													9.722098	-0.634654	0.683266	0.067962	-0.792192	-0.606476	-0.061333	-0.610049	0.789986	-0.995801	-0.016492	-0.090048
801	5128112													9.834661	-0.619142	0.532947	0.065754	-0.791969	-0.607010	-0.061108	-0.610381	0.789747	-0.995963	-0.014836	-0.088531
802	5128279													9.838858	-0.626967	0.529599	0.064138	-0.791438	-0.607875	-0.060973	-0.611099	0.789202	-0.996077	-0.013554	-0.087451
803	5128445													9.782821	-0.640129	0.565250	0.062686	-0.790570	-0.609155	-0.060889	-0.612247	0.788318	-0.996174	-0.012325	-0.086516
804	5128612													9.813401	-0.581657	0.565688	0.061440	-0.789431	-0.610757	-0.060864	-0.613737	0.787161	-0.996253	-0.011190	-0.085756
805	5128779													9.844524	-0.628243	0.502201	0.060336	-0.788211	-0.612440	-0.060862	-0.615321	0.785923	-0.996321	-0.010145	-0.085099
806	5128945													9.873218	-0.648020	0.478114	0.059526	-0.786909	-0.614191	-0.060957	-0.616999	0.784600	-0.996364	-0.009264	-0.084695
807	5129112													9.863796	-0.615508	0.512809	0.059254	-0.785345	-0.616216	-0.061060	-0.618996	0.783017	-0.996374	-0.008771	-0.084631
808	5129279													9.842791	-0.551198	0.562442	0.059188	-0.783896	-0.618064	-0.061077	-0.620834	0.781559	-0.996377	-0.008510	-0.084623
809	5129445													9.890750	-0.580537	0.564303	0.059327	-0.782440	-0.619893	-0.060910	-0.622668	0.780112	-0.996379	-0.008524	-0.084600
810	5129612													9.846818	-0.647943	0.560490	0.059791	-0.781040	-0.621612	-0.060893	-0.624421	0.778711	-0.996352	-0.008708	-0.084895
811	5129779													9.806612	-0.608215	0.682636	0.060244	-0.779696	-0.623254	-0.061113	-0.626098	0.777346	-0.996311	-0.008742	-0.085369
812	5129945													9.742267	-0.499491	0.737520	0.060370	-0.779350	-0.623674	-0.061542	-0.626531	0.776963	-0.996277	-0.008523	-0.085787
813	5130112													9.661852	-0.591879	0.665403	0.059440	-0.780074	-0.622857	-0.061855	-0.625640	0.777656	-0.996314	-0.007697	-0.085440
814	5130279													9.774436	-0.644242	0.507920	0.057881	-0.780805	-0.622088	-0.062054	-0.624742	0.778362	-0.996393	-0.006449	-0.084613
815	5130445													9.832753	-0.597442	0.412902	0.056594	-0.781369	-0.621497	-0.062274	-0.624046	0.778903	-0.996453	-0.005378	-0.083976
816	5130612													9.784074	-0.580734	0.432912	0.055771	-0.781783	-0.621052	-0.062512	-0.623534	0.779293	-0.996485	-0.004639	-0.083646
817	5130779													9.788372	-0.615503	0.428939	0.055148	-0.781984	-0.620853	-0.062664	-0.623285	0.779480	-0.996510	-0.004082	-0.083375
818	5130945													9.861899	-0.620895	0.426437	0.054775	-0.781942	-0.620939	-0.062750	-0.623340	0.779429	-0.996525	-0.003729	-0.083210
819	5131112													9.854476	-0.619122	0.446600	0.054558	-0.781759	-0.621189	-0.062779	-0.623570	0.779242	-0.996535	-0.003517	-0.083099
820	5131279													9.824539	-0.602680	0.458769	0.054545	-0.781498	-0.621519	-0.062811	-0.623898	0.778977	-0.996534	-0.003451	-0.083117
821	5131445													9.810499	-0.600258	0.511844	0.054337	-0.781359	-0.621712	-0.062837	-0.624074	0.778835	-0.996544	-0.003253	-0.083008
822	5131612													9.850547	-0.569794	0.485966	0.054039	-0.781341	-0.621760	-0.062744	-0.624097	0.778824	-0.996566	-0.003075	-0.082750
823	5131779													9.837736	-0.641070	0.441180	0.053904	-0.781043	-0.622147	-0.062494	-0.624470	0.778545	-0.996589	-0.003086	-0.082472
824	5131945													9.801735	-0.620748	0.494087	0.054186	-0.779975	-0.623460	-0.062363	-0.625802	0.777485	-0.996582	-0.003248	-0.082551
825	5132112													9.721879	-0.596875	0.487535	0.054121	-0.779109	-0.624547	-0.062320	-0.626880	0.776619	-0.996588	-0.003110	-0.082481
826	5132279													9.839969	-0.600007	0.411768	0.054324	-0.778680	-0.625066	-0.062028	-0.627413	0.776213	-0.996595	-0.003396	-0.082384
827	5132445													9.797744	-0.608663	0.448949	0.055053	-0.778280	-0.625499	-0.061701	-0.627904	0.775841	-0.996575	-0.004118	-0.082589
828	5132612													9.739510	-0.585700	0.570417	0.055303	-0.777919	-0.625926	-0.061429	-0.628348	0.775503	-0.996578	-0.004438	-0.082536
829	5132779													9.799777	-0.585331	0.550028	0.055243	-0.777610	-0.626315	-0.061249	-0.628731	0.775207	-0.996593	-0.004464	-0.082361
830	5132945													9.805087	-0.618730	0.563390	0.055368	-0.777504	-0.626435	-0.061026	-0.628860	0.775120	-0.996599	-0.004688	-0.082267
831	5133112													9.798569	-0.605613	0.559067	0.055572	-0.777429	-0.626510	-0.060776	-0.628950	0.775066	-0.996603	-0.004995	-0.082201
832	5133279													9.788847	-0.596163	0.595664	0.055767	-0.777407	-0.626521	-0.060503	-0.628976	0.775067	-0.996609	-0.005317	-0.082112
833	5133445													9.786753	-0.590732	0.583283	0.055908	-0.777493	-0.626402	-0.060283	-0.628867	0.775173	-0.996614	-0.005577	-0.082028
834	5133612													9.784819	-0.566386	0.584766	0.056077	-0.777766	-0.626048	-0.060085	-0.628527	0.775464	-0.996617	-0.005870	-0.081978
835	5133779													9.767274	-0.553949	0.593083	0.056230	-0.778078	-0.625646	-0.059887	-0.628138	0.775794	-0.996620	-0.006155	-0.081917
836	5133946													9.754570	-0.568232	0.580339	0.056078	-0.778682	-0.624908	-0.059753	-0.627388	0.776411	-0.996637	-0.006199	-0.081711
837	5134112													9.789042	-0.566459	0.534476	0.055806	-0.779281	-0.624184	-0.059655	-0.626644	0.777019	-0.996658	-0.006127	-0.081459
838	5134279													9.811473	-0.575044	0.517570	0.055670	-0.779920	-0.623398	-0.059606	-0.625849	0.777663	-0.996668	-0.006134	-0.081330
839	5134446													9.777329	-0.566332	0.540656	0.055649	-0.780351	-0.622860	-0.059563	-0.625311	0.778099	-0.996672	-0.006201	-0.081278
840	5134612													9.767116	-0.572044	0.534180	0.055573	-0.780697	-0.622434	-0.059553	-0.624880	0.778447	-0.996677	-0.006192	-0.081219
841	5134779													9.796648	-0.539643	0.520271	0.055547	-0.781047	-0.621997	-0.059578	-0.624442	0.778796	-0.996677	-0.006202	-0.081219
842	5134946													9.746776	-0.549082	0.529650	0.055497	-0.781376	-0.621588	-0.059565	-0.624030	0.779127	-0.996681	-0.006214	-0.081174
843	5135112													9.803337	-0.552463	0.526128	0.055309	-0.781618	-0.621300	-0.059556	-0.623727	0.779370	-0.996692	-0.006104	-0.081048
844	5135279													9.818826	-0.624164	0.489354	0.055020	-0.782006	-0.620838	-0.059627	-0.623243	0.779751	-0.996703	-0.005884	-0.080919
845	5135446													9.794924	-0.561332	0.491020	0.055018	-0.782195	-0.620600	-0.059627	-0.623006	0.779941	-0.996703	-0.005907	-0.080916
846	5135612													9.801982	-0.470664	0.576250	0.055004	-0.782547	-0.620157	-0.059545	-0.622562	0.780302	-0.996709	-0.005993	-0.080840
847	5135779													9.790638	-0.511340	0.520762	0.054884	-0.782963	-0.619643	-0.059283	-0.622039	0.780739	-0.996731	-0.006116	-0.080556
848	5135946													9.835093	-0.597638	0.535040	0.054980	-0.783086	-0.619478	-0.059107	-0.621881	0.780878	-0.996736	-0.006317	-0.080477
849	5136112													9.816967	-0.530369	0.582805	0.055063	-0.782947	-0.619647	-0.059084	-0.622056	0.780741	-0.996733	-0.006379	-0.080512
850	5136279													9.780806	-0.517778	0.589109	0.055287	-0.782996	-0.619565	-0.059089	-0.621993	0.780790	-0.996721	-0.006558	-0.080655
851	5136446													9.725292	-0.580655	0.603828	0.055357	-0.783173	-0.619335	-0.059112	-0.621769	0.780967	-0.996715	-0.006622	-0.080714
852	5136612													9.766169	-0.607372	0.569684	0.055130	-0.783422	-0.619040	-0.059133	-0.621457	0.781214	-0.996727	-0.006463	-0.080587
853	5136779													9.800560	-0.591884	0.505830	0.055046	-0.783488	-0.618965	-0.059182	-0.621375	0.781275	-0.996728	-0.006375	-0.080573
854	5136946													9.773972	-0.578893	0.548259	0.055302	-0.783517	-0.618904	-0.059292	-0.621336	0.781298	-0.996708	-0.006511	-0.080817
855	5137112													9.747857	-0.595610	0.582004	0.055540	-0.783652	-0.618712	-0.059415	-0.621165	0.781425	-0.996687	-0.006640	-0.081061
