// Start Time: Unknown
// Update Rate: 60.0Hz
//Filter Profile: human (46.1)
// Option Flags: AHS Disabled ICC Disabled
// Firmware Version: 4.0.2
0	sampleTimeFine	Year	Month	Day	Second	UTC_Nano	UTC_Year	UTC_Month	UTC_Day	UTC_Hour	UTC_Minute	UTC_Second	UTC_Valid	Acc_X	Acc_Y	Acc_Z	Mat[1][1]	Mat[2][1]	Mat[3][1]	Mat[1][2]	Mat[2][2]	Mat[3][2]	Mat[1][3]	Mat[2][3]	Mat[3][3]
0	4994276													-0.195869	0.088224	0.019309	-0.448516	-0.890470	0.076794	-0.074698	0.122966	0.989596	-0.890648	0.438113	-0.121668
1	4994443													8.699270	-0.657344	-4.344679	-0.447922	-0.890695	0.077639	-0.074958	0.123943	0.989454	-0.890925	0.437379	-0.122282
2	4994609													8.593760	-0.663333	-4.328835	-0.446845	-0.891158	0.078529	-0.073838	0.124219	0.989504	-0.891559	0.436356	-0.121308
3	4994776													8.527706	-0.721861	-4.305801	-0.446370	-0.891376	0.078751	-0.072938	0.123955	0.989604	-0.891871	0.435986	-0.120345
4	4994943													8.548573	-0.770694	-4.318060	-0.446295	-0.891445	0.078399	-0.073024	0.123594	0.989642	-0.891902	0.435947	-0.120256
5	4995109													8.614825	-0.799217	-4.328191	-0.446369	-0.891465	0.077751	-0.073805	0.123268	0.989625	-0.891800	0.436000	-0.120817
6	4995276													8.669597	-0.788785	-4.328098	-0.446352	-0.891536	0.077035	-0.074888	0.122999	0.989577	-0.891719	0.435930	-0.121666
7	4995443													8.666162	-0.739039	-4.312229	-0.446171	-0.891697	0.076215	-0.075893	0.122553	0.989556	-0.891724	0.435727	-0.122353
8	4995609													8.685339	-0.691296	-4.322757	-0.446094	-0.891815	0.075275	-0.076583	0.121835	0.989591	-0.891704	0.435686	-0.122648
9	4995776													8.626087	-0.708520	-4.361254	-0.445936	-0.891924	0.074919	-0.077073	0.121655	0.989576	-0.891740	0.435513	-0.122993
10	4995943													8.648014	-0.616557	-4.309274	-0.446069	-0.891878	0.074672	-0.077395	0.121559	0.989562	-0.891646	0.435633	-0.123251
11	4996109													8.577387	-0.654712	-4.302493	-0.446254	-0.891752	0.075080	-0.077418	0.122051	0.989500	-0.891552	0.435755	-0.123503
12	4996276													8.611173	-0.729631	-4.326496	-0.446597	-0.891556	0.075360	-0.077349	0.122382	0.989464	-0.891385	0.436063	-0.123617
13	4996443													8.576406	-0.755911	-4.317273	-0.447051	-0.891313	0.075546	-0.077387	0.122677	0.989425	-0.891155	0.436477	-0.123819
14	4996609													8.582878	-0.741637	-4.326812	-0.447575	-0.891027	0.075817	-0.077430	0.123079	0.989372	-0.890888	0.436948	-0.124079
15	4996776													8.594893	-0.732294	-4.348630	-0.448138	-0.890724	0.076049	-0.077405	0.123412	0.989332	-0.890607	0.437471	-0.124252
16	4996943													8.605873	-0.737794	-4.373327	-0.448728	-0.890395	0.076419	-0.077305	0.123866	0.989283	-0.890318	0.438012	-0.124414
17	4997109													8.673227	-0.756257	-4.391745	-0.449307	-0.890086	0.076623	-0.077237	0.124148	0.989253	-0.890032	0.438560	-0.124528
18	4997276													8.696605	-0.742174	-4.415151	-0.449779	-0.889839	0.076718	-0.077296	0.124357	0.989222	-0.889789	0.439001	-0.124714
19	4997443													8.715958	-0.722008	-4.395060	-0.450106	-0.889687	0.076565	-0.077404	0.124290	0.989222	-0.889614	0.439328	-0.124809
20	4997609													8.680425	-0.716506	-4.395949	-0.450348	-0.889561	0.076608	-0.077431	0.124390	0.989208	-0.889489	0.439556	-0.124899
21	4997776													8.613542	-0.724791	-4.385302	-0.450504	-0.889458	0.076876	-0.077377	0.124685	0.989175	-0.889415	0.439679	-0.124995
22	4997943													8.595337	-0.736622	-4.400853	-0.450725	-0.889322	0.077159	-0.077248	0.124971	0.989149	-0.889314	0.439874	-0.125026
23	4998109													8.583770	-0.720987	-4.403000	-0.450971	-0.889194	0.077194	-0.077132	0.124991	0.989155	-0.889199	0.440126	-0.124953
24	4998276													8.576633	-0.716407	-4.412713	-0.451277	-0.889019	0.077425	-0.076993	0.125227	0.989136	-0.889056	0.440413	-0.124960
25	4998443													8.579228	-0.701792	-4.404342	-0.451600	-0.888858	0.077383	-0.076880	0.125175	0.989151	-0.888902	0.440752	-0.124865
26	4998609													8.607659	-0.716252	-4.429087	-0.451948	-0.888682	0.077381	-0.076848	0.125211	0.989149	-0.888728	0.441097	-0.124883
27	4998776													8.623909	-0.722397	-4.422451	-0.452211	-0.888542	0.077450	-0.076918	0.125364	0.989125	-0.888588	0.441335	-0.125035
28	4998943													8.657708	-0.700440	-4.428578	-0.452370	-0.888464	0.077415	-0.077042	0.125411	0.989109	-0.888496	0.441479	-0.125182
29	4999109													8.640895	-0.696513	-4.427241	-0.452454	-0.888422	0.077403	-0.077141	0.125460	0.989095	-0.888445	0.441549	-0.125299
30	4999276													8.632292	-0.729986	-4.436264	-0.452423	-0.888449	0.077271	-0.077268	0.125372	0.989096	-0.888450	0.441520	-0.125370
31	4999443													8.623318	-0.726937	-4.434038	-0.452375	-0.888468	0.077345	-0.077416	0.125520	0.989066	-0.888461	0.441441	-0.125564
32	4999609													8.603729	-0.695719	-4.411242	-0.452302	-0.888518	0.077193	-0.077583	0.125422	0.989065	-0.888484	0.441367	-0.125663
33	4999776													8.557041	-0.725731	-4.399086	-0.452320	-0.888512	0.077151	-0.077799	0.125486	0.989040	-0.888456	0.441361	-0.125885
34	4999943													8.505064	-0.691835	-4.447143	-0.452455	-0.888467	0.076882	-0.078153	0.125383	0.989025	-0.888356	0.441481	-0.126166
35	5000109													8.649578	-0.686029	-4.451905	-0.452734	-0.888346	0.076639	-0.078479	0.125320	0.989008	-0.888185	0.441742	-0.126453
36	5000276													8.600292	-0.597552	-4.418326	-0.452906	-0.888276	0.076433	-0.078743	0.125249	0.988996	-0.888074	0.441903	-0.126672
37	5000443													8.629611	-0.637197	-4.419934	-0.453085	-0.888170	0.076597	-0.078753	0.125464	0.988968	-0.887982	0.442054	-0.126792
38	5000610													8.667895	-0.714802	-4.427869	-0.453152	-0.888114	0.076857	-0.078756	0.125766	0.988929	-0.887947	0.442082	-0.126936
39	5000776													8.706918	-0.728098	-4.411161	-0.453084	-0.888138	0.076981	-0.078894	0.125962	0.988893	-0.887970	0.441978	-0.127140
40	5000943													8.709187	-0.697140	-4.381568	-0.452757	-0.888287	0.077184	-0.079106	0.126241	0.988840	-0.888118	0.441599	-0.127426
41	5001110													8.647641	-0.739056	-4.369570	-0.452246	-0.888540	0.077269	-0.079369	0.126385	0.988801	-0.888355	0.441049	-0.127680
42	5001276													8.556028	-0.756539	-4.394532	-0.451693	-0.888821	0.077273	-0.079700	0.126465	0.988764	-0.888606	0.440460	-0.127962
43	5001443													8.539423	-0.809815	-4.377769	-0.451236	-0.889071	0.077060	-0.080106	0.126356	0.988745	-0.888802	0.439984	-0.128236
44	5001610													8.559957	-0.802311	-4.359360	-0.450885	-0.889297	0.076511	-0.080620	0.125944	0.988756	-0.888934	0.439647	-0.128481
45	5001776													8.619465	-0.786862	-4.349418	-0.450602	-0.889499	0.075827	-0.081178	0.125413	0.988778	-0.889026	0.439390	-0.128719
46	5001943													8.658353	-0.738789	-4.372816	-0.450325	-0.889694	0.075180	-0.081678	0.124897	0.988802	-0.889121	0.439142	-0.128912
47	5002110													8.616595	-0.722162	-4.367791	-0.450104	-0.889862	0.074513	-0.082119	0.124338	0.988836	-0.889192	0.438960	-0.129040
48	5002276													8.693442	-0.744220	-4.359242	-0.449841	-0.890039	0.073985	-0.082534	0.123914	0.988855	-0.889287	0.438721	-0.129200
49	5002443													8.614736	-0.678381	-4.334468	-0.449690	-0.890145	0.073628	-0.082991	0.123717	0.988841	-0.889321	0.438561	-0.129509
50	5002610													8.608491	-0.660318	-4.339852	-0.449564	-0.890213	0.073577	-0.083222	0.123755	0.988817	-0.889363	0.438413	-0.129721
51	5002776													8.608080	-0.713658	-4.338661	-0.449540	-0.890232	0.073487	-0.083348	0.123713	0.988812	-0.889363	0.438385	-0.129813
52	5002943													8.589706	-0.787819	-4.342291	-0.449570	-0.890205	0.073631	-0.083485	0.123945	0.988771	-0.889335	0.438374	-0.130041
53	5003110													8.605346	-0.788353	-4.355004	-0.449680	-0.890128	0.073891	-0.083643	0.124330	0.988709	-0.889265	0.438423	-0.130361
54	5003276													8.600169	-0.764079	-4.334628	-0.449857	-0.890035	0.073938	-0.083734	0.124456	0.988686	-0.889167	0.438576	-0.130514
55	5003443													8.603167	-0.772047	-4.356444	-0.450094	-0.889906	0.074046	-0.083770	0.124631	0.988661	-0.889043	0.438787	-0.130643
56	5003776													8.621621	-0.770106	-4.371375	-0.450344	-0.889779	0.074049	-0.083793	0.124688	0.988651	-0.888914	0.439029	-0.130709
57	5003943													8.643159	-0.772207	-4.371239	-0.450593	-0.889644	0.074154	-0.083835	0.124866	0.988625	-0.888784	0.439251	-0.130847
58	5004110													8.642826	-0.766317	-4.373311	-0.450830	-0.889520	0.074200	-0.083881	0.124979	0.988607	-0.888660	0.439470	-0.130958
59	5004276													8.639058	-0.753549	-4.386112	-0.451015	-0.889415	0.074344	-0.083948	0.125203	0.988573	-0.888559	0.439620	-0.131133
60	5004443													8.644486	-0.746705	-4.377736	-0.451170	-0.889323	0.074498	-0.083995	0.125422	0.988541	-0.888477	0.439742	-0.131286
61	5004610													8.631566	-0.752813	-4.381906	-0.451273	-0.889270	0.074508	-0.084069	0.125486	0.988527	-0.888417	0.439832	-0.131388
62	5004776													8.628644	-0.761983	-4.385800	-0.451371	-0.889217	0.074542	-0.084161	0.125587	0.988506	-0.888359	0.439910	-0.131524
63	5004943													8.620863	-0.759200	-4.392108	-0.451415	-0.889189	0.074617	-0.084252	0.125722	0.988481	-0.888327	0.439929	-0.131669
64	5005110													8.590708	-0.765108	-4.377199	-0.451474	-0.889161	0.074588	-0.084330	0.125738	0.988473	-0.888290	0.439980	-0.131751
65	5005276													8.601812	-0.760259	-4.405498	-0.451577	-0.889112	0.074551	-0.084421	0.125758	0.988462	-0.888229	0.440073	-0.131849
66	5005443													8.626641	-0.749473	-4.406024	-0.451668	-0.889065	0.074566	-0.084535	0.125847	0.988441	-0.888172	0.440144	-0.131998
67	5005610													8.624879	-0.750210	-4.383801	-0.451729	-0.889045	0.074437	-0.084660	0.125776	0.988440	-0.888129	0.440205	-0.132083
68	5005776													8.630197	-0.746934	-4.405694	-0.451771	-0.889039	0.074252	-0.084742	0.125617	0.988453	-0.888100	0.440262	-0.132089
69	5005943													8.617933	-0.759865	-4.385202	-0.451767	-0.889058	0.074050	-0.084841	0.125441	0.988467	-0.888093	0.440274	-0.132098
70	5006110													8.600006	-0.753114	-4.388071	-0.451767	-0.889077	0.073809	-0.084962	0.125233	0.988483	-0.888081	0.440293	-0.132113
71	5006276													8.567978	-0.743372	-4.380471	-0.451802	-0.889071	0.073676	-0.085086	0.125152	0.988482	-0.888052	0.440329	-0.132191
72	5006443													8.581373	-0.768938	-4.397630	-0.451905	-0.889009	0.073785	-0.085205	0.125350	0.988447	-0.887988	0.440397	-0.132395
73	5006610													8.545998	-0.736334	-4.411849	-0.452091	-0.888929	0.073611	-0.085445	0.125306	0.988432	-0.887870	0.440572	-0.132605
74	5006776													8.693604	-0.747955	-4.430487	-0.452324	-0.888824	0.073449	-0.085701	0.125292	0.988411	-0.887726	0.440788	-0.132846
75	5006943													8.669909	-0.649049	-4.395431	-0.452384	-0.888802	0.073343	-0.085820	0.125243	0.988407	-0.887684	0.440846	-0.132935
76	5007110													8.614717	-0.696528	-4.399357	-0.452439	-0.888767	0.073428	-0.085685	0.125280	0.988414	-0.887669	0.440906	-0.132835
77	5007276													8.631558	-0.742891	-4.368843	-0.452409	-0.888765	0.073637	-0.085544	0.125437	0.988407	-0.887698	0.440865	-0.132777
78	5007443													8.654674	-0.725725	-4.383044	-0.452381	-0.888751	0.073974	-0.085489	0.125780	0.988368	-0.887718	0.440795	-0.132879
79	5007610													8.698749	-0.711940	-4.364913	-0.452145	-0.888849	0.074249	-0.085510	0.126057	0.988331	-0.887836	0.440520	-0.133002
80	5007776													8.620865	-0.749820	-4.369491	-0.451818	-0.888981	0.074659	-0.085585	0.126496	0.988268	-0.887995	0.440128	-0.133237
81	5007943													8.565311	-0.796978	-4.384135	-0.451479	-0.889145	0.074754	-0.085716	0.126610	0.988242	-0.888155	0.439763	-0.133376
82	5008110													8.560173	-0.828797	-4.368744	-0.451216	-0.889262	0.074947	-0.085939	0.126891	0.988187	-0.888267	0.439444	-0.133677
83	5008276													8.583337	-0.847432	-4.377548	-0.450987	-0.889405	0.074634	-0.086243	0.126655	0.988191	-0.888354	0.439224	-0.133824
84	5008443													8.620071	-0.814433	-4.397034	-0.450808	-0.889548	0.074005	-0.086611	0.126107	0.988229	-0.888409	0.439092	-0.133894
85	5008610													8.657577	-0.776379	-4.370551	-0.450589	-0.889711	0.073374	-0.086955	0.125541	0.988270	-0.888487	0.438923	-0.133932
86	5008776													8.617233	-0.719494	-4.375615	-0.450379	-0.889878	0.072634	-0.087250	0.124829	0.988334	-0.888564	0.438788	-0.133863
87	5008943													8.669797	-0.740849	-4.375306	-0.450160	-0.890028	0.072149	-0.087542	0.124397	0.988363	-0.888646	0.438606	-0.133914
88	5009110													8.596154	-0.675640	-4.342612	-0.450096	-0.890095	0.071718	-0.087945	0.124108	0.988364	-0.888639	0.438552	-0.134140
89	5009276													8.601220	-0.660654	-4.365013	-0.450033	-0.890129	0.071703	-0.088125	0.124169	0.988340	-0.888653	0.438466	-0.134323
90	5009443													8.611778	-0.759965	-4.362619	-0.450059	-0.890094	0.071968	-0.088253	0.124530	0.988283	-0.888627	0.438434	-0.134599
91	5009610													8.601939	-0.798589	-4.363365	-0.450114	-0.890056	0.072091	-0.088433	0.124765	0.988237	-0.888581	0.438445	-0.134869
92	5009776													8.572269	-0.779594	-4.381383	-0.450244	-0.889989	0.072107	-0.088615	0.124894	0.988205	-0.888497	0.438543	-0.135100
93	5009943													8.601621	-0.773950	-4.372398	-0.450466	-0.889876	0.072124	-0.088721	0.125003	0.988182	-0.888374	0.438743	-0.135260
94	5010110													8.596368	-0.793193	-4.380586	-0.450711	-0.889740	0.072271	-0.088759	0.125226	0.988150	-0.888247	0.438955	-0.135413
95	5010276													8.631725	-0.775225	-4.371583	-0.450973	-0.889604	0.072301	-0.088734	0.125292	0.988144	-0.888116	0.439211	-0.135441
96	5010443													8.648808	-0.754520	-4.375407	-0.451189	-0.889489	0.072374	-0.088716	0.125401	0.988132	-0.888008	0.439414	-0.135492
97	5010610													8.636501	-0.744602	-4.378766	-0.451385	-0.889385	0.072433	-0.088656	0.125470	0.988128	-0.887914	0.439604	-0.135484
98	5010776													8.644322	-0.758249	-4.381179	-0.451543	-0.889296	0.072541	-0.088585	0.125582	0.988120	-0.887841	0.439753	-0.135484
99	5010943													8.635764	-0.732332	-4.386375	-0.451646	-0.889232	0.072675	-0.088518	0.125714	0.988110	-0.887795	0.439843	-0.135491
100	5011110													8.616427	-0.745142	-4.373152	-0.451734	-0.889173	0.072855	-0.088414	0.125879	0.988098	-0.887761	0.439916	-0.135479
101	5011276													8.608116	-0.757945	-4.400242	-0.451824	-0.889108	0.073090	-0.088337	0.126117	0.988075	-0.887723	0.439979	-0.135523
102	5011443													8.613521	-0.777024	-4.403770	-0.451923	-0.889049	0.073195	-0.088276	0.126220	0.988067	-0.887678	0.440069	-0.135523
103	5011610													8.598680	-0.770583	-4.399801	-0.452013	-0.888989	0.073368	-0.088230	0.126404	0.988047	-0.887637	0.440137	-0.135572
104	5011776													8.608438	-0.769814	-4.399368	-0.452140	-0.888907	0.073580	-0.088173	0.126633	0.988023	-0.887578	0.440237	-0.135633
105	5011943													8.620616	-0.777028	-4.404064	-0.452261	-0.888842	0.073616	-0.088161	0.126688	0.988017	-0.887518	0.440352	-0.135657
106	5012110													8.623880	-0.724783	-4.397584	-0.452369	-0.888804	0.073410	-0.088241	0.126517	0.988032	-0.887455	0.440477	-0.135661
107	5012276													8.644841	-0.727200	-4.388153	-0.452428	-0.888797	0.073136	-0.088310	0.126257	0.988059	-0.887418	0.440567	-0.135611
108	5012443													8.619782	-0.732279	-4.382088	-0.452374	-0.888838	0.072969	-0.088388	0.126101	0.988072	-0.887438	0.440528	-0.135608
109	5012610													8.591044	-0.743275	-4.388278	-0.452335	-0.888870	0.072823	-0.088501	0.125988	0.988076	-0.887446	0.440496	-0.135654
110	5012776													8.572180	-0.727290	-4.403652	-0.452313	-0.888886	0.072766	-0.088604	0.125972	0.988069	-0.887447	0.440469	-0.135737
111	5012943													8.564916	-0.777660	-4.419530	-0.452354	-0.888880	0.072586	-0.088693	0.125823	0.988080	-0.887417	0.440524	-0.135754
112	5013110													8.545269	-0.755875	-4.412637	-0.452465	-0.888834	0.072454	-0.088892	0.125794	0.988066	-0.887341	0.440625	-0.135928
113	5013276													8.683457	-0.756422	-4.433939	-0.452673	-0.888742	0.072279	-0.089035	0.125706	0.988064	-0.887220	0.440835	-0.136032
114	5013443													8.668641	-0.672906	-4.420553	-0.452632	-0.888758	0.072344	-0.089103	0.125805	0.988045	-0.887234	0.440775	-0.136135
115	5013610													8.633319	-0.686534	-4.440837	-0.452562	-0.888765	0.072698	-0.088964	0.126117	0.988018	-0.887284	0.440672	-0.136144
116	5013776													8.641431	-0.745980	-4.430618	-0.452435	-0.888793	0.073142	-0.088746	0.126481	0.987991	-0.887371	0.440510	-0.136101
117	5013943													8.635836	-0.758142	-4.414804	-0.452271	-0.888845	0.073520	-0.088634	0.126818	0.987958	-0.887466	0.440308	-0.136138
118	5014110													8.683644	-0.726208	-4.357460	-0.451943	-0.888982	0.073886	-0.088652	0.127177	0.987910	-0.887631	0.439929	-0.136286
119	5014276													8.613458	-0.754610	-4.369828	-0.451504	-0.889179	0.074198	-0.088735	0.127491	0.987862	-0.887846	0.439439	-0.136464
120	5014443													8.541972	-0.798551	-4.396075	-0.451084	-0.889377	0.074377	-0.088915	0.127706	0.987818	-0.888041	0.438976	-0.136685
121	5014610													8.524080	-0.835218	-4.378634	-0.450783	-0.889527	0.074403	-0.089170	0.127810	0.987782	-0.888168	0.438641	-0.136934
122	5014776													8.577418	-0.862279	-4.384165	-0.450590	-0.889647	0.074138	-0.089448	0.127620	0.987781	-0.888238	0.438453	-0.137082
123	5014943													8.613596	-0.858485	-4.378550	-0.450466	-0.889766	0.073470	-0.089763	0.127012	0.987831	-0.888270	0.438389	-0.137082
124	5015110													8.753945	-0.776478	-4.372772	-0.450193	-0.889958	0.072808	-0.090073	0.126384	0.987884	-0.888377	0.438180	-0.137058
125	5015276													8.627475	-0.714745	-4.344821	-0.449921	-0.890154	0.072094	-0.090318	0.125665	0.987953	-0.888490	0.437989	-0.136936
126	5015443													8.692426	-0.721081	-4.354924	-0.449593	-0.890348	0.071745	-0.090541	0.125332	0.987975	-0.888633	0.437691	-0.136961
127	5015610													8.561638	-0.653687	-4.333049	-0.449468	-0.890437	0.071422	-0.090849	0.125103	0.987976	-0.888665	0.437574	-0.137125
128	5015776													8.626695	-0.661073	-4.328721	-0.449339	-0.890490	0.071572	-0.090932	0.125289	0.987944	-0.888721	0.437414	-0.137271
129	5015943													8.587231	-0.761689	-4.345914	-0.449321	-0.890478	0.071836	-0.090969	0.125597	0.987902	-0.888727	0.437350	-0.137440
130	5016110													8.603332	-0.809046	-4.326602	-0.449405	-0.890411	0.072129	-0.091020	0.125961	0.987851	-0.888679	0.437380	-0.137653
131	5016276													8.587194	-0.805360	-4.350238	-0.449576	-0.890306	0.072362	-0.091033	0.126256	0.987812	-0.888591	0.437509	-0.137809
132	5016443													8.621145	-0.799497	-4.362320	-0.449750	-0.890206	0.072509	-0.090977	0.126421	0.987796	-0.888509	0.437665	-0.137846
133	5016610													8.608590	-0.805631	-4.366354	-0.449942	-0.890093	0.072712	-0.090839	0.126612	0.987784	-0.888426	0.437840	-0.137823
134	5016776													8.620037	-0.781133	-4.359538	-0.450247	-0.889927	0.072854	-0.090695	0.126751	0.987780	-0.888286	0.438137	-0.137782
135	5016943													8.658102	-0.754844	-4.378404	-0.450415	-0.889824	0.073073	-0.090548	0.126951	0.987768	-0.888216	0.438289	-0.137752
136	5017110													8.639579	-0.762298	-4.355313	-0.450606	-0.889712	0.073262	-0.090410	0.127125	0.987758	-0.888133	0.438466	-0.137722
137	5017277													8.635264	-0.751154	-4.369167	-0.450736	-0.889636	0.073377	-0.090316	0.127228	0.987753	-0.888077	0.438589	-0.137695
138	5017443													8.619926	-0.750608	-4.390432	-0.450856	-0.889560	0.073568	-0.090259	0.127433	0.987732	-0.888022	0.438684	-0.137745
139	5017610													8.608990	-0.770232	-4.380737	-0.450955	-0.889494	0.073760	-0.090201	0.127635	0.987711	-0.887977	0.438760	-0.137791
140	5017777													8.608332	-0.787091	-4.388650	-0.451084	-0.889412	0.073949	-0.090144	0.127838	0.987690	-0.887917	0.438866	-0.137841
141	5017943													8.601336	-0.789995	-4.375064	-0.451246	-0.889323	0.074035	-0.090120	0.127950	0.987678	-0.887838	0.439013	-0.137883
142	5018110													8.596366	-0.768967	-4.397419	-0.451441	-0.889236	0.073893	-0.090084	0.127808	0.987699	-0.887742	0.439231	-0.137803
143	5018277													8.607473	-0.741148	-4.377163	-0.451625	-0.889140	0.073921	-0.090035	0.127847	0.987699	-0.887653	0.439414	-0.137793
144	5018443													8.649007	-0.729711	-4.385503	-0.451787	-0.889068	0.073802	-0.090013	0.127731	0.987716	-0.887573	0.439594	-0.137735
145	5018610													8.653456	-0.715431	-4.374427	-0.451909	-0.889001	0.073862	-0.090036	0.127831	0.987701	-0.887508	0.439701	-0.137810
146	5018777													8.625501	-0.733995	-4.375736	-0.451971	-0.888975	0.073789	-0.090049	0.127767	0.987708	-0.887476	0.439771	-0.137799
147	5018943													8.606907	-0.742728	-4.391322	-0.451999	-0.888952	0.073898	-0.090060	0.127898	0.987690	-0.887461	0.439779	-0.137869
148	5019110													8.579621	-0.769167	-4.380521	-0.452023	-0.888941	0.073881	-0.090075	0.127891	0.987689	-0.887447	0.439804	-0.137881
149	5019277													8.610284	-0.745925	-4.384648	-0.452038	-0.888942	0.073782	-0.090094	0.127794	0.987700	-0.887437	0.439831	-0.137856
150	5019443													8.606922	-0.753532	-4.399515	-0.452085	-0.888922	0.073731	-0.090086	0.127741	0.987708	-0.887414	0.439885	-0.137829
151	5019610													8.577015	-0.780904	-4.411149	-0.452112	-0.888926	0.073522	-0.090164	0.127552	0.987725	-0.887392	0.439933	-0.137817
152	5019777													8.607588	-0.722652	-4.422678	-0.452279	-0.888853	0.073375	-0.090254	0.127462	0.987729	-0.887298	0.440106	-0.137871
153	5019943													8.686585	-0.717156	-4.441900	-0.452300	-0.888853	0.073246	-0.090358	0.127374	0.987730	-0.887277	0.440132	-0.137926
154	5020110													8.632203	-0.651635	-4.411456	-0.452253	-0.888869	0.073340	-0.090262	0.127422	0.987733	-0.887311	0.440086	-0.137858
155	5020277													8.658512	-0.715970	-4.411506	-0.452172	-0.888880	0.073713	-0.089981	0.127684	0.987725	-0.887381	0.439988	-0.137717
156	5020443													8.645035	-0.751970	-4.408793	-0.451989	-0.888931	0.074214	-0.089774	0.128106	0.987689	-0.887495	0.439762	-0.137706
157	5020610													8.687184	-0.758620	-4.383018	-0.451710	-0.889045	0.074546	-0.089722	0.128401	0.987655	-0.887642	0.439445	-0.137767
158	5020777													8.625998	-0.734061	-4.366647	-0.451258	-0.889241	0.074943	-0.089760	0.128783	0.987602	-0.887868	0.438937	-0.137932
159	5020943													8.558937	-0.770091	-4.378240	-0.450807	-0.889453	0.075141	-0.089847	0.128967	0.987570	-0.888088	0.438452	-0.138054
160	5021110													8.514667	-0.826148	-4.374631	-0.450474	-0.889630	0.075042	-0.090003	0.128877	0.987568	-0.888241	0.438119	-0.138125
161	5021277													8.557931	-0.838666	-4.366404	-0.450279	-0.889750	0.074796	-0.090212	0.128674	0.987575	-0.888319	0.437937	-0.138205
162	5021443													8.633990	-0.837773	-4.339463	-0.450146	-0.889865	0.074225	-0.090510	0.128164	0.987614	-0.888356	0.437853	-0.138234
163	5021610													8.702949	-0.789900	-4.338223	-0.449944	-0.890018	0.073608	-0.090821	0.127597	0.987659	-0.888427	0.437706	-0.138244
164	5021777													8.637694	-0.734288	-4.368535	-0.449638	-0.890235	0.072857	-0.091105	0.126851	0.987729	-0.888553	0.437483	-0.138142
165	5021943													8.701313	-0.723958	-4.360124	-0.449429	-0.890387	0.072281	-0.091307	0.126276	0.987784	-0.888637	0.437339	-0.138051
166	5022110													8.591418	-0.712670	-4.354994	-0.449188	-0.890542	0.071871	-0.091631	0.125938	0.987797	-0.888726	0.437121	-0.138171
167	5022277													8.634418	-0.664480	-4.343220	-0.449048	-0.890625	0.071715	-0.091819	0.125834	0.987793	-0.888777	0.436982	-0.138282
168	5022443													8.630128	-0.703281	-4.334315	-0.448952	-0.890663	0.071840	-0.091857	0.125975	0.987771	-0.888822	0.436863	-0.138371
169	5022610													8.541500	-0.777859	-4.341296	-0.448926	-0.890647	0.072200	-0.091871	0.126376	0.987719	-0.888833	0.436780	-0.138558
170	5022777													8.616211	-0.787042	-4.328908	-0.449091	-0.890546	0.072421	-0.091910	0.126669	0.987678	-0.888746	0.436901	-0.138736
171	5022943													8.561046	-0.805925	-4.363101	-0.449201	-0.890480	0.072556	-0.091840	0.126803	0.987667	-0.888698	0.436997	-0.138742
172	5023110													8.597886	-0.804822	-4.340384	-0.449487	-0.890323	0.072708	-0.091687	0.126946	0.987663	-0.888569	0.437275	-0.138691
173	5023277													8.624430	-0.825298	-4.359465	-0.449767	-0.890177	0.072763	-0.091507	0.126967	0.987677	-0.888446	0.437567	-0.138563
174	5023443													8.647253	-0.773731	-4.366118	-0.450041	-0.890029	0.072882	-0.091361	0.127075	0.987677	-0.888322	0.437837	-0.138503
175	5023610													8.678375	-0.755127	-4.365139	-0.450261	-0.889908	0.072995	-0.091185	0.127151	0.987683	-0.888229	0.438059	-0.138398
176	5023777													8.670705	-0.746712	-4.355303	-0.450397	-0.889828	0.073131	-0.091003	0.127236	0.987689	-0.888178	0.438197	-0.138284
177	5023943													8.646247	-0.748577	-4.382693	-0.450475	-0.889775	0.073302	-0.090831	0.127354	0.987690	-0.888157	0.438271	-0.138188
178	5024110													8.627447	-0.782822	-4.369789	-0.450525	-0.889730	0.073540	-0.090671	0.127548	0.987679	-0.888147	0.438307	-0.138136
179	5024277													8.594815	-0.775204	-4.363840	-0.450585	-0.889684	0.073725	-0.090524	0.127692	0.987674	-0.888132	0.438357	-0.138073
180	5024443													8.615734	-0.781344	-4.367994	-0.450689	-0.889617	0.073899	-0.090358	0.127821	0.987673	-0.888096	0.438456	-0.137991
181	5024610													8.615387	-0.785103	-4.360802	-0.450770	-0.889573	0.073929	-0.090182	0.127782	0.987694	-0.888073	0.438556	-0.137824
182	5024777													8.597607	-0.755545	-4.396883	-0.450852	-0.889521	0.074063	-0.090029	0.127869	0.987697	-0.888047	0.438637	-0.137732
183	5024943													8.620148	-0.759962	-4.383057	-0.450946	-0.889474	0.074054	-0.089883	0.127803	0.987718	-0.888014	0.438752	-0.137581
184	5025110													8.635414	-0.749584	-4.378229	-0.451042	-0.889424	0.074067	-0.089799	0.127792	0.987727	-0.887974	0.438855	-0.137509
185	5025277													8.658753	-0.742911	-4.395360	-0.451077	-0.889409	0.074038	-0.089778	0.127755	0.987734	-0.887958	0.438897	-0.137476
186	5025610													8.662035	-0.740497	-4.389941	-0.451033	-0.889444	0.073888	-0.089798	0.127591	0.987754	-0.887979	0.438874	-0.137417
187	5025777													8.644691	-0.727623	-4.381979	-0.450918	-0.889501	0.073897	-0.089806	0.127585	0.987753	-0.888036	0.438759	-0.137413
188	5025943													8.630465	-0.758495	-4.378902	-0.450731	-0.889593	0.073933	-0.089805	0.127593	0.987753	-0.888131	0.438571	-0.137400
189	5026110													8.587830	-0.763944	-4.372981	-0.450574	-0.889678	0.073866	-0.089829	0.127502	0.987762	-0.888208	0.438424	-0.137368
190	5026277													8.590994	-0.734986	-4.382267	-0.450485	-0.889722	0.073883	-0.089842	0.127513	0.987759	-0.888252	0.438333	-0.137377
191	5026443													8.580112	-0.779692	-4.372231	-0.450440	-0.889738	0.073966	-0.089813	0.127583	0.987753	-0.888278	0.438280	-0.137379
192	5026610													8.539038	-0.749125	-4.383413	-0.450508	-0.889710	0.073878	-0.089868	0.127524	0.987756	-0.888238	0.438353	-0.137407
193	5026777													8.701482	-0.743847	-4.410843	-0.450653	-0.889633	0.073922	-0.089879	0.127603	0.987745	-0.888163	0.438486	-0.137464
194	5026943													8.672207	-0.694585	-4.398506	-0.450623	-0.889640	0.074022	-0.089837	0.127688	0.987737	-0.888182	0.438448	-0.137461
195	5027110													8.656866	-0.698893	-4.379267	-0.450580	-0.889630	0.074402	-0.089521	0.127947	0.987733	-0.888236	0.438392	-0.137291
196	5027277													8.596314	-0.778611	-4.382559	-0.450554	-0.889616	0.074729	-0.089184	0.128139	0.987738	-0.888283	0.438365	-0.137073
197	5027443													8.757002	-0.810733	-4.343629	-0.450562	-0.889599	0.074884	-0.089066	0.128254	0.987734	-0.888291	0.438366	-0.137019
198	5027610													8.688689	-0.757499	-4.344318	-0.450175	-0.889800	0.074819	-0.089129	0.128147	0.987742	-0.888481	0.437988	-0.136996
199	5027777													8.549895	-0.734073	-4.352579	-0.449831	-0.889972	0.074842	-0.089262	0.128179	0.987726	-0.888642	0.437629	-0.137100
200	5027943													8.538732	-0.785603	-4.334716	-0.449606	-0.890089	0.074802	-0.089416	0.128172	0.987713	-0.888740	0.437393	-0.137215
201	5028110													8.581007	-0.828465	-4.346200	-0.449456	-0.890193	0.074471	-0.089653	0.127896	0.987727	-0.888792	0.437263	-0.137292
202	5028277													8.619195	-0.817152	-4.351294	-0.449325	-0.890303	0.073938	-0.089944	0.127425	0.987762	-0.888829	0.437176	-0.137332
203	5028443													8.664596	-0.784339	-4.347740	-0.449187	-0.890425	0.073312	-0.090286	0.126876	0.987801	-0.888864	0.437089	-0.137384
204	5028610													8.653546	-0.740462	-4.361197	-0.448937	-0.890593	0.072798	-0.090554	0.126394	0.987838	-0.888963	0.436885	-0.137390
205	5028777													8.614063	-0.691090	-4.364750	-0.448917	-0.890639	0.072355	-0.090761	0.126001	0.987869	-0.888952	0.436904	-0.137399
206	5028943													8.697996	-0.742933	-4.340247	-0.448706	-0.890766	0.072103	-0.090934	0.125771	0.987883	-0.889041	0.436713	-0.137435
207	5029110													8.652699	-0.667026	-4.308018	-0.448664	-0.890797	0.071983	-0.091153	0.125737	0.987867	-0.889040	0.436659	-0.137612
208	5029277													8.606351	-0.702768	-4.341578	-0.448557	-0.890834	0.072195	-0.091172	0.125963	0.987836	-0.889092	0.436519	-0.137721
209	5029443													8.596789	-0.787051	-4.352721	-0.448545	-0.890813	0.072527	-0.091056	0.126272	0.987808	-0.889110	0.436472	-0.137752
210	5029610													8.595320	-0.820049	-4.346746	-0.448595	-0.890765	0.072803	-0.090983	0.126551	0.987779	-0.889092	0.436489	-0.137815
211	5029777													8.605202	-0.798151	-4.329590	-0.448696	-0.890696	0.073021	-0.090894	0.126768	0.987759	-0.889050	0.436567	-0.137840
212	5029943													8.596824	-0.795989	-4.343215	-0.448841	-0.890616	0.073103	-0.090788	0.126831	0.987761	-0.888988	0.436711	-0.137784
213	5030110													8.629889	-0.794862	-4.361439	-0.449009	-0.890524	0.073190	-0.090633	0.126880	0.987769	-0.888919	0.436884	-0.137681
214	5030277													8.660716	-0.788543	-4.342088	-0.449150	-0.890451	0.073216	-0.090490	0.126863	0.987784	-0.888862	0.437038	-0.137558
215	5030443													8.663949	-0.760573	-4.357090	-0.449217	-0.890416	0.073228	-0.090362	0.126825	0.987801	-0.888841	0.437120	-0.137432
216	5030610													8.665991	-0.756500	-4.353399	-0.449255	-0.890395	0.073263	-0.090275	0.126827	0.987808	-0.888831	0.437164	-0.137358
217	5030777													8.637109	-0.767168	-4.360319	-0.449262	-0.890382	0.073371	-0.090188	0.126906	0.987806	-0.888836	0.437167	-0.137315
218	5030943													8.605642	-0.767340	-4.349551	-0.449282	-0.890362	0.073493	-0.090096	0.127000	0.987802	-0.888836	0.437180	-0.137277
219	5031110													8.625133	-0.773062	-4.349701	-0.449366	-0.890310	0.073601	-0.089962	0.127067	0.987806	-0.888806	0.437266	-0.137194
220	5031277													8.605077	-0.771356	-4.382750	-0.449452	-0.890259	0.073696	-0.089841	0.127128	0.987809	-0.888775	0.437352	-0.137119
221	5031443													8.619514	-0.773069	-4.368394	-0.449569	-0.890198	0.073722	-0.089724	0.127119	0.987821	-0.888728	0.437479	-0.137021
222	5031610													8.627636	-0.767304	-4.367794	-0.449675	-0.890139	0.073784	-0.089644	0.127167	0.987822	-0.888682	0.437585	-0.136979
223	5031777													8.619611	-0.769657	-4.365905	-0.449771	-0.890096	0.073722	-0.089582	0.127084	0.987838	-0.888640	0.437697	-0.136895
224	5031943													8.636501	-0.753975	-4.373211	-0.449818	-0.890080	0.073629	-0.089527	0.126962	0.987859	-0.888622	0.437765	-0.136796
225	5032110													8.646857	-0.749509	-4.381282	-0.449851	-0.890074	0.073509	-0.089500	0.126821	0.987880	-0.888608	0.437819	-0.136712
226	5032277													8.666123	-0.766020	-4.380779	-0.449848	-0.890085	0.073379	-0.089524	0.126688	0.987895	-0.888607	0.437833	-0.136674
227	5032443													8.678056	-0.755629	-4.363732	-0.449727	-0.890152	0.073312	-0.089598	0.126629	0.987895	-0.888661	0.437715	-0.136704
228	5032610													8.663210	-0.739428	-4.354362	-0.449521	-0.890267	0.073186	-0.089722	0.126516	0.987899	-0.888752	0.437515	-0.136748
229	5032777													8.621354	-0.744063	-4.366775	-0.449289	-0.890384	0.073181	-0.089779	0.126498	0.987896	-0.888864	0.437281	-0.136772
230	5032943													8.592818	-0.765773	-4.344183	-0.449038	-0.890512	0.073164	-0.089829	0.126461	0.987896	-0.888986	0.437030	-0.136780
231	5033110													8.577734	-0.742881	-4.340472	-0.448876	-0.890591	0.073201	-0.089913	0.126516	0.987881	-0.889059	0.436855	-0.136866
232	5033277													8.609634	-0.732051	-4.369893	-0.448763	-0.890644	0.073247	-0.089887	0.126535	0.987881	-0.889119	0.436741	-0.136841
233	5033443													8.610091	-0.797189	-4.356855	-0.448681	-0.890672	0.073410	-0.089801	0.126659	0.987873	-0.889169	0.436648	-0.136813
234	5033610													8.610022	-0.750303	-4.375310	-0.448654	-0.890682	0.073455	-0.089831	0.126720	0.987863	-0.889179	0.436610	-0.136864
235	5033777													8.718952	-0.776419	-4.390013	-0.448542	-0.890720	0.073675	-0.089775	0.126916	0.987843	-0.889241	0.436475	-0.136891
236	5033944													8.629999	-0.728539	-4.365473	-0.448342	-0.890802	0.073905	-0.089614	0.127058	0.987839	-0.889359	0.436266	-0.136794
237	5034110													8.674477	-0.728574	-4.343725	-0.448170	-0.890857	0.074283	-0.089258	0.127274	0.987843	-0.889481	0.436091	-0.136557
238	5034277													8.663551	-0.796366	-4.330605	-0.447848	-0.890988	0.074656	-0.088852	0.127433	0.987859	-0.889684	0.435777	-0.136237
239	5034444													8.689953	-0.787236	-4.309766	-0.447520	-0.891137	0.074844	-0.088679	0.127501	0.987866	-0.889866	0.435453	-0.136084
240	5034610													8.687635	-0.747113	-4.298272	-0.447082	-0.891346	0.074972	-0.088702	0.127581	0.987854	-0.890084	0.435002	-0.136104
241	5034777													8.610322	-0.770626	-4.297155	-0.446633	-0.891572	0.074960	-0.088839	0.127559	0.987844	-0.890296	0.434544	-0.136178
242	5034944													8.563662	-0.793670	-4.293446	-0.446286	-0.891754	0.074853	-0.089014	0.127467	0.987840	-0.890452	0.434196	-0.136265
243	5035110													8.583525	-0.819681	-4.273529	-0.446092	-0.891876	0.074555	-0.089279	0.127233	0.987847	-0.890523	0.434015	-0.136383
244	5035277													8.633426	-0.852244	-4.270330	-0.445957	-0.891988	0.074023	-0.089613	0.126782	0.987874	-0.890557	0.433916	-0.136473
245	5035444													8.676517	-0.813194	-4.311967	-0.445842	-0.892100	0.073362	-0.089935	0.126188	0.987921	-0.890582	0.433859	-0.136491
246	5035610													8.630900	-0.779559	-4.301834	-0.445713	-0.892210	0.072802	-0.090145	0.125649	0.987971	-0.890625	0.433789	-0.136432
247	5035777													8.677993	-0.731955	-4.320257	-0.445799	-0.892210	0.072277	-0.090265	0.125141	0.988024	-0.890570	0.433936	-0.136323
248	5035944													8.629782	-0.759477	-4.330440	-0.445806	-0.892227	0.072026	-0.090447	0.124952	0.988032	-0.890548	0.433956	-0.136403
249	5036110													8.691395	-0.685689	-4.289028	-0.445912	-0.892181	0.071939	-0.090587	0.124942	0.988020	-0.890481	0.434054	-0.136533
250	5036277													8.617517	-0.731567	-4.310999	-0.446070	-0.892089	0.072109	-0.090563	0.125146	0.987996	-0.890405	0.434185	-0.136614
251	5036444													8.585052	-0.837834	-4.310810	-0.446258	-0.891969	0.072423	-0.090423	0.125457	0.987970	-0.890324	0.434340	-0.136641
252	5036610													8.661823	-0.838977	-4.311778	-0.446629	-0.891764	0.072654	-0.090309	0.125720	0.987947	-0.890150	0.434685	-0.136684
253	5036777													8.645942	-0.821091	-4.323010	-0.446824	-0.891650	0.072855	-0.090137	0.125892	0.987941	-0.890069	0.434869	-0.136622
254	5036944													8.596823	-0.789284	-4.342132	-0.447108	-0.891495	0.073016	-0.089892	0.126000	0.987949	-0.889951	0.435157	-0.136474
255	5037110													8.623973	-0.775310	-4.343798	-0.447449	-0.891307	0.073214	-0.089527	0.126098	0.987970	-0.889817	0.435512	-0.136219
256	5037277													8.640103	-0.781947	-4.374871	-0.447773	-0.891128	0.073417	-0.089155	0.126196	0.987991	-0.889691	0.435850	-0.135956
257	5037444													8.679715	-0.767092	-4.340242	-0.448067	-0.890961	0.073657	-0.088810	0.126343	0.988003	-0.889578	0.436150	-0.135737
258	5037610													8.669390	-0.787178	-4.369272	-0.448257	-0.890838	0.073975	-0.088520	0.126585	0.987998	-0.889511	0.436329	-0.135599
259	5037777													8.672257	-0.759693	-4.371887	-0.448373	-0.890760	0.074217	-0.088233	0.126732	0.988005	-0.889481	0.436446	-0.135417
260	5037944													8.637259	-0.760702	-4.367834	-0.448426	-0.890710	0.074500	-0.087962	0.126922	0.988005	-0.889481	0.436494	-0.135264
261	5038110													8.637506	-0.785693	-4.363120	-0.448416	-0.890693	0.074760	-0.087707	0.127084	0.988007	-0.889511	0.436481	-0.135107
262	5038277													8.604980	-0.798084	-4.380642	-0.448372	-0.890708	0.074849	-0.087514	0.127081	0.988024	-0.889553	0.436452	-0.134929
263	5038444													8.650713	-0.783211	-4.369493	-0.448376	-0.890710	0.074800	-0.087434	0.126988	0.988043	-0.889558	0.436475	-0.134817
264	5038610													8.635833	-0.778161	-4.380090	-0.448257	-0.890781	0.074668	-0.087383	0.126796	0.988072	-0.889623	0.436386	-0.134676
265	5038777													8.606373	-0.764731	-4.386221	-0.448195	-0.890819	0.074584	-0.087385	0.126693	0.988085	-0.889655	0.436337	-0.134627
266	5038944													8.601661	-0.778263	-4.386271	-0.448113	-0.890882	0.074318	-0.087436	0.126409	0.988117	-0.889691	0.436290	-0.134541
267	5039110													8.651097	-0.748769	-4.378444	-0.448100	-0.890907	0.074100	-0.087532	0.126213	0.988134	-0.889688	0.436297	-0.134539
268	5039277													8.643218	-0.744894	-4.364555	-0.447963	-0.890993	0.073896	-0.087577	0.125985	0.988159	-0.889752	0.436187	-0.134468
269	5039444													8.620337	-0.716236	-4.367651	-0.447832	-0.891069	0.073777	-0.087555	0.125821	0.988182	-0.889820	0.436080	-0.134364
270	5039610													8.629095	-0.742603	-4.361249	-0.447729	-0.891122	0.073753	-0.087467	0.125733	0.988201	-0.889881	0.435995	-0.134238
271	5039777													8.654293	-0.755309	-4.350571	-0.447602	-0.891181	0.073820	-0.087374	0.125741	0.988208	-0.889954	0.435874	-0.134148
272	5039944													8.661026	-0.735940	-4.353171	-0.447421	-0.891267	0.073881	-0.087280	0.125732	0.988217	-0.890054	0.435701	-0.134045
273	5040110													8.572577	-0.747376	-4.367983	-0.447173	-0.891387	0.073924	-0.087212	0.125706	0.988227	-0.890186	0.435461	-0.133952
274	5040277													8.621588	-0.793302	-4.350857	-0.447079	-0.891430	0.073978	-0.087195	0.125741	0.988224	-0.890234	0.435364	-0.133944
275	5040444													8.592817	-0.747436	-4.361356	-0.446980	-0.891482	0.073945	-0.087263	0.125722	0.988220	-0.890278	0.435262	-0.133989
276	5040610													8.674287	-0.745404	-4.381870	-0.446919	-0.891517	0.073898	-0.087304	0.125680	0.988222	-0.890304	0.435204	-0.134002
277	5040777													8.672539	-0.658601	-4.334810	-0.446832	-0.891555	0.073967	-0.087198	0.125689	0.988230	-0.890358	0.435123	-0.133903
278	5040944													8.758918	-0.745938	-4.330517	-0.446634	-0.891627	0.074292	-0.086928	0.125885	0.988229	-0.890484	0.434919	-0.133732
279	5041110													8.723699	-0.815304	-4.338356	-0.446204	-0.891826	0.074495	-0.086806	0.125978	0.988228	-0.890712	0.434484	-0.133627
280	5041277													8.714004	-0.775671	-4.323092	-0.445676	-0.892084	0.074555	-0.086784	0.125947	0.988234	-0.890978	0.433962	-0.133551
281	5041444													8.615408	-0.746274	-4.286180	-0.444984	-0.892421	0.074661	-0.086757	0.125936	0.988237	-0.891326	0.433272	-0.133463
282	5041610													8.564702	-0.772975	-4.276134	-0.444442	-0.892683	0.074757	-0.086685	0.125918	0.988246	-0.891604	0.432738	-0.133346
283	5041777													8.569254	-0.789457	-4.288527	-0.443963	-0.892921	0.074759	-0.086611	0.125805	0.988267	-0.891850	0.432279	-0.133189
284	5041944													8.619409	-0.798549	-4.285309	-0.443672	-0.893078	0.074619	-0.086558	0.125576	0.988301	-0.892000	0.432022	-0.133018
285	5042110													8.688541	-0.771950	-4.295173	-0.443387	-0.893246	0.074292	-0.086601	0.125189	0.988346	-0.892137	0.431786	-0.132863
286	5042277													8.687994	-0.766707	-4.290750	-0.443146	-0.893395	0.073936	-0.086708	0.124806	0.988385	-0.892246	0.431589	-0.132772
287	5042444													8.654400	-0.734860	-4.284434	-0.442889	-0.893553	0.073570	-0.086891	0.124448	0.988414	-0.892356	0.431365	-0.132758
288	5042610													8.727578	-0.747138	-4.273354	-0.442827	-0.893616	0.073172	-0.087147	0.124121	0.988433	-0.892362	0.431328	-0.132841
289	5042777													8.625154	-0.761149	-4.304309	-0.442681	-0.893719	0.072794	-0.087557	0.123877	0.988427	-0.892394	0.431185	-0.133090
290	5042944													8.689493	-0.733838	-4.256341	-0.442642	-0.893768	0.072440	-0.087902	0.123645	0.988426	-0.892380	0.431151	-0.133294
291	5043110													8.638654	-0.775564	-4.257530	-0.442644	-0.893787	0.072195	-0.088153	0.123496	0.988422	-0.892354	0.431155	-0.133455
292	5043277													8.613935	-0.823302	-4.268312	-0.442645	-0.893808	0.071924	-0.088378	0.123306	0.988425	-0.892331	0.431165	-0.133574
293	5043444													8.647216	-0.791276	-4.261905	-0.442771	-0.893767	0.071658	-0.088577	0.123128	0.988430	-0.892249	0.431300	-0.133685
294	5043610													8.610771	-0.765454	-4.283167	-0.442870	-0.893731	0.071489	-0.088723	0.123028	0.988429	-0.892185	0.431402	-0.133780
295	5043777													8.631783	-0.732994	-4.278685	-0.443114	-0.893623	0.071325	-0.088761	0.122906	0.988441	-0.892060	0.431661	-0.133780
296	5043944													8.667460	-0.749988	-4.296248	-0.443356	-0.893500	0.071368	-0.088739	0.122983	0.988433	-0.891942	0.431895	-0.133814
297	5044110													8.678991	-0.775533	-4.307956	-0.443614	-0.893364	0.071467	-0.088670	0.123102	0.988425	-0.891821	0.432142	-0.133824
298	5044277													8.702303	-0.779172	-4.296402	-0.443821	-0.893254	0.071557	-0.088627	0.123216	0.988414	-0.891722	0.432337	-0.133852
299	5044444													8.683836	-0.794468	-4.294490	-0.443923	-0.893191	0.071704	-0.088559	0.123361	0.988402	-0.891678	0.432425	-0.133863
300	5044610													8.657887	-0.810301	-4.307109	-0.444009	-0.893136	0.071858	-0.088463	0.123501	0.988394	-0.891645	0.432498	-0.133845
301	5044777													8.657426	-0.802469	-4.316965	-0.444060	-0.893103	0.071954	-0.088322	0.123547	0.988400	-0.891633	0.432554	-0.133743
302	5044944													8.666592	-0.810372	-4.314275	-0.444108	-0.893077	0.071987	-0.088128	0.123497	0.988424	-0.891628	0.432623	-0.133551
303	5045110													8.679015	-0.799765	-4.298379	-0.444095	-0.893089	0.071917	-0.087945	0.123328	0.988461	-0.891653	0.432646	-0.133312
304	5045277													8.660805	-0.782424	-4.297593	-0.444055	-0.893113	0.071866	-0.087767	0.123178	0.988496	-0.891691	0.432639	-0.133083
305	5045444													8.635124	-0.765602	-4.307292	-0.444010	-0.893138	0.071836	-0.087553	0.123034	0.988533	-0.891734	0.432629	-0.132825
306	5045610													8.630783	-0.762340	-4.319872	-0.444022	-0.893134	0.071803	-0.087392	0.122922	0.988561	-0.891744	0.432668	-0.132632
307	5045777													8.673218	-0.747921	-4.305975	-0.444064	-0.893119	0.071734	-0.087307	0.122812	0.988582	-0.891731	0.432730	-0.132512
308	5045944													8.660951	-0.731885	-4.321131	-0.444042	-0.893129	0.071750	-0.087285	0.122814	0.988584	-0.891745	0.432710	-0.132491
309	5046110													8.680294	-0.749756	-4.309874	-0.443993	-0.893150	0.071784	-0.087251	0.122827	0.988585	-0.891772	0.432662	-0.132463
310	5046277													8.667703	-0.784301	-4.318736	-0.443912	-0.893186	0.071846	-0.087257	0.122885	0.988577	-0.891812	0.432572	-0.132487
311	5046444													8.646018	-0.775239	-4.321253	-0.443828	-0.893231	0.071800	-0.087273	0.122829	0.988583	-0.891852	0.432495	-0.132470
312	5046610													8.630297	-0.761160	-4.316593	-0.443768	-0.893264	0.071762	-0.087278	0.122779	0.988589	-0.891881	0.432441	-0.132447
313	5046777													8.589046	-0.778660	-4.327804	-0.443772	-0.893272	0.071631	-0.087330	0.122660	0.988599	-0.891874	0.432457	-0.132443
314	5046944													8.580954	-0.803947	-4.317617	-0.443943	-0.893199	0.071481	-0.087487	0.122599	0.988593	-0.891774	0.432625	-0.132571
315	5047110													8.702933	-0.754233	-4.321450	-0.444199	-0.893078	0.071404	-0.087576	0.122599	0.988585	-0.891638	0.432875	-0.132671
316	5047277													8.651855	-0.745018	-4.327067	-0.444320	-0.893027	0.071294	-0.087649	0.122532	0.988587	-0.891570	0.433000	-0.132716
317	5047444													8.702238	-0.702502	-4.324257	-0.444486	-0.892938	0.071378	-0.087431	0.122547	0.988604	-0.891509	0.433180	-0.132541
318	5047610													8.747330	-0.796851	-4.343567	-0.444460	-0.892921	0.071746	-0.087110	0.122794	0.988602	-0.891553	0.433144	-0.132359
319	5047777													8.763161	-0.818887	-4.322351	-0.444211	-0.893026	0.071982	-0.086953	0.122938	0.988598	-0.891693	0.432887	-0.132262
320	5047944													8.744419	-0.774671	-4.289848	-0.443797	-0.893217	0.072158	-0.086892	0.123036	0.988591	-0.891905	0.432464	-0.132217
321	5048110													8.644545	-0.741615	-4.275582	-0.443243	-0.893471	0.072429	-0.086853	0.123226	0.988571	-0.892184	0.431886	-0.132220
322	5048277													8.579491	-0.816440	-4.270661	-0.442768	-0.893693	0.072593	-0.086857	0.123330	0.988557	-0.892419	0.431397	-0.132230
323	5048444													8.579584	-0.850152	-4.266049	-0.442437	-0.893861	0.072542	-0.086944	0.123262	0.988558	-0.892575	0.431068	-0.132252
324	5048610													8.636045	-0.854784	-4.247001	-0.442181	-0.894013	0.072231	-0.087117	0.122960	0.988580	-0.892685	0.430839	-0.132255
325	5048777													8.666786	-0.827220	-4.250829	-0.441968	-0.894163	0.071676	-0.087314	0.122406	0.988632	-0.892771	0.430685	-0.132172
326	5048944													8.691184	-0.781599	-4.277617	-0.441793	-0.894293	0.071123	-0.087497	0.121854	0.988684	-0.892840	0.430571	-0.132082
327	5049110													8.626296	-0.738800	-4.261888	-0.441694	-0.894384	0.070596	-0.087663	0.121335	0.988733	-0.892873	0.430529	-0.131997
328	5049277													8.726167	-0.741435	-4.267138	-0.441721	-0.894397	0.070260	-0.087800	0.121034	0.988758	-0.892846	0.430586	-0.131991
329	5049444													8.650268	-0.714491	-4.270342	-0.441829	-0.894368	0.069954	-0.088040	0.120830	0.988761	-0.892769	0.430705	-0.132126
330	5049610													8.671826	-0.699555	-4.247353	-0.441941	-0.894311	0.069978	-0.088124	0.120915	0.988743	-0.892705	0.430800	-0.132248
331	5049777													8.643941	-0.772491	-4.268608	-0.442160	-0.894188	0.070158	-0.088160	0.121167	0.988709	-0.892593	0.430983	-0.132407
332	5049944													8.615197	-0.822605	-4.265689	-0.442456	-0.894029	0.070321	-0.088198	0.121414	0.988676	-0.892442	0.431244	-0.132572
333	5050110													8.670924	-0.804126	-4.279482	-0.442809	-0.893844	0.070458	-0.088202	0.121626	0.988649	-0.892267	0.431568	-0.132696
334	5050277													8.638903	-0.815365	-4.277950	-0.443146	-0.893656	0.070712	-0.088067	0.121897	0.988628	-0.892113	0.431879	-0.132720
335	5050444													8.636350	-0.824649	-4.291925	-0.443511	-0.893465	0.070843	-0.087928	0.122035	0.988623	-0.891945	0.432237	-0.132684
336	5050611													8.657887	-0.809934	-4.329162	-0.443872	-0.893274	0.070988	-0.087755	0.122171	0.988622	-0.891783	0.432592	-0.132618
337	5050777													8.691234	-0.809200	-4.319827	-0.444222	-0.893094	0.071070	-0.087586	0.122238	0.988629	-0.891625	0.432946	-0.132523
338	5050944													8.703082	-0.780811	-4.313287	-0.444479	-0.892955	0.071203	-0.087436	0.122354	0.988628	-0.891512	0.433198	-0.132461
339	5051111													8.688926	-0.765636	-4.329716	-0.444656	-0.892855	0.071344	-0.087255	0.122452	0.988631	-0.891441	0.433376	-0.132355
340	5051277													8.661311	-0.762851	-4.328945	-0.444767	-0.892783	0.071559	-0.087054	0.122610	0.988630	-0.891406	0.433480	-0.132253
341	5051444													8.641588	-0.787020	-4.323610	-0.444904	-0.892696	0.071792	-0.086860	0.122797	0.988623	-0.891356	0.433606	-0.132173
342	5051611													8.642338	-0.781462	-4.355592	-0.445020	-0.892625	0.071955	-0.086655	0.122896	0.988629	-0.891318	0.433724	-0.132041
343	5051777													8.638225	-0.782023	-4.330125	-0.445088	-0.892578	0.072115	-0.086462	0.122990	0.988634	-0.891303	0.433794	-0.131916
344	5051944													8.625547	-0.783726	-4.349082	-0.445150	-0.892544	0.072159	-0.086277	0.122959	0.988654	-0.891290	0.433874	-0.131741
345	5052111													8.644487	-0.790911	-4.347398	-0.445235	-0.892499	0.072185	-0.086152	0.122941	0.988667	-0.891259	0.433971	-0.131628
346	5052277													8.655959	-0.762326	-4.319483	-0.445286	-0.892478	0.072137	-0.086072	0.122857	0.988685	-0.891242	0.434038	-0.131524
347	5052444													8.643897	-0.758700	-4.328713	-0.445322	-0.892471	0.071999	-0.086084	0.122716	0.988701	-0.891223	0.434092	-0.131476
348	5052611													8.668630	-0.768019	-4.331774	-0.445340	-0.892471	0.071890	-0.086114	0.122613	0.988711	-0.891211	0.434122	-0.131459
349	5052777													8.653114	-0.760822	-4.321428	-0.445311	-0.892499	0.071716	-0.086219	0.122467	0.988720	-0.891215	0.434105	-0.131486
350	5052944													8.655456	-0.763273	-4.340810	-0.445280	-0.892528	0.071546	-0.086339	0.122331	0.988727	-0.891219	0.434083	-0.131531
351	5053111													8.640779	-0.761051	-4.316873	-0.445266	-0.892550	0.071361	-0.086469	0.122188	0.988733	-0.891213	0.434079	-0.131584
352	5053277													8.615215	-0.755176	-4.336949	-0.445270	-0.892556	0.071267	-0.086582	0.122140	0.988729	-0.891200	0.434081	-0.131665
353	5053444													8.613185	-0.788490	-4.348347	-0.445361	-0.892515	0.071205	-0.086627	0.122108	0.988729	-0.891151	0.434173	-0.131698
354	5053611													8.552490	-0.769860	-4.331542	-0.445488	-0.892463	0.071072	-0.086733	0.122032	0.988729	-0.891077	0.434302	-0.131770
355	5053777													8.697584	-0.778622	-4.377666	-0.445765	-0.892331	0.070991	-0.086808	0.122025	0.988723	-0.890931	0.434575	-0.131856
356	5053944													8.679852	-0.705809	-4.354414	-0.445812	-0.892304	0.071024	-0.086830	0.122080	0.988715	-0.890905	0.434614	-0.131904
357	5054111													8.674224	-0.696461	-4.364649	-0.445857	-0.892255	0.071364	-0.086564	0.122335	0.988707	-0.890909	0.434644	-0.131781
358	5054277													8.698689	-0.796446	-4.371344	-0.445757	-0.892266	0.071846	-0.086230	0.122688	0.988692	-0.890991	0.434521	-0.131629
359	5054444													8.723475	-0.806663	-4.328470	-0.445579	-0.892325	0.072214	-0.086033	0.122971	0.988674	-0.891099	0.434320	-0.131562
360	5054611													8.739705	-0.788439	-4.302946	-0.445182	-0.892497	0.072537	-0.085938	0.123218	0.988652	-0.891306	0.433897	-0.131554
361	5054777													8.635476	-0.783993	-4.315348	-0.444654	-0.892736	0.072832	-0.085893	0.123437	0.988628	-0.891575	0.433342	-0.131567
362	5054944													8.589382	-0.819366	-4.298632	-0.444187	-0.892958	0.072970	-0.085903	0.123517	0.988617	-0.891807	0.432862	-0.131572
363	5055111													8.587156	-0.864364	-4.294176	-0.443823	-0.893150	0.072833	-0.086026	0.123366	0.988625	-0.891976	0.432509	-0.131587
364	5055277													8.622550	-0.867700	-4.286616	-0.443515	-0.893337	0.072412	-0.086279	0.122973	0.988652	-0.892104	0.432235	-0.131617
365	5055444													8.666127	-0.834242	-4.293564	-0.443213	-0.893534	0.071836	-0.086547	0.122416	0.988698	-0.892229	0.431986	-0.131589
366	5055611													8.704269	-0.803026	-4.284505	-0.442974	-0.893701	0.071229	-0.086822	0.121839	0.988745	-0.892321	0.431804	-0.131565
367	5055777													8.641630	-0.756468	-4.269780	-0.442706	-0.893879	0.070649	-0.087051	0.121264	0.988796	-0.892431	0.431595	-0.131498
368	5055944													8.729275	-0.769708	-4.278275	-0.442627	-0.893952	0.070218	-0.087278	0.120885	0.988822	-0.892448	0.431551	-0.131529
369	5056111													8.633964	-0.755798	-4.293977	-0.442510	-0.894043	0.069799	-0.087623	0.120568	0.988830	-0.892473	0.431451	-0.131692
370	5056277													8.660882	-0.685717	-4.255424	-0.442496	-0.894066	0.069601	-0.087845	0.120454	0.988825	-0.892458	0.431437	-0.131839
371	5056444													8.657065	-0.780086	-4.237648	-0.442564	-0.894023	0.069715	-0.087920	0.120627	0.988797	-0.892416	0.431477	-0.131987
372	5056611													8.618930	-0.845956	-4.287724	-0.442681	-0.893958	0.069799	-0.088054	0.120805	0.988763	-0.892345	0.431561	-0.132195
373	5056777													8.622132	-0.830271	-4.259541	-0.442885	-0.893864	0.069715	-0.088205	0.120819	0.988748	-0.892229	0.431752	-0.132352
374	5056944													8.632716	-0.818651	-4.285807	-0.443101	-0.893757	0.069715	-0.088282	0.120891	0.988732	-0.892114	0.431953	-0.132470
375	5057111													8.650396	-0.816981	-4.307370	-0.443362	-0.893629	0.069689	-0.088253	0.120891	0.988735	-0.891987	0.432218	-0.132464
376	5057277													8.687954	-0.802333	-4.313319	-0.443656	-0.893480	0.069730	-0.088130	0.120926	0.988742	-0.891854	0.432515	-0.132392
377	5057444													8.673173	-0.810899	-4.308405	-0.443875	-0.893368	0.069775	-0.087981	0.120939	0.988753	-0.891759	0.432744	-0.132282
378	5057611													8.678922	-0.798420	-4.311655	-0.444040	-0.893272	0.069954	-0.087806	0.121078	0.988752	-0.891694	0.432903	-0.132198
379	5057777													8.670418	-0.784503	-4.317254	-0.444174	-0.893192	0.070127	-0.087614	0.121199	0.988754	-0.891646	0.433035	-0.132089
380	5057944													8.658997	-0.799731	-4.314087	-0.444259	-0.893130	0.070382	-0.087375	0.121379	0.988753	-0.891628	0.433113	-0.131961
381	5058111													8.663928	-0.804048	-4.337932	-0.444363	-0.893048	0.070755	-0.087113	0.121682	0.988739	-0.891601	0.433195	-0.131867
382	5058277													8.650580	-0.816175	-4.324379	-0.444427	-0.892993	0.071052	-0.086833	0.121885	0.988739	-0.891597	0.433252	-0.131710
383	5058444													8.661517	-0.801761	-4.336916	-0.444469	-0.892954	0.071279	-0.086595	0.122028	0.988742	-0.891599	0.433292	-0.131562
384	5058611													8.646851	-0.801214	-4.326467	-0.444510	-0.892919	0.071460	-0.086376	0.122128	0.988749	-0.891600	0.433336	-0.131414
385	5058777													8.642878	-0.808753	-4.344921	-0.444582	-0.892869	0.071630	-0.086172	0.122230	0.988754	-0.891583	0.433410	-0.131282
386	5058944													8.652266	-0.796031	-4.334378	-0.444688	-0.892810	0.071707	-0.086020	0.122258	0.988764	-0.891545	0.433524	-0.131167
387	5059111													8.679456	-0.793797	-4.306466	-0.444745	-0.892783	0.071700	-0.085945	0.122223	0.988774	-0.891524	0.433590	-0.131089
388	5059277													8.660673	-0.773577	-4.308010	-0.444740	-0.892790	0.071638	-0.085919	0.122142	0.988787	-0.891529	0.433598	-0.131029
389	5059444													8.659672	-0.783329	-4.331549	-0.444672	-0.892833	0.071528	-0.085923	0.122010	0.988803	-0.891562	0.433547	-0.130970
390	5059611													8.652984	-0.772071	-4.321281	-0.444575	-0.892888	0.071443	-0.085954	0.121915	0.988812	-0.891608	0.433460	-0.130947
391	5059777													8.657130	-0.759346	-4.306937	-0.444477	-0.892945	0.071339	-0.086001	0.121807	0.988821	-0.891653	0.433373	-0.130934
392	5059944													8.626123	-0.769296	-4.336420	-0.444418	-0.892974	0.071343	-0.086020	0.121812	0.988819	-0.891680	0.433312	-0.130949
393	5060111													8.587937	-0.826700	-4.332838	-0.444387	-0.892994	0.071285	-0.086130	0.121796	0.988811	-0.891685	0.433275	-0.131038
394	5060277													8.622577	-0.774573	-4.350736	-0.444542	-0.892925	0.071191	-0.086233	0.121766	0.988806	-0.891598	0.433426	-0.131130
395	5060444													8.751127	-0.786819	-4.341644	-0.444561	-0.892920	0.071135	-0.086318	0.121749	0.988801	-0.891580	0.433442	-0.131199
396	5060611													8.690805	-0.701522	-4.304354	-0.444431	-0.892972	0.071294	-0.086185	0.121839	0.988801	-0.891658	0.433309	-0.131109
397	5060777													8.701719	-0.768729	-4.349472	-0.444271	-0.893023	0.071639	-0.085878	0.122046	0.988802	-0.891767	0.433144	-0.130912
398	5060944													8.661942	-0.780752	-4.322291	-0.444065	-0.893098	0.071992	-0.085605	0.122271	0.988798	-0.891896	0.432927	-0.130750
399	5061111													8.737868	-0.777617	-4.327157	-0.443799	-0.893207	0.072274	-0.085453	0.122466	0.988787	-0.892043	0.432647	-0.130678
400	5061277													8.696509	-0.749479	-4.283473	-0.443315	-0.893418	0.072644	-0.085371	0.122758	0.988758	-0.892291	0.432129	-0.130692
401	5061444													8.617682	-0.791497	-4.279354	-0.442801	-0.893653	0.072880	-0.085358	0.122929	0.988738	-0.892548	0.431593	-0.130714
402	5061611													8.592492	-0.832126	-4.293867	-0.442360	-0.893858	0.073038	-0.085408	0.123057	0.988718	-0.892761	0.431131	-0.130778
403	5061777													8.598781	-0.860276	-4.270637	-0.442045	-0.894023	0.072931	-0.085512	0.122938	0.988723	-0.892907	0.430824	-0.130794
404	5061944													8.630052	-0.864653	-4.257329	-0.441781	-0.894182	0.072576	-0.085676	0.122581	0.988753	-0.893022	0.430595	-0.130764
405	5062111													8.702868	-0.825559	-4.268362	-0.441570	-0.894331	0.072030	-0.085859	0.122032	0.988806	-0.893109	0.430443	-0.130672
406	5062277													8.693051	-0.762738	-4.266399	-0.441308	-0.894501	0.071519	-0.085981	0.121483	0.988863	-0.893227	0.430243	-0.130522
407	5062444													8.656937	-0.752502	-4.246491	-0.441162	-0.894602	0.071161	-0.086046	0.121095	0.988904	-0.893293	0.430144	-0.130400
408	5062611													8.658216	-0.766539	-4.277526	-0.441003	-0.894704	0.070857	-0.086196	0.120805	0.988927	-0.893357	0.430013	-0.130395
409	5062777													8.636433	-0.678452	-4.245885	-0.441074	-0.894688	0.070611	-0.086370	0.120629	0.988933	-0.893305	0.430094	-0.130480
410	5062944													8.626062	-0.696548	-4.245854	-0.441188	-0.894619	0.070787	-0.086295	0.120805	0.988918	-0.893256	0.430190	-0.130499
411	5063111													8.645725	-0.814676	-4.260312	-0.441373	-0.894502	0.071103	-0.086186	0.121133	0.988888	-0.893175	0.430340	-0.130558
412	5063277													8.648033	-0.833933	-4.264666	-0.441579	-0.894386	0.071281	-0.086159	0.121349	0.988864	-0.893076	0.430520	-0.130644
413	5063444													8.676808	-0.820662	-4.272126	-0.441791	-0.894271	0.071417	-0.086101	0.121506	0.988849	-0.892977	0.430715	-0.130678
414	5063611													8.643434	-0.801282	-4.285135	-0.441984	-0.894167	0.071517	-0.086020	0.121609	0.988844	-0.892889	0.430901	-0.130666
415	5063777													8.679176	-0.819148	-4.299919	-0.442198	-0.894049	0.071679	-0.085890	0.121760	0.988836	-0.892796	0.431105	-0.130632
416	5063944													8.700248	-0.793768	-4.287436	-0.442366	-0.893962	0.071729	-0.085764	0.121781	0.988845	-0.892724	0.431279	-0.130542
417	5064111													8.716004	-0.789172	-4.280130	-0.442481	-0.893902	0.071770	-0.085635	0.121783	0.988856	-0.892680	0.431404	-0.130436
418	5064277													8.706927	-0.769940	-4.279865	-0.442473	-0.893898	0.071858	-0.085581	0.121853	0.988852	-0.892689	0.431391	-0.130418
419	5064444													8.679133	-0.767805	-4.290809	-0.442403	-0.893922	0.071998	-0.085489	0.121952	0.988847	-0.892733	0.431314	-0.130372
420	5064611													8.642567	-0.783980	-4.298565	-0.442340	-0.893942	0.072140	-0.085371	0.122042	0.988847	-0.892775	0.431247	-0.130300
421	5064777													8.645063	-0.784355	-4.291746	-0.442297	-0.893952	0.072274	-0.085256	0.122127	0.988846	-0.892807	0.431202	-0.130231
422	5064944													8.645782	-0.788303	-4.287519	-0.442304	-0.893939	0.072391	-0.085135	0.122200	0.988847	-0.892815	0.431208	-0.130155
423	5065111													8.675919	-0.805283	-4.293304	-0.442321	-0.893928	0.072419	-0.085058	0.122196	0.988855	-0.892814	0.431231	-0.130085
424	5065277													8.652956	-0.791096	-4.305457	-0.442306	-0.893944	0.072321	-0.084980	0.122048	0.988880	-0.892829	0.431241	-0.129949
425	5065444													8.642659	-0.790721	-4.284583	-0.442288	-0.893959	0.072234	-0.084906	0.121913	0.988903	-0.892845	0.431247	-0.129823
426	5065611													8.649469	-0.781258	-4.299856	-0.442309	-0.893957	0.072142	-0.084860	0.121792	0.988921	-0.892839	0.431286	-0.129731
427	5065777													8.671949	-0.787545	-4.288427	-0.442323	-0.893964	0.071959	-0.084900	0.121612	0.988940	-0.892828	0.431322	-0.129690
428	5065944													8.680310	-0.778678	-4.281658	-0.442316	-0.893982	0.071777	-0.085008	0.121462	0.988949	-0.892821	0.431327	-0.129720
429	5066111													8.669120	-0.762461	-4.285903	-0.442272	-0.894015	0.071641	-0.085117	0.121357	0.988953	-0.892833	0.431288	-0.129769
430	5066277													8.673783	-0.767815	-4.287074	-0.442195	-0.894055	0.071614	-0.085185	0.121347	0.988948	-0.892864	0.431208	-0.129819
431	5066444													8.648526	-0.781613	-4.302454	-0.442113	-0.894106	0.071488	-0.085312	0.121256	0.988948	-0.892893	0.431128	-0.129887
432	5066611													8.637370	-0.779584	-4.293227	-0.442072	-0.894139	0.071336	-0.085432	0.121139	0.988952	-0.892902	0.431093	-0.129940
433	5066777													8.611270	-0.766287	-4.280239	-0.442129	-0.894116	0.071257	-0.085527	0.121107	0.988948	-0.892864	0.431149	-0.130016
434	5066944													8.630220	-0.801007	-4.312603	-0.442229	-0.894066	0.071271	-0.085589	0.121168	0.988935	-0.892809	0.431236	-0.130106
435	5067111													8.591750	-0.784526	-4.270283	-0.442472	-0.893956	0.071144	-0.085687	0.121114	0.988933	-0.892679	0.431479	-0.130190
436	5067278													8.761894	-0.808881	-4.332160	-0.442669	-0.893866	0.071049	-0.085811	0.121101	0.988924	-0.892570	0.431669	-0.130311
437	5067444													8.718962	-0.706419	-4.309469	-0.442646	-0.893875	0.071079	-0.085775	0.121113	0.988926	-0.892585	0.431647	-0.130283
438	5067611													8.718605	-0.765968	-4.302770	-0.442581	-0.893885	0.071364	-0.085493	0.121282	0.988930	-0.892644	0.431580	-0.130098
439	5067778													8.676404	-0.801330	-4.319193	-0.442408	-0.893944	0.071689	-0.085238	0.121491	0.988926	-0.892754	0.431398	-0.129947
440	5067944													8.744521	-0.809378	-4.297273	-0.442216	-0.894022	0.071893	-0.085149	0.121642	0.988915	-0.892857	0.431193	-0.129918
441	5068111													8.722547	-0.761763	-4.225607	-0.441790	-0.894221	0.072044	-0.085170	0.121751	0.988900	-0.893066	0.430750	-0.129949
442	5068278													8.640319	-0.780652	-4.270972	-0.441337	-0.894432	0.072198	-0.085225	0.121874	0.988880	-0.893285	0.430277	-0.130015
443	5068444													8.587988	-0.833911	-4.242574	-0.440956	-0.894620	0.072202	-0.085337	0.121871	0.988871	-0.893463	0.429887	-0.130084
444	5068611													8.591118	-0.879324	-4.265902	-0.440717	-0.894760	0.071919	-0.085513	0.121604	0.988888	-0.893564	0.429670	-0.130106
445	5068778													8.630321	-0.861723	-4.252500	-0.440555	-0.894885	0.071354	-0.085789	0.121086	0.988928	-0.893617	0.429556	-0.130117
446	5068944													8.689281	-0.821044	-4.261657	-0.440439	-0.894996	0.070678	-0.086078	0.120460	0.988979	-0.893647	0.429501	-0.130095
447	5069111													8.719719	-0.766394	-4.256409	-0.440311	-0.895106	0.070080	-0.086289	0.119880	0.989031	-0.893689	0.429434	-0.130022
448	5069278													8.659845	-0.752977	-4.251107	-0.440244	-0.895178	0.069588	-0.086460	0.119408	0.989074	-0.893706	0.429417	-0.129965
449	5069444													8.720003	-0.770287	-4.279936	-0.440192	-0.895226	0.069292	-0.086644	0.119161	0.989087	-0.893713	0.429385	-0.130019
450	5069611													8.657245	-0.727509	-4.244109	-0.440268	-0.895210	0.069017	-0.086889	0.118986	0.989087	-0.893652	0.429467	-0.130169
451	5069778													8.644372	-0.725859	-4.246533	-0.440346	-0.895159	0.069180	-0.086906	0.119188	0.989061	-0.893612	0.429517	-0.130279
452	5069944													8.636336	-0.809453	-4.265406	-0.440514	-0.895051	0.069510	-0.086813	0.119535	0.989027	-0.893538	0.429646	-0.130359
453	5070111													8.640627	-0.864834	-4.274045	-0.440785	-0.894902	0.069704	-0.086782	0.119778	0.989001	-0.893408	0.429888	-0.130458
454	5070278													8.659408	-0.850859	-4.256643	-0.441119	-0.894730	0.069804	-0.086753	0.119928	0.988985	-0.893246	0.430204	-0.130523
455	5070444													8.666944	-0.835910	-4.261549	-0.441423	-0.894573	0.069887	-0.086659	0.120024	0.988982	-0.893105	0.430503	-0.130504
456	5070611													8.681211	-0.820311	-4.289128	-0.441738	-0.894414	0.069934	-0.086491	0.120046	0.988994	-0.892965	0.430828	-0.130388
457	5070778													8.681804	-0.811037	-4.304253	-0.441974	-0.894294	0.069983	-0.086272	0.120032	0.989014	-0.892870	0.431081	-0.130203
458	5070944													8.691753	-0.779102	-4.284962	-0.442163	-0.894195	0.070050	-0.086063	0.120037	0.989032	-0.892796	0.431285	-0.130033
459	5071111													8.687057	-0.782929	-4.307453	-0.442322	-0.894101	0.070244	-0.085829	0.120164	0.989037	-0.892740	0.431444	-0.129891
460	5071278													8.682635	-0.769423	-4.295064	-0.442453	-0.894012	0.070556	-0.085608	0.120422	0.989025	-0.892696	0.431557	-0.129816
461	5071444													8.657261	-0.792340	-4.298068	-0.442545	-0.893943	0.070849	-0.085323	0.120623	0.989025	-0.892678	0.431643	-0.129655
462	5071611													8.648044	-0.815450	-4.305994	-0.442647	-0.893870	0.071129	-0.085059	0.120822	0.989023	-0.892652	0.431738	-0.129513
463	5071778													8.662773	-0.791940	-4.312228	-0.442766	-0.893789	0.071410	-0.084793	0.121024	0.989021	-0.892619	0.431850	-0.129372
464	5071944													8.663030	-0.807097	-4.299639	-0.442893	-0.893709	0.071628	-0.084518	0.121152	0.989029	-0.892582	0.431980	-0.129192
465	5072111													8.650437	-0.798835	-4.307320	-0.443015	-0.893638	0.071750	-0.084275	0.121189	0.989045	-0.892544	0.432116	-0.129000
466	5072278													8.666663	-0.783433	-4.321021	-0.443086	-0.893601	0.071784	-0.084069	0.121138	0.989069	-0.892529	0.432208	-0.128798
467	5072444													8.671059	-0.755352	-4.325205	-0.443150	-0.893571	0.071759	-0.083872	0.121025	0.989100	-0.892515	0.432301	-0.128577
468	5072611													8.665927	-0.752509	-4.291006	-0.443166	-0.893557	0.071829	-0.083726	0.121034	0.989111	-0.892521	0.432327	-0.128452
469	5072778													8.662525	-0.764003	-4.316668	-0.443180	-0.893551	0.071822	-0.083681	0.121008	0.989118	-0.892518	0.432347	-0.128402
470	5072944													8.682254	-0.769038	-4.307145	-0.443165	-0.893559	0.071810	-0.083687	0.120995	0.989119	-0.892525	0.432334	-0.128400
471	5073111													8.669339	-0.770115	-4.324065	-0.443106	-0.893590	0.071792	-0.083781	0.121011	0.989109	-0.892545	0.432266	-0.128486
472	5073278													8.654328	-0.767959	-4.293244	-0.443004	-0.893642	0.071769	-0.083868	0.121011	0.989102	-0.892588	0.432157	-0.128556
473	5073444													8.645398	-0.763386	-4.312738	-0.442910	-0.893684	0.071827	-0.083939	0.121095	0.989086	-0.892628	0.432047	-0.128649
474	5073611													8.632933	-0.768203	-4.327106	-0.442827	-0.893724	0.071844	-0.084029	0.121144	0.989072	-0.892661	0.431951	-0.128745
475	5073778													8.648900	-0.732027	-4.320576	-0.442754	-0.893756	0.071896	-0.084096	0.121222	0.989057	-0.892691	0.431862	-0.128833
476	5073944													8.663429	-0.769538	-4.324925	-0.442686	-0.893780	0.072025	-0.084223	0.121416	0.989022	-0.892713	0.431760	-0.129026
477	5074111													8.647493	-0.736541	-4.323366	-0.442600	-0.893818	0.072072	-0.084427	0.121552	0.988988	-0.892736	0.431641	-0.129261
478	5074278													8.763578	-0.780821	-4.354481	-0.442397	-0.893901	0.072287	-0.084564	0.121824	0.988943	-0.892823	0.431393	-0.129486
479	5074444													8.708206	-0.743491	-4.313776	-0.441990	-0.894083	0.072530	-0.084584	0.122038	0.988915	-0.893023	0.430956	-0.129565
480	5074611													8.702216	-0.787763	-4.341373	-0.441494	-0.894300	0.072867	-0.084338	0.122212	0.988914	-0.893292	0.430455	-0.129379
481	5074778													8.675087	-0.838464	-4.310396	-0.440901	-0.894568	0.073168	-0.084029	0.122300	0.988930	-0.893614	0.429872	-0.129092
482	5074944													8.702950	-0.823821	-4.290419	-0.440306	-0.894854	0.073262	-0.083836	0.122217	0.988956	-0.893925	0.429302	-0.128834
483	5075111													8.712585	-0.767087	-4.250526	-0.439546	-0.895230	0.073226	-0.083795	0.122037	0.988982	-0.894303	0.428567	-0.128657
484	5075278													8.653793	-0.737391	-4.221556	-0.438758	-0.895611	0.073291	-0.083791	0.121982	0.988989	-0.894690	0.427786	-0.128564
485	5075444													8.600262	-0.775604	-4.245780	-0.438054	-0.895957	0.073280	-0.083839	0.121881	0.988997	-0.895031	0.427090	-0.128507
486	5075611													8.612299	-0.844985	-4.199970	-0.437470	-0.896256	0.073114	-0.084015	0.121689	0.989006	-0.895300	0.426518	-0.128534
487	5075778													8.688743	-0.864783	-4.228801	-0.436952	-0.896535	0.072788	-0.084289	0.121377	0.989021	-0.895527	0.426019	-0.128604
488	5075944													8.725677	-0.832914	-4.224736	-0.436430	-0.896833	0.072247	-0.084613	0.120852	0.989058	-0.895751	0.425541	-0.128627
489	5076111													8.737177	-0.796783	-4.224111	-0.435841	-0.897160	0.071737	-0.084925	0.120344	0.989093	-0.896008	0.424995	-0.128642
490	5076278													8.694945	-0.729877	-4.232343	-0.435291	-0.897466	0.071247	-0.085205	0.119850	0.989129	-0.896249	0.424488	-0.128639
491	5076444													8.776515	-0.772586	-4.248946	-0.434660	-0.897793	0.070976	-0.085510	0.119596	0.989133	-0.896526	0.423868	-0.128754
492	5076611													8.739238	-0.702708	-4.218749	-0.434023	-0.898122	0.070720	-0.085938	0.119415	0.989118	-0.896794	0.423223	-0.129011
493	5076778													8.732231	-0.718069	-4.224178	-0.433172	-0.898520	0.070876	-0.086151	0.119553	0.989083	-0.897184	0.422337	-0.129195
494	5076944													8.715599	-0.855517	-4.250246	-0.432252	-0.898950	0.071041	-0.086385	0.119698	0.989045	-0.897605	0.421380	-0.129396
495	5077111													8.763963	-0.890122	-4.277788	-0.431201	-0.899449	0.071115	-0.086676	0.119750	0.989013	-0.898083	0.420300	-0.129597
496	5077278													8.818255	-0.856836	-4.286804	-0.429830	-0.900112	0.071027	-0.087037	0.119603	0.988999	-0.898705	0.418919	-0.129752
497	5077444													8.865646	-0.877690	-4.300019	-0.428077	-0.900948	0.071019	-0.087317	0.119447	0.988993	-0.899514	0.417164	-0.129800
498	5077611													8.893876	-0.858296	-4.301461	-0.425815	-0.902022	0.070981	-0.087547	0.119155	0.989008	-0.900565	0.414921	-0.129708
499	5077778													8.886803	-0.831242	-4.328722	-0.422969	-0.903354	0.071048	-0.087694	0.118847	0.989032	-0.901891	0.412100	-0.129488
500	5077944													8.928718	-0.777903	-4.312600	-0.419533	-0.904930	0.071372	-0.087697	0.118664	0.989054	-0.903494	0.408681	-0.129143
501	5078111													8.929520	-0.804840	-4.302326	-0.415483	-0.906747	0.072004	-0.087568	0.118665	0.989065	-0.905376	0.404635	-0.128705
502	5078278													8.932095	-0.808046	-4.268113	-0.410872	-0.908784	0.072776	-0.087439	0.118737	0.989068	-0.907490	0.400017	-0.128249
503	5078444													8.961685	-0.797907	-4.237131	-0.405650	-0.911050	0.073735	-0.087281	0.118911	0.989061	-0.909852	0.394777	-0.127754
504	5078611													8.912507	-0.845087	-4.222629	-0.399872	-0.913519	0.074734	-0.087112	0.119045	0.989060	-0.912422	0.388987	-0.127181
505	5078778													8.859227	-0.842191	-4.178925	-0.393647	-0.916136	0.075743	-0.087009	0.119159	0.989055	-0.915135	0.382748	-0.126619
506	5078944													8.890362	-0.869044	-4.123207	-0.387112	-0.918845	0.076599	-0.087038	0.119121	0.989057	-0.917915	0.376209	-0.126088
507	5079111													8.920035	-0.821024	-4.053707	-0.380187	-0.921668	0.077364	-0.087190	0.118987	0.989060	-0.920791	0.369282	-0.125598
508	5079278													8.940881	-0.834665	-3.992061	-0.372962	-0.924549	0.078162	-0.087400	0.118873	0.989055	-0.923721	0.362048	-0.125140
509	5079444													8.974440	-0.808900	-3.906803	-0.365405	-0.927497	0.078922	-0.087694	0.118709	0.989049	-0.926709	0.354482	-0.124713
510	5079611													9.041447	-0.788515	-3.798325	-0.357570	-0.930471	0.079795	-0.088082	0.118664	0.989020	-0.929723	0.346616	-0.124388
511	5079778													9.095110	-0.803099	-3.708680	-0.349425	-0.933481	0.080720	-0.088654	0.118703	0.988964	-0.932761	0.338413	-0.124235
512	5079944													9.146082	-0.817332	-3.587939	-0.340999	-0.936512	0.081643	-0.089465	0.118784	0.988881	-0.935797	0.329904	-0.124291
513	5080111													9.152225	-0.830431	-3.451883	-0.332343	-0.939539	0.082549	-0.090482	0.118882	0.988777	-0.938808	0.321144	-0.124521
514	5080278													9.196683	-0.812556	-3.329652	-0.323562	-0.942519	0.083455	-0.091603	0.118988	0.988661	-0.941762	0.312248	-0.124838
515	5080444													9.228793	-0.780895	-3.162050	-0.314660	-0.945444	0.084408	-0.092730	0.119118	0.988540	-0.944664	0.303227	-0.125152
516	5080611													9.249459	-0.757115	-3.013110	-0.305739	-0.948258	0.085614	-0.093725	0.119458	0.988406	-0.947491	0.294170	-0.125398
517	5080778													9.303894	-0.784856	-2.902136	-0.296800	-0.950967	0.087011	-0.094638	0.119960	0.988258	-0.950239	0.285081	-0.125602
518	5080944													9.268433	-0.780915	-2.782664	-0.287892	-0.953543	0.088736	-0.095388	0.120751	0.988089	-0.952901	0.275998	-0.125720
519	5081111													9.186643	-0.922062	-2.755720	-0.279077	-0.955990	0.090546	-0.095973	0.121588	0.987930	-0.955461	0.267018	-0.125682
520	5081278													9.216354	-0.955497	-2.694091	-0.270530	-0.958278	0.092282	-0.096355	0.122327	0.987802	-0.957877	0.258338	-0.125428
521	5081444													9.231339	-0.957390	-2.606321	-0.262114	-0.960465	0.093829	-0.096541	0.122838	0.987720	-0.960196	0.249837	-0.124921
522	5081611													9.185941	-0.924495	-2.527665	-0.253881	-0.962529	0.095298	-0.096440	0.123226	0.987681	-0.962416	0.241563	-0.124111
523	5081778													9.235675	-0.925515	-2.448837	-0.245925	-0.964456	0.096673	-0.096093	0.123504	0.987681	-0.964514	0.233606	-0.123050
524	5081944													9.288076	-0.974726	-2.351661	-0.238160	-0.966285	0.097841	-0.095700	0.123598	0.987707	-0.966500	0.225869	-0.121909
525	5082111													9.368420	-0.928917	-2.259949	-0.230460	-0.968064	0.098697	-0.095485	0.123435	0.987748	-0.968386	0.218212	-0.120882
526	5082278													9.410361	-0.927259	-2.189803	-0.222644	-0.969831	0.099288	-0.095415	0.123032	0.987805	-0.970219	0.210455	-0.119929
527	5082444													9.425266	-0.884183	-2.110905	-0.214731	-0.971564	0.099768	-0.095477	0.122544	0.987860	-0.971995	0.202599	-0.119076
528	5082611													9.463816	-0.915488	-2.080867	-0.206635	-0.973291	0.100034	-0.095570	0.121830	0.987939	-0.973739	0.194583	-0.118191
529	5082778													9.464673	-0.923197	-2.060633	-0.198293	-0.975015	0.100133	-0.095739	0.120941	0.988032	-0.975456	0.186333	-0.117328
530	5082944													9.582043	-0.908137	-2.028686	-0.189623	-0.976748	0.100035	-0.096003	0.119839	0.988141	-0.977152	0.177771	-0.116495
531	5083111													9.722236	-0.907338	-1.942007	-0.180470	-0.978504	0.099802	-0.096383	0.118573	0.988256	-0.978847	0.168731	-0.115710
532	5083278													9.792843	-0.898967	-1.862815	-0.170388	-0.980334	0.099566	-0.096925	0.117228	0.988364	-0.980599	0.158755	-0.114993
533	5083444													9.876472	-1.002501	-1.810346	-0.159557	-0.982190	0.099215	-0.097611	0.115707	0.988476	-0.982351	0.148034	-0.114334
534	5083611													9.899319	-0.927184	-1.673373	-0.147600	-0.984111	0.098686	-0.098634	0.113927	0.988581	-0.984117	0.136181	-0.113882
535	5083778													9.849759	-0.944667	-1.637130	-0.134881	-0.985996	0.098079	-0.099872	0.112008	0.988676	-0.985816	0.123559	-0.113581
536	5083945													9.732162	-0.945457	-1.526840	-0.121401	-0.987800	0.097539	-0.101261	0.110078	0.988751	-0.987425	0.110159	-0.113390
537	5084111													9.631970	-0.972128	-1.448531	-0.107483	-0.989467	0.096969	-0.102854	0.108077	0.988808	-0.988872	0.096306	-0.113387
538	5084278													9.662608	-1.028875	-1.297679	-0.093552	-0.990957	0.096191	-0.104672	0.105869	0.988856	-0.990097	0.082441	-0.113630
539	5084445													9.727187	-1.057285	-1.104838	-0.079539	-0.992277	0.095187	-0.106592	0.103409	0.988911	-0.991116	0.068511	-0.113994
540	5084611													9.729049	-1.012550	-0.887711	-0.065492	-0.993407	0.094095	-0.108440	0.100824	0.988977	-0.991943	0.054566	-0.114328
541	5084778													9.716043	-1.018883	-0.731418	-0.051389	-0.994336	0.093028	-0.110044	0.098222	0.989061	-0.992597	0.040590	-0.114469
542	5084945													9.713746	-1.033851	-0.531929	-0.037296	-0.995053	0.092083	-0.111347	0.095711	0.989162	-0.993081	0.026638	-0.114366
543	5085111													9.694268	-1.094190	-0.370160	-0.023239	-0.995556	0.091256	-0.112389	0.093303	0.989274	-0.993393	0.012734	-0.114058
544	5085278													9.641621	-1.061633	-0.173167	-0.009338	-0.995852	0.090505	-0.113163	0.090980	0.989402	-0.993533	-0.001003	-0.113544
545	5085445													9.545377	-1.022969	-0.025842	0.004218	-0.995933	0.090003	-0.113660	0.088943	0.989530	-0.993511	-0.014404	-0.112823
546	5085611													9.486908	-1.002522	0.143752	0.017170	-0.995805	0.089875	-0.113845	0.087356	0.989651	-0.993350	-0.027224	-0.111867
547	5085778													9.457127	-1.008046	0.283234	0.029401	-0.995496	0.090133	-0.113814	0.086252	0.989751	-0.993067	-0.039358	-0.110765
548	5085945													9.549999	-1.067190	0.446969	0.040838	-0.995046	0.090640	-0.113653	0.085500	0.989835	-0.992681	-0.050724	-0.109598
549	5086111													9.536354	-1.066602	0.596508	0.051694	-0.994487	0.091232	-0.113420	0.084917	0.989912	-0.992201	-0.061520	-0.108405
550	5086278													9.645078	-1.075923	0.729549	0.061892	-0.993835	0.091985	-0.113144	0.084581	0.989972	-0.991649	-0.071679	-0.107212
551	5086445													9.688917	-1.082501	0.855940	0.071866	-0.993083	0.092847	-0.112772	0.084401	0.990030	-0.991019	-0.081620	-0.105927
552	5086611													9.598497	-1.117815	0.912203	0.081599	-0.992249	0.093717	-0.112303	0.084278	0.990094	-0.990318	-0.091316	-0.104556
553	5086778													9.566478	-1.159891	0.954913	0.090902	-0.991382	0.094329	-0.111664	0.083977	0.990191	-0.989580	-0.100544	-0.103068
554	5086945													9.580437	-1.129237	1.003662	0.100044	-0.990475	0.094602	-0.110874	0.083390	0.990330	-0.988786	-0.109565	-0.101475
555	5087111													9.751109	-1.045627	1.107372	0.109083	-0.989510	0.094717	-0.109884	0.082698	0.990498	-0.987940	-0.118455	-0.099710
556	5087278													9.662990	-1.055062	1.183921	0.118420	-0.988428	0.094800	-0.108786	0.081982	0.990679	-0.986987	-0.127629	-0.097818
557	5087445													9.645583	-1.005908	1.247288	0.127927	-0.987244	0.094785	-0.107747	0.081170	0.990859	-0.985913	-0.136971	-0.095989
558	5087611													9.582368	-0.925972	1.320389	0.137592	-0.985946	0.094758	-0.106807	0.080341	0.991029	-0.984714	-0.146478	-0.094252
559	5087778													9.685269	-0.890517	1.380973	0.147446	-0.984509	0.094880	-0.105960	0.079654	0.991175	-0.983378	-0.156198	-0.092574
560	5087945													9.722712	-0.869969	1.472097	0.157700	-0.982881	0.095263	-0.105247	0.079191	0.991288	-0.981862	-0.166352	-0.090957
561	5088111													9.699526	-0.909265	1.559381	0.168305	-0.981071	0.095776	-0.104692	0.078822	0.991376	-0.980160	-0.176880	-0.089445
562	5088278													9.780113	-0.960906	1.699821	0.179117	-0.979093	0.096407	-0.104375	0.078528	0.991433	-0.978275	-0.187645	-0.088127
563	5088445													9.673940	-0.969794	1.809240	0.190292	-0.976916	0.097073	-0.104203	0.078222	0.991475	-0.976182	-0.198786	-0.086913
564	5088611													9.510863	-0.912759	1.907105	0.201323	-0.974631	0.097791	-0.104040	0.077994	0.991510	-0.973984	-0.209788	-0.085698
565	5088778													9.464048	-0.909263	1.986123	0.212091	-0.972257	0.098657	-0.103810	0.077968	0.991536	-0.971720	-0.220538	-0.084394
566	5088945													9.445827	-0.910012	2.065554	0.222527	-0.969805	0.099800	-0.103512	0.078286	0.991543	-0.969416	-0.230976	-0.082965
567	5089111													9.645671	-1.005161	2.190051	0.232765	-0.967274	0.101005	-0.103207	0.078704	0.991541	-0.967041	-0.241221	-0.081510
568	5089278													9.607833	-1.051788	2.297041	0.243362	-0.964538	0.102179	-0.102954	0.079063	0.991539	-0.964456	-0.251822	-0.080063
569	5089445													9.538257	-1.053593	2.356816	0.254098	-0.961660	0.103174	-0.102705	0.079243	0.991550	-0.961710	-0.262547	-0.078632
570	5089611													9.439458	-1.021042	2.449499	0.264915	-0.958646	0.104008	-0.102400	0.079283	0.991579	-0.958819	-0.273334	-0.077162
571	5089778													9.384192	-1.016066	2.527269	0.275750	-0.955511	0.104690	-0.101970	0.079220	0.991628	-0.955805	-0.284116	-0.075589
572	5089945													9.475940	-1.025050	2.618063	0.286703	-0.952224	0.105218	-0.101386	0.079054	0.991701	-0.952640	-0.294991	-0.073877
573	5090111													9.484803	-1.021525	2.754698	0.297960	-0.948722	0.105581	-0.100689	0.078752	0.991796	-0.949253	-0.306146	-0.072061
574	5090278													9.484628	-1.041506	2.866707	0.309575	-0.944972	0.105785	-0.099903	0.078311	0.991911	-0.945612	-0.317639	-0.070162
575	5090445													9.408089	-1.026909	2.979311	0.321274	-0.941061	0.105772	-0.099039	0.077691	0.992046	-0.941793	-0.329194	-0.068241
576	5090611													9.338845	-1.040686	3.146222	0.333026	-0.936985	0.105601	-0.098115	0.076951	0.992196	-0.937799	-0.340788	-0.066306
577	5090778													9.303060	-0.966690	3.365406	0.344442	-0.932900	0.105154	-0.097092	0.076009	0.992369	-0.933774	-0.352023	-0.064396
578	5090945													9.058928	-0.919830	3.526926	0.355476	-0.928808	0.104659	-0.096061	0.075075	0.992540	-0.929736	-0.362878	-0.062535
579	5091111													9.018650	-0.851364	3.642057	0.365469	-0.924984	0.104097	-0.095061	0.074159	0.992705	-0.925957	-0.372699	-0.060827
580	5091278													9.003374	-0.805630	3.777185	0.374554	-0.921405	0.103546	-0.094083	0.073331	0.992860	-0.922420	-0.381621	-0.059223
581	5091445													9.087612	-0.754664	3.908385	0.382843	-0.918043	0.103098	-0.093240	0.072633	0.992991	-0.919096	-0.389772	-0.057791
582	5091611													9.150958	-0.726735	3.956078	0.390826	-0.914696	0.102884	-0.092603	0.072134	0.993087	-0.915794	-0.397652	-0.056511
583	5091778													9.101242	-0.735089	4.001988	0.398666	-0.911301	0.102934	-0.092233	0.071829	0.993143	-0.912447	-0.405426	-0.055417
584	5091945													9.092018	-0.716893	4.034879	0.406534	-0.907785	0.103233	-0.092016	0.071735	0.993170	-0.908990	-0.413256	-0.054368
585	5092111													8.949338	-0.774806	4.071154	0.414366	-0.904175	0.103771	-0.091935	0.071853	0.993169	-0.905455	-0.421075	-0.053352
586	5092278													8.899731	-0.782980	4.073752	0.422112	-0.900506	0.104452	-0.091860	0.072139	0.993155	-0.901878	-0.428818	-0.052269
587	5092445													8.850847	-0.783207	4.135265	0.429837	-0.896745	0.105302	-0.091781	0.072626	0.993127	-0.898230	-0.436548	-0.051087
588	5092611													8.829558	-0.812327	4.176180	0.437557	-0.892880	0.106342	-0.091708	0.073334	0.993082	-0.894502	-0.444282	-0.049797
589	5092778													8.834436	-0.866092	4.214076	0.445440	-0.888842	0.107441	-0.091518	0.074172	0.993037	-0.890622	-0.452171	-0.048305
590	5092945													8.841702	-0.895277	4.277932	0.453494	-0.884629	0.108513	-0.091249	0.075028	0.992998	-0.886576	-0.460220	-0.046697
591	5093111													8.885910	-0.896013	4.366562	0.462090	-0.880043	0.109527	-0.090811	0.075898	0.992972	-0.882171	-0.468789	-0.044846
592	5093278													8.773357	-0.880778	4.449151	0.471141	-0.875128	0.110356	-0.090215	0.076647	0.992969	-0.877433	-0.477783	-0.042838
593	5093445													8.729663	-0.885515	4.519666	0.480551	-0.869917	0.110979	-0.089483	0.077248	0.992988	-0.872390	-0.487112	-0.040721
594	5093611													8.632539	-0.870063	4.618116	0.490152	-0.864492	0.111375	-0.088681	0.077654	0.993028	-0.867114	-0.496612	-0.038602
595	5093778													8.580510	-0.852502	4.721175	0.499953	-0.858838	0.111558	-0.087815	0.077876	0.993088	-0.861589	-0.506294	-0.036485
596	5093945													8.625633	-0.840458	4.924225	0.509945	-0.852963	0.111403	-0.086971	0.077720	0.993175	-0.855799	-0.516153	-0.034550
597	5094111													8.624161	-0.725214	5.119408	0.520549	-0.846574	0.111087	-0.086287	0.077279	0.993269	-0.849460	-0.526631	-0.032820
598	5094278													8.415839	-0.676091	5.256234	0.531182	-0.839976	0.110842	-0.085859	0.076785	0.993344	-0.842896	-0.537163	-0.031332
599	5094445													8.260812	-0.660699	5.382412	0.541390	-0.833446	0.110747	-0.085724	0.076316	0.993392	-0.836390	-0.547306	-0.030130
600	5094611													8.152308	-0.693560	5.439406	0.550938	-0.827155	0.110821	-0.085734	0.075992	0.993416	-0.830130	-0.556812	-0.029049
601	5094778													8.182697	-0.711040	5.478814	0.559935	-0.821074	0.110948	-0.085744	0.075764	0.993432	-0.824088	-0.565771	-0.027979
602	5094945													8.237794	-0.799075	5.507420	0.568692	-0.815015	0.111084	-0.085687	0.075615	0.993449	-0.818075	-0.574485	-0.026834
603	5095111													8.150242	-0.886692	5.545278	0.577475	-0.808816	0.111083	-0.085488	0.075409	0.993481	-0.811920	-0.583207	-0.025597
604	5095278													8.150025	-0.872308	5.615869	0.586123	-0.802611	0.110798	-0.085127	0.074990	0.993544	-0.805738	-0.591771	-0.024370
605	5095445													8.054286	-0.851940	5.675408	0.594876	-0.796221	0.110243	-0.084567	0.074395	0.993637	-0.799356	-0.600414	-0.023079
606	5095611													8.040776	-0.792620	5.789955	0.603533	-0.789764	0.109634	-0.083847	0.073873	0.993737	-0.792917	-0.608946	-0.021634
607	5095778													7.983214	-0.796267	5.923969	0.612183	-0.783170	0.108980	-0.083044	0.073382	0.993840	-0.786343	-0.617463	-0.020114
608	5095945													7.920780	-0.777577	6.075843	0.620823	-0.776436	0.108286	-0.082246	0.072858	0.993945	-0.779624	-0.625971	-0.018627
609	5096111													7.848343	-0.758171	6.229489	0.629353	-0.769632	0.107616	-0.081557	0.072304	0.994043	-0.772828	-0.634380	-0.017264
610	5096278													7.700322	-0.705004	6.343918	0.637649	-0.762874	0.106898	-0.080894	0.071689	0.994141	-0.766068	-0.642561	-0.015999
611	5096445													7.605987	-0.713837	6.496491	0.645438	-0.756371	0.106358	-0.080327	0.071257	0.994218	-0.759577	-0.650250	-0.014765
612	5096611													7.565866	-0.754325	6.631787	0.652628	-0.750267	0.105714	-0.079671	0.070797	0.994304	-0.753478	-0.657333	-0.013570
613	5096778													7.477376	-0.733934	6.777789	0.659246	-0.744566	0.104961	-0.078925	0.070299	0.994399	-0.747774	-0.663837	-0.012420
614	5096945													7.514612	-0.729707	6.894339	0.665353	-0.739231	0.104129	-0.078147	0.069749	0.994499	-0.742428	-0.669830	-0.011361
615	5097111													7.447675	-0.666597	6.983406	0.671189	-0.734055	0.103289	-0.077380	0.069196	0.994597	-0.737236	-0.675555	-0.010357
616	5097278													7.363916	-0.685677	7.002920	0.676617	-0.729156	0.102572	-0.076781	0.068674	0.994680	-0.732321	-0.680893	-0.009519
617	5097445													7.339950	-0.749847	7.024607	0.681606	-0.724591	0.101887	-0.076384	0.068024	0.994755	-0.727722	-0.685814	-0.008982
618	5097611													7.247582	-0.703452	7.030923	0.686289	-0.720268	0.101095	-0.076095	0.067127	0.994838	-0.723337	-0.690440	-0.008740
619	5097778													7.237184	-0.677148	7.065140	0.690352	-0.716480	0.100347	-0.075885	0.066225	0.994915	-0.719482	-0.694457	-0.008652
620	5097945													7.273844	-0.727907	7.080781	0.694277	-0.712763	0.099745	-0.075649	0.065551	0.994978	-0.715721	-0.698335	-0.008409
621	5098111													7.145338	-0.784441	7.066831	0.697966	-0.709253	0.099008	-0.075168	0.064932	0.995055	-0.712175	-0.701957	-0.007993
622	5098278													7.163524	-0.784698	7.096030	0.701471	-0.705898	0.098215	-0.074457	0.064469	0.995138	-0.708798	-0.705373	-0.007336
623	5098445													7.063828	-0.829294	7.094240	0.704893	-0.702631	0.097139	-0.073386	0.063970	0.995250	-0.705507	-0.708674	-0.006471
624	5098611													6.991014	-0.746009	7.118856	0.708157	-0.699510	0.095907	-0.072068	0.063513	0.995375	-0.702367	-0.711794	-0.005435
625	5098778													6.943979	-0.642910	7.153826	0.711200	-0.696598	0.094581	-0.070569	0.063117	0.995508	-0.699439	-0.714680	-0.004269
626	5098945													6.982449	-0.633249	7.222506	0.714050	-0.693823	0.093502	-0.069202	0.062954	0.995614	-0.696666	-0.717389	-0.003062
627	5099111													7.003104	-0.595550	7.297319	0.716973	-0.690942	0.092458	-0.067925	0.062758	0.995715	-0.693784	-0.720181	-0.001936
628	5099278													6.900670	-0.549079	7.347101	0.719778	-0.688148	0.091492	-0.066814	0.062512	0.995805	-0.690981	-0.722872	-0.000983
629	5099445													6.868267	-0.471930	7.398164	0.722491	-0.685403	0.090715	-0.065958	0.062280	0.995877	-0.688227	-0.725496	-0.000211
630	5099611													6.828893	-0.408540	7.447755	0.724881	-0.682946	0.090177	-0.065320	0.062173	0.995926	-0.685770	-0.727818	0.000458
631	5099778													6.821452	-0.558657	7.452183	0.726950	-0.680777	0.089929	-0.064991	0.062164	0.995948	-0.683608	-0.729848	0.000946
632	5099945													6.863663	-0.506093	7.470435	0.728694	-0.678966	0.089500	-0.064660	0.061893	0.995986	-0.681780	-0.731556	0.001199
633	5100111													6.824530	-0.495476	7.427631	0.730328	-0.677265	0.089069	-0.064391	0.061553	0.996025	-0.680055	-0.733160	0.001344
634	5100278													6.780753	-0.453689	7.422700	0.731567	-0.675977	0.088679	-0.064158	0.061235	0.996059	-0.678744	-0.734374	0.001428
635	5100445													6.845873	-0.542649	7.411467	0.732525	-0.674983	0.088339	-0.064020	0.060886	0.996089	-0.677723	-0.735316	0.001388
636	5100612													6.875404	-0.468908	7.414010	0.733242	-0.674256	0.087950	-0.063900	0.060444	0.996124	-0.676959	-0.736020	0.001235
637	5100778													6.938164	-0.569978	7.395070	0.733848	-0.673633	0.087669	-0.063935	0.059993	0.996149	-0.676299	-0.736627	0.000957
638	5100945													6.916295	-0.508633	7.392108	0.734505	-0.672959	0.087340	-0.064022	0.059412	0.996178	-0.675577	-0.737289	0.000555
639	5101112													6.800470	-0.518814	7.364295	0.735138	-0.672303	0.087067	-0.064148	0.058870	0.996202	-0.674876	-0.737931	0.000151
640	5101278													6.871001	-0.564485	7.386039	0.735541	-0.671900	0.086774	-0.064275	0.058298	0.996228	-0.674425	-0.738344	-0.000306
641	5101445													6.841034	-0.625561	7.353701	0.735966	-0.671464	0.086543	-0.064449	0.057764	0.996248	-0.673944	-0.738782	-0.000763
642	5101612													6.811838	-0.574758	7.342006	0.736277	-0.671192	0.086008	-0.064423	0.056998	0.996294	-0.673606	-0.739089	-0.001274
643	5101778													6.871525	-0.473217	7.359967	0.736406	-0.671097	0.085647	-0.064428	0.056455	0.996324	-0.673465	-0.739217	-0.001664
644	5101945													6.959415	-0.563046	7.343082	0.736572	-0.670939	0.085458	-0.064531	0.056062	0.996340	-0.673274	-0.739390	-0.002003
645	5102112													6.808362	-0.642942	7.267733	0.736733	-0.670783	0.085292	-0.064716	0.055610	0.996353	-0.673080	-0.739566	-0.002441
646	5102278													6.805999	-0.640540	7.285221	0.736605	-0.670969	0.084929	-0.064882	0.054890	0.996382	-0.673204	-0.739451	-0.003102
647	5102445													7.022720	-0.577003	7.292164	0.736525	-0.671111	0.084502	-0.064964	0.054166	0.996416	-0.673283	-0.739376	-0.003704
648	5102612													6.915872	-0.558936	7.263823	0.736611	-0.671055	0.084194	-0.065054	0.053610	0.996441	-0.673181	-0.739466	-0.004166
649	5102778													6.848903	-0.564213	7.287947	0.736732	-0.670942	0.084044	-0.065171	0.053257	0.996452	-0.673037	-0.739595	-0.004489
650	5102945													6.916485	-0.577655	7.291648	0.736849	-0.670811	0.084058	-0.065316	0.053117	0.996450	-0.672894	-0.739724	-0.004675
651	5103112													6.883225	-0.670607	7.293622	0.737001	-0.670641	0.084088	-0.065449	0.053013	0.996447	-0.672715	-0.739886	-0.004823
652	5103278													6.875491	-0.614545	7.301559	0.737254	-0.670380	0.083949	-0.065419	0.052838	0.996458	-0.672441	-0.740134	-0.004901
653	5103445													6.832343	-0.657119	7.332552	0.737369	-0.670261	0.083881	-0.065377	0.052782	0.996464	-0.672319	-0.740246	-0.004900
654	5103612													6.881387	-0.612003	7.352526	0.737579	-0.670058	0.083665	-0.065191	0.052662	0.996482	-0.672107	-0.740438	-0.004840
655	5103778													6.785345	-0.598851	7.332770	0.737726	-0.669918	0.083491	-0.065022	0.052589	0.996497	-0.671962	-0.740570	-0.004763
656	5103945													6.838651	-0.669619	7.338810	0.737758	-0.669904	0.083319	-0.064901	0.052466	0.996512	-0.671939	-0.740591	-0.004770
657	5104112													6.872236	-0.683746	7.410941	0.737715	-0.670012	0.082826	-0.064631	0.052031	0.996552	-0.672011	-0.740524	-0.004919
658	5104278													6.910583	-0.584650	7.474037	0.737689	-0.670106	0.082303	-0.064396	0.051512	0.996594	-0.672063	-0.740476	-0.005152
659	5104445													6.841445	-0.650050	7.469582	0.737538	-0.670337	0.081765	-0.064180	0.050952	0.996637	-0.672249	-0.740305	-0.005443
660	5104612													6.798442	-0.752506	7.486222	0.737217	-0.670766	0.081139	-0.064001	0.050221	0.996685	-0.672618	-0.739966	-0.005906
661	5104778													6.763077	-0.597812	7.500133	0.736498	-0.671683	0.080082	-0.063547	0.049160	0.996767	-0.673448	-0.739206	-0.006477
662	5104945													6.827953	-0.532448	7.539957	0.735329	-0.673059	0.079267	-0.063170	0.048384	0.996829	-0.674760	-0.738005	-0.006939
663	5105112													6.896770	-0.626920	7.565248	0.733681	-0.674919	0.078718	-0.062944	0.047844	0.996870	-0.676572	-0.736339	-0.007379
664	5105278													6.811719	-0.661616	7.573644	0.731677	-0.677152	0.078185	-0.062636	0.047425	0.996909	-0.678767	-0.734313	-0.007714
665	5105445													6.665635	-0.656145	7.517404	0.728835	-0.680250	0.077846	-0.062283	0.047354	0.996934	-0.681851	-0.731449	-0.007855
666	5105612													6.756958	-0.679082	7.415878	0.725191	-0.684163	0.077588	-0.061810	0.047545	0.996955	-0.685768	-0.727778	-0.007809
667	5105778													7.012223	-0.672577	7.343877	0.721280	-0.688317	0.077296	-0.061152	0.047878	0.996980	-0.689939	-0.723828	-0.007559
668	5105945													7.077238	-0.529677	7.262568	0.717608	-0.692163	0.077132	-0.060364	0.048519	0.996997	-0.693826	-0.720109	-0.006964
669	5106112													6.987417	-0.563242	7.141216	0.714142	-0.695730	0.077210	-0.059568	0.049499	0.996996	-0.697462	-0.716596	-0.006094
670	5106278													7.011070	-0.593439	7.037302	0.710742	-0.699199	0.077244	-0.058720	0.050453	0.996999	-0.700998	-0.713144	-0.005198
671	5106445													7.103751	-0.564638	6.963052	0.707502	-0.702479	0.077232	-0.057972	0.051226	0.997003	-0.704330	-0.709859	-0.004481
672	5106612													7.161251	-0.468020	6.906074	0.704414	-0.705589	0.077101	-0.057315	0.051725	0.997015	-0.707471	-0.706731	-0.004005
673	5106778													7.258053	-0.403734	6.883100	0.701684	-0.708298	0.077153	-0.056918	0.052216	0.997012	-0.710211	-0.703979	-0.003676
674	5106945													7.154003	-0.388908	6.845961	0.699059	-0.710858	0.077444	-0.056822	0.052738	0.996990	-0.712803	-0.701355	-0.003526
675	5107112													7.223225	-0.437031	6.826286	0.696399	-0.713427	0.077790	-0.056879	0.053184	0.996963	-0.715397	-0.698709	-0.003542
676	5107278													7.278043	-0.506799	6.883789	0.693601	-0.716101	0.078214	-0.057095	0.053585	0.996930	-0.718094	-0.695937	-0.003719
677	5107445													7.403983	-0.567770	6.914258	0.690723	-0.718850	0.078463	-0.057222	0.053830	0.996909	-0.720852	-0.693078	-0.003952
678	5107612													7.401813	-0.582928	6.910448	0.687869	-0.721570	0.078575	-0.057268	0.053963	0.996899	-0.723573	-0.690236	-0.004203
679	5107778													7.350585	-0.577902	6.911008	0.684922	-0.724372	0.078535	-0.057197	0.054001	0.996901	-0.726368	-0.687292	-0.004445
680	5107945													7.411191	-0.577121	6.880333	0.681848	-0.727289	0.078321	-0.057004	0.053914	0.996917	-0.729270	-0.684210	-0.004697
681	5108112													7.301869	-0.510564	6.848105	0.678687	-0.730282	0.077923	-0.056739	0.053646	0.996947	-0.732232	-0.681036	-0.005027
682	5108278													7.424212	-0.428973	6.842330	0.675374	-0.733382	0.077587	-0.056563	0.053383	0.996971	-0.735303	-0.677717	-0.005429
683	5108445													7.352356	-0.386274	6.803195	0.671865	-0.736611	0.077475	-0.056561	0.053270	0.996977	-0.738511	-0.674216	-0.005874
684	5108612													7.385809	-0.373115	6.787461	0.667928	-0.740166	0.077633	-0.056845	0.053270	0.996961	-0.742052	-0.670311	-0.006495
685	5108778													7.453011	-0.393927	6.749341	0.663683	-0.743931	0.078050	-0.057452	0.053338	0.996922	-0.745804	-0.666125	-0.007341
686	5108945													7.389876	-0.459582	6.673570	0.659048	-0.747976	0.078658	-0.058285	0.053476	0.996867	-0.749839	-0.661568	-0.008352
687	5109112													7.399885	-0.460859	6.621576	0.653571	-0.752711	0.079197	-0.059322	0.053371	0.996811	-0.754537	-0.656185	-0.009770
688	5109278													7.594607	-0.428352	6.614820	0.647744	-0.757665	0.079826	-0.060602	0.053204	0.996743	-0.759444	-0.650472	-0.011453
689	5109445													7.517244	-0.430232	6.555388	0.641593	-0.762797	0.080619	-0.061980	0.053205	0.996658	-0.764537	-0.644446	-0.013142
690	5109612													7.497727	-0.528058	6.460865	0.634765	-0.768371	0.081721	-0.063510	0.053522	0.996545	-0.770090	-0.637762	-0.014826
691	5109778													7.625556	-0.649301	6.426813	0.627273	-0.774397	0.082697	-0.064949	0.053799	0.996437	-0.776087	-0.630409	-0.016549
692	5109945													7.849583	-0.627124	6.391502	0.619559	-0.780507	0.083402	-0.066173	0.053939	0.996349	-0.782156	-0.622816	-0.018230
693	5110112													7.909803	-0.574708	6.311372	0.611854	-0.786478	0.084182	-0.067309	0.054272	0.996255	-0.788102	-0.615229	-0.019731
694	5110278													7.920105	-0.568404	6.199291	0.604185	-0.792289	0.085084	-0.068362	0.054845	0.996152	-0.793906	-0.607676	-0.021025
695	5110445													7.933585	-0.557357	6.166390	0.596348	-0.798104	0.086018	-0.069370	0.055517	0.996045	-0.799723	-0.599957	-0.022257
696	5110612													8.042448	-0.523772	6.059205	0.588472	-0.803806	0.087154	-0.070483	0.056383	0.995918	-0.805439	-0.592213	-0.023475
697	5110778													8.138318	-0.521716	5.971387	0.580605	-0.809358	0.088532	-0.071750	0.057452	0.995767	-0.811018	-0.584499	-0.024715
698	5110945													8.184800	-0.580877	5.878735	0.572896	-0.814657	0.090135	-0.073238	0.058650	0.995588	-0.816350	-0.576970	-0.026063
699	5111112													8.212949	-0.543422	5.749687	0.565236	-0.819792	0.091925	-0.075019	0.059889	0.995382	-0.821511	-0.569521	-0.027648
700	5111278													8.264897	-0.560235	5.648490	0.557617	-0.824754	0.094048	-0.077234	0.061258	0.995129	-0.826498	-0.562164	-0.029540
701	5111445													8.395023	-0.674254	5.531740	0.550220	-0.829429	0.096463	-0.079844	0.062733	0.994831	-0.831193	-0.555079	-0.031708
702	5111612													8.364655	-0.749075	5.434199	0.542953	-0.833905	0.099018	-0.082708	0.064236	0.994501	-0.835680	-0.548157	-0.034093
703	5111778													8.392292	-0.878234	5.335966	0.535827	-0.838194	0.101585	-0.085567	0.065788	0.994158	-0.839981	-0.541389	-0.036471
704	5111945													8.358166	-1.016221	5.246672	0.528681	-0.842446	0.103834	-0.088112	0.067199	0.993841	-0.844235	-0.534574	-0.038703
705	5112112													8.353380	-1.068981	5.178626	0.521413	-0.846738	0.105656	-0.090175	0.068449	0.993571	-0.848526	-0.527588	-0.040664
706	5112278													8.362155	-1.093872	5.078898	0.513849	-0.851172	0.107076	-0.091627	0.069647	0.993355	-0.852973	-0.520245	-0.042203
707	5112445													8.460165	-1.137772	4.975630	0.506032	-0.855721	0.108041	-0.092418	0.070747	0.993204	-0.857549	-0.512578	-0.043284
708	5112612													8.546425	-1.123956	4.902901	0.498082	-0.860310	0.108544	-0.092573	0.071705	0.993121	-0.862175	-0.504703	-0.043926
709	5112778													8.557800	-1.050855	4.812266	0.489993	-0.864934	0.108610	-0.092198	0.072473	0.993100	-0.866837	-0.496626	-0.044234
710	5112945													8.494727	-0.999919	4.753689	0.481559	-0.869683	0.108410	-0.091498	0.073132	0.993116	-0.871624	-0.488164	-0.044357
711	5113112													8.582439	-0.958127	4.679306	0.472588	-0.874634	0.108058	-0.090699	0.073693	0.993148	-0.876604	-0.479151	-0.044502
712	5113278													8.699518	-0.893899	4.629509	0.463207	-0.879676	0.107749	-0.089914	0.074305	0.993174	-0.881677	-0.469733	-0.044677
713	5113445													8.798022	-0.871687	4.539591	0.453567	-0.884716	0.107496	-0.089127	0.074984	0.993194	-0.886754	-0.460061	-0.044841
714	5113612													8.888947	-0.862677	4.461319	0.443884	-0.889630	0.107360	-0.088330	0.075786	0.993204	-0.891720	-0.450351	-0.044941
715	5113778													8.863514	-0.854415	4.338146	0.434121	-0.894449	0.107238	-0.087491	0.076616	0.993215	-0.896596	-0.440558	-0.044996
716	5113945													8.864947	-0.867793	4.225047	0.424173	-0.899223	0.107126	-0.086646	0.077453	0.993224	-0.901427	-0.430581	-0.045060
717	5114112													8.871972	-0.843919	4.115005	0.413939	-0.903994	0.106998	-0.085808	0.078269	0.993233	-0.906251	-0.420319	-0.045172
718	5114278													8.997796	-0.810844	4.005757	0.403478	-0.908734	0.106809	-0.085040	0.078984	0.993242	-0.911029	-0.409835	-0.045410
719	5114445													8.994482	-0.778082	3.901262	0.392927	-0.913367	0.106623	-0.084385	0.079646	0.993245	-0.915690	-0.399270	-0.045780
720	5114612													8.975941	-0.745619	3.814798	0.382011	-0.918004	0.106473	-0.083814	0.080321	0.993239	-0.920349	-0.388352	-0.046258
721	5114778													8.961195	-0.725117	3.706908	0.370677	-0.922643	0.106440	-0.083420	0.081066	0.993212	-0.925008	-0.377039	-0.046917
722	5114945													8.984514	-0.749569	3.570301	0.358725	-0.927351	0.106473	-0.083208	0.081843	0.993166	-0.929727	-0.365133	-0.047804
723	5115112													8.989382	-0.799885	3.449606	0.346213	-0.932091	0.106507	-0.083058	0.082629	0.993113	-0.934472	-0.352675	-0.048810
724	5115278													9.007344	-0.846182	3.339115	0.333049	-0.936889	0.106385	-0.082876	0.083304	0.993072	-0.939260	-0.339558	-0.049902
725	5115445													9.061929	-0.837921	3.166508	0.319169	-0.941750	0.106013	-0.082654	0.083775	0.993051	-0.944086	-0.325714	-0.051101
726	5115612													9.157126	-0.789294	3.043097	0.304615	-0.946608	0.105564	-0.082383	0.084231	0.993035	-0.948906	-0.311190	-0.052326
727	5115778													9.276323	-0.813527	2.907124	0.289723	-0.951336	0.104973	-0.082077	0.084578	0.993031	-0.953585	-0.296320	-0.053579
728	5115945													9.405843	-0.770818	2.757200	0.274437	-0.955937	0.104255	-0.081809	0.084815	0.993033	-0.958119	-0.281054	-0.054928
729	5116112													9.546102	-0.753515	2.591739	0.259183	-0.960275	0.103420	-0.081620	0.084919	0.993039	-0.962373	-0.265820	-0.056368
730	5116278													9.573912	-0.674170	2.455054	0.244122	-0.964285	0.102757	-0.081609	0.085159	0.993020	-0.966305	-0.250804	-0.057905
731	5116445													9.592444	-0.642894	2.321971	0.229429	-0.967934	0.102303	-0.081778	0.085566	0.992971	-0.969884	-0.236182	-0.059524
732	5116612													9.590303	-0.655274	2.204846	0.214957	-0.971275	0.102074	-0.082054	0.086187	0.992894	-0.973170	-0.221805	-0.061170
733	5116778													9.536192	-0.703675	2.013236	0.200665	-0.974335	0.102000	-0.082392	0.086964	0.992798	-0.976189	-0.207624	-0.062827
734	5116945													9.571401	-0.728613	1.855621	0.186380	-0.977172	0.101966	-0.082871	0.087779	0.992687	-0.978977	-0.193467	-0.064619
735	5117112													9.505907	-0.777999	1.734961	0.172112	-0.979796	0.101867	-0.083545	0.088519	0.992565	-0.981528	-0.179343	-0.066622
736	5117279													9.577294	-0.821099	1.599362	0.157661	-0.982257	0.101556	-0.084499	0.089046	0.992437	-0.983871	-0.165050	-0.068961
737	5117445													9.615422	-0.779530	1.473544	0.143349	-0.984490	0.101142	-0.085698	0.089465	0.992296	-0.985955	-0.150912	-0.071544
738	5117612													9.683862	-0.789555	1.290121	0.129113	-0.986504	0.100692	-0.086983	0.089884	0.992147	-0.987808	-0.136857	-0.074204
739	5117779													9.749528	-0.828981	1.141332	0.114975	-0.988291	0.100312	-0.088332	0.090411	0.991980	-0.989433	-0.122914	-0.076903
740	5117945													9.716648	-0.837687	1.022847	0.101045	-0.989873	0.099705	-0.089603	0.090756	0.991834	-0.990839	-0.109154	-0.079526
741	5118112													9.737304	-0.885612	0.859002	0.086984	-0.991266	0.099123	-0.090910	0.091186	0.991676	-0.992053	-0.095271	-0.082184
742	5118279													9.747221	-0.924331	0.712763	0.073090	-0.992465	0.098340	-0.092234	0.091455	0.991529	-0.993051	-0.081541	-0.084855
743	5118445													9.924080	-0.862295	0.578268	0.059485	-0.993469	0.097375	-0.093478	0.091575	0.991401	-0.993843	-0.068076	-0.087421
744	5118612													9.870142	-0.798648	0.463398	0.046471	-0.994240	0.096577	-0.094539	0.091870	0.991273	-0.994436	-0.055195	-0.089725
745	5118779													9.738809	-0.828949	0.267824	0.033669	-0.994807	0.096052	-0.095355	0.092471	0.991139	-0.994874	-0.042530	-0.091747
746	5118945													9.660292	-0.903157	0.157335	0.020789	-0.995201	0.095614	-0.095980	0.093207	0.991010	-0.995166	-0.029779	-0.093581
747	5119112													9.838231	-0.940168	0.038485	0.007992	-0.995432	0.095139	-0.096639	0.093928	0.990878	-0.995287	-0.017113	-0.095447
748	5119279													9.885981	-0.978454	-0.096206	-0.004489	-0.995500	0.094657	-0.097407	0.094643	0.990734	-0.995234	-0.004773	-0.097394
749	5119445													9.996059	-0.953167	-0.203314	-0.016359	-0.995421	0.094178	-0.098284	0.095335	0.990581	-0.995024	0.006949	-0.099394
750	5119612													9.907553	-0.960848	-0.332915	-0.027491	-0.995203	0.093885	-0.099105	0.096171	0.990419	-0.994697	0.017923	-0.101274
751	5119779													9.761177	-0.991045	-0.466857	-0.038213	-0.994871	0.093656	-0.099757	0.097055	0.990267	-0.994278	0.028498	-0.102954
752	5119945													9.614785	-1.053041	-0.547337	-0.048947	-0.994443	0.093206	-0.100182	0.097736	0.990157	-0.993764	0.039127	-0.104409
753	5120112													9.792012	-1.090794	-0.638446	-0.059739	-0.993921	0.092475	-0.100534	0.098160	0.990080	-0.993139	0.049849	-0.105787
754	5120279													9.635388	-1.019773	-0.745752	-0.069973	-0.993352	0.091407	-0.100852	0.098207	0.990043	-0.992438	0.060057	-0.107054
755	5120445													9.445447	-0.924800	-0.849986	-0.080665	-0.992639	0.090336	-0.101113	0.098313	0.990005	-0.991599	0.070725	-0.108300
756	5120612													9.690520	-0.884997	-0.939278	-0.091639	-0.991768	0.089437	-0.101289	0.098633	0.989956	-0.990627	0.081659	-0.109494
757	5120779													9.741686	-0.864743	-1.062442	-0.102450	-0.990776	0.088691	-0.101424	0.099100	0.989895	-0.989554	0.092420	-0.110642
758	5120945													9.717112	-0.859354	-1.115258	-0.113200	-0.989650	0.088198	-0.101672	0.099841	0.989795	-0.988357	0.103077	-0.111922
759	5121112													9.658869	-0.884105	-1.231035	-0.123657	-0.988410	0.088057	-0.102078	0.100938	0.989642	-0.987061	0.113388	-0.113376
760	5121279													9.526516	-0.864874	-1.347175	-0.134032	-0.987047	0.088165	-0.102597	0.102311	0.989448	-0.985652	0.123573	-0.114981
761	5121445													9.551112	-0.883051	-1.420183	-0.144613	-0.985539	0.088317	-0.103050	0.103770	0.989248	-0.984108	0.133957	-0.116566
762	5121612													9.627818	-0.921232	-1.486592	-0.155311	-0.983885	0.088595	-0.103495	0.105395	0.989030	-0.982429	0.144438	-0.118197
763	5121779													9.752874	-0.983495	-1.589943	-0.165618	-0.982168	0.088971	-0.103990	0.107106	0.988794	-0.980692	0.154510	-0.119874
764	5121945													9.633218	-1.008759	-1.708562	-0.175392	-0.980443	0.089273	-0.104556	0.108716	0.988559	-0.978931	0.164051	-0.121579
765	5122112													9.590038	-1.036635	-1.853775	-0.185016	-0.978648	0.089542	-0.105068	0.110291	0.988330	-0.977103	0.173449	-0.123231
766	5122279													9.537585	-1.086155	-1.968612	-0.194489	-0.976806	0.089582	-0.105556	0.111637	0.988127	-0.975209	0.182724	-0.124820
767	5122445													9.527537	-1.104572	-2.026194	-0.203778	-0.974931	0.089353	-0.106000	0.112703	0.987959	-0.973262	0.191853	-0.126309
768	5122612													9.612994	-1.154618	-2.128947	-0.212909	-0.973022	0.088875	-0.106514	0.113532	0.987808	-0.971249	0.200847	-0.127812
769	5122779													9.597627	-1.126626	-2.242023	-0.221462	-0.971175	0.088169	-0.107173	0.114105	0.987671	-0.969262	0.209283	-0.129353
770	5122945													9.582087	-1.084722	-2.252912	-0.229646	-0.969336	0.087463	-0.107875	0.114662	0.987530	-0.967277	0.217348	-0.130899
771	5123112													9.582463	-1.129935	-2.348305	-0.237362	-0.967548	0.086658	-0.108695	0.115100	0.987389	-0.965321	0.224949	-0.132488
772	5123279													9.550452	-1.170640	-2.417342	-0.244667	-0.965813	0.085691	-0.109626	0.115364	0.987255	-0.963390	0.232155	-0.134104
773	5123445													9.460832	-1.227718	-2.461467	-0.251490	-0.964170	0.084438	-0.110642	0.115310	0.987148	-0.961515	0.238916	-0.135677
774	5123612													9.213900	-1.244805	-2.522845	-0.258005	-0.962590	0.082792	-0.111787	0.114860	0.987072	-0.959655	0.245414	-0.137240
775	5123779													9.130677	-1.213228	-2.597034	-0.265004	-0.960877	0.080554	-0.112882	0.113882	0.987061	-0.957617	0.252481	-0.138644
776	5123945													9.302830	-1.176731	-2.661579	-0.272051	-0.959119	0.077966	-0.113905	0.112549	0.987096	-0.955518	0.259659	-0.139867
777	5124112													9.312327	-1.125203	-2.743468	-0.279016	-0.957333	0.075251	-0.114814	0.111058	0.987159	-0.953398	0.266794	-0.140902
778	5124279													9.418026	-1.149398	-2.773974	-0.285901	-0.955507	0.072573	-0.115646	0.109585	0.987227	-0.951255	0.273856	-0.141831
779	5124445													9.429550	-1.155203	-2.835728	-0.292250	-0.953771	0.070073	-0.116583	0.108257	0.987263	-0.949209	0.280358	-0.142831
780	5124612													9.241501	-1.128566	-2.894654	-0.298465	-0.952023	0.067613	-0.117618	0.106991	0.987279	-0.947145	0.286716	-0.143908
781	5124779													9.182442	-1.162676	-2.917190	-0.304855	-0.950160	0.065262	-0.118704	0.105897	0.987267	-0.944972	0.293227	-0.145071
782	5124945													9.161276	-1.111597	-2.985902	-0.311394	-0.948193	0.062959	-0.119818	0.104901	0.987238	-0.942697	0.299876	-0.146276
783	5125112													9.097708	-1.095379	-3.075714	-0.318024	-0.946124	0.060911	-0.120804	0.104161	0.987196	-0.940355	0.306593	-0.147421
784	5125279													9.157107	-1.119658	-3.168038	-0.324794	-0.943932	0.059170	-0.121736	0.103765	0.987124	-0.937918	0.313409	-0.148612
785	5125445													9.126296	-1.170461	-3.245594	-0.331403	-0.941726	0.057654	-0.122634	0.103583	0.987032	-0.935486	0.320035	-0.149815
786	5125612													9.167675	-1.203313	-3.291010	-0.337811	-0.939524	0.056382	-0.123490	0.103628	0.986920	-0.933078	0.326430	-0.151028
787	5125779													9.055797	-1.219881	-3.352251	-0.343894	-0.937374	0.055384	-0.124335	0.103918	0.986784	-0.930741	0.332463	-0.152285
788	5125945													8.981717	-1.210044	-3.440263	-0.349950	-0.935175	0.054609	-0.125026	0.104400	0.986645	-0.928388	0.338449	-0.153456
789	5126112													9.018723	-1.211144	-3.482186	-0.356024	-0.932913	0.054038	-0.125458	0.105021	0.986525	-0.926017	0.344447	-0.154431
790	5126279													9.078499	-1.251467	-3.533388	-0.361856	-0.930683	0.053756	-0.125695	0.105846	0.986406	-0.923721	0.350180	-0.155283
791	5126445													8.970958	-1.285270	-3.614807	-0.367367	-0.928530	0.053599	-0.125752	0.106687	0.986308	-0.921536	0.355597	-0.155958
792	5126612													9.009181	-1.263024	-3.654793	-0.372830	-0.926358	0.053460	-0.125724	0.107515	0.986222	-0.919343	0.360972	-0.156550
793	5126779													9.017693	-1.256819	-3.705129	-0.378045	-0.924246	0.053396	-0.125561	0.108331	0.986154	-0.917233	0.366106	-0.157003
794	5126945													8.996050	-1.247057	-3.764670	-0.383080	-0.922165	0.053490	-0.125222	0.109217	0.986099	-0.915188	0.371057	-0.157314
795	5127112													9.021379	-1.237249	-3.822026	-0.387814	-0.920175	0.053645	-0.124819	0.110091	0.986053	-0.913247	0.375709	-0.157550
796	5127279													8.981175	-1.240222	-3.875520	-0.392180	-0.918305	0.053961	-0.124311	0.111029	0.986012	-0.911450	0.379986	-0.157699
797	5127445													8.944623	-1.263406	-3.912749	-0.396202	-0.916554	0.054339	-0.123819	0.111978	0.985966	-0.909776	0.383914	-0.157852
798	5127612													8.884647	-1.266160	-3.952610	-0.399824	-0.914944	0.054930	-0.123324	0.113081	0.985903	-0.908258	0.387413	-0.158047
799	5127779													8.793221	-1.270765	-3.976628	-0.403294	-0.913391	0.055414	-0.122898	0.114074	0.985841	-0.906780	0.390773	-0.158259
800	5127945													8.770895	-1.241552	-3.975089	-0.406828	-0.911805	0.055698	-0.122455	0.114856	0.985806	-0.905260	0.394233	-0.158382
801	5128112													8.806096	-1.236074	-4.039472	-0.410361	-0.910212	0.055846	-0.122036	0.115502	0.985782	-0.903721	0.397711	-0.158476
802	5128279													8.772326	-1.216797	-4.091754	-0.413735	-0.908682	0.055867	-0.121602	0.115975	0.985780	-0.902240	0.401058	-0.158480
803	5128445													8.817685	-1.233917	-4.152849	-0.417120	-0.907146	0.055660	-0.121201	0.116216	0.985801	-0.900734	0.404451	-0.158423
804	5128612													8.815471	-1.245162	-4.213187	-0.420261	-0.905714	0.055340	-0.120824	0.116299	0.985838	-0.899323	0.407622	-0.158308
805	5128779													8.722337	-1.268686	-4.225831	-0.423200	-0.904378	0.054790	-0.120548	0.116138	0.985891	-0.897981	0.410624	-0.158170
806	5128945													8.760638	-1.247159	-4.279778	-0.426066	-0.903090	0.053819	-0.120529	0.115621	0.985954	-0.896627	0.413595	-0.158110
807	5129112													8.873981	-1.290818	-4.342177	-0.428641	-0.901942	0.052600	-0.120651	0.114842	0.986030	-0.895383	0.416307	-0.158046
808	5129279													8.806405	-1.218331	-4.349927	-0.430865	-0.900977	0.050949	-0.121003	0.113630	0.986127	-0.894267	0.418723	-0.157980
809	5129445													8.787842	-1.182028	-4.352520	-0.432759	-0.900159	0.049336	-0.121293	0.112367	0.986236	-0.893313	0.420818	-0.157811
810	5129612													8.812485	-1.218233	-4.334215	-0.434210	-0.899541	0.047827	-0.121591	0.111135	0.986339	-0.892568	0.422463	-0.157632
811	5129779													8.869554	-1.262258	-4.276899	-0.434969	-0.899238	0.046621	-0.121959	0.110132	0.986406	-0.892148	0.423370	-0.157574
812	5129945													8.783838	-1.251175	-4.299671	-0.434827	-0.899350	0.045782	-0.122367	0.109379	0.986439	-0.892161	0.423328	-0.157612
813	5130112													8.644364	-1.213468	-4.267134	-0.434250	-0.899663	0.045094	-0.122724	0.108681	0.986472	-0.892393	0.422842	-0.157605
814	5130279													8.542425	-1.193856	-4.248058	-0.433716	-0.899950	0.044492	-0.122877	0.107991	0.986529	-0.892632	0.422406	-0.157421
815	5130445													8.536345	-1.210014	-4.257629	-0.433377	-0.900142	0.043923	-0.122849	0.107289	0.986609	-0.892800	0.422178	-0.157079
816	5130612													8.574513	-1.198895	-4.239099	-0.433222	-0.900244	0.043357	-0.122746	0.106589	0.986698	-0.892890	0.422137	-0.156678
817	5130779													8.598916	-1.195201	-4.253849	-0.433208	-0.900274	0.042875	-0.122538	0.105960	0.986791	-0.892925	0.422232	-0.156220
818	5130945													8.654244	-1.173253	-4.230075	-0.433309	-0.900241	0.042530	-0.122257	0.105468	0.986879	-0.892915	0.422424	-0.155761
819	5131112													8.679544	-1.143664	-4.240188	-0.433509	-0.900150	0.042420	-0.121866	0.105202	0.986956	-0.892871	0.422684	-0.155304
820	5131279													8.730189	-1.205136	-4.247822	-0.433539	-0.900130	0.042555	-0.121465	0.105165	0.987009	-0.892911	0.422738	-0.154927
821	5131445													8.696773	-1.142516	-4.231955	-0.433497	-0.900141	0.042733	-0.121097	0.105177	0.987053	-0.892982	0.422709	-0.154598
822	5131612													8.633387	-1.179011	-4.235120	-0.433158	-0.900297	0.042878	-0.120660	0.105065	0.987118	-0.893205	0.422405	-0.154139
823	5131779													8.499375	-1.157485	-4.216629	-0.433228	-0.900261	0.042940	-0.120166	0.104913	0.987195	-0.893238	0.422520	-0.153632
824	5131945													8.629292	-1.191842	-4.226568	-0.433480	-0.900130	0.043142	-0.119764	0.104992	0.987235	-0.893169	0.422780	-0.153315
825	5132112													8.617075	-1.196309	-4.216984	-0.433809	-0.899962	0.043328	-0.119490	0.105128	0.987254	-0.893046	0.423103	-0.153142
826	5132279													8.678271	-1.186246	-4.187517	-0.434326	-0.899702	0.043559	-0.119243	0.105362	0.987259	-0.892828	0.423598	-0.153044
827	5132445													8.744261	-1.192490	-4.209263	-0.434667	-0.899529	0.043731	-0.118989	0.105494	0.987275	-0.892696	0.423932	-0.152889
828	5132612													8.757075	-1.200823	-4.242418	-0.434814	-0.899448	0.043929	-0.118724	0.105614	0.987294	-0.892660	0.424074	-0.152708
829	5132779													8.760603	-1.206637	-4.239669	-0.434780	-0.899459	0.044043	-0.118529	0.105639	0.987315	-0.892702	0.424044	-0.152541
830	5132945													8.731955	-1.200000	-4.246242	-0.434629	-0.899530	0.044088	-0.118423	0.105610	0.987331	-0.892790	0.423902	-0.152426
831	5133112													8.711209	-1.169174	-4.244081	-0.434335	-0.899669	0.044144	-0.118345	0.105579	0.987344	-0.892943	0.423614	-0.152328
832	5133279													8.703565	-1.158574	-4.211436	-0.433937	-0.899858	0.044210	-0.118223	0.105519	0.987365	-0.893153	0.423227	-0.152172
833	5133445													8.727926	-1.147150	-4.185525	-0.433355	-0.900133	0.044323	-0.118078	0.105466	0.987388	-0.893455	0.422656	-0.151990
834	5133612													8.724631	-1.148201	-4.192912	-0.432568	-0.900501	0.044533	-0.117901	0.105467	0.987409	-0.893859	0.421871	-0.151792
835	5133779													8.677737	-1.150261	-4.187948	-0.431692	-0.900907	0.044821	-0.117716	0.105531	0.987424	-0.894307	0.420987	-0.151608
836	5133946													8.671797	-1.118222	-4.161858	-0.430872	-0.901285	0.045104	-0.117515	0.105595	0.987441	-0.894729	0.420160	-0.151413
837	5134112													8.682303	-1.126160	-4.145712	-0.430080	-0.901648	0.045416	-0.117316	0.105697	0.987454	-0.895136	0.419357	-0.151236
838	5134279													8.682548	-1.117648	-4.143939	-0.429303	-0.902002	0.045737	-0.117113	0.105810	0.987466	-0.895535	0.418566	-0.151061
839	5134446													8.688711	-1.124222	-4.130189	-0.428608	-0.902316	0.046060	-0.116959	0.105963	0.987468	-0.895888	0.417849	-0.150950
840	5134612													8.739707	-1.118969	-4.110355	-0.427924	-0.902625	0.046355	-0.116867	0.106117	0.987462	-0.896227	0.417142	-0.150897
841	5134779													8.717296	-1.118242	-4.105392	-0.427228	-0.902940	0.046635	-0.116770	0.106251	0.987459	-0.896572	0.416424	-0.150829
842	5134946													8.726746	-1.129860	-4.101781	-0.426638	-0.903202	0.046959	-0.116649	0.106440	0.987453	-0.896868	0.415808	-0.150769
843	5135112													8.685321	-1.186308	-4.090962	-0.426009	-0.903482	0.047295	-0.116558	0.106649	0.987441	-0.897179	0.415146	-0.150741
844	5135279													8.665029	-1.154329	-4.098815	-0.425558	-0.903688	0.047416	-0.116558	0.106699	0.987436	-0.897393	0.414685	-0.150739
845	5135446													8.776845	-1.155339	-4.126988	-0.425139	-0.903881	0.047491	-0.116550	0.106700	0.987437	-0.897593	0.414263	-0.150709
846	5135612													8.773704	-1.055717	-4.098990	-0.424637	-0.904107	0.047682	-0.116381	0.106738	0.987453	-0.897853	0.413759	-0.150546
847	5135779													8.734437	-1.081867	-4.109686	-0.424134	-0.904320	0.048124	-0.115926	0.106920	0.987486	-0.898149	0.413248	-0.150183
848	5135946													8.739335	-1.145106	-4.099265	-0.423671	-0.904514	0.048551	-0.115414	0.107067	0.987530	-0.898434	0.412784	-0.149755
849	5136112													8.817225	-1.138102	-4.080186	-0.423172	-0.904729	0.048898	-0.114988	0.107159	0.987570	-0.898723	0.412289	-0.149380
850	5136279													8.834133	-1.097915	-4.065136	-0.422466	-0.905039	0.049262	-0.114647	0.107272	0.987598	-0.899099	0.411579	-0.149078
851	5136446													8.746155	-1.099273	-4.037343	-0.421574	-0.905433	0.049658	-0.114362	0.107412	0.987615	-0.899554	0.410674	-0.148829
852	5136612													8.720613	-1.126171	-4.052443	-0.420736	-0.905802	0.050038	-0.114117	0.107565	0.987627	-0.899977	0.409820	-0.148623
853	5136779													8.729452	-1.136882	-4.030427	-0.419961	-0.906148	0.050289	-0.113975	0.107634	0.987636	-0.900357	0.409037	-0.148481
854	5136946													8.748734	-1.142984	-4.034061	-0.419183	-0.906503	0.050383	-0.113928	0.107576	0.987648	-0.900725	0.408265	-0.148370
855	5137112													8.809815	-1.143068	-4.042225	-0.418354	-0.906882	0.050439	-0.113942	0.107494	0.987655	-0.901109	0.407443	-0.148303
856	5137279													8.829425	-1.135106	-4.043199	-0.417390	-0.907326	0.050449	-0.114000	0.107358	0.987663	-0.901549	0.406489	-0.148245
857	5137446													8.824986	-1.136424	-4.028901	-0.416409	-0.907781	0.050366	-0.114052	0.107116	0.987683	-0.901995	0.405536	-0.148138
858	5137612													8.916321	-1.171071	-3.995831	-0.415237	-0.908319	0.050351	-0.114083	0.106904	0.987703	-0.902532	0.404386	-0.148014
859	5137779													8.787029	-1.118989	-3.995470	-0.413965	-0.908908	0.050199	-0.114196	0.106562	0.987727	-0.903102	0.403151	-0.147906
860	5137946													8.805795	-1.107185	-3.962134	-0.412674	-0.909496	0.050174	-0.114185	0.106302	0.987756	-0.903693	0.401893	-0.147718
861	5138112													8.781969	-1.117877	-3.963138	-0.411425	-0.910057	0.050257	-0.114071	0.106119	0.987789	-0.904277	0.400669	-0.147471
