sampleTimeFine,D4:22:CD:00:A9:12_acc_x,D4:22:CD:00:A9:12_acc_y,D4:22:CD:00:A9:12_acc_z,D4:22:CD:00:A9:12_gyro_x,D4:22:CD:00:A9:12_gyro_y,D4:22:CD:00:A9:12_gyro_z,D4:22:CD:00:A9:12_quat_w,D4:22:CD:00:A9:12_quat_x,D4:22:CD:00:A9:12_quat_y,D4:22:CD:00:A9:12_quat_z,D4:22:CD:00:A1:93_acc_x,D4:22:CD:00:A1:93_acc_y,D4:22:CD:00:A1:93_acc_z,D4:22:CD:00:A1:93_gyro_x,D4:22:CD:00:A1:93_gyro_y,D4:22:CD:00:A1:93_gyro_z,D4:22:CD:00:A1:93_quat_w,D4:22:CD:00:A1:93_quat_x,D4:22:CD:00:A1:93_quat_y,D4:22:CD:00:A1:93_quat_z
383534,0.0,0.0,0.0,0.0,0.0,0.0,0.7043344974517822,-0.3160158097743988,-0.5045529007911682,-0.38661760091781616,0.0,0.0,0.0,0.0,0.0,0.0,0.3787795305252075,-0.6179336309432983,-0.3334423005580902,-0.6029099225997925
383701,9.358298301696777,-0.5364668369293213,2.8922970294952393,-0.17015796899795532,0.4374969005584717,0.14944370090961456,0.7044777870178223,-0.31576603651046753,-0.5044765472412109,-0.38666051626205444,9.814074516296387,-0.6815571784973145,0.1334211379289627,-0.19566820561885834,0.3042212128639221,0.722476601600647,0.37866735458374023,-0.618038535118103,-0.33305686712265015,-0.6030859351158142
383868,9.382441520690918,-0.5517411231994629,2.8867290019989014,0.06205316260457039,0.31700196862220764,0.29507750272750854,0.7046634554862976,-0.3156336545944214,-0.5041531324386597,-0.38685205578804016,9.829706192016602,-0.6679425239562988,0.16538169980049133,0.06738059967756271,0.23739765584468842,0.6604682207107544,0.3789646327495575,-0.6181413531303406,-0.3328574597835541,-0.6029039621353149
384034,9.359306335449219,-0.5519307851791382,2.916980028152466,0.3490626811981201,0.30167919397354126,0.2924458086490631,0.7047806978225708,-0.3156738877296448,-0.5038427710533142,-0.38700997829437256,9.774316787719727,-0.7022811770439148,0.14941401779651642,0.09554177522659302,0.18035824596881866,0.6912675499916077,0.3791612982749939,-0.6181414127349854,-0.33256012201309204,-0.6029441952705383
384201,9.357539176940918,-0.5511384010314941,2.8809633255004883,0.606066882610321,-0.5559363961219788,0.5774831175804138,0.7049357891082764,-0.31569820642471313,-0.5035934448242188,-0.3870322108268738,9.757667541503906,-0.6950602531433105,0.13806785643100739,0.486506849527359,-0.29175427556037903,0.954118013381958,0.3796107769012451,-0.6181423664093018,-0.332451194524765,-0.6027204394340515
384368,9.436946868896484,-0.597233772277832,2.7975635528564453,0.3363267183303833,-0.07672283798456192,0.39583784341812134,0.7048979997634888,-0.315915584564209,-0.5033080577850342,-0.38729482889175415,9.775717735290527,-0.6239762306213379,0.16042740643024445,0.4184410572052002,-0.7453551292419434,0.6468807458877563,0.3797331154346466,-0.6183164715766907,-0.33223867416381836,-0.6025820970535278
384534,9.34087085723877,-0.5437910556793213,2.8862709999084473,0.6459971070289612,0.12808269262313843,0.19534166157245636,0.7048633694648743,-0.31609734892845154,-0.5033330917358398,-0.38717684149742126,9.862772941589355,-0.6556510329246521,0.11285433918237686,0.08064799010753632,-0.7480316758155823,0.2535848915576935,0.3798588514328003,-0.6182829737663269,-0.3323773741722107,-0.6024606227874756
384701,9.383030891418457,-0.5145344734191895,2.882545232772827,0.2788902819156647,0.2747282087802887,0.11843952536582947,0.7048047184944153,-0.316264808177948,-0.5032558441162109,-0.38724735379219055,9.843238830566406,-0.6550646424293518,0.14286233484745026,0.16605351865291595,-0.2392866313457489,0.5132080316543579,0.3797883689403534,-0.6183567643165588,-0.3323323130607605,-0.6024541258811951
384868,9.355955123901367,-0.5417203307151794,2.8914923667907715,0.520334780216217,-0.15046179294586182,0.3662615716457367,0.70480877161026,-0.3162757456302643,-0.5033079385757446,-0.3871632516384125,9.774934768676758,-0.6593837141990662,0.1082100048661232,0.1482398957014084,-0.1591188907623291,0.8491954207420349,0.379835844039917,-0.6183786988258362,-0.3323492109775543,-0.6023924946784973
385034,9.392419815063477,-0.5669640898704529,2.869701862335205,0.5736923813819885,-0.3746497929096222,0.49745622277259827,0.7046920657157898,-0.3164505660533905,-0.5032559633255005,-0.38730061054229736,9.76166820526123,-0.6524676084518433,0.11518624424934387,0.0782788097858429,-0.5429763793945312,0.8949524760246277,0.3797343671321869,-0.6185265183448792,-0.33226168155670166,-0.602353036403656
385201,9.371880531311035,-0.5360841751098633,2.878342628479004,0.33119139075279236,-0.0428372360765934,0.5306630730628967,0.7047702074050903,-0.316413551568985,-0.5033026933670044,-0.3871276080608368,9.787088394165039,-0.6671202182769775,0.11713014543056488,0.010981444269418716,-0.4943634867668152,0.82467120885849,0.3796602189540863,-0.6186516880989075,-0.3322146534919739,-0.6022971272468567
385368,9.366266250610352,-0.5367136597633362,2.870704412460327,0.43727925419807434,-0.06218763813376427,0.38303154706954956,0.7047820687294006,-0.3164229393005371,-0.5033159255981445,-0.3870813846588135,9.844307899475098,-0.6767328381538391,0.11373769491910934,-0.03155484423041344,-0.4494900703430176,0.6943922638893127,0.37954115867614746,-0.6187926530838013,-0.33212581276893616,-0.6022761464118958
385534,9.338934898376465,-0.5389201045036316,2.9031834602355957,0.40042251348495483,-0.030453499406576157,0.4468839764595032,0.7047803997993469,-0.3164537847042084,-0.5033105611801147,-0.38706597685813904,9.849281311035156,-0.6724341511726379,0.09179054200649261,0.013593940064311028,-0.0813971534371376,0.5403959155082703,0.37954506278038025,-0.6188359260559082,-0.33213701844215393,-0.6022232174873352
385701,9.341156959533691,-0.540498673915863,2.864581823348999,0.6581374406814575,-0.19376005232334137,0.569107711315155,0.7048181891441345,-0.31643640995025635,-0.5033356547355652,-0.38697871565818787,9.83320426940918,-0.6845468878746033,0.103034108877182,0.11344504356384277,0.08488688617944717,0.6245977282524109,0.3796091675758362,-0.6188504099845886,-0.3321765959262848,-0.6021460294723511
385868,9.404084205627441,-0.5239573121070862,2.8902084827423096,0.5647792220115662,-0.2849796712398529,0.42898067831993103,0.7048285603523254,-0.31643247604370117,-0.5033687949180603,-0.38692015409469604,9.823830604553223,-0.6709858775138855,0.11207833886146545,0.18359823524951935,0.1804863065481186,0.4564887583255768,0.37963467836380005,-0.6188697218894958,-0.3321831226348877,-0.6021064519882202
386034,9.383210182189941,-0.5386161804199219,2.880277395248413,0.37247905135154724,-0.26228687167167664,0.23723119497299194,0.7047485709190369,-0.31651851534843445,-0.5033434629440308,-0.3870285153388977,9.811446189880371,-0.6530511975288391,0.12588249146938324,0.13090009987354279,0.22154343128204346,0.3978484272956848,0.3796790838241577,-0.6188693642616272,-0.3322092890739441,-0.6020643711090088
386201,9.373374938964844,-0.548497200012207,2.854825496673584,0.49643176794052124,-0.17099039256572723,0.05693063512444496,0.7047121524810791,-0.3165196180343628,-0.503358781337738,-0.3870738744735718,9.801060676574707,-0.645963191986084,0.12086507678031921,-0.040621738880872726,0.1893739104270935,0.23703916370868683,0.37972837686538696,-0.6188468933105469,-0.3322719931602478,-0.6020219326019287
386368,9.401123046875,-0.5311597585678101,2.8607869148254395,0.6677934527397156,-0.10989128053188324,0.16031628847122192,0.7047050595283508,-0.316494882106781,-0.5033870935440063,-0.3870701491832733,9.790507316589355,-0.6512809991836548,0.1192164495587349,-0.17443528771400452,0.14218248426914215,0.16838429868221283,0.3797103464603424,-0.6188530921936035,-0.3322848379611969,-0.6020196676254272
386534,9.36777114868164,-0.5075174570083618,2.878020763397217,0.5528565049171448,0.09061132371425629,0.04701851308345795,0.7047175765037537,-0.316437304019928,-0.5034142732620239,-0.387058824300766,9.79337215423584,-0.6350879073143005,0.10913512110710144,-0.409124493598938,-0.03106820583343506,0.23419614136219025,0.3796687722206116,-0.6188881993293762,-0.3322792053222656,-0.6020129323005676
386701,9.387028694152832,-0.5230775475502014,2.865525484085083,0.3486976623535156,-0.020234033465385437,0.10601737350225449,0.7047308683395386,-0.31638649106025696,-0.5034517645835876,-0.38702765107154846,9.799029350280762,-0.641396164894104,0.1240125522017479,-0.46586939692497253,0.1851862072944641,0.3067440688610077,0.3796141445636749,-0.6189216375350952,-0.33222877979278564,-0.6020408272743225
386868,9.382308959960938,-0.541266143321991,2.8571321964263916,0.40096038579940796,0.13065676391124725,0.10332802683115005,0.7047489881515503,-0.31633102893829346,-0.5034725666046143,-0.3870128095149994,9.799752235412598,-0.6509126424789429,0.11122719943523407,-0.43455785512924194,0.18135713040828705,0.4500471353530884,0.37958335876464844,-0.6189531683921814,-0.33217567205429077,-0.6020570993423462
387034,9.370081901550293,-0.5280162692070007,2.8530194759368896,0.1553986370563507,0.16328734159469604,0.11911825835704803,0.7047260999679565,-0.31634584069252014,-0.5034492015838623,-0.38707298040390015,9.814675331115723,-0.6501044034957886,0.10721469670534134,-0.45871061086654663,0.22543653845787048,0.46371152997016907,0.37958747148513794,-0.6189647316932678,-0.33214908838272095,-0.6020573973655701
387201,9.366409301757812,-0.5250303149223328,2.87675142288208,0.08282506465911865,0.33773544430732727,0.08935630321502686,0.7047128677368164,-0.3163536489009857,-0.5034084320068359,-0.3871437609195709,9.824764251708984,-0.6418469548225403,0.11314047127962112,-0.43071600794792175,0.46387800574302673,0.5137075185775757,0.3796123266220093,-0.6189553737640381,-0.33210834860801697,-0.6020737290382385
387368,9.351317405700684,-0.5172948241233826,2.8869469165802,0.14685679972171783,0.3121868073940277,0.20805835723876953,0.7047151923179626,-0.31635573506355286,-0.5033721327781677,-0.3871847689151764,9.814179420471191,-0.66466224193573,0.09992004185914993,-0.39018380641937256,0.6013413071632385,0.4908481240272522,0.3796030580997467,-0.6189534068107605,-0.33202147483825684,-0.6021295785903931
387534,9.374011993408203,-0.5335164666175842,2.8952975273132324,0.18622353672981262,0.5126445889472961,0.2523811459541321,0.7047528028488159,-0.316324919462204,-0.5033251047134399,-0.38720250129699707,9.838833808898926,-0.6896383166313171,0.14312432706356049,-0.1940033733844757,0.8782274127006531,0.6489297151565552,0.37964680790901184,-0.6189217567443848,-0.33192774653434753,-0.6021861433982849
387701,9.362521171569824,-0.5462334752082825,2.9003219604492188,0.20177045464515686,0.4796554148197174,0.3278873562812805,0.7047998905181885,-0.3162936568260193,-0.5032801032066345,-0.3872012197971344,9.820280075073242,-0.6783900260925293,0.10892997682094574,0.07538457959890366,1.0185850858688354,0.7060717940330505,0.37973207235336304,-0.6188644170761108,-0.3318401277065277,-0.6022396087646484
387868,9.363819122314453,-0.5458043217658997,2.8617238998413086,0.23870396614074707,0.2915429472923279,0.2235284149646759,0.7048727869987488,-0.31620845198631287,-0.5032915472984314,-0.38712313771247864,9.80479907989502,-0.6670582294464111,0.13385969400405884,0.27977392077445984,0.886269748210907,0.7366019487380981,0.3798366189002991,-0.6188086271286011,-0.33177587389945984,-0.6022664308547974
388034,9.383686065673828,-0.5435259938240051,2.8863749504089355,0.507099449634552,0.42326903343200684,0.26303601264953613,0.7049140334129333,-0.316165953874588,-0.5032573342323303,-0.3871270716190338,9.791662216186523,-0.6755478382110596,0.13649700582027435,0.2934126555919647,0.7065198421478271,0.5805310010910034,0.37992802262306213,-0.6187559962272644,-0.33174145221710205,-0.6022818088531494
388201,9.36330795288086,-0.5324007272720337,2.890376567840576,0.6040691137313843,0.4318237006664276,0.35037532448768616,0.7049300074577332,-0.31616708636283875,-0.5031934976577759,-0.3871799409389496,9.831680297851562,-0.6430416703224182,0.14780446887016296,0.37294015288352966,0.7540955543518066,0.5271030068397522,0.3800598680973053,-0.6186731457710266,-0.3317488431930542,-0.6022796630859375
388368,9.36978816986084,-0.5525887608528137,2.9042563438415527,0.5718483328819275,0.3637963831424713,0.24561937153339386,0.7049576640129089,-0.31613755226135254,-0.5031575560569763,-0.3872005343437195,9.81611156463623,-0.6675580143928528,0.13331857323646545,0.3568553626537323,0.9118184447288513,0.5476058721542358,0.3801831603050232,-0.618585467338562,-0.3317273259162903,-0.6023038029670715
388534,9.3797025680542,-0.5413169264793396,2.890688419342041,0.7392657399177551,0.5208150148391724,0.3281818926334381,0.7050368189811707,-0.31605470180511475,-0.5031303763389587,-0.3871592879295349,9.788084983825684,-0.6478882431983948,0.12836769223213196,0.3081783950328827,0.8175382018089294,0.5213913321495056,0.38024982810020447,-0.6185328960418701,-0.3316606283187866,-0.6023523807525635
388701,9.382552146911621,-0.5337739586830139,2.8804848194122314,0.6415276527404785,0.32832276821136475,0.28334689140319824,0.705041766166687,-0.3160596191883087,-0.5030754804611206,-0.3872177004814148,9.774221420288086,-0.6656323075294495,0.15587256848812103,0.18796521425247192,0.5718355774879456,0.5639212131500244,0.3802875578403473,-0.6185157299041748,-0.3315836191177368,-0.6023886799812317
388868,9.362549781799316,-0.5336630940437317,2.889139175415039,0.5197777152061462,0.3853110373020172,0.3271958529949188,0.705081045627594,-0.3160335421562195,-0.5030339956283569,-0.3872213065624237,9.802044868469238,-0.6545031666755676,0.14603441953659058,0.1823175847530365,0.3856183588504791,0.6046710014343262,0.38032686710357666,-0.6185126900672913,-0.33151760697364807,-0.6024032831192017
389034,9.371525764465332,-0.5346857905387878,2.8991787433624268,0.7500487565994263,0.4929868280887604,0.4227312505245209,0.7051823735237122,-0.31593558192253113,-0.5030206441879272,-0.3871338665485382,9.813681602478027,-0.6645522117614746,0.15786807239055634,0.027616892009973526,0.49837830662727356,0.5871261954307556,0.38038116693496704,-0.618493378162384,-0.3314583897590637,-0.6024214029312134
389201,9.375930786132812,-0.5135633945465088,2.917693853378296,0.6250331401824951,0.5005938410758972,0.3604539632797241,0.7052602767944336,-0.31586506962776184,-0.5029897093772888,-0.3870900273323059,9.80109691619873,-0.6659291386604309,0.1469535082578659,-0.09798138588666916,0.44523194432258606,0.443451851606369,0.3804069459438324,-0.6184796094894409,-0.3314000368118286,-0.6024513244628906
389368,9.373736381530762,-0.5335808396339417,2.8788504600524902,0.3780370354652405,0.4978148341178894,0.40623658895492554,0.7053155303001404,-0.3158404231071472,-0.5029309391975403,-0.38708582520484924,9.788412094116211,-0.6561911106109619,0.13362856209278107,-0.03880324214696884,0.5676735043525696,0.5378859639167786,0.3804408013820648,-0.6184628009796143,-0.3313186466693878,-0.6024919748306274
389534,9.361377716064453,-0.5290252566337585,2.9011342525482178,0.6422577500343323,0.5005938410758972,0.38748815655708313,0.7053640484809875,-0.3158106207847595,-0.5028738975524902,-0.3870958089828491,9.813066482543945,-0.6412461400032043,0.13313505053520203,-0.13077843189239502,0.45473429560661316,0.5215066075325012,0.3804326355457306,-0.6184751987457275,-0.3312094509601593,-0.6025444269180298
389701,9.364531517028809,-0.5179886221885681,2.901663064956665,0.5654195547103882,0.4579486548900604,0.4003969132900238,0.70539391040802,-0.31580880284309387,-0.5028054118156433,-0.387131929397583,9.822763442993164,-0.6771549582481384,0.16139410436153412,-0.15324078500270844,0.66558438539505,0.4041939973831177,0.38047316670417786,-0.618436336517334,-0.33115068078041077,-0.6025909781455994
389868,9.370092391967773,-0.536649227142334,2.9326937198638916,0.21984019875526428,0.5386030077934265,0.32026758790016174,0.7054438591003418,-0.31578657031059265,-0.5027412176132202,-0.3871424198150635,9.837532997131348,-0.6502802968025208,0.1637703776359558,-0.07206132262945175,0.8903422355651855,0.6262496709823608,0.380536824464798,-0.6183922290802002,-0.33104968070983887,-0.6026516556739807
390034,9.35671329498291,-0.550975501537323,2.905099868774414,0.6004832983016968,0.4472041726112366,0.3677535653114319,0.7054974436759949,-0.31574746966362,-0.5026956796646118,-0.3871356248855591,9.756282806396484,-0.6679346561431885,0.15235450863838196,-0.19132687151432037,0.9910129904747009,0.5281530618667603,0.38058096170425415,-0.61834317445755,-0.33093616366386414,-0.6027365326881409
390201,9.322199821472168,-0.5392813086509705,2.90720272064209,0.5147832632064819,0.38454267382621765,0.262498140335083,0.7055100798606873,-0.3157489597797394,-0.502633810043335,-0.3871917724609375,9.77096939086914,-0.6920511722564697,0.1384688764810562,-0.05616864934563637,0.3783443868160248,0.7928217649459839,0.3806186318397522,-0.618360161781311,-0.33083096146583557,-0.6027529835700989
390368,9.390584945678711,-0.5541012287139893,2.837423324584961,0.09190476685762405,0.6070529818534851,0.4450526535511017,0.705565333366394,-0.3157491683959961,-0.5025448799133301,-0.38720640540122986,9.811138153076172,-0.6492675542831421,0.1687970906496048,0.1366117298603058,0.2813746929168701,0.5817988514900208,0.3806556463241577,-0.6183633208274841,-0.3307707607746124,-0.6027594208717346
390534,9.429539680480957,-0.5270668268203735,2.916055679321289,-0.32634422183036804,1.7735706567764282,-0.1419711858034134,0.7056291103363037,-0.31571531295776367,-0.502322793006897,-0.3874058127403259,9.863723754882812,-0.6487633585929871,0.1574818640947342,-0.22066619992256165,0.38981884717941284,-0.1314699798822403,0.3806382715702057,-0.618322491645813,-0.33077341318130493,-0.602810800075531
390701,9.364668846130371,-0.5135210156440735,2.9459357261657715,-0.5806782245635986,1.7434369325637817,-0.5184393525123596,0.705683708190918,-0.3156479597091675,-0.5021283626556396,-0.387613445520401,9.875459671020508,-0.6777669787406921,0.1764620989561081,-0.18337413668632507,0.877561628818512,-0.027290333062410355,0.3805661201477051,-0.6182910203933716,-0.3306506276130676,-0.6029559969902039
390868,9.35398006439209,-0.5387483239173889,2.958240032196045,-0.26840823888778687,2.010526180267334,-0.19845998287200928,0.7058029770851135,-0.3155396282672882,-0.5019189715385437,-0.38775575160980225,9.816325187683105,-0.6540390253067017,0.18232493102550507,-0.02690614014863968,1.2019591331481934,0.5226975083351135,0.38062208890914917,-0.6182214617729187,-0.33052435517311096,-0.6030612587928772
391034,9.305381774902344,-0.5327789783477783,2.9937758445739746,0.20054101943969727,1.1223803758621216,0.16858917474746704,0.7058936357498169,-0.31546878814697266,-0.5018033385276794,-0.387798011302948,9.7957763671875,-0.6350207328796387,0.2140156477689743,-0.10521696507930756,0.9943169951438904,0.2828602194786072,0.38062500953674316,-0.6181705594062805,-0.33040851354599,-0.6031750440597534
391201,9.336040496826172,-0.5245691537857056,2.964035987854004,0.2854214906692505,0.4900669753551483,-0.03398805111646652,0.7059291005134583,-0.3154127895832062,-0.5017621517181396,-0.3878321051597595,9.823156356811523,-0.6362651586532593,0.21142831444740295,-0.2975426912307739,0.963761031627655,0.05739165097475052,0.3805846571922302,-0.6181233525276184,-0.330292671918869,-0.6033123135566711
391368,9.354846954345703,-0.5000074505805969,2.9479427337646484,0.24310936033725739,0.753839373588562,-0.2210376113653183,0.705984890460968,-0.315315306186676,-0.5017098188400269,-0.38787758350372314,9.804037094116211,-0.6442617177963257,0.21095311641693115,-0.4399109184741974,1.2087464332580566,0.0502329058945179,0.3806034326553345,-0.6180278658866882,-0.3302134871482849,-0.603441596031189
391534,9.326726913452148,-0.536041259765625,2.9935286045074463,0.5384494066238403,0.6244952082633972,0.1155068650841713,0.7060356140136719,-0.3152547776699066,-0.5016492605209351,-0.3879127502441406,9.794475555419922,-0.6637622714042664,0.2353600263595581,-0.3157917857170105,1.1569321155548096,0.175709530711174,0.3805910646915436,-0.6179630756378174,-0.33008432388305664,-0.6035863161087036
391701,9.312848091125488,-0.5256273746490479,2.9716386795043945,0.411935418844223,0.547055184841156,0.3069617748260498,0.7060750126838684,-0.3152402937412262,-0.5015696883201599,-0.38795557618141174,9.794057846069336,-0.6645376086235046,0.24724124372005463,-0.11640971899032593,0.9384812116622925,0.5358240604400635,0.3806270956993103,-0.6179181337356567,-0.3299601674079895,-0.60367751121521
391868,9.300299644470215,-0.519437313079834,2.973548650741577,0.31640005111694336,0.6708670258522034,0.2347467988729477,0.7061537504196167,-0.31517359614372253,-0.5015056133270264,-0.3879494071006775,9.783203125,-0.6443977952003479,0.22745276987552643,-0.07284251600503922,0.6945459246635437,0.7049190998077393,0.3807218372821808,-0.6178716421127319,-0.3298892378807068,-0.6037042140960693
392034,9.313469886779785,-0.528674304485321,2.9736735820770264,0.3031070828437805,0.44288837909698486,0.2543277144432068,0.7061496376991272,-0.3152092695236206,-0.5014076828956604,-0.38805443048477173,9.77788257598877,-0.6510592699050903,0.25260546803474426,0.10886038094758987,0.5289214253425598,0.5587859153747559,0.380651593208313,-0.6179094910621643,-0.3296920657157898,-0.6038174629211426
392201,9.35499382019043,-0.5243899822235107,2.960455894470215,0.3354302942752838,0.46194422245025635,0.21348825097084045,0.7062129974365234,-0.31515124440193176,-0.5013649463653564,-0.38804134726524353,9.83609390258789,-0.6875687837600708,0.26992854475975037,0.346123605966568,0.41462475061416626,0.46021538972854614,0.38071176409721375,-0.6178715825080872,-0.3296557366847992,-0.6038382053375244
392368,9.34287166595459,-0.5333844423294067,2.991260290145874,0.4483182430267334,0.7450413703918457,0.2606412172317505,0.7062667012214661,-0.3151181638240814,-0.501266360282898,-0.3880976438522339,9.85824203491211,-0.6656759977340698,0.27187854051589966,0.5644078254699707,0.670393168926239,0.4659014046192169,0.3806907534599304,-0.6178609728813171,-0.32950547337532043,-0.6039443016052246
392534,9.311975479125977,-0.528510332107544,3.0358705520629883,0.7729080319404602,0.4146503806114197,0.31915342807769775,0.7063454985618591,-0.31503552198410034,-0.5012412667274475,-0.3880539834499359,9.780619621276855,-0.6557173132896423,0.26405102014541626,0.5160254240036011,0.8403590321540833,0.3716338574886322,0.38075873255729675,-0.6177818775177002,-0.32944434881210327,-0.6040155291557312
392701,9.295672416687012,-0.5198373794555664,3.0354533195495605,1.0360016822814941,-0.4848868250846863,0.5428803563117981,0.706378698348999,-0.3149992525577545,-0.5013071298599243,-0.38793790340423584,9.71369457244873,-0.6597222685813904,0.24641655385494232,0.738817572593689,0.2411883920431137,0.8175765872001648,0.38082972168922424,-0.617779016494751,-0.32936692237854004,-0.6040159463882446
392868,9.360002517700195,-0.5441169142723083,2.9001455307006836,0.864345371723175,-0.6639963984489441,0.7049959897994995,0.7063583135604858,-0.3150571286678314,-0.5013381838798523,-0.38788795471191406,9.712331771850586,-0.6121015548706055,0.2307882308959961,0.7139603495597839,-0.6023722887039185,0.6956473588943481,0.38087010383605957,-0.6178332567214966,-0.329367458820343,-0.6039348244667053
393034,9.299257278442383,-0.5272932648658752,3.018803834915161,0.9932284951210022,0.14197759330272675,0.349517285823822,0.7064248323440552,-0.3149757385253906,-0.5013459920883179,-0.38782283663749695,9.82786750793457,-0.5988644361495972,0.2184903621673584,0.24768123030662537,-1.1572329998016357,0.41248610615730286,0.38083237409591675,-0.617939293384552,-0.3293999433517456,-0.6038324236869812
393201,9.363812446594238,-0.4778134822845459,2.9447813034057617,0.7448364496231079,-0.18242643773555756,0.2100689560174942,0.7064600586891174,-0.314913272857666,-0.5013871788978577,-0.387755811214447,9.872881889343262,-0.6286471486091614,0.22385269403457642,-0.06482574343681335,-0.6881875991821289,0.45709067583084106,0.3808160722255707,-0.6180100440979004,-0.32940036058425903,-0.6037700176239014
393368,9.334367752075195,-0.4970497786998749,3.009356737136841,0.7802588939666748,-0.047345079481601715,0.3816740810871124,0.7064619064331055,-0.31492143869400024,-0.5013659596443176,-0.38777369260787964,9.81485652923584,-0.6437423825263977,0.22247374057769775,-0.06123996526002884,-0.4250171184539795,0.8390143513679504,0.3807861804962158,-0.6181078553199768,-0.3292916417121887,-0.6037479043006897
393534,9.363565444946289,-0.5471275448799133,2.9774107933044434,0.41156405210494995,-0.33308038115501404,0.469167023897171,0.7064637541770935,-0.31494686007499695,-0.5013753175735474,-0.3877376317977905,9.800127029418945,-0.6268361210823059,0.20559556782245636,-0.14332866668701172,-0.407715767621994,0.842305600643158,0.3807884454727173,-0.618187665939331,-0.3292139768600464,-0.6037071347236633
393701,9.334512710571289,-0.5161145925521851,2.9967684745788574,0.3741566836833954,-0.22243347764015198,0.5275896191596985,0.7064926624298096,-0.31495222449302673,-0.5013822913169861,-0.3876713514328003,9.812969207763672,-0.6433238387107849,0.19510701298713684,-0.19967658817768097,-0.47197797894477844,0.5917237997055054,0.38073253631591797,-0.6182790994644165,-0.32912981510162354,-0.6036946773529053
393868,9.330785751342773,-0.49135300517082214,2.99800968170166,0.3138259947299957,-0.49365919828414917,0.3641037344932556,0.7064681053161621,-0.3149951994419098,-0.5014031529426575,-0.38765427470207214,9.80507755279541,-0.6555331349372864,0.1902543157339096,-0.19122441112995148,-0.4629751443862915,0.5465301871299744,0.380672425031662,-0.6183679103851318,-0.32904908061027527,-0.6036857962608337
394034,9.320921897888184,-0.5142340064048767,2.968491554260254,0.3565223515033722,-0.6077125072479248,0.35658639669418335,0.7064349055290222,-0.3150413930416107,-0.501436710357666,-0.38763371109962463,9.811408042907715,-0.6521785855293274,0.19726718962192535,-0.06910305470228195,-0.36909180879592896,0.3223806321620941,0.3806522786617279,-0.6184070110321045,-0.329039603471756,-0.6036635637283325
394201,9.340505599975586,-0.4981990456581116,2.9686264991760254,0.6826872825622559,-0.5593172907829285,0.4300820231437683,0.7064110040664673,-0.3150738477706909,-0.5014694333076477,-0.3876085877418518,9.782121658325195,-0.6534267067909241,0.16566064953804016,0.08278665691614151,-0.5416573882102966,0.4371640086174011,0.38064366579055786,-0.6184605360031128,-0.3290390968322754,-0.6036144495010376
394368,9.346748352050781,-0.4984436631202698,2.933218479156494,0.6703291535377502,-0.7675869464874268,0.38481155037879944,0.70636385679245,-0.31512215733528137,-0.501521110534668,-0.3875885009765625,9.807398796081543,-0.6325953006744385,0.18972137570381165,-0.025996891781687737,-0.6627157926559448,0.4599592983722687,0.3805635869503021,-0.6185635328292847,-0.328975111246109,-0.6035943031311035
394534,9.366618156433105,-0.5071779489517212,2.933087110519409,0.41909417510032654,-0.7722100615501404,0.29263147711753845,0.7063312530517578,-0.31514793634414673,-0.5015901327133179,-0.38753747940063477,9.823301315307617,-0.6159623861312866,0.19164179265499115,-0.16760949790477753,-0.657516360282898,0.45926767587661743,0.3805198073387146,-0.6186469197273254,-0.3289494216442108,-0.6035502552986145
394701,9.354066848754883,-0.507368266582489,2.9399588108062744,0.4393410086631775,-0.6857287287712097,0.20971037447452545,0.7063129544258118,-0.3151451051235199,-0.5016657114028931,-0.38747528195381165,9.804183006286621,-0.6096646785736084,0.16486673057079315,-0.27227577567100525,-0.5129583477973938,0.36537155508995056,0.38048693537712097,-0.6187067627906799,-0.3289382755756378,-0.6035157442092896
394868,9.360733032226562,-0.5121307373046875,2.936502456665039,0.4311577379703522,-0.6574780344963074,0.18791396915912628,0.7062538266181946,-0.31519296765327454,-0.5017058849334717,-0.3874920606613159,9.81248664855957,-0.6119641661643982,0.16634370386600494,-0.5285052061080933,-0.38253846764564514,0.3056171238422394,0.38036611676216125,-0.6188019514083862,-0.32883694767951965,-0.6035495400428772
395034,9.348591804504395,-0.503379762172699,2.9353294372558594,0.21611355245113373,-0.4375417232513428,0.2375001460313797,0.7061902284622192,-0.315271258354187,-0.5016987919807434,-0.38755351305007935,9.819621086120605,-0.6300204396247864,0.16627933084964752,-0.5855831503868103,-0.42774486541748047,0.33292025327682495,0.38030287623405457,-0.61887127161026,-0.32879605889320374,-0.6035405993461609
395201,9.351191520690918,-0.49962475895881653,2.9412481784820557,0.19417625665664673,-0.549136221408844,0.3336502015590668,0.7061594724655151,-0.3153173327445984,-0.5017278790473938,-0.38753455877304077,9.81312084197998,-0.6446295976638794,0.1644880324602127,-0.5348955988883972,-0.36723485589027405,0.5318669080734253,0.38026267290115356,-0.6189428567886353,-0.3287374973297119,-0.6035244464874268
395368,9.359602928161621,-0.5125384330749512,2.925233840942383,0.21584458649158478,-0.467149943113327,0.458780974149704,0.7061235904693604,-0.31538987159729004,-0.5017290711402893,-0.3875393867492676,9.826292037963867,-0.6449474096298218,0.14808693528175354,-0.2865932881832123,-0.08799243718385696,0.6061757802963257,0.3803304433822632,-0.6189441680908203,-0.3287465274333954,-0.6034755110740662
395534,9.362739562988281,-0.5095344185829163,2.9253554344177246,0.30423402786254883,-0.27185317873954773,0.4806670844554901,0.7061014175415039,-0.3154512941837311,-0.5017099380493164,-0.3875546157360077,9.805245399475098,-0.6338076591491699,0.14888109266757965,-0.07083190977573395,-0.028942350298166275,0.6064382791519165,0.38028818368911743,-0.619000256061554,-0.3286365568637848,-0.603504478931427
395701,9.366755485534668,-0.513403594493866,2.9256162643432617,0.41748058795928955,-0.384408175945282,0.3425634801387787,0.7060911655426025,-0.3154676854610443,-0.5017341375350952,-0.38752859830856323,9.816006660461426,-0.646660566329956,0.1481514871120453,0.041537392884492874,0.04612207040190697,0.5152186155319214,0.38020554184913635,-0.619064211845398,-0.3284943103790283,-0.603568434715271
395868,9.364155769348145,-0.5107503533363342,2.9361090660095215,0.3171684443950653,-0.338535875082016,0.4233458936214447,0.7060454487800598,-0.3155473470687866,-0.5017135143280029,-0.38757362961769104,9.808592796325684,-0.6467356085777283,0.16308578848838806,0.1758119761943817,0.2526244819164276,0.5948100686073303,0.3802386522293091,-0.6190593838691711,-0.3284349739551544,-0.603584885597229
396035,9.364767074584961,-0.527594268321991,2.9397854804992676,0.3678816258907318,-0.15438055992126465,0.48824843764305115,0.7059597969055176,-0.3156926929950714,-0.5016258955001831,-0.38772454857826233,9.80174446105957,-0.6288690567016602,0.14146018028259277,0.2872912287712097,0.23838379979133606,0.7118985652923584,0.38032492995262146,-0.6190369725227356,-0.32841062545776367,-0.6035667657852173
396201,9.356209754943848,-0.5281307101249695,2.947563648223877,0.5507818460464478,-0.19806300103664398,0.5154876112937927,0.7059548497200012,-0.31572815775871277,-0.50161212682724,-0.3877227008342743,9.80605411529541,-0.6352382302284241,0.18325181305408478,0.2554674744606018,0.23122504353523254,0.6035311818122864,0.38033077120780945,-0.6190483570098877,-0.3283255100250244,-0.6035975217819214
396368,9.35715389251709,-0.5138366222381592,2.9413411617279053,0.5989977717399597,-0.19813983142375946,0.41116705536842346,0.7059604525566101,-0.31573256850242615,-0.5016173720359802,-0.3877018988132477,9.834972381591797,-0.6146247386932373,0.17753082513809204,0.3191278576850891,0.4211304485797882,0.703279972076416,0.38040950894355774,-0.6190172433853149,-0.3282775580883026,-0.6036058068275452
396535,9.351883888244629,-0.5017088651657104,2.972925901412964,0.7111558318138123,-0.31696999073028564,0.5665720701217651,0.7060148119926453,-0.31568729877471924,-0.5016695261001587,-0.38757240772247314,9.816671371459961,-0.6127462387084961,0.18596768379211426,0.2822583317756653,0.5773166418075562,0.7181096076965332,0.3804870843887329,-0.6189782619476318,-0.3282108008861542,-0.6036332249641418
396701,9.365490913391113,-0.5170221924781799,2.9629316329956055,0.6841728091239929,-0.41356825828552246,0.6946612000465393,0.7059612274169922,-0.31579723954200745,-0.5016371011734009,-0.3876223564147949,9.821269035339355,-0.6222031712532043,0.16566838324069977,0.2640348970890045,0.6866700053215027,0.7286748290061951,0.3805137574672699,-0.6189607381820679,-0.3280797600746155,-0.6037057042121887
396868,9.346450805664062,-0.5131606459617615,2.9215691089630127,0.7541723847389221,-0.43731123208999634,0.6684594750404358,0.7059779763221741,-0.31580841541290283,-0.5016693472862244,-0.3875410854816437,9.806325912475586,-0.6319983005523682,0.17260143160820007,0.35954469442367554,0.7236804366111755,0.905556321144104,0.3806126117706299,-0.6189177632331848,-0.3279876410961151,-0.6037376523017883
397035,9.356389045715332,-0.5217782855033875,2.9258315563201904,0.7992506623268127,-0.3125389516353607,0.6731336712837219,0.7059455513954163,-0.31588637828826904,-0.5016422271728516,-0.38757187128067017,9.805231094360352,-0.6235219836235046,0.15888038277626038,0.308626651763916,0.5453007221221924,0.9444490075111389,0.3807625472545624,-0.6188617944717407,-0.3279605507850647,-0.6037150621414185
397201,9.354358673095703,-0.521831750869751,2.9524736404418945,0.7535064816474915,-0.29758116602897644,0.7027292847633362,0.7059508562088013,-0.31592223048210144,-0.5016400814056396,-0.3875357508659363,9.825217247009277,-0.6305484771728516,0.14547277987003326,0.32147136330604553,0.7341303825378418,0.9775663614273071,0.38081294298171997,-0.618850827217102,-0.3278070390224457,-0.6037778258323669
397368,9.366650581359863,-0.511348307132721,2.9214982986450195,0.49976131319999695,-0.31351223587989807,0.6958650350570679,0.7059873342514038,-0.31592702865600586,-0.5016616582870483,-0.38743746280670166,9.812216758728027,-0.6595411896705627,0.1814611852169037,0.37392622232437134,0.7349885106086731,1.0240405797958374,0.3809506893157959,-0.6187965869903564,-0.3277355134487152,-0.6037853956222534
397535,9.371345520019531,-0.5259260535240173,2.931741237640381,0.5788405537605286,-0.2201155424118042,0.715740442276001,0.7059899568557739,-0.31597793102264404,-0.5016407370567322,-0.3874179720878601,9.803239822387695,-0.6303086876869202,0.17926493287086487,0.43462827801704407,0.7901709079742432,0.9323598742485046,0.38108545541763306,-0.6187312006950378,-0.3276718556880951,-0.6038018465042114
397701,9.345911979675293,-0.5059413909912109,2.9553637504577637,0.5069969892501831,-0.14610764384269714,0.7556451559066772,0.7060144543647766,-0.31601226329803467,-0.501620888710022,-0.38737115263938904,9.811275482177734,-0.6191732287406921,0.20406045019626617,0.409182071685791,0.8232497572898865,0.9451789855957031,0.3812382221221924,-0.6186552047729492,-0.3276219964027405,-0.6038103699684143
397868,9.346765518188477,-0.5271435379981995,2.9170572757720947,0.7146391272544861,-0.2655780613422394,0.7082231044769287,0.7059573531150818,-0.3161313831806183,-0.5015620589256287,-0.3874541223049164,9.810965538024902,-0.612771213054657,0.18993373215198517,0.19403541088104248,0.7852150201797485,0.8835037350654602,0.38129064440727234,-0.6186307668685913,-0.32748621702194214,-0.6038761138916016
398035,9.341891288757324,-0.501769483089447,2.927665948867798,0.5406392812728882,-0.2632729411125183,0.8259646892547607,0.7059409618377686,-0.3162226676940918,-0.5015221238136292,-0.38746118545532227,9.811634063720703,-0.6058916449546814,0.17939768731594086,0.01765355095267296,0.8174996972084045,1.123853087425232,0.3813924491405487,-0.6186010837554932,-0.3273565173149109,-0.6039124727249146
398201,9.340415954589844,-0.4991317093372345,2.9280242919921875,0.6275943517684937,-0.29779884219169617,0.8986150026321411,0.7059361338615417,-0.31630364060401917,-0.5014927983283997,-0.38744184374809265,9.794657707214355,-0.6390413641929626,0.20400279760360718,-0.1697225570678711,0.7639179825782776,1.325950264930725,0.3814787268638611,-0.6186031103134155,-0.327182412147522,-0.6039503812789917
398368,9.381000518798828,-0.5090979933738708,2.973705530166626,0.12123129516839981,-0.34419623017311096,0.6662566661834717,0.7059264183044434,-0.3163769543170929,-0.5014789700508118,-0.3874174952507019,9.830633163452148,-0.6386126279830933,0.19254818558692932,0.014413546770811081,0.6956217288970947,1.3697478771209717,0.381634920835495,-0.6185740232467651,-0.32707905769348145,-0.6039373278617859
398535,9.351119041442871,-0.5218973755836487,2.9311487674713135,-0.10369301587343216,-0.2555379271507263,0.5255533456802368,0.7059050798416138,-0.31645745038986206,-0.5014498829841614,-0.3874283730983734,9.765341758728027,-0.6436371207237244,0.1828584372997284,-0.2182842195034027,0.6839167475700378,1.408103108406067,0.3817581534385681,-0.6185685396194458,-0.326938271522522,-0.6039413809776306
398701,9.34747314453125,-0.5134503841400146,2.9022674560546875,-0.006185467354953289,-0.280331015586853,0.7293856739997864,0.7058600783348083,-0.31659287214279175,-0.501388669013977,-0.3874788284301758,9.791688919067383,-0.7089865207672119,0.18751952052116394,-0.017275765538215637,0.30069953203201294,1.5836269855499268,0.38185298442840576,-0.6186169981956482,-0.3267768919467926,-0.6039190292358398
398868,9.37789249420166,-0.5434084534645081,2.856576442718506,-0.17855893075466156,0.11575019359588623,0.9867227673530579,0.7058929800987244,-0.31668713688850403,-0.501300573348999,-0.3874559998512268,9.831331253051758,-0.6607117652893066,0.19472463428974152,0.26714688539505005,0.3605307936668396,1.324144721031189,0.3819397985935211,-0.6186396479606628,-0.32664650678634644,-0.6039115786552429
399035,9.40611457824707,-0.5268720388412476,2.91025710105896,-0.7830314636230469,1.0834108591079712,0.49165499210357666,0.7059252262115479,-0.31677234172821045,-0.5010903477668762,-0.38759949803352356,9.876083374023438,-0.6575892567634583,0.20017828047275543,-0.10350091010332108,0.6235731840133667,0.5268852114677429,0.3819515109062195,-0.6186128854751587,-0.3265576958656311,-0.6039794087409973
399201,9.360466003417969,-0.4915393888950348,2.966338872909546,-1.02608323097229,1.3035775423049927,-0.08023178577423096,0.7059367895126343,-0.316819429397583,-0.500876247882843,-0.38781675696372986,9.869037628173828,-0.6949735879898071,0.22393713891506195,-0.09932604432106018,1.434586524963379,0.4078117907047272,0.3820172846317291,-0.6184952259063721,-0.32646194100379944,-0.6041103005409241
399368,9.356232643127441,-0.5294398665428162,2.973728895187378,-0.5840975642204285,1.4845502376556396,0.2054394632577896,0.7059916257858276,-0.3168392777442932,-0.5006501078605652,-0.3879927098751068,9.834449768066406,-0.6570484638214111,0.23971250653266907,0.14788131415843964,1.7251240015029907,0.7698600888252258,0.3821505904197693,-0.6183553338050842,-0.32633906602859497,-0.6042354702949524
399535,9.305855751037598,-0.5389549732208252,3.0374252796173096,-0.033450186252593994,0.997941255569458,0.6899868845939636,0.7060655355453491,-0.31686246395111084,-0.500484049320221,-0.38805341720581055,9.790614128112793,-0.6401713490486145,0.2693305015563965,0.06990345567464828,1.832761526107788,0.8177045583724976,0.3822762668132782,-0.6182173490524292,-0.32618942856788635,-0.6043780446052551
399701,9.296483039855957,-0.5319465398788452,3.0117387771606445,0.21449995040893555,0.1338839828968048,0.5009396076202393,0.706054151058197,-0.3169252574443817,-0.5004093050956726,-0.38811931014060974,9.799160957336426,-0.6230107545852661,0.274713933467865,-0.19488701224327087,1.7289659976959229,0.6857223510742188,0.3823826014995575,-0.6180848479270935,-0.3260561525821686,-0.6045181751251221
399868,9.32767105102539,-0.4884848892688751,2.9818665981292725,0.1653427928686142,0.09086105227470398,0.29311177134513855,0.706015408039093,-0.31699371337890625,-0.5003363490104675,-0.3882279694080353,9.789937973022461,-0.64021897315979,0.2888103723526001,-0.2750803530216217,1.6984996795654297,0.7023705244064331,0.3824206590652466,-0.6179919242858887,-0.3258545696735382,-0.6046976447105408
400035,9.334512710571289,-0.5217364430427551,2.986283302307129,0.18174129724502563,0.12138497829437256,0.49979978799819946,0.7060379981994629,-0.31701287627220154,-0.5002897381782532,-0.388231098651886,9.766599655151367,-0.6500629186630249,0.2978938817977905,-0.34337663650512695,1.514587640762329,0.825106680393219,0.38248422741889954,-0.6179082989692688,-0.3256768584251404,-0.6048386096954346
400201,9.310148239135742,-0.5326918363571167,2.971895217895508,0.5214554071426392,0.3014678657054901,0.9991706609725952,0.7061069011688232,-0.31703704595565796,-0.5002116560935974,-0.3881867229938507,9.775307655334473,-0.6746194958686829,0.30395761132240295,-0.14031919836997986,1.2167378664016724,1.149056315422058,0.38260310888290405,-0.6178421378135681,-0.3255278766155243,-0.6049113869667053
400368,9.296235084533691,-0.5302038788795471,2.9898295402526855,0.5811458230018616,0.28794437646865845,0.8968735337257385,0.7061417698860168,-0.3170868456363678,-0.5001183152198792,-0.3882029056549072,9.802414894104004,-0.6813267469406128,0.29607298970222473,0.18686386942863464,1.0842304229736328,1.2395075559616089,0.3827328681945801,-0.6177837252616882,-0.3253864049911499,-0.6049649119377136
400535,9.31003189086914,-0.5544002652168274,2.97786021232605,0.28936585783958435,0.19124361872673035,0.8255292773246765,0.7061548829078674,-0.3171629309654236,-0.5000235438346863,-0.3882388472557068,9.801279067993164,-0.7079961895942688,0.3177788555622101,0.3422304689884186,0.9773102402687073,1.2773756980895996,0.3828639090061188,-0.6177331209182739,-0.3252500295639038,-0.6050070524215698
400701,9.32137393951416,-0.5443059206008911,2.9882967472076416,0.2204677015542984,0.02773214876651764,0.8004928827285767,0.7061749696731567,-0.3172236680984497,-0.4999614655971527,-0.38823267817497253,9.79075813293457,-0.712945282459259,0.31155404448509216,0.5659446120262146,0.8021193146705627,1.0649441480636597,0.3829541802406311,-0.6176928281784058,-0.32512742280960083,-0.6050568222999573
400868,9.353668212890625,-0.5445902347564697,3.021545648574829,0.38200700283050537,0.09341590851545334,0.8837853670120239,0.706214427947998,-0.3172668218612671,-0.49989959597587585,-0.38820523023605347,9.842793464660645,-0.6787055730819702,0.3113281726837158,0.8275911808013916,0.6107668280601501,0.8960155248641968,0.3830622732639313,-0.6176369190216064,-0.32507187128067017,-0.6050752997398376
401035,9.314263343811035,-0.5577310919761658,3.0377800464630127,0.7458994388580322,-0.053095124661922455,0.9500967264175415,0.7062392830848694,-0.31731733679771423,-0.4998493790626526,-0.38818347454071045,9.786056518554688,-0.7071689367294312,0.32458075881004333,0.8802764415740967,0.6714945435523987,0.9796921610832214,0.3832407593727112,-0.6175469160079956,-0.3250667452812195,-0.6050570011138916
401201,9.291812896728516,-0.5359461903572083,3.0141453742980957,1.1300771236419678,-0.8770043849945068,1.1998205184936523,0.7062656283378601,-0.3173549771308899,-0.49991726875305176,-0.3880172669887543,9.728177070617676,-0.6903808116912842,0.2820400893688202,1.247613787651062,0.08262016624212265,1.3645485639572144,0.3834153413772583,-0.6175286173820496,-0.32504841685295105,-0.6049749851226807
401368,9.37889289855957,-0.5849056243896484,2.886244297027588,0.805564284324646,-0.9554305672645569,1.0876624584197998,0.7062273621559143,-0.3174704611301422,-0.49994850158691406,-0.3879522383213043,9.743901252746582,-0.624014675617218,0.2784166634082794,1.0837821960449219,-0.6669803261756897,1.1292191743850708,0.38351741433143616,-0.6175746321678162,-0.32507720589637756,-0.6048478484153748
401535,9.323183059692383,-0.5456706285476685,2.958190679550171,1.0025899410247803,-0.3539034426212311,0.7954087853431702,0.7062322497367859,-0.31750184297561646,-0.4999489188194275,-0.3879171907901764,9.890668869018555,-0.637279212474823,0.2714128792285919,0.3988857865333557,-0.9052808880805969,0.6282602548599243,0.3834998905658722,-0.6176567077636719,-0.32510247826576233,-0.6047614812850952
401701,9.344507217407227,-0.4970484673976898,2.9910085201263428,0.5842320322990417,-0.36212512850761414,0.604133129119873,0.7062392234802246,-0.3175203204154968,-0.49996230006217957,-0.3878720998764038,9.867146492004395,-0.669076144695282,0.26547279953956604,0.13232159614562988,-0.1966414898633957,1.0135904550552368,0.3835114538669586,-0.617716372013092,-0.3250168561935425,-0.6047393083572388
401868,9.382675170898438,-0.5273551940917969,2.988332748413086,0.5588883757591248,-0.8229360580444336,0.9321550726890564,0.7062355875968933,-0.31758347153663635,-0.5000109672546387,-0.3877643346786499,9.823896408081055,-0.6680295467376709,0.23639100790023804,0.1000111922621727,0.10159917920827866,1.2929226160049438,0.3835720419883728,-0.617757260799408,-0.32490113377571106,-0.6047213673591614
402035,9.386656761169434,-0.5713027715682983,2.960474967956543,0.3219708502292633,-0.5471000075340271,0.9552319645881653,0.7061921954154968,-0.3177211582660675,-0.4999755620956421,-0.3877762258052826,9.796414375305176,-0.6905378103256226,0.2699117660522461,-0.052057813853025436,0.042805224657058716,1.333698034286499,0.3836224675178528,-0.617811918258667,-0.3247755467891693,-0.6047007441520691
402201,9.316309928894043,-0.5329481363296509,2.9674031734466553,0.15676891803741455,-0.45942777395248413,0.8228912353515625,0.7061707377433777,-0.31782180070877075,-0.49995318055152893,-0.3877616822719574,9.796835899353027,-0.7140367031097412,0.2543888986110687,0.03647888824343681,0.10670890659093857,1.179688811302185,0.3836950957775116,-0.617835521697998,-0.3246936500072479,-0.6046746969223022
402368,9.323150634765625,-0.5440360903739929,2.9569075107574463,0.08208230137825012,-0.875237226486206,0.6950711011886597,0.7060893774032593,-0.31796836853027344,-0.4999593496322632,-0.38778167963027954,9.832782745361328,-0.7271133065223694,0.284973680973053,0.2257695347070694,0.18861831724643707,0.9323855042457581,0.3837566077709198,-0.6178346872329712,-0.3246360421180725,-0.6046673655509949
402535,9.327893257141113,-0.5434603691101074,2.9549643993377686,0.24190554022789001,-0.8082086443901062,0.6077573299407959,0.7060227990150452,-0.3180783987045288,-0.4999779164791107,-0.3877887725830078,9.801046371459961,-0.7064189314842224,0.25299882888793945,0.06717570871114731,0.3738621771335602,0.5355807542800903,0.3837531507015228,-0.6178203821182251,-0.3245653212070465,-0.6047222018241882
402701,9.326336860656738,-0.537712574005127,2.9775326251983643,0.5441865921020508,-0.9420222640037537,0.6256862282752991,0.7059584856033325,-0.31816983222961426,-0.5000239610671997,-0.3877713978290558,9.80811595916748,-0.7105995416641235,0.25579899549484253,0.036030661314725876,0.2515103220939636,0.29552575945854187,0.38376373052597046,-0.6177842020988464,-0.32456493377685547,-0.6047527194023132
402868,9.341131210327148,-0.5132010579109192,2.9561171531677246,0.271987646818161,-1.312727689743042,0.3768076002597809,0.7058594822883606,-0.3182676136493683,-0.5001195073127747,-0.3877483606338501,9.783158302307129,-0.6908553242683411,0.23999926447868347,-0.1283068060874939,0.059594348073005676,0.3129679560661316,0.38372719287872314,-0.6177875995635986,-0.32453474402427673,-0.6047884225845337
403035,9.390910148620605,-0.5712926983833313,2.9107325077056885,0.1384558379650116,-1.1088378429412842,-0.11859960854053497,0.7057435512542725,-0.31832748651504517,-0.500211775302887,-0.38779088854789734,9.798232078552246,-0.698072075843811,0.2310444414615631,-0.27788496017456055,-0.11562852561473846,0.05691782012581825,0.38362833857536316,-0.617811918258667,-0.3245066702365875,-0.6048415899276733
403201,9.38313102722168,-0.5873026251792908,2.9512650966644287,0.1738526076078415,-0.7735291719436646,-0.255704402923584,0.7056201696395874,-0.3183881342411041,-0.5002570152282715,-0.3879072666168213,9.821924209594727,-0.675305962562561,0.24273864924907684,-0.5501863956451416,-0.12072545289993286,-0.15144787728786469,0.3835137188434601,-0.6178275942802429,-0.3245020806789398,-0.6049007177352905
403368,9.338854789733887,-0.5409262180328369,2.9305269718170166,0.20366577804088593,-0.5514926314353943,-0.21252135932445526,0.7055127024650574,-0.3184414207935333,-0.5002759099006653,-0.3880346417427063,9.82516860961914,-0.6920819878578186,0.24594277143478394,-0.723968505859375,0.027706535533070564,-0.18382234871387482,0.3833923637866974,-0.6178354024887085,-0.3244827091693878,-0.604979932308197
403535,9.324506759643555,-0.5355337262153625,2.9362876415252686,0.2854599058628082,-0.6153322458267212,-0.07156187295913696,0.7054290771484375,-0.31847816705703735,-0.5003134608268738,-0.3881080448627472,9.831694602966309,-0.6666122078895569,0.24813872575759888,-0.7517455220222473,0.2797226905822754,-0.05637354776263237,0.38327059149742126,-0.6178393363952637,-0.3244149386882782,-0.6050894856452942
403701,9.34355640411377,-0.5709415078163147,2.969932794570923,0.19511112570762634,-0.5545149445533752,-0.051238205283880234,0.7053562998771667,-0.318509966135025,-0.5003464818000793,-0.38817188143730164,9.83720588684082,-0.6676042675971985,0.26104485988616943,-0.6280617713928223,0.8065758347511292,0.19968298077583313,0.383228063583374,-0.6177909970283508,-0.32432764768600464,-0.6052125692367554
403868,9.340301513671875,-0.5419889688491821,2.9559247493743896,0.34576502442359924,-0.4484783411026001,0.1615072786808014,0.7052912712097168,-0.3185604214668274,-0.5003511309623718,-0.3882427513599396,9.807159423828125,-0.6730906963348389,0.2693980038166046,-0.5073747634887695,0.8316636681556702,0.3723510205745697,0.38322991132736206,-0.6177322864532471,-0.32425251603126526,-0.6053115129470825
404035,9.33394718170166,-0.5357230305671692,2.956192970275879,0.3573419451713562,-0.5146359205245972,0.13206546008586884,0.7051958441734314,-0.31864216923713684,-0.5003442764282227,-0.38835766911506653,9.830802917480469,-0.6996475458145142,0.2825163006782532,-0.2700091302394867,0.7440553903579712,0.6341512799263,0.38321489095687866,-0.6177094578742981,-0.32412269711494446,-0.6054139137268066
404201,9.341446876525879,-0.5526813864707947,2.977046012878418,0.37909993529319763,-0.29430270195007324,0.13169409334659576,0.7051541805267334,-0.31866171956062317,-0.500346302986145,-0.38841474056243896,9.83878231048584,-0.6989900469779968,0.2920561730861664,0.2529958486557007,0.9228959083557129,0.8449437022209167,0.3832903504371643,-0.6176427006721497,-0.3240271210670471,-0.6054854393005371
404368,9.373186111450195,-0.5493018627166748,2.963134527206421,0.3227776288986206,-0.011436069384217262,0.16280071437358856,0.7051048874855042,-0.3187084197998047,-0.5002915859222412,-0.3885363042354584,9.812126159667969,-0.6902816295623779,0.2910288870334625,0.6146727800369263,0.9669370055198669,0.9672059416770935,0.38344234228134155,-0.6175413727760315,-0.3239819407463074,-0.6055167317390442
404535,9.355472564697266,-0.5510830879211426,2.939406156539917,0.3680608868598938,0.1267380267381668,0.26262620091438293,0.7050740718841553,-0.3187491297721863,-0.5002208352088928,-0.3886498212814331,9.808242797851562,-0.6902203559875488,0.289883017539978,0.8345898985862732,0.8259071707725525,0.9067150950431824,0.38353633880615234,-0.6174703240394592,-0.3239035904407501,-0.6055715084075928
404701,9.325282096862793,-0.5365920066833496,2.953625440597534,0.6795113682746887,-0.08430420607328415,0.4630071520805359,0.7050876617431641,-0.3187403082847595,-0.5002083778381348,-0.3886484205722809,9.80201244354248,-0.6805213689804077,0.2912582457065582,1.0209286212921143,0.6857480406761169,0.988246738910675,0.3836732506752014,-0.6173915266990662,-0.32386860251426697,-0.6055838465690613
404868,9.317459106445312,-0.5360769629478455,2.943479299545288,0.7620738744735718,-0.41169852018356323,0.5360161662101746,0.7051373720169067,-0.31867966055870056,-0.5002738237380981,-0.3885239064693451,9.778803825378418,-0.659373939037323,0.2854612171649933,0.957844614982605,0.424063116312027,1.140040397644043,0.383789986371994,-0.6173540353775024,-0.3238140344619751,-0.605577290058136
405035,9.346532821655273,-0.5338708758354187,2.940859079360962,0.8676365613937378,-0.39878973364830017,0.6534119844436646,0.705211341381073,-0.3186003863811493,-0.5003481507301331,-0.3883586823940277,9.808080673217773,-0.6679490208625793,0.3121875822544098,0.8922247290611267,0.31873083114624023,1.2531334161758423,0.3839477598667145,-0.6173130869865417,-0.3237927556037903,-0.6055305004119873
405201,9.352853775024414,-0.5445796847343445,2.9498915672302246,0.7856246829032898,-0.418793261051178,0.6588930487632751,0.7052181363105774,-0.31861093640327454,-0.5003681778907776,-0.38831186294555664,9.791956901550293,-0.6508618593215942,0.3115426003932953,0.7424416542053223,0.19718575477600098,1.292589545249939,0.38407570123672485,-0.6172993779182434,-0.32374802231788635,-0.6054872274398804
405368,9.355652809143066,-0.5254167318344116,2.952970027923584,0.6555634140968323,-0.4358128607273102,0.7888006567955017,0.7052173614501953,-0.31865495443344116,-0.5003700852394104,-0.3882748782634735,9.813443183898926,-0.6628805994987488,0.29356104135513306,0.43697190284729004,-0.03903375193476677,1.3254764080047607,0.384151816368103,-0.6173324584960938,-0.32367146015167236,-0.6054460406303406
405535,9.352278709411621,-0.5342943072319031,2.933715581893921,0.6625173091888428,-0.3687075972557068,0.9812033176422119,0.7052190899848938,-0.3187251091003418,-0.5003455281257629,-0.38824567198753357,9.814687728881836,-0.6772160530090332,0.27479419112205505,0.3227904140949249,-0.12475943565368652,1.3307139873504639,0.38421136140823364,-0.6173807978630066,-0.32358747720718384,-0.6054039597511292
405701,9.337471008300781,-0.5325486660003662,2.939154624938965,0.828910231590271,-0.09453647583723068,1.0350667238235474,0.7052944302558899,-0.31871140003204346,-0.5003353953361511,-0.3881332278251648,9.78045654296875,-0.6890292763710022,0.28352344036102295,0.3508363366127014,-0.2268260419368744,1.365816354751587,0.38428163528442383,-0.617432713508606,-0.3235194683074951,-0.6053428649902344
405868,9.338568687438965,-0.5453293323516846,2.936840534210205,0.7361922860145569,-0.1194448322057724,0.9937407970428467,0.7053049206733704,-0.31877776980400085,-0.5002776980400085,-0.38813385367393494,9.77227783203125,-0.7059798240661621,0.26955485343933105,0.4002048373222351,-0.6305590867996216,1.34878408908844,0.384333997964859,-0.6175169944763184,-0.32347890734672546,-0.6052452921867371
406035,9.352477073669434,-0.5291495323181152,2.9187002182006836,0.4632376730442047,-0.02816116064786911,0.9226269721984863,0.7053421139717102,-0.31881436705589294,-0.5002290606498718,-0.3880990445613861,9.777883529663086,-0.7089731097221375,0.24695153534412384,0.47063973546028137,-0.7261840105056763,1.2377656698226929,0.38439351320266724,-0.6175925731658936,-0.3234756290912628,-0.6051319241523743
406201,9.327778816223145,-0.5501936674118042,2.92205548286438,0.5746785402297974,-0.018018532544374466,0.9146870970726013,0.7054054737091064,-0.31881090998649597,-0.5002039670944214,-0.3880191445350647,9.876829147338867,-0.6987731456756592,0.25284823775291443,0.5707470178604126,-0.8013828992843628,1.2129725217819214,0.3844739496707916,-0.6176589131355286,-0.32350611686706543,-0.6049968600273132
406368,9.325911521911621,-0.5613656640052795,2.9090707302093506,0.3391697406768799,0.05570121854543686,0.8397827744483948,0.7054049372673035,-0.3188915550708771,-0.5001165270805359,-0.38806653022766113,9.892212867736816,-0.7183154821395874,0.2571824789047241,0.3958378732204437,-0.039814941585063934,1.3575050830841064,0.38464102149009705,-0.6176473498344421,-0.3235209286212921,-0.6048945188522339
406535,9.375404357910156,-0.5520355105400085,2.9320831298828125,0.2960379719734192,-0.02230866067111492,0.9373287558555603,0.7054325938224792,-0.318948894739151,-0.5000554919242859,-0.3880476951599121,9.801358222961426,-0.7221278548240662,0.25548797845840454,0.5997790098190308,0.265840619802475,1.458636999130249,0.38474714756011963,-0.6176539063453674,-0.32342517375946045,-0.6048716306686401
406701,9.366682052612305,-0.5811625719070435,2.952296018600464,0.49010542035102844,-0.10962235182523727,0.9682816863059998,0.7054600715637207,-0.31899914145469666,-0.5000093579292297,-0.388016015291214,9.794509887695312,-0.7138723731040955,0.24726006388664246,0.5415868759155273,0.09066256135702133,1.355353593826294,0.3848423957824707,-0.6176682114601135,-0.3233557939529419,-0.6048334240913391
406868,9.32705307006836,-0.5784671306610107,2.9329276084899902,0.580441415309906,-0.2585602104663849,1.0812978744506836,0.7054725885391235,-0.3190755248069763,-0.4999658763408661,-0.387986421585083,9.876385688781738,-0.7491512894630432,0.20151124894618988,0.5404855608940125,0.4079782962799072,1.1552159786224365,0.3849516212940216,-0.617636501789093,-0.32330429553985596,-0.6048238277435303
407035,9.358360290527344,-0.5476322770118713,2.8886375427246094,0.657509982585907,-0.3599480986595154,1.0372567176818848,0.7055168747901917,-0.31909751892089844,-0.4999709129333496,-0.3878813683986664,9.769698143005371,-0.7248578071594238,0.24344079196453094,0.569978654384613,0.524785041809082,0.9724310040473938,0.3850627541542053,-0.6175795793533325,-0.32327595353126526,-0.6048263311386108
407201,9.405557632446289,-0.5574842691421509,2.95951509475708,0.2046774923801422,-0.002189885824918747,0.7348859906196594,0.7055457830429077,-0.31912752985954285,-0.49992555379867554,-0.3878626525402069,9.888842582702637,-0.6892209649085999,0.2360439896583557,0.3355071544647217,0.6028780937194824,0.4085289537906647,0.3851117789745331,-0.617500364780426,-0.3232787251472473,-0.6048745512962341
407368,9.391824722290039,-0.5626375675201416,2.983483076095581,0.31989622116088867,-0.33377188444137573,0.48692941665649414,0.7055376172065735,-0.3191516101360321,-0.499928742647171,-0.3878532648086548,9.900951385498047,-0.742101788520813,0.24024026095867157,0.08870318531990051,1.641409158706665,0.34754517674446106,0.3851863145828247,-0.6173374056816101,-0.32321280241012573,-0.6050286293029785
407535,9.384729385375977,-0.5601341724395752,2.9393813610076904,0.3854006826877594,0.6181432604789734,0.39606836438179016,0.7055861353874207,-0.3191220760345459,-0.4998331665992737,-0.3879125416278839,9.798737525939941,-0.7272538542747498,0.29222652316093445,0.029268914833664894,2.1980371475219727,0.7533015012741089,0.38529863953590393,-0.6171574592590332,-0.32305601239204407,-0.6052243113517761
407701,9.247782707214355,-0.5457602143287659,3.0170445442199707,0.6247770190238953,0.1058252677321434,0.6436663269996643,0.705652117729187,-0.3190763592720032,-0.4998171329498291,-0.38785064220428467,9.75760555267334,-0.6935763359069824,0.3007017970085144,-0.10193853080272675,1.7759013175964355,0.6568567752838135,0.3853582441806793,-0.6170235872268677,-0.3229078948497772,-0.6054020524024963
407868,9.294103622436523,-0.5848239660263062,2.942653179168701,0.6421808004379272,-0.9099295735359192,0.5869982242584229,0.7055959105491638,-0.3191412091255188,-0.49986952543258667,-0.38783204555511475,9.7819185256958,-0.7126510143280029,0.3200884461402893,-0.3333493173122406,1.8478728532791138,0.32066458463668823,0.3853958547115326,-0.6168673634529114,-0.3227913975715637,-0.6055994629859924
408035,9.350043296813965,-0.535298228263855,2.931197166442871,1.0369876623153687,-0.3489474058151245,0.4260095953941345,0.7056267857551575,-0.3190743029117584,-0.499924898147583,-0.38775959610939026,9.784514427185059,-0.7145041823387146,0.33113282918930054,-0.31889092922210693,1.763018250465393,0.23646286129951477,0.3854314684867859,-0.6167097687721252,-0.32269710302352905,-0.605787456035614
408201,9.290262222290039,-0.5432451963424683,2.989643096923828,0.9252395033836365,0.08221036195755005,0.37177473306655884,0.7056131362915039,-0.31907787919044495,-0.4998757839202881,-0.3878448009490967,9.796110153198242,-0.6981714367866516,0.3369441032409668,-0.2627734839916229,1.678970217704773,0.1170436292886734,0.38543128967285156,-0.6165627837181091,-0.3225971758365631,-0.6059902906417847
408368,9.31737232208252,-0.5891030430793762,2.9520270824432373,0.9735066890716553,-0.17102880775928497,0.5429188013076782,0.705643892288208,-0.3190370202064514,-0.499889612197876,-0.3878045678138733,9.794388771057129,-0.7159160375595093,0.38593733310699463,-0.4411531686782837,1.6827991008758545,-0.013152120634913445,0.3853791654109955,-0.6164310574531555,-0.32246923446655273,-0.6062256097793579
408535,9.315361976623535,-0.5635465383529663,2.956620931625366,1.1478779315948486,0.4792840778827667,0.5143094658851624,0.7057047486305237,-0.31897029280662537,-0.4998277425765991,-0.3878285884857178,9.825098037719727,-0.6967175602912903,0.36290058493614197,-0.4312794804573059,1.7480860948562622,0.1502120941877365,0.38537466526031494,-0.6162857413291931,-0.32235315442085266,-0.6064379215240479
408701,9.313316345214844,-0.5468235015869141,2.961681604385376,0.8999854326248169,0.710080087184906,0.4730089604854584,0.7057965397834778,-0.3188765048980713,-0.4997533857822418,-0.3878346085548401,9.78797721862793,-0.693801760673523,0.36720868945121765,-0.4562390446662903,1.641998291015625,0.3233155310153961,0.3853430151939392,-0.6161758899688721,-0.3221907913684845,-0.6066558361053467
408868,9.321362495422363,-0.5579535365104675,3.0253286361694336,0.6333572864532471,0.4238966107368469,0.3914197087287903,0.7058454751968384,-0.31882649660110474,-0.4996926486492157,-0.3878649175167084,9.772449493408203,-0.7247825860977173,0.39381253719329834,-0.42741188406944275,1.0598598718643188,0.503436803817749,0.38536325097084045,-0.6160946488380432,-0.32210779190063477,-0.6067695021629333
409035,9.339258193969727,-0.5774463415145874,3.002955436706543,0.3687524199485779,0.0886903777718544,0.11548124998807907,0.7058461904525757,-0.31879734992980957,-0.4996669292449951,-0.38792070746421814,9.854923248291016,-0.7165182828903198,0.3958834707736969,-0.22913120687007904,0.7809120416641235,0.4822166860103607,0.3853749930858612,-0.6160303950309753,-0.3220490515232086,-0.6068585515022278
409201,9.352912902832031,-0.5706917643547058,3.0161232948303223,0.30669286847114563,0.3339831829071045,0.06854598224163055,0.7058460116386414,-0.31877443194389343,-0.4996030330657959,-0.3880220651626587,9.783249855041504,-0.7754799127578735,0.3876977562904358,-0.09040002524852753,0.8346731066703796,0.8516543507575989,0.38542604446411133,-0.6159741878509521,-0.32195845246315,-0.6069311499595642
409368,9.315098762512207,-0.570238471031189,3.0217440128326416,0.5666105151176453,-0.5944963693618774,0.39635008573532104,0.7058189511299133,-0.318788081407547,-0.4996417462825775,-0.38801029324531555,9.710003852844238,-0.7765195369720459,0.39579859375953674,0.5124140381813049,0.03971889242529869,1.1953253746032715,0.38552093505859375,-0.6159718632698059,-0.3219310939311981,-0.606887698173523
409535,9.419118881225586,-0.600019633769989,2.920105457305908,-0.18643485009670258,-0.33532148599624634,0.37054532766342163,0.7057738900184631,-0.31886351108551025,-0.49961116909980774,-0.38806962966918945,9.68659496307373,-0.7016944289207458,0.4084895849227905,0.6354318261146545,-1.2063068151474,0.5861274003982544,0.38548797369003296,-0.6160569190979004,-0.3220119774341583,-0.6067793965339661
409701,9.299769401550293,-0.5601520538330078,3.021219253540039,-0.054939236491918564,-0.31256458163261414,-0.012114807032048702,0.7057325839996338,-0.3188733458518982,-0.4996188282966614,-0.38812679052352905,9.72091293334961,-0.6967742443084717,0.3940136432647705,0.4071202576160431,-2.228753089904785,0.07450094074010849,0.38538452982902527,-0.6161996722221375,-0.3222183585166931,-0.6065905094146729
409868,9.298774719238281,-0.5400919318199158,2.8852555751800537,0.27571433782577515,-0.9441864490509033,-0.17761126160621643,0.7056544423103333,-0.3188689351081848,-0.4997193515300751,-0.38814297318458557,9.752394676208496,-0.7076144814491272,0.4016754925251007,0.4375609755516052,-3.035297393798828,0.5210583806037903,0.3852677643299103,-0.61644047498703,-0.32241564989089966,-0.6063151955604553
410035,9.353148460388184,-0.5561996102333069,2.9284520149230957,0.6365972757339478,-0.7886661887168884,0.3536537289619446,0.7056280374526978,-0.3188650906085968,-0.49979501962661743,-0.3880968689918518,9.81533145904541,-0.6759750247001648,0.3760676085948944,0.3968111276626587,-3.3516905307769775,0.8864618539810181,0.38518035411834717,-0.6167205572128296,-0.32260969281196594,-0.6059825420379639
410201,9.32714557647705,-0.5873097777366638,2.9572980403900146,0.3704812824726105,-0.49373602867126465,0.3910226821899414,0.7056427597999573,-0.31883561611175537,-0.4998490512371063,-0.3880246579647064,9.815513610839844,-0.6783280968666077,0.3533635437488556,0.003976371604949236,-3.149247884750366,1.1460850238800049,0.38509371876716614,-0.6170142292976379,-0.3227388560771942,-0.6056700944900513
410368,9.316946029663086,-0.5592173933982849,2.963249683380127,0.10140707343816757,-0.828532338142395,0.4012036919593811,0.705567479133606,-0.3189231753349304,-0.4998761713504791,-0.38805460929870605,9.77944278717041,-0.7125658392906189,0.34002166986465454,-0.17100320756435394,-3.2409160137176514,1.1288093328475952,0.38497480750083923,-0.6173292398452759,-0.3228496313095093,-0.605365514755249
410535,9.304977416992188,-0.5313512086868286,3.011242389678955,-0.0830363780260086,-1.2441753149032593,0.423768550157547,0.7054628729820251,-0.31904417276382446,-0.4999411702156067,-0.3880617916584015,9.809120178222656,-0.7296154499053955,0.3089684247970581,-0.23239684104919434,-3.493431568145752,0.9181960821151733,0.38481906056404114,-0.6176598072052002,-0.3229871988296509,-0.6050539016723633
410701,9.30225658416748,-0.5397554039955139,2.947732925415039,0.07945699244737625,-1.3015605211257935,0.4176342487335205,0.7053619623184204,-0.3191497325897217,-0.5000218749046326,-0.3880545496940613,9.85037612915039,-0.7494198083877563,0.2684268355369568,-0.2561398148536682,-3.429835319519043,0.6441915035247803,0.3846631944179535,-0.6179614663124084,-0.32316744327545166,-0.6047486066818237
410868,9.325668334960938,-0.5578197836875916,2.9346208572387695,0.05488160625100136,-1.0768731832504272,0.33403444290161133,0.7052788734436035,-0.3192293047904968,-0.5000878572463989,-0.3880550265312195,9.84900951385498,-0.7456417083740234,0.24315306544303894,-0.08222958445549011,-3.028292179107666,0.3479805588722229,0.38449275493621826,-0.6182154417037964,-0.3233444094657898,-0.60450279712677
411035,9.389786720275879,-0.5414628386497498,2.942875385284424,0.2083401083946228,-0.7039011120796204,0.13416573405265808,0.7051959037780762,-0.31928694248199463,-0.5001145005226135,-0.388124018907547,9.82061767578125,-0.7253163456916809,0.18723705410957336,-0.08686546981334686,-2.592146158218384,0.22532132267951965,0.3843706250190735,-0.6184060573577881,-0.323546826839447,-0.6042770743370056
411201,9.39150619506836,-0.5372925996780396,2.940687417984009,0.12810830771923065,-0.12939533591270447,-0.024434514343738556,0.7051777839660645,-0.31926238536834717,-0.5001150965690613,-0.3881762623786926,9.855074882507324,-0.7001823782920837,0.25940459966659546,0.11799129098653793,-3.2039177417755127,0.0007747841300442815,0.3841627538204193,-0.6186555624008179,-0.32376742362976074,-0.6040355563163757
411368,9.375043869018555,-0.5373359322547913,2.922072410583496,0.02938416786491871,0.18555758893489838,-0.41417014598846436,0.7051635980606079,-0.319191575050354,-0.5001025795936584,-0.38827621936798096,10.017521858215332,-0.6876465678215027,0.18858379125595093,-0.13805243372917175,-1.4511898756027222,-0.23477879166603088,0.3840201199054718,-0.6187413930892944,-0.3239154815673828,-0.6039590835571289
411535,9.401616096496582,-0.5334798693656921,2.928598403930664,0.09218651056289673,1.101941704750061,-0.47865015268325806,0.7051982283592224,-0.31907933950424194,-0.49998876452445984,-0.38845211267471313,9.73991870880127,-0.6552863717079163,0.18301956355571747,-0.4489009976387024,-0.4204068183898926,-0.28485164046287537,0.3838660717010498,-0.6187646389007568,-0.3239574432373047,-0.6040105819702148
411701,9.347792625427246,-0.4970705211162567,3.011035203933716,0.10170163214206696,1.1356478929519653,-0.4312410056591034,0.7052206993103027,-0.3189903497695923,-0.4998551309108734,-0.3886563777923584,9.765294075012207,-0.6610153913497925,0.15315544605255127,-0.6845122575759888,-1.0939184427261353,-0.23548318445682526,0.3836961090564728,-0.6188463568687439,-0.3240458071231842,-0.6039875745773315
411868,9.26844596862793,-0.5284454226493835,2.9879069328308105,0.5869342088699341,-0.4538058340549469,-0.0396740697324276,0.7051920294761658,-0.318943589925766,-0.49991050362586975,-0.3886755108833313,9.847311973571777,-0.6598832011222839,0.1534131020307541,-0.9481821060180664,-0.477254182100296,-0.06591428071260452,0.3835376799106598,-0.6189004778862,-0.3240540325641632,-0.6040282249450684
412035,9.394109725952148,-0.5458400845527649,2.88553786277771,0.7712687849998474,-0.28491565585136414,0.04152458533644676,0.7051639556884766,-0.3189062476158142,-0.49993374943733215,-0.38872745633125305,9.88876724243164,-0.6751645803451538,0.12969695031642914,-0.9870749115943909,0.42139932513237,0.13049030303955078,0.3834245800971985,-0.6188920140266418,-0.3239821195602417,-0.6041472554206848
412201,9.360595703125,-0.5250034928321838,2.919128894805908,0.6825848817825317,1.1320621967315674,-0.04982950910925865,0.7052438259124756,-0.31877246499061584,-0.49982330203056335,-0.38883402943611145,9.905312538146973,-0.6705158948898315,0.1526287943124771,-0.9626660943031311,1.565339207649231,0.14861127734184265,0.3833440840244293,-0.618794858455658,-0.32382339239120483,-0.6043830513954163
412368,9.321285247802734,-0.5148759484291077,2.988982677459717,0.5788789987564087,0.7908497452735901,-0.1121964231133461,0.7052809596061707,-0.31867602467536926,-0.49973762035369873,-0.38895583152770996,9.890729904174805,-0.6859166622161865,0.14136123657226562,-0.8439257144927979,2.6424429416656494,0.04543052613735199,0.3833424150943756,-0.618578314781189,-0.3236521780490875,-0.6046973466873169
412535,9.3554048538208,-0.5205386281013489,2.9830472469329834,0.4432469308376312,0.1736604869365692,-0.12826839089393616,0.7052895426750183,-0.31859660148620605,-0.499727725982666,-0.3890179395675659,9.851195335388184,-0.7101932168006897,0.20653919875621796,-0.5860185623168945,2.9534964561462402,0.12036046385765076,0.38341566920280457,-0.618308961391449,-0.32351112365722656,-0.6050018668174744
412702,9.413987159729004,-0.5272815823554993,2.9409282207489014,0.35668885707855225,0.8364530801773071,-0.16654656827449799,0.7053187489509583,-0.3185131251811981,-0.4996287524700165,-0.38916075229644775,9.83835506439209,-0.6899821758270264,0.20653939247131348,-0.3646352291107178,3.12638258934021,0.10008803755044937,0.3834461271762848,-0.618044376373291,-0.323313444852829,-0.605358362197876
412868,9.377866744995117,-0.5172838568687439,2.97568678855896,0.5323408246040344,1.7327184677124023,-0.11343865096569061,0.7054387331008911,-0.3183456361293793,-0.4994579255580902,-0.38929975032806396,9.841727256774902,-0.6797136068344116,0.23460383713245392,-0.17485786974430084,3.3765668869018555,0.2159726768732071,0.383548378944397,-0.6177363991737366,-0.32314178347587585,-0.6056995391845703
413035,9.342690467834473,-0.5247213244438171,2.9693715572357178,0.8644862174987793,1.260381817817688,0.1243944764137268,0.7055491805076599,-0.318192720413208,-0.4993399679660797,-0.3893756866455078,9.815778732299805,-0.6842896938323975,0.27473875880241394,-0.16725093126296997,3.4293673038482666,0.4101041257381439,0.38366371393203735,-0.6174356937408447,-0.3229440748691559,-0.6060383915901184
413202,9.35828971862793,-0.5427846312522888,2.932003974914551,0.6606988310813904,1.3452751636505127,0.13644526898860931,0.7056368589401245,-0.31808269023895264,-0.4991842210292816,-0.3895065486431122,9.770965576171875,-0.6643990278244019,0.28593531250953674,-0.11533397436141968,3.2902774810791016,0.4814739227294922,0.3837944269180298,-0.6171420216560364,-0.3227635622024536,-0.6063508987426758
413368,9.340063095092773,-0.525070071220398,2.929654836654663,0.6929452419281006,1.4657572507858276,0.1040964126586914,0.7057791352272034,-0.3179001808166504,-0.4990588128566742,-0.3895582854747772,9.759206771850586,-0.6566852927207947,0.30806204676628113,-0.05734683573246002,2.8344614505767822,0.45317190885543823,0.3839040696620941,-0.6168843507766724,-0.3226145803928375,-0.6066228151321411
413535,9.338942527770996,-0.5219164490699768,2.94720721244812,0.6323199272155762,1.1202034950256348,0.16912704706192017,0.7058836817741394,-0.317765474319458,-0.49895134568214417,-0.38961654901504517,9.775192260742188,-0.6606193780899048,0.3116651475429535,-0.10415404289960861,2.4878060817718506,0.432937890291214,0.3839787542819977,-0.6166648268699646,-0.3224705159664154,-0.6068753004074097
413702,9.349325180053711,-0.5122154951095581,2.9516706466674805,0.7161246538162231,1.289567470550537,0.21713805198669434,0.705993115901947,-0.3176333010196686,-0.49881798028945923,-0.38969653844833374,9.803903579711914,-0.6717613339424133,0.32489389181137085,-0.060228269547224045,2.364954948425293,0.4134466350078583,0.38406288623809814,-0.6164458394050598,-0.32235264778137207,-0.6071070432662964
413868,9.340720176696777,-0.5129921436309814,2.934608221054077,0.681790828704834,1.4266464710235596,0.2909282147884369,0.7061285972595215,-0.31748464703559875,-0.4986768066883087,-0.38975319266319275,9.79359245300293,-0.6715458035469055,0.3230200707912445,0.02047095261514187,2.3039071559906006,0.7213497161865234,0.38418856263160706,-0.6162369251251221,-0.32222801446914673,-0.6073058843612671
414035,9.326050758361816,-0.5168704986572266,2.9743385314941406,0.7713199853897095,1.464335560798645,0.465453177690506,0.7062491178512573,-0.3173774778842926,-0.4985029995441437,-0.3898444175720215,9.809175491333008,-0.6838991641998291,0.3018913269042969,0.09931965172290802,2.4448025226593018,0.7881603837013245,0.38432231545448303,-0.6160192489624023,-0.3220856487751007,-0.6075175404548645
414202,9.315178871154785,-0.5104660391807556,2.9869747161865234,0.8349035978317261,1.3682496547698975,0.48439380526542664,0.7063978314399719,-0.3172304630279541,-0.4983677268028259,-0.3898674547672272,9.802820205688477,-0.6724417209625244,0.33891066908836365,0.06275752186775208,2.4965016841888428,0.8782786130905151,0.384482741355896,-0.615793764591217,-0.32194921374320984,-0.6077167987823486
414368,9.332074165344238,-0.5107396841049194,2.9995408058166504,0.827693521976471,1.2103216648101807,0.563754677772522,0.7065215110778809,-0.3171211779117584,-0.49823012948036194,-0.38990816473960876,9.828028678894043,-0.6798303723335266,0.31509628891944885,0.22810028493404388,2.4646780490875244,1.0140515565872192,0.3846254050731659,-0.6155884265899658,-0.3217751681804657,-0.6079267263412476
414535,9.360361099243164,-0.5292369723320007,3.0106279850006104,0.4853542745113373,1.5255885124206543,0.4340519905090332,0.7066404223442078,-0.317025363445282,-0.49804314970970154,-0.3900095224380493,9.796158790588379,-0.6484111547470093,0.3462214171886444,0.16678348183631897,2.837918996810913,0.9520689249038696,0.3847796618938446,-0.6153481602668762,-0.32158565521240234,-0.6081728339195251
414702,9.304092407226562,-0.5129514336585999,3.0099740028381348,0.5198289752006531,1.2095662355422974,0.4008195400238037,0.7067503929138184,-0.3169231116771698,-0.4979037940502167,-0.3900713324546814,9.83863639831543,-0.6140995621681213,0.3516277074813843,-0.19679518043994904,2.500074625015259,1.2602791786193848,0.38494205474853516,-0.6151586771011353,-0.3213845193386078,-0.6083678007125854
414868,9.34642219543457,-0.5266178846359253,2.93717622756958,0.420400470495224,0.9715985655784607,0.8341991901397705,0.7068430185317993,-0.31690114736557007,-0.4977467954158783,-0.3901214301586151,9.797141075134277,-0.6585063934326172,0.3570117950439453,-0.7118921875953674,2.4487853050231934,1.8241554498672485,0.3850927948951721,-0.6150341033935547,-0.3210791051387787,-0.6085596680641174
415035,9.429235458374023,-0.5442010760307312,2.9511594772338867,-0.19872894883155823,2.2139298915863037,0.44338786602020264,0.7070109844207764,-0.3167976438999176,-0.4974755644798279,-0.3902469873428345,9.784628868103027,-0.6713506579399109,0.36828556656837463,-0.8432085514068604,2.030158758163452,1.1333554983139038,0.38514479994773865,-0.6149240732192993,-0.320841521024704,-0.6087630987167358
415535,9.291327476501465,-0.542365550994873,3.09344744682312,-0.14070336520671844,2.2585599422454834,0.46555566787719727,0.7074227333068848,-0.3165678083896637,-0.4964757561683655,-0.39096012711524963,9.82482624053955,-0.7361319065093994,0.3787846863269806,-1.1588082313537598,2.278768301010132,0.7124364376068115,0.38515812158584595,-0.6147827506065369,-0.32061490416526794,-0.6090168952941895
415702,9.256030082702637,-0.5411754250526428,3.083341598510742,-0.028442902490496635,1.48709237575531,0.5843088626861572,0.707527220249176,-0.31653085350990295,-0.49626052379608154,-0.3910740613937378,9.794122695922852,-0.7897031903266907,0.3867920935153961,-0.6756630539894104,2.2766168117523193,0.9717265367507935,0.3852212727069855,-0.614634096622467,-0.3203924000263214,-0.6092441082000732
415868,9.28475284576416,-0.5180130004882812,3.0805935859680176,-0.04735787957906723,1.164577603340149,0.06576701253652573,0.7075848579406738,-0.31646841764450073,-0.49610620737075806,-0.3912162184715271,9.791284561157227,-0.7427899241447449,0.4350494146347046,-0.028430098667740822,2.3546457290649414,0.7080823183059692,0.3853146731853485,-0.6144336462020874,-0.3202384114265442,-0.6094681024551392
416035,9.301836967468262,-0.5266706347465515,3.077207326889038,0.36952081322669983,1.2205924987792969,0.008701914921402931,0.7076758146286011,-0.31633883714675903,-0.4959831237792969,-0.3913125991821289,9.807757377624512,-0.6931115388870239,0.45930421352386475,0.022302258759737015,2.4154505729675293,0.48992615938186646,0.38541004061698914,-0.6142079830169678,-0.3201179802417755,-0.609698474407196
416202,9.279603958129883,-0.5285836458206177,3.1067426204681396,0.7999038696289062,1.0002464056015015,0.4240502417087555,0.7077733874320984,-0.31623375415802,-0.4958707392215729,-0.39136356115341187,9.79768180847168,-0.6879799365997314,0.4667815566062927,-0.1685059517621994,2.4873197078704834,0.28060632944107056,0.3854660987854004,-0.6139795184135437,-0.31998878717422485,-0.6099609136581421
416368,9.280167579650879,-0.5292834043502808,3.080073356628418,0.4430549144744873,1.018725872039795,0.3692903220653534,0.7078651785850525,-0.31614455580711365,-0.49574828147888184,-0.39142462611198425,9.756545066833496,-0.6845067739486694,0.48983699083328247,-0.24560017883777618,2.283083915710449,0.124394491314888,0.3855089545249939,-0.6137582659721375,-0.3198937475681305,-0.6102061867713928
416535,9.291406631469727,-0.5406280159950256,3.1024608612060547,0.1666170060634613,1.1573290824890137,0.20248760282993317,0.7079281806945801,-0.31608447432518005,-0.4955899715423584,-0.3915596604347229,9.74633502960205,-0.693925142288208,0.4915345311164856,-0.23474039137363434,1.6881908178329468,0.4323487877845764,0.3855631351470947,-0.613598108291626,-0.3198162317276001,-0.6103737950325012
416702,9.284605026245117,-0.5361251831054688,3.105571746826172,0.11457201093435287,1.062971830368042,0.33986130356788635,0.7079781293869019,-0.3160593807697296,-0.4954223334789276,-0.3917016386985779,9.773232460021973,-0.7036426663398743,0.48334601521492004,-0.1818629652261734,1.039203405380249,0.7076852321624756,0.3855929970741272,-0.6135156154632568,-0.3197326958179474,-0.6104816794395447
416868,9.295921325683594,-0.5288352370262146,3.100714683532715,0.04316379874944687,0.7739836573600769,0.2700667083263397,0.708004355430603,-0.31604790687561035,-0.4952866733074188,-0.39183497428894043,9.798989295959473,-0.6900888681411743,0.4975464344024658,-0.12023881077766418,0.7906575202941895,0.8031694293022156,0.38563600182533264,-0.6134507060050964,-0.3196702301502228,-0.6105522513389587
417035,9.289884567260742,-0.5425429940223694,3.1268506050109863,0.3932766318321228,0.7653651833534241,0.31365954875946045,0.7080748081207275,-0.31597134470939636,-0.49519070982933044,-0.3918907046318054,9.792895317077637,-0.6816974878311157,0.48269784450531006,-0.3176999092102051,0.432822585105896,0.7827048301696777,0.38563430309295654,-0.6134315133094788,-0.3196033537387848,-0.6106077432632446
417202,9.241042137145996,-0.5072405338287354,3.1507132053375244,0.6384156942367554,0.1673213541507721,0.6190909147262573,0.7081006765365601,-0.3159632980823517,-0.4951314926147461,-0.39192551374435425,9.773348808288574,-0.7088221907615662,0.5034155249595642,-0.2847107946872711,0.0052185882814228535,0.6505305767059326,0.38560429215431213,-0.6134416460990906,-0.31957587599754333,-0.6106308698654175
417368,9.306475639343262,-0.5629772543907166,3.0278537273406982,0.41740378737449646,-0.7178727388381958,0.6226895451545715,0.7080737948417664,-0.3160025179386139,-0.4951667785644531,-0.39189770817756653,9.788211822509766,-0.7195579409599304,0.4977758824825287,-0.2758871912956238,-0.2928300201892853,0.5379627346992493,0.38558411598205566,-0.6134571433067322,-0.31960660219192505,-0.6106119155883789
417535,9.279743194580078,-0.5555495023727417,3.1440012454986572,0.24633653461933136,0.22632023692131042,0.36749741435050964,0.7080881595611572,-0.3159927427768707,-0.4951035976409912,-0.39195942878723145,9.756300926208496,-0.7597823739051819,0.4903172254562378,0.03284188359975815,-0.6879443526268005,0.967577338218689,0.38556212186813354,-0.6135320067405701,-0.3196025490760803,-0.6105526685714722
417702,9.281133651733398,-0.5157391428947449,3.0864064693450928,0.1628263294696808,-0.41141679883003235,0.040743399411439896,0.7080459594726562,-0.31599003076553345,-0.49512505531311035,-0.3920108377933502,9.72172737121582,-0.7115085124969482,0.48821720480918884,0.36936715245246887,-1.2413322925567627,1.0171507596969604,0.38556429743766785,-0.6136327981948853,-0.3196684420108795,-0.6104154586791992
417868,9.303871154785156,-0.5218973755836487,3.097614288330078,0.3998718857765198,-0.2531815469264984,0.2209927886724472,0.7080051302909851,-0.3160049617290497,-0.4951106309890747,-0.392090767621994,9.824811935424805,-0.7005599737167358,0.4698406755924225,0.29305416345596313,-1.693345308303833,0.5546878576278687,0.38550442457199097,-0.6137530207633972,-0.31980037689208984,-0.6102632880210876
418035,9.3156156539917,-0.5556925535202026,3.086914300918579,0.3994748592376709,-0.43547990918159485,0.573052167892456,0.7079733610153198,-0.31605297327041626,-0.49510037899017334,-0.39212220907211304,9.85832691192627,-0.7162796258926392,0.43348929286003113,0.29713934659957886,-1.2353262901306152,0.4771325886249542,0.385465532541275,-0.6138262152671814,-0.319919228553772,-0.610152006149292
418202,9.29443073272705,-0.539892852306366,3.0956473350524902,0.3691878616809845,-0.2913956940174103,0.5395507216453552,0.7079792618751526,-0.3160560429096222,-0.49509933590888977,-0.3921103775501251,9.795981407165527,-0.7067064046859741,0.43196797370910645,0.28528064489364624,-1.2678669691085815,0.5446860790252686,0.38540855050086975,-0.6139150261878967,-0.32001349329948425,-0.6100492477416992
418368,9.28805160522461,-0.5048105716705322,3.140974283218384,0.38105934858322144,-0.6004000902175903,0.560168981552124,0.7079537510871887,-0.3160904049873352,-0.4951210021972656,-0.392101526260376,9.777581214904785,-0.6888608932495117,0.42722687125205994,0.3644751310348511,-1.4179959297180176,0.831343412399292,0.385378897190094,-0.6140248775482178,-0.3200993537902832,-0.6099122762680054
418535,9.271329879760742,-0.5112929344177246,3.099822998046875,0.3529750406742096,-0.6991497874259949,0.5078422427177429,0.707885205745697,-0.31616851687431335,-0.4951280653476715,-0.39215341210365295,9.822770118713379,-0.6807226538658142,0.4392867386341095,0.170087531208992,-1.4567991495132446,0.786994993686676,0.3853208124637604,-0.6141493916511536,-0.320169597864151,-0.6097866892814636
418702,9.272958755493164,-0.5268695950508118,3.0743515491485596,0.5607452392578125,-0.7920984625816345,0.48603302240371704,0.7078554630279541,-0.3161829113960266,-0.49518686532974243,-0.3921213448047638,9.837224960327148,-0.6818543076515198,0.4303811490535736,0.015041058883070946,-1.097286581993103,0.7178407907485962,0.3852662742137909,-0.6142441630363464,-0.3202185332775116,-0.6097001433372498
418868,9.304306983947754,-0.514130175113678,3.0788543224334717,0.42892950773239136,-0.7694951295852661,0.5652530789375305,0.707811176776886,-0.3162330389022827,-0.4952206313610077,-0.3921181261539459,9.816811561584473,-0.69819575548172,0.39999568462371826,-0.04459170997142792,-0.8720099329948425,0.7757382392883301,0.38522064685821533,-0.6143253445625305,-0.320243239402771,-0.6096342206001282
419035,9.31921672821045,-0.5299009680747986,3.078756809234619,0.20233391225337982,-0.646259605884552,0.4064158797264099,0.7077457904815674,-0.3163009285926819,-0.49522775411605835,-0.39217230677604675,9.800773620605469,-0.7148575186729431,0.36585885286331177,0.008561044000089169,-0.8300178647041321,0.6532455086708069,0.3851888179779053,-0.6143861413002014,-0.3202977478504181,-0.609564483165741
419202,9.319564819335938,-0.5332515835762024,3.0601322650909424,0.1266227811574936,-0.6720900535583496,0.35894277691841125,0.7076746225357056,-0.31637147068977356,-0.49523743987083435,-0.3922315537929535,9.807328224182129,-0.7024927735328674,0.3443569242954254,0.01641133800148964,-1.0179128646850586,0.6692662835121155,0.3851489722728729,-0.6144644618034363,-0.3203612267971039,-0.6094773411750793
419368,9.323782920837402,-0.527884304523468,3.0582728385925293,0.30846014618873596,-0.5253676772117615,0.3960043489933014,0.7076451778411865,-0.3163925111293793,-0.4952569603919983,-0.39224308729171753,9.821661949157715,-0.702970027923584,0.373607873916626,-0.08867116272449493,-0.9868316054344177,0.6133792996406555,0.3851141333580017,-0.6145353317260742,-0.3204362094402313,-0.6093882918357849
419535,9.30895709991455,-0.5085009336471558,3.0702669620513916,0.2861770987510681,-0.453997939825058,0.28346216678619385,0.7075837254524231,-0.3164394795894623,-0.49525004625320435,-0.392324835062027,9.810930252075195,-0.6997420191764832,0.3653009831905365,-0.07177959382534027,-0.7286044359207153,0.42370447516441345,0.38502898812294006,-0.6145941019058228,-0.32047250866889954,-0.6093637347221375
419702,9.302165985107422,-0.5237171649932861,3.0816285610198975,0.3648080825805664,-0.4176022708415985,0.3348540663719177,0.7075607180595398,-0.3164444863796234,-0.4952644407749176,-0.392344206571579,9.813777923583984,-0.6933944225311279,0.39417314529418945,-0.16242292523384094,-0.5733274817466736,0.2529062032699585,0.384954571723938,-0.6146252751350403,-0.3205311596393585,-0.6093485951423645
419868,9.328980445861816,-0.5208638906478882,3.0757670402526855,0.09059851616621017,-0.5934718251228333,0.21375717222690582,0.7074951529502869,-0.3164912760257721,-0.49527880549430847,-0.39240649342536926,9.815096855163574,-0.6847469210624695,0.38598349690437317,-0.3115912675857544,-0.5239332914352417,0.36695948243141174,0.3848912715911865,-0.61465984582901,-0.32057520747184753,-0.6093305349349976
420035,9.299454689025879,-0.5237892270088196,3.0416393280029297,0.18980932235717773,-0.3807584047317505,0.23878079652786255,0.7074710130691528,-0.3164930045604706,-0.4952916204929352,-0.39243245124816895,9.812576293945312,-0.6879335641860962,0.3680882751941681,-0.29053768515586853,-0.48975321650505066,0.4928332269191742,0.3848315477371216,-0.6147010922431946,-0.32059788703918457,-0.6093146800994873
420202,9.313760757446289,-0.5238533020019531,3.0771262645721436,0.1312330663204193,-0.5372520089149475,0.21237409114837646,0.7074342370033264,-0.31650447845458984,-0.49532070755958557,-0.3924528956413269,9.808438301086426,-0.6779559254646301,0.3543771207332611,-0.2801901400089264,-0.6202116012573242,0.48338210582733154,0.38476815819740295,-0.6147514581680298,-0.32063236832618713,-0.6092857122421265
420368,9.342673301696777,-0.5427466630935669,3.0539629459381104,0.19999036192893982,-0.4973345696926117,0.1932414025068283,0.7073864340782166,-0.31652429699897766,-0.4953380525112152,-0.39250093698501587,9.826308250427246,-0.7033982872962952,0.3441568911075592,-0.3971633017063141,-0.572571873664856,0.5003761053085327,0.3846766948699951,-0.6148144602775574,-0.3206334412097931,-0.6092793941497803
420535,9.325715065002441,-0.5450959801673889,3.0585474967956543,0.2991243302822113,-0.23066794872283936,0.305757999420166,0.7073643803596497,-0.3165322244167328,-0.49532514810562134,-0.39255061745643616,9.804746627807617,-0.7105639576911926,0.38526493310928345,-0.3531222641468048,-0.49738579988479614,0.6035696268081665,0.3846184015274048,-0.6148661971092224,-0.32064008712768555,-0.6092604994773865
420702,9.311266899108887,-0.5431042909622192,3.0632004737854004,0.36424458026885986,-0.14349514245986938,0.32372531294822693,0.7073529958724976,-0.31652960181236267,-0.4953064024448395,-0.3925969898700714,9.807162284851074,-0.7073630690574646,0.3696904182434082,-0.1438281089067459,-0.3927195370197296,0.6410923004150391,0.3845837712287903,-0.6148998141288757,-0.3206532299518585,-0.6092414259910583
420868,9.312504768371582,-0.5400359034538269,3.0632824897766113,0.44205600023269653,-0.2282859981060028,0.42868614196777344,0.7073437571525574,-0.3165329098701477,-0.49529504776000977,-0.39262524247169495,9.804847717285156,-0.7135499119758606,0.3520776033401489,0.047812510281801224,-0.5664376020431519,0.4313754737377167,0.3845486044883728,-0.614924430847168,-0.3207201361656189,-0.6092035174369812
421035,9.306321144104004,-0.533487856388092,3.08689284324646,0.526283323764801,-0.41570690274238586,0.45328712463378906,0.707349956035614,-0.31651178002357483,-0.495324969291687,-0.3925934135913849,9.823287010192871,-0.7166361808776855,0.3634320795536041,0.309510201215744,-0.30713462829589844,0.5617697238922119,0.38456591963768005,-0.6149149537086487,-0.3207892179489136,-0.6091657280921936
421202,9.289779663085938,-0.5351020097732544,3.008897066116333,0.5798010230064392,-0.37468817830085754,0.504141092300415,0.7073699235916138,-0.31647953391075134,-0.4953555464744568,-0.3925447165966034,9.828855514526367,-0.7068158984184265,0.3704056739807129,0.37309375405311584,-0.26747339963912964,0.6214472651481628,0.384564608335495,-0.614915132522583,-0.32082831859588623,-0.6091459393501282
421368,9.320693969726562,-0.5500600337982178,3.04779052734375,0.47745269536972046,-0.2338951677083969,0.47002503275871277,0.7073627710342407,-0.31648415327072144,-0.49534401297569275,-0.39256852865219116,9.805112838745117,-0.7003787159919739,0.3622519075870514,0.4092845022678375,-0.15893959999084473,0.713512122631073,0.3845839202404022,-0.6149061322212219,-0.3208601176738739,-0.6091259717941284
421535,9.320987701416016,-0.5472205281257629,3.027838706970215,0.558939516544342,-0.18443705141544342,0.5491939187049866,0.707394003868103,-0.31645146012306213,-0.4953489601612091,-0.39253222942352295,9.767199516296387,-0.6721461415290833,0.3562738597393036,0.39351990818977356,-0.38091203570365906,0.7602041959762573,0.38460496068000793,-0.6149161458015442,-0.32090675830841064,-0.6090779900550842
421702,9.315715789794922,-0.5297543406486511,3.055264711380005,0.5578893423080444,-0.053248800337314606,0.5078549981117249,0.7074069380760193,-0.3164389431476593,-0.4953230619430542,-0.39255180954933167,9.788437843322754,-0.6959207653999329,0.3516564667224884,0.3619266450405121,-0.7071153521537781,0.7289438247680664,0.3846285343170166,-0.6149450540542603,-0.3209933638572693,-0.608988344669342
421868,9.315912246704102,-0.5163971781730652,3.060142755508423,0.3614271879196167,-0.0021770792081952095,0.45917803049087524,0.7074344754219055,-0.316413015127182,-0.49530044198036194,-0.3925517201423645,9.8142728805542,-0.6903323531150818,0.35510745644569397,0.25058823823928833,-0.7805086970329285,0.7880323529243469,0.38460099697113037,-0.6150081157684326,-0.3210308849811554,-0.6089224815368652
422035,9.312604904174805,-0.5378187298774719,3.0788323879241943,0.4351405203342438,-0.13486365973949432,0.6158636808395386,0.7074611186981201,-0.3164028823375702,-0.4952855706214905,-0.3925307095050812,9.830005645751953,-0.6903881430625916,0.34536609053611755,0.11708205193281174,-0.6570169925689697,0.6747473478317261,0.38457438349723816,-0.6150546669960022,-0.32107532024383545,-0.6088686585426331
422202,9.298017501831055,-0.5245580673217773,3.074039936065674,0.39012622833251953,-0.18404005467891693,0.5742303133010864,0.7074657678604126,-0.31641367077827454,-0.4952644407749176,-0.39254021644592285,9.83271598815918,-0.6811815500259399,0.3521849811077118,0.075627900660038,-0.23324204981327057,0.7339639067649841,0.38459402322769165,-0.6150586009025574,-0.3211088478565216,-0.6088346242904663
422368,9.319528579711914,-0.5190972089767456,3.0922677516937256,0.09391536563634872,-0.11649936437606812,0.44101864099502563,0.7074628472328186,-0.31643104553222656,-0.4952322840690613,-0.39257198572158813,9.830872535705566,-0.7097604274749756,0.35572096705436707,0.0188189297914505,-0.15913169085979462,0.8304468989372253,0.3846060335636139,-0.6150696873664856,-0.32111239433288574,-0.608814001083374
422535,9.311161994934082,-0.5324934720993042,3.097003221511841,0.35069549083709717,0.10149671882390976,0.504871129989624,0.7074987292289734,-0.3164050877094269,-0.49519509077072144,-0.39257514476776123,9.820390701293945,-0.7007935643196106,0.37480083107948303,-0.0581408329308033,0.20795589685440063,0.7357823848724365,0.3846367597579956,-0.6150404810905457,-0.3211125433444977,-0.6088238954544067
422702,9.280193328857422,-0.5273868441581726,3.1022489070892334,0.23296670615673065,-0.14329025149345398,0.33738964796066284,0.7074806690216064,-0.31641826033592224,-0.4951677620410919,-0.3926316201686859,9.840800285339355,-0.7204266786575317,0.36906319856643677,-0.038521502166986465,0.3255310356616974,0.775635838508606,0.38468125462532043,-0.6149997711181641,-0.3211079239845276,-0.6088392734527588
422868,9.305877685546875,-0.5441950559616089,3.0045862197875977,0.4174165427684784,-0.07572393864393234,0.47664591670036316,0.7074955701828003,-0.3164048194885254,-0.4951462149620056,-0.39264264702796936,9.805072784423828,-0.7084563970565796,0.37931713461875916,-0.008900413289666176,0.5964621901512146,0.7215930223464966,0.38473838567733765,-0.6149318218231201,-0.3210950791835785,-0.6088786721229553
423035,9.365682601928711,-0.5570085644721985,3.021759271621704,0.18052472174167633,0.7277528643608093,0.2976899743080139,0.7075507640838623,-0.3163529634475708,-0.4950396716594696,-0.39271923899650574,9.777364730834961,-0.7381829023361206,0.36409011483192444,0.016283273696899414,0.30963829159736633,0.6301940083503723,0.3847399055957794,-0.6148980259895325,-0.32107800245285034,-0.6089208722114563
423202,9.329488754272461,-0.5364454984664917,3.106555700302124,-0.25200334191322327,1.286429762840271,-0.2894619107246399,0.7075825929641724,-0.31628352403640747,-0.4948706030845642,-0.3929310142993927,9.802860260009766,-0.7351645231246948,0.341681569814682,0.20950546860694885,0.11259981989860535,0.777620792388916,0.38479459285736084,-0.6148641109466553,-0.3211037516593933,-0.6089069843292236
423368,9.319579124450684,-0.556033194065094,3.0951173305511475,0.3972722291946411,1.2979300022125244,0.07739517837762833,0.7076922059059143,-0.31614190340042114,-0.4947403371334076,-0.39301177859306335,9.795389175415039,-0.6807632446289062,0.37286967039108276,0.23104575276374817,-0.056642480194568634,0.35965991020202637,0.3847915828227997,-0.6148312091827393,-0.3211651146411896,-0.6089097857475281
423535,9.264105796813965,-0.5336313247680664,3.162562608718872,0.9196688532829285,1.450069546699524,0.5770093202590942,0.7078366279602051,-0.31600791215896606,-0.4945792257785797,-0.39306214451789856,9.822479248046875,-0.6837493777275085,0.3893059194087982,0.09573385864496231,0.11553248018026352,-0.07010195404291153,0.3847349286079407,-0.6147754192352295,-0.3212333023548126,-0.6089659929275513
423702,9.314231872558594,-0.5176119804382324,3.148371934890747,0.6600457429885864,0.5554562211036682,0.4360114336013794,0.7079309821128845,-0.3159010708332062,-0.49452733993530273,-0.39304327964782715,9.87789249420166,-0.7032575607299805,0.3774043023586273,0.18298353254795074,0.646496593952179,0.3123916983604431,0.38475725054740906,-0.6146796941757202,-0.32125699520111084,-0.6090357899665833
423868,9.291913032531738,-0.49531543254852295,3.161381483078003,0.06779041886329651,0.4841760993003845,-0.1908402293920517,0.7079402804374695,-0.31583431363105774,-0.4944644868373871,-0.39315930008888245,9.890682220458984,-0.7090749740600586,0.40153056383132935,0.3690597712993622,1.3875614404678345,0.8908288478851318,0.3848784863948822,-0.6145370006561279,-0.3212001919746399,-0.609133243560791
424035,9.265417098999023,-0.5052751898765564,3.1022846698760986,-0.09314057230949402,0.11025626212358475,-0.04256829991936684,0.7079254388809204,-0.3158142566680908,-0.49442484974861145,-0.3932519257068634,9.836174964904785,-0.6782545447349548,0.408015638589859,0.2739213705062866,1.9363136291503906,0.7020120024681091,0.38500869274139404,-0.6143381595611572,-0.32112887501716614,-0.6092891693115234
424202,9.296965599060059,-0.5148665904998779,3.1260986328125,0.6964796781539917,-0.012550221756100655,0.17728470265865326,0.7079105973243713,-0.31578320264816284,-0.49440252780914307,-0.3933316767215729,9.817766189575195,-0.6889036297798157,0.41317808628082275,0.12465060502290726,2.065312147140503,0.4264194667339325,0.3851185739040375,-0.614117443561554,-0.32107260823249817,-0.6094717979431152
424368,9.260706901550293,-0.5320538282394409,3.1080996990203857,0.21989141404628754,0.14670312404632568,0.12198687344789505,0.7079142928123474,-0.31574955582618713,-0.4943634569644928,-0.3934010863304138,9.768479347229004,-0.6892557740211487,0.4423915147781372,0.09997276961803436,2.045039653778076,0.2678896188735962,0.3851923644542694,-0.6139007210731506,-0.3210124373435974,-0.6096751093864441
424535,9.262277603149414,-0.5212464928627014,3.097249746322632,0.26654496788978577,0.016488175839185715,0.19739066064357758,0.7079123258590698,-0.315727174282074,-0.49433475732803345,-0.3934585154056549,9.754016876220703,-0.6756339073181152,0.43222931027412415,-0.04792135953903198,1.6096620559692383,0.3764234185218811,0.3852524161338806,-0.6137318015098572,-0.3209626376628876,-0.6098335385322571
424702,9.283150672912598,-0.5241075158119202,3.0992839336395264,0.23390156030654907,-0.05934461951255798,0.024863526225090027,0.7078942060470581,-0.31569939851760864,-0.4943203330039978,-0.3935314416885376,9.784839630126953,-0.680074155330658,0.4461822509765625,-0.2103314995765686,1.2897851467132568,0.4785028398036957,0.38528013229370117,-0.6136102080345154,-0.32089632749557495,-0.6099733114242554
424868,9.278022766113281,-0.5396854281425476,3.1083035469055176,0.41952958703041077,0.12646912038326263,0.16788485646247864,0.7079029083251953,-0.31565627455711365,-0.49428829550743103,-0.3935908377170563,9.771308898925781,-0.6747785806655884,0.4310896396636963,-0.3146776556968689,1.0748178958892822,0.48509812355041504,0.3852895498275757,-0.6135132908821106,-0.32083210349082947,-0.610098659992218
425035,9.305795669555664,-0.5202344655990601,3.1243748664855957,0.4827801287174225,-0.11870204657316208,0.2958586812019348,0.7079024910926819,-0.315631628036499,-0.4942778944969177,-0.39362433552742004,9.811285972595215,-0.703348696231842,0.43310850858688354,-0.34757715463638306,0.7732794284820557,0.3708142638206482,0.3852818012237549,-0.6134348511695862,-0.3208019435405731,-0.6101981401443481
425202,9.284646987915039,-0.5138058662414551,3.167445182800293,0.8802508115768433,-0.43690142035484314,0.3523218631744385,0.7079187035560608,-0.31556740403175354,-0.4943336844444275,-0.39357659220695496,9.83103084564209,-0.6980068683624268,0.46052777767181396,-0.19295327365398407,0.7674525380134583,0.41922223567962646,0.38527941703796387,-0.6133560538291931,-0.3207700252532959,-0.6102955341339111
425368,9.33140754699707,-0.5444401502609253,3.043220281600952,0.7649297118186951,-0.8518015146255493,0.7039586901664734,0.7079053521156311,-0.3155808746814728,-0.4943983256816864,-0.3935086727142334,9.820006370544434,-0.6931337118148804,0.4458193778991699,-0.17670199275016785,0.9247784614562988,0.4544268846511841,0.3853059709072113,-0.6132569909095764,-0.320742130279541,-0.610393226146698
425535,9.293597221374512,-0.5369603633880615,3.1176767349243164,0.44083940982818604,0.007677407003939152,0.3152475357055664,0.7079180479049683,-0.3155493438243866,-0.4943749010562897,-0.3935406506061554,9.789717674255371,-0.7289044260978699,0.4354906380176544,0.15755650401115417,0.7733242511749268,1.120478630065918,0.3854272663593292,-0.6131773591041565,-0.32070475816726685,-0.6104161739349365
425702,9.309610366821289,-0.502017617225647,3.064748525619507,0.1273271143436432,-0.2480718046426773,0.022340677678585052,0.707902193069458,-0.3155190646648407,-0.4943889081478119,-0.39357587695121765,9.750073432922363,-0.6986409425735474,0.4232783019542694,0.6031726002693176,0.33078157901763916,1.204776406288147,0.38554850220680237,-0.6131277680397034,-0.3207000494003296,-0.6103919744491577
425868,9.296744346618652,-0.52098548412323,3.091709852218628,0.23541271686553955,0.3007635176181793,0.1679360568523407,0.7079142332077026,-0.3154852092266083,-0.49432796239852905,-0.3936578929424286,9.791934967041016,-0.6835526823997498,0.4298708438873291,0.33896487951278687,-0.1570826768875122,0.58594810962677,0.385570228099823,-0.6131070256233215,-0.3207559287548065,-0.6103695631027222
426035,9.304890632629395,-0.544817328453064,3.0982580184936523,0.3188845217227936,-0.12241590768098831,0.44183823466300964,0.7079164385795593,-0.3154861330986023,-0.4943031966686249,-0.3936843276023865,9.841805458068848,-0.6936911940574646,0.4141029715538025,0.1737629771232605,-0.06527397781610489,0.397553950548172,0.3855441212654114,-0.6130867600440979,-0.32079124450683594,-0.6103878617286682
426202,9.292424201965332,-0.5263891220092773,3.1136391162872314,0.23173730075359344,0.04123004153370857,0.4370870888233185,0.707935094833374,-0.31547605991363525,-0.4942634403705597,-0.39370888471603394,9.836905479431152,-0.6833881735801697,0.41060224175453186,0.10595332831144333,0.27915921807289124,0.5866780877113342,0.38557612895965576,-0.613035261631012,-0.3208122253417969,-0.6104083061218262
426368,9.282586097717285,-0.48565611243247986,3.1027960777282715,0.19267794489860535,-0.06811697781085968,0.27130892872810364,0.7079334855079651,-0.3154654800891876,-0.4942394196987152,-0.3937501907348633,9.801465034484863,-0.6696698665618896,0.43082568049430847,-0.08367668837308884,0.32608166337013245,0.7231809496879578,0.3855993449687958,-0.612999677658081,-0.3207951486110687,-0.610438346862793
426535,9.279095649719238,-0.5290712714195251,3.1238884925842285,0.2264995127916336,-0.3112199306488037,0.19503432512283325,0.707913339138031,-0.3154575824737549,-0.49424731731414795,-0.39378270506858826,9.810868263244629,-0.6638526320457458,0.4300535321235657,-0.3526100218296051,0.5417405962944031,0.5900077223777771,0.38561785221099854,-0.6129446625709534,-0.3207726776599884,-0.6104939579963684
426702,9.279077529907227,-0.5301369428634644,3.10941219329834,0.5134130120277405,-0.4266051650047302,0.2865484952926636,0.70792156457901,-0.31541159749031067,-0.4942930042743683,-0.3937472403049469,9.80357551574707,-0.7231927514076233,0.4281262457370758,-0.44740259647369385,0.6716610193252563,0.4454880654811859,0.38559797406196594,-0.6128862500190735,-0.3207279145717621,-0.610588550567627
426868,9.305144309997559,-0.524684488773346,3.12734055519104,0.7583727836608887,-0.6537256836891174,0.45267245173454285,0.70791095495224,-0.3153931796550751,-0.49435073137283325,-0.3937087059020996,9.848152160644531,-0.7131536602973938,0.41706570982933044,-0.22868295013904572,0.7396370768547058,0.3442538380622864,0.385571151971817,-0.6128134727478027,-0.32068994641304016,-0.6106985211372375
427035,9.295036315917969,-0.5307931900024414,3.094876527786255,0.8388606905937195,-0.7154651284217834,0.3993595838546753,0.7078929543495178,-0.3153705596923828,-0.49441903829574585,-0.3936735689640045,9.825584411621094,-0.743112325668335,0.4458684027194977,-0.12281288951635361,0.9838669896125793,0.37168508768081665,0.3855600357055664,-0.6127176880836487,-0.3206386864185333,-0.6108283400535583
427202,9.314635276794434,-0.4963272511959076,3.09777569770813,0.5830538868904114,-0.5316171646118164,0.3249419033527374,0.7078908085823059,-0.3153364360332489,-0.49447113275527954,-0.39363932609558105,9.811534881591797,-0.7016481161117554,0.44801294803619385,0.18898971378803253,0.7674525380134583,0.26541799306869507,0.3855758607387543,-0.6126112937927246,-0.32065194845199585,-0.6109182238578796
427368,9.301284790039062,-0.5095317363739014,3.058887481689453,0.6643229126930237,-0.7987576127052307,0.40846487879753113,0.7078696489334106,-0.31532490253448486,-0.49454545974731445,-0.3935932517051697,9.798013687133789,-0.6649492383003235,0.44917163252830505,0.11491777747869492,0.7070577144622803,0.4031246602535248,0.38562044501304626,-0.612509548664093,-0.3206719160079956,-0.6109816431999207
427535,9.297720909118652,-0.5149630308151245,3.0805344581604004,0.07241350412368774,-0.7959145903587341,0.20694419741630554,0.7077968120574951,-0.31537508964538574,-0.4945853054523468,-0.39363420009613037,9.778531074523926,-0.6634006500244141,0.45308756828308105,-0.010578044690191746,0.30495119094848633,0.3703916668891907,0.3855971395969391,-0.6124634146690369,-0.32067716121673584,-0.611039936542511
427702,9.312018394470215,-0.5126624703407288,3.0483479499816895,0.16611754894256592,-0.9177669882774353,0.30902358889579773,0.7077483534812927,-0.3154032230377197,-0.4946552813053131,-0.39361047744750977,9.74634838104248,-0.644747257232666,0.4487675130367279,-0.170734241604805,-0.08918341249227524,0.508098304271698,0.3855559527873993,-0.6124664545059204,-0.32067999243736267,-0.6110613346099854
427868,9.307497024536133,-0.507824182510376,3.071296453475952,0.14351435005664825,-0.786501944065094,0.5152954459190369,0.7076907753944397,-0.3154752850532532,-0.49467962980270386,-0.3936256766319275,9.793314933776855,-0.6630166172981262,0.4510941207408905,-0.4083048105239868,-0.5896555781364441,0.6987464427947998,0.38549667596817017,-0.6125326156616211,-0.3206804096698761,-0.6110321879386902
428035,9.29557991027832,-0.517119288444519,3.0800416469573975,-0.016558609902858734,-0.8205667734146118,0.7341559529304504,0.7076634168624878,-0.31554970145225525,-0.4947085380554199,-0.3935789167881012,9.8159761428833,-0.6629462242126465,0.4431362450122833,-0.6040370464324951,-0.7036064267158508,0.9458833336830139,0.3854420483112335,-0.6126286387443542,-0.3206530213356018,-0.6109848022460938
428202,9.304738998413086,-0.5264307260513306,3.0804271697998047,-0.008938832208514214,-0.7251467108726501,0.6863114237785339,0.7076241970062256,-0.3156326413154602,-0.4947188198566437,-0.3935699462890625,9.83438491821289,-0.6965746283531189,0.4361875355243683,-0.5584207773208618,-0.5414780378341675,1.17626953125,0.3854151666164398,-0.6127207279205322,-0.3205954432487488,-0.6109396815299988
428368,9.30344009399414,-0.5229644179344177,3.0544304847717285,0.07867580652236938,-0.8469093441963196,0.8238900303840637,0.7076097726821899,-0.3156982958316803,-0.49475619196891785,-0.3934963345527649,9.822443008422852,-0.7160927057266235,0.40908047556877136,-0.325383722782135,-0.4182041883468628,1.286186695098877,0.3854255676269531,-0.6127935647964478,-0.32054319977760315,-0.6108875274658203
428535,9.309947967529297,-0.5305221080780029,3.06553053855896,0.24042001366615295,-0.7080503702163696,0.9905136227607727,0.7076091766357422,-0.31576651334762573,-0.49477165937423706,-0.39342331886291504,9.78847885131836,-0.733299195766449,0.4147365689277649,-0.20527298748493195,-0.3791063725948334,1.2057242393493652,0.3854607939720154,-0.612843930721283,-0.32052338123321533,-0.6108250021934509
428702,9.29355239868164,-0.5332762598991394,3.109898328781128,0.09634857624769211,-0.7547293901443481,0.8414219617843628,0.7075780630111694,-0.3158556818962097,-0.4947817027568817,-0.3933951258659363,9.806903839111328,-0.7197084426879883,0.4163299798965454,0.20764857530593872,-0.40316951274871826,1.110970139503479,0.38549765944480896,-0.6128801703453064,-0.32052794098854065,-0.6107630729675293
428868,9.301565170288086,-0.5410493016242981,3.0932369232177734,0.2392290085554123,-0.8716513514518738,0.8436246514320374,0.7075604796409607,-0.3159196376800537,-0.49482253193855286,-0.3933238983154297,9.826979637145996,-0.7228028774261475,0.4103642702102661,0.3159262537956238,-0.2511197328567505,1.0042163133621216,0.3855687975883484,-0.6128796935081482,-0.320566862821579,-0.6106979846954346
429035,9.350711822509766,-0.5458076000213623,3.0524585247039795,0.27215415239334106,-0.7031838893890381,0.7877634167671204,0.707535982131958,-0.31598687171936035,-0.4948377311229706,-0.39329472184181213,9.8458890914917,-0.7223701477050781,0.4128309488296509,0.4883509576320648,0.04674958065152168,1.1638219356536865,0.38565972447395325,-0.6128612756729126,-0.3205699324607849,-0.6106575131416321
429202,9.2898530960083,-0.5437152981758118,3.074307918548584,0.3790871500968933,-0.5610717535018921,0.6574971675872803,0.7075254321098328,-0.3160180151462555,-0.4948553740978241,-0.39326655864715576,9.848580360412598,-0.7124765515327454,0.4039057195186615,0.6279144883155823,0.28038859367370605,1.239699363708496,0.38580018281936646,-0.6128101944923401,-0.32058095932006836,-0.6106144189834595
429369,9.30734920501709,-0.5341448187828064,3.0917580127716064,0.5052937269210815,-0.6678895950317383,0.8887414932250977,0.7075148820877075,-0.31607189774513245,-0.4948723316192627,-0.39322078227996826,9.841763496398926,-0.6939123868942261,0.4116993844509125,0.4861994981765747,0.43005645275115967,1.1721845865249634,0.3859252333641052,-0.6127516031265259,-0.32057446241378784,-0.6105974316596985
429535,9.31136703491211,-0.5316810607910156,3.0554137229919434,0.5867805480957031,-0.6358352899551392,0.9785011410713196,0.7075285911560059,-0.3161073625087738,-0.4948958456516266,-0.3931381404399872,9.789397239685059,-0.7018192410469055,0.4245585501194,0.4137667417526245,0.501797616481781,1.0607436895370483,0.38602060079574585,-0.6126928925514221,-0.3205530345439911,-0.6106073260307312
429702,9.311482429504395,-0.5326460003852844,3.025777816772461,0.731210470199585,-0.6847555041313171,0.9643885493278503,0.707557201385498,-0.3161146342754364,-0.4949430227279663,-0.39302152395248413,9.785721778869629,-0.7124864459037781,0.42919716238975525,0.3950822651386261,0.204856738448143,1.0764825344085693,0.38609805703163147,-0.6126638054847717,-0.32054245471954346,-0.6105930805206299
429869,9.314957618713379,-0.5384926199913025,3.0671794414520264,0.5021305680274963,-0.789421796798706,0.8267075419425964,0.7075495719909668,-0.3161540925502777,-0.49498653411865234,-0.392948716878891,9.792520523071289,-0.7191102504730225,0.4291762709617615,0.1627366691827774,0.12686608731746674,0.9928185939788818,0.3861527144908905,-0.6126469969749451,-0.3205306828022003,-0.6105815768241882
430035,9.33045482635498,-0.5393787026405334,3.0574281215667725,0.42900630831718445,-0.5592276453971863,0.8034767508506775,0.7075796127319336,-0.3161560893058777,-0.49502235651016235,-0.3928479254245758,9.815351486206055,-0.7080844044685364,0.4223070442676544,0.07220860570669174,-0.02375577948987484,0.9694727659225464,0.38619285821914673,-0.6126464605331421,-0.3205234408378601,-0.6105604767799377
430202,9.319533348083496,-0.5261950492858887,3.0664560794830322,0.17179077863693237,-0.5821126103401184,0.7163935899734497,0.7075562477111816,-0.31621986627578735,-0.49502432346343994,-0.39283591508865356,9.840336799621582,-0.7208616137504578,0.42587998509407043,0.010943027213215828,-0.013754021376371384,0.8566231727600098,0.38621342182159424,-0.6126453876495361,-0.32051610946655273,-0.6105524897575378
430369,9.3120756149292,-0.5236926674842834,3.075112819671631,0.1588691622018814,-0.38703346252441406,0.6602249145507812,0.7075517773628235,-0.31625986099243164,-0.4950146973133087,-0.3928241431713104,9.830156326293945,-0.7160988450050354,0.42635592818260193,-0.20218662917613983,0.1471257507801056,0.9196431636810303,0.38624584674835205,-0.6126374006271362,-0.32049083709716797,-0.6105532646179199
430535,9.317264556884766,-0.5479178428649902,3.045072555541992,0.07288733869791031,-0.5993372201919556,0.5614495873451233,0.7075302004814148,-0.31630489230155945,-0.49503201246261597,-0.3928050100803375,9.826129913330078,-0.7173957228660583,0.4295981526374817,-0.4736684560775757,0.43847018480300903,0.7156764268875122,0.386224627494812,-0.612619936466217,-0.3204222619533539,-0.6106202006340027
430702,9.306958198547363,-0.5667036771774292,3.0619380474090576,0.3051432967185974,-0.35282769799232483,0.5248490571975708,0.707518994808197,-0.31632742285728455,-0.49502748250961304,-0.3928124010562897,9.79113483428955,-0.7548878192901611,0.42406678199768066,-0.5749922394752502,0.38150754570961,0.6918309926986694,0.38620859384536743,-0.612604022026062,-0.3203657567501068,-0.6106757521629333
430869,9.283945083618164,-0.5377471446990967,3.025804042816162,0.28877678513526917,-0.2354191243648529,0.7189804315567017,0.7075320482254028,-0.3163531422615051,-0.4950049817562103,-0.39279666543006897,9.808186531066895,-0.7304072380065918,0.42712467908859253,-0.4984615445137024,0.45318466424942017,0.659443736076355,0.3862002491950989,-0.6125766038894653,-0.3203143775463104,-0.6107356548309326
431035,9.365607261657715,-0.5465481877326965,2.9995152950286865,-0.3436071574687958,0.1519281268119812,0.3603898286819458,0.7075183391571045,-0.3164018392562866,-0.49491941928863525,-0.39289000630378723,9.785842895507812,-0.7564918994903564,0.4076744616031647,-0.5484191179275513,0.21593423187732697,0.6004576683044434,0.38616761565208435,-0.6125715374946594,-0.32027414441108704,-0.6107823848724365
431202,9.412444114685059,-0.5491981506347656,3.1034438610076904,-1.1447339057922363,1.1708652973175049,-0.615831732749939,0.7074964046478271,-0.316391259431839,-0.4947368800640106,-0.3931678235530853,9.817618370056152,-0.7570258378982544,0.42565807700157166,-0.23750653862953186,0.019408024847507477,0.5331859588623047,0.38613834977149963,-0.6125674843788147,-0.32027074694633484,-0.6108067631721497
431369,9.331513404846191,-0.5411069393157959,3.0864505767822266,-0.8209127187728882,1.423675537109375,-0.37931129336357117,0.7075133323669434,-0.31635919213294983,-0.49453005194664,-0.393423467874527,9.899764060974121,-0.7135892510414124,0.433332622051239,-0.3230017423629761,0.2976643741130829,-0.08082086592912674,0.38607949018478394,-0.612506628036499,-0.3203154504299164,-0.6108815670013428
431535,9.269115447998047,-0.5470535159111023,3.0868613719940186,-0.482351154088974,1.2243831157684326,-0.04880499839782715,0.7075523138046265,-0.31632503867149353,-0.49434933066368103,-0.39360782504081726,9.88185977935791,-0.7580850720405579,0.43817606568336487,-0.4441370666027069,1.1335989236831665,-0.2906913459300995,0.3860172629356384,-0.6123736500740051,-0.3203108310699463,-0.6110565662384033
431702,9.236892700195312,-0.5546590089797974,3.109140396118164,-0.21376357972621918,0.36055636405944824,-0.18866313993930817,0.7075321078300476,-0.31630435585975647,-0.49427810311317444,-0.3937501013278961,9.803874015808105,-0.7519689798355103,0.4427754580974579,-0.18191419541835785,1.4171059131622314,0.09381291270256042,0.3860286474227905,-0.6122181415557861,-0.3202807605266571,-0.6112209558486938
431869,9.250940322875977,-0.5151671171188354,3.0618412494659424,-0.17321868240833282,-0.10464068502187729,-0.5588434934616089,0.7074565291404724,-0.3162826597690582,-0.4942718744277954,-0.393911212682724,9.707771301269531,-0.7070770859718323,0.43844637274742126,-0.1755494475364685,0.9727895855903625,0.21886692941188812,0.38602137565612793,-0.612111508846283,-0.3202567994594574,-0.6113449335098267
432035,9.28270149230957,-0.518807590007782,3.0306320190429688,0.11356030404567719,-0.16280709207057953,-0.4612206518650055,0.7073999643325806,-0.3162368834018707,-0.49428674578666687,-0.3940308690071106,9.733559608459473,-0.7005324959754944,0.4534773826599121,-0.4028621315956116,0.19290846586227417,-0.09166786074638367,0.3859301805496216,-0.6120722889900208,-0.320284903049469,-0.6114270091056824
432202,9.299304962158203,-0.5570551753044128,3.060102701187134,0.5194703936576843,-0.1324816793203354,-0.23596978187561035,0.7073835730552673,-0.3161558508872986,-0.49431654810905457,-0.39408761262893677,9.811768531799316,-0.7221400141716003,0.4610837996006012,-0.4764218032360077,0.012172435410320759,-0.15087160468101501,0.3858034908771515,-0.6120569705963135,-0.3203088641166687,-0.6115097999572754
432369,9.301583290100098,-0.5576308369636536,3.093118906021118,0.7387534379959106,0.10113813728094101,0.14964859187602997,0.7074000835418701,-0.31608548760414124,-0.4943055212497711,-0.3941284716129303,9.845495223999023,-0.7073020339012146,0.4403131902217865,-0.6031790375709534,0.32923203706741333,-0.24280834197998047,0.3856944143772125,-0.6120072603225708,-0.3203299939632416,-0.6116172075271606
432535,9.280447006225586,-0.5308343172073364,3.089564085006714,0.7483070492744446,0.16169938445091248,0.13568967580795288,0.7074387669563293,-0.3159894347190857,-0.4943021237850189,-0.3941405415534973,9.79975700378418,-0.7097153663635254,0.4604400098323822,-0.5383917689323425,0.6333827972412109,-0.12110964953899384,0.3856068253517151,-0.6119364500045776,-0.32032111287117004,-0.6117479205131531
432702,9.296075820922852,-0.5349645018577576,3.083505630493164,0.5354142785072327,0.20246197283267975,-0.05967758595943451,0.7074567079544067,-0.3159014880657196,-0.4942896366119385,-0.3941945731639862,9.793357849121094,-0.7124126553535461,0.43259233236312866,-0.3743935823440552,0.4742382764816284,0.23397840559482574,0.38554856181144714,-0.6118907928466797,-0.32029661536216736,-0.6118431091308594
432869,9.30751895904541,-0.5372897386550903,3.1036760807037354,0.5284988284111023,0.23702631890773773,0.004117241129279137,0.7074767351150513,-0.3158208131790161,-0.49426764249801636,-0.3942505419254303,9.830418586730957,-0.7162784337997437,0.4673495292663574,-0.10543467104434967,0.5221468806266785,0.3798811435699463,0.38551658391952515,-0.61183762550354,-0.32027000188827515,-0.6119304895401001
433035,9.322863578796387,-0.5245225429534912,3.136867046356201,0.8674828410148621,0.30628305673599243,0.3186027705669403,0.7075386643409729,-0.31572049856185913,-0.4942457377910614,-0.39424726366996765,9.841536521911621,-0.7053890228271484,0.4759860336780548,0.08446428179740906,0.6018151640892029,0.2690165936946869,0.38551655411720276,-0.6117532849311829,-0.32028263807296753,-0.6120080947875977
433202,9.244495391845703,-0.5062860250473022,3.1021523475646973,1.2531205415725708,-0.22822193801403046,0.5863195657730103,0.7075804471969604,-0.3156473636627197,-0.4942777752876282,-0.39419060945510864,9.849933624267578,-0.6802709102630615,0.4946037828922272,0.05098848044872284,0.8707357048988342,0.18014051020145416,0.3855213522911072,-0.611641526222229,-0.3202873170375824,-0.6121143698692322
433369,9.3240327835083,-0.5533431768417358,3.040053606033325,0.8161934614181519,-0.07138258963823318,0.4986087679862976,0.707619845867157,-0.31559106707572937,-0.494280606508255,-0.3941614031791687,9.754913330078125,-0.727273166179657,0.5037843585014343,0.01185227558016777,0.9612253308296204,0.42402464151382446,0.3855479955673218,-0.6115353107452393,-0.3202614188194275,-0.6122173070907593
433535,9.265588760375977,-0.517146110534668,3.146625280380249,0.8021065592765808,0.32752880454063416,0.04056411609053612,0.7076500058174133,-0.3154926002025604,-0.4942552447319031,-0.394217848777771,9.760845184326172,-0.7344813346862793,0.48541250824928284,0.4250490665435791,0.6015846729278564,0.905978798866272,0.385627418756485,-0.6114647388458252,-0.3202410936355591,-0.612248420715332
433702,9.321133613586426,-0.5039448142051697,3.0965521335601807,0.5787124633789062,0.1289663463830948,-0.11446314305067062,0.707663893699646,-0.31539782881736755,-0.4942566454410553,-0.3942669630050659,9.7826509475708,-0.6750234365463257,0.5090730786323547,0.4065183699131012,0.22779294848442078,0.5015286803245544,0.3856561481952667,-0.6114078164100647,-0.32027876377105713,-0.6122673153877258
433869,9.31334114074707,-0.545621931552887,3.1006038188934326,0.7256782054901123,0.04508475214242935,0.41576454043388367,0.7077160477638245,-0.3153226971626282,-0.4942559599876404,-0.39423444867134094,9.833065032958984,-0.6960052251815796,0.4890892207622528,0.0952216163277626,0.3133777678012848,0.11703083664178848,0.38562247157096863,-0.6113446354866028,-0.3203144073486328,-0.6123330593109131
