sampleTimeFine,D4:22:CD:00:A9:12_acc_x,D4:22:CD:00:A9:12_acc_y,D4:22:CD:00:A9:12_acc_z,D4:22:CD:00:A9:12_gyro_x,D4:22:CD:00:A9:12_gyro_y,D4:22:CD:00:A9:12_gyro_z,D4:22:CD:00:A9:12_quat_w,D4:22:CD:00:A9:12_quat_x,D4:22:CD:00:A9:12_quat_y,D4:22:CD:00:A9:12_quat_z,D4:22:CD:00:A1:93_acc_x,D4:22:CD:00:A1:93_acc_y,D4:22:CD:00:A1:93_acc_z,D4:22:CD:00:A1:93_gyro_x,D4:22:CD:00:A1:93_gyro_y,D4:22:CD:00:A1:93_gyro_z,D4:22:CD:00:A1:93_quat_w,D4:22:CD:00:A1:93_quat_x,D4:22:CD:00:A1:93_quat_y,D4:22:CD:00:A1:93_quat_z
407410,0.0,0.0,0.0,0.0,0.0,0.0,0.710741400718689,-0.30558520555496216,-0.45428866147994995,-0.4416854977607727,0.0,0.0,0.0,0.0,0.0,0.0,0.34911271929740906,-0.6412843465805054,-0.42730996012687683,-0.533179759979248
407577,8.955917358398438,-0.30644163489341736,3.964733600616455,0.6412459015846252,-0.3421216309070587,0.11559651046991348,0.7110598087310791,-0.3052307367324829,-0.45425930619239807,-0.4414485991001129,9.581259727478027,0.06122109293937683,-1.816817045211792,0.3134930431842804,-0.2528741657733917,0.6600200533866882,0.3493571877479553,-0.6411921977996826,-0.42751577496528625,-0.5329656600952148
407743,8.953900337219238,-0.33308055996894836,3.967881679534912,0.2843457758426666,-0.3821799159049988,-0.05347931385040283,0.7107207775115967,-0.3053959906101227,-0.4537479877471924,-0.44240501523017883,9.589112281799316,0.06815721094608307,-1.8306750059127808,0.7311208248138428,-0.30258840322494507,0.6920359134674072,0.3495500385761261,-0.6412577629089355,-0.42732003331184387,-0.5329175591468811
407910,8.951467514038086,-0.32194986939430237,3.986004590988159,0.8285003304481506,-0.23034781217575073,0.07200369238853455,0.7107080221176147,-0.30539870262145996,-0.4533463716506958,-0.44283512234687805,9.579360008239746,0.06239849701523781,-1.8281515836715698,1.168419361114502,-0.3146776258945465,0.6235476136207581,0.3497541546821594,-0.6412678956985474,-0.42728984355926514,-0.5327955484390259
408077,8.942138671875,-0.31518319249153137,3.997720241546631,0.7831146717071533,-0.3573227524757385,0.321048766374588,0.710909366607666,-0.30521756410598755,-0.45310741662979126,-0.44288137555122375,9.591144561767578,0.08697202056646347,-1.8161108493804932,1.3677245378494263,-0.4492083191871643,0.6012004613876343,0.3499683439731598,-0.6412621140480042,-0.42733946442604065,-0.5326218605041504
408243,8.94837474822998,-0.3124246299266815,4.003317356109619,0.5129390954971313,-0.25841933488845825,0.28069597482681274,0.7109880447387695,-0.30514591932296753,-0.4528138339519501,-0.44310471415519714,9.59207534790039,0.12120547890663147,-1.828123927116394,1.2200672626495361,-0.5099360346794128,0.6255710124969482,0.35014647245407104,-0.6411816477775574,-0.4274680018424988,-0.5324986577033997
408410,8.975107192993164,-0.3310101628303528,3.9850070476531982,0.4161103069782257,-0.39113152027130127,0.2858313024044037,0.7111168503761292,-0.3050118088722229,-0.4526420533657074,-0.4431658089160919,9.610870361328125,0.14931315183639526,-1.8140442371368408,0.7784275412559509,-0.39316773414611816,0.384581059217453,0.3501582145690918,-0.6410880088806152,-0.42762133479118347,-0.5324805378913879
408577,8.978343963623047,-0.31780681014060974,3.9938905239105225,0.5801724195480347,-0.31696993112564087,0.3489153981208801,0.7112058401107788,-0.3049442768096924,-0.45252424478530884,-0.4431898295879364,9.591638565063477,0.16652251780033112,-1.8226784467697144,-0.014663268812000751,-0.15208818018436432,0.13639402389526367,0.34992077946662903,-0.6410607099533081,-0.42760995030403137,-0.5326785445213318
408743,8.981101036071777,-0.2928985357284546,4.008846282958984,0.5859352946281433,-0.24319259822368622,0.1809985488653183,0.7112115621566772,-0.30493104457855225,-0.45241400599479675,-0.4433021545410156,9.581245422363281,0.17687205970287323,-1.8167312145233154,-0.7384653687477112,-0.17018358409404755,0.1802813857793808,0.3496345579624176,-0.6410298347473145,-0.42762163281440735,-0.5328942537307739
409077,8.9685697555542,-0.26776137948036194,4.002018928527832,0.6814322471618652,-0.26812654733657837,0.32500597834587097,0.7113114595413208,-0.30474889278411865,-0.452365905046463,-0.44331637024879456,9.599105834960938,0.14893023669719696,-1.8245381116867065,-1.3247658014297485,-0.12826840579509735,0.2795626223087311,0.3494364321231842,-0.6409182548522949,-0.4277527630329132,-0.5330532193183899
409243,8.982060432434082,-0.256788045167923,3.98415207862854,0.756349503993988,-0.2865293025970459,0.272602379322052,0.7113178968429565,-0.304658979177475,-0.45237597823143005,-0.4433574676513672,9.58200454711914,0.1261647790670395,-1.809396743774414,-1.605839490890503,-0.13847507536411285,0.28388479351997375,0.3491896390914917,-0.6408749222755432,-0.4277932047843933,-0.5332345366477966
409410,8.979015350341797,-0.26781073212623596,4.018968105316162,0.7161887288093567,-0.4174101948738098,0.27162909507751465,0.7112777233123779,-0.30460256338119507,-0.45240628719329834,-0.44342994689941406,9.58578872680664,0.09666384756565094,-1.823489785194397,-1.5014678239822388,-0.1814531832933426,0.5036801695823669,0.3488937020301819,-0.6409458518028259,-0.42766714096069336,-0.5334439873695374
409577,8.977606773376465,-0.2770916819572449,3.9867916107177734,0.4767867922782898,-0.422366201877594,0.21232286095619202,0.7112810611724854,-0.30450689792633057,-0.4524632394313812,-0.4434317648410797,9.570025444030762,0.0812627375125885,-1.79720938205719,-1.114498257637024,-0.2337799072265625,0.7121034264564514,0.34885382652282715,-0.6408988237380981,-0.4277368485927582,-0.5334707498550415
409743,8.949358940124512,-0.28538134694099426,3.9989006519317627,0.4235251843929291,-0.33857429027557373,0.35311591625213623,0.7112855315208435,-0.3044385313987732,-0.4525040090084076,-0.44343024492263794,9.585977554321289,0.05929498374462128,-1.8228480815887451,-0.5461395978927612,-0.19601398706436157,0.7262928485870361,0.3488817512989044,-0.6408518552780151,-0.4277943968772888,-0.5334628820419312
409910,8.959586143493652,-0.3073499798774719,3.982314348220825,0.16392765939235687,-0.4259391725063324,0.31517061591148376,0.711354672908783,-0.30432379245758057,-0.4525914192199707,-0.44330888986587524,9.581402778625488,0.04734540730714798,-1.8073793649673462,0.13950596749782562,-0.1130160316824913,0.7957289218902588,0.34890368580818176,-0.6408702731132507,-0.42774906754493713,-0.533462643623352
410077,8.967344284057617,-0.31540384888648987,3.9852471351623535,0.3073844313621521,-0.21609434485435486,0.37176191806793213,0.7113377451896667,-0.30431169271469116,-0.4525865614414215,-0.443349152803421,9.59028434753418,0.07352140545845032,-1.8051344156265259,0.7807838916778564,-0.16036111116409302,0.9129453897476196,0.3491126000881195,-0.6407992839813232,-0.4278464615345001,-0.5333331823348999
410243,8.964306831359863,-0.3016888499259949,4.005906581878662,0.31578537821769714,-0.22972029447555542,0.49152687191963196,0.7112749814987183,-0.30437543988227844,-0.4525390863418579,-0.4434545338153839,9.579459190368652,0.09188409149646759,-1.802860140800476,1.12442946434021,-0.16631606221199036,0.9166977405548096,0.34935182332992554,-0.6407243609428406,-0.4279502034187317,-0.5331832766532898
410410,8.93946647644043,-0.3029119074344635,3.9979565143585205,0.44804930686950684,-0.2602762281894684,0.559874415397644,0.7113131880760193,-0.30434417724609375,-0.45255905389785767,-0.4433942437171936,9.580340385437012,0.11950922757387161,-1.795067310333252,1.247754693031311,-0.1764458864927292,0.9584208130836487,0.3493828773498535,-0.6408277750015259,-0.4277884364128113,-0.533168375492096
410577,8.963089942932129,-0.3028181493282318,3.9879586696624756,0.5130864381790161,-0.35633671283721924,0.6720132231712341,0.7114832401275635,-0.3041948676109314,-0.45267173647880554,-0.4431088864803314,9.594404220581055,0.11987417936325073,-1.7830785512924194,1.2405831813812256,-0.06924393773078918,1.1042979955673218,0.34963223338127136,-0.6407662034034729,-0.42785385251045227,-0.5330263376235962
410743,8.966099739074707,-0.307904988527298,4.013058185577393,0.44133880734443665,-0.18366865813732147,0.7662742137908936,0.7115306854248047,-0.304191917181015,-0.4526648223400116,-0.4430418908596039,9.59218692779541,0.13224279880523682,-1.8162578344345093,0.9374697208404541,-0.12812751531600952,1.0525602102279663,0.34983980655670166,-0.6407217383384705,-0.4278985261917114,-0.5329077243804932
410910,8.945679664611816,-0.2993620038032532,3.9779605865478516,0.3963756859302521,-0.1762409657239914,0.8128766417503357,0.7116230130195618,-0.3041558265686035,-0.4526783525943756,-0.44290438294410706,9.601746559143066,0.12392479181289673,-1.7886285781860352,0.5974097847938538,-0.1230049878358841,1.04935884475708,0.34996238350868225,-0.6407325863838196,-0.42786380648612976,-0.5328420400619507
411077,8.955744743347168,-0.29390355944633484,4.002237319946289,0.19810780882835388,-0.2383645921945572,0.6482381820678711,0.7116124033927917,-0.30421653389930725,-0.4526405930519104,-0.4429183900356293,9.584321975708008,0.12653428316116333,-1.8144493103027344,0.3045029640197754,-0.09956936538219452,0.9659124612808228,0.35009923577308655,-0.6407109498977661,-0.42787137627601624,-0.5327720046043396
411243,8.976920127868652,-0.2807072401046753,3.9889445304870605,0.28944268822669983,-0.3375881612300873,0.6805741190910339,0.7116666436195374,-0.3042104244232178,-0.45266222953796387,-0.4428132474422455,9.585902214050293,0.10504807531833649,-1.81529700756073,-0.06714368611574173,-0.1586066335439682,0.8793031573295593,0.3501257598400116,-0.6407582759857178,-0.4277895987033844,-0.5327634811401367
411410,8.95783805847168,-0.27902641892433167,4.004039764404297,0.30242836475372314,-0.3666073977947235,0.6548078656196594,0.7116807103157043,-0.3042396605014801,-0.45266756415367126,-0.4427650570869446,9.577095985412598,0.10536027699708939,-1.8311229944229126,-0.24586912989616394,-0.18448828160762787,0.8651906251907349,0.3501438498497009,-0.6408085823059082,-0.42771103978157043,-0.5327541828155518
411577,8.962976455688477,-0.29188644886016846,4.004400730133057,0.38073915243148804,-0.32514044642448425,0.589111328125,0.7117294073104858,-0.3042193353176117,-0.4526996314525604,-0.4426678717136383,9.573712348937988,0.09434843808412552,-1.799363374710083,-0.415335476398468,-0.2977347671985626,0.7615487575531006,0.3501272201538086,-0.6408746242523193,-0.42763346433639526,-0.5327479839324951
411743,8.95940113067627,-0.29713019728660583,3.9781405925750732,0.3418847322463989,-0.46375635266304016,0.6440122127532959,0.7117059230804443,-0.3042825758457184,-0.4526963233947754,-0.44266560673713684,9.580832481384277,0.09500961750745773,-1.8425781726837158,-0.4851685166358948,-0.4452383518218994,0.6157612800598145,0.3501446843147278,-0.6408995389938354,-0.4276424050331116,-0.5326994061470032
411910,8.983786582946777,-0.28877902030944824,3.9856154918670654,0.2888152301311493,-0.3708718717098236,0.5450702905654907,0.71172034740448,-0.3042982816696167,-0.4527142345905304,-0.4426133930683136,9.58416748046875,0.09388598054647446,-1.8298546075820923,-0.5347675681114197,-0.4101617932319641,0.5114920735359192,0.35010799765586853,-0.6409552097320557,-0.42760488390922546,-0.5326865911483765
412077,8.969378471374512,-0.2896227240562439,3.9763383865356445,0.26905500888824463,-0.2791912257671356,0.45324867963790894,0.7117477655410767,-0.3042899966239929,-0.4527375102043152,-0.4425511956214905,9.589374542236328,0.089891716837883,-1.814971923828125,-0.35193130373954773,-0.2781538963317871,0.4952792227268219,0.3500683605670929,-0.6410139203071594,-0.42754408717155457,-0.5326908826828003
412243,8.977743148803711,-0.2984917163848877,3.9866414070129395,0.16116149723529816,-0.2505178153514862,0.554572582244873,0.711717426776886,-0.304360568523407,-0.4527064561843872,-0.4425831735134125,9.60959529876709,0.09048158675432205,-1.8301383256912231,-0.1932990401983261,-0.09940288215875626,0.6680368185043335,0.3501317501068115,-0.6410121321678162,-0.4275450110435486,-0.5326505899429321
412410,8.967668533325195,-0.30958154797554016,3.990779161453247,0.3671260178089142,-0.26384925842285156,0.47929683327674866,0.7117530703544617,-0.3043425679206848,-0.45273730158805847,-0.44250667095184326,9.574897766113281,0.08608288317918777,-1.8178613185882568,0.03538394719362259,0.04287565499544144,0.6405224204063416,0.35019299387931824,-0.6410118937492371,-0.42752182483673096,-0.532629132270813
412577,8.951043128967285,-0.3105041980743408,3.9851465225219727,0.2981894612312317,-0.1670844405889511,0.39454445242881775,0.711667537689209,-0.3044436573982239,-0.452674925327301,-0.44263869524002075,9.577406883239746,0.10364919155836105,-1.8103760480880737,0.2538538873195648,-0.07733754813671112,0.7448492646217346,0.3502673804759979,-0.6410242319107056,-0.42750123143196106,-0.5325819253921509
412743,8.969078063964844,-0.31116190552711487,4.003452777862549,0.4270213544368744,-0.41518187522888184,0.53440260887146,0.7116113901138306,-0.3045261800289154,-0.45266103744506836,-0.4426861107349396,9.586920738220215,0.09271389991044998,-1.7959420680999756,0.2771998643875122,0.021521070972085,0.8096367120742798,0.3503116965293884,-0.6410667300224304,-0.42741915583610535,-0.53256756067276
412910,8.974699974060059,-0.3068743348121643,3.9884438514709473,0.3733883202075958,-0.24872492253780365,0.5501927733421326,0.711617112159729,-0.30455282330513,-0.4526605010032654,-0.44265928864479065,9.604297637939453,0.07245475053787231,-1.8388538360595703,0.5022330284118652,0.05029693618416786,0.9549117684364319,0.3504016399383545,-0.6410954594612122,-0.427351713180542,-0.5325278043746948
413077,8.962479591369629,-0.3235609233379364,3.999655246734619,0.17652912437915802,-0.3280218541622162,0.7254092693328857,0.7116562724113464,-0.30458036065101624,-0.4526728093624115,-0.4425647556781769,9.582369804382324,0.07986418902873993,-1.8297150135040283,0.5191630721092224,-0.028506934642791748,1.1966701745986938,0.35053589940071106,-0.6411234140396118,-0.42730093002319336,-0.532446563243866
413243,8.967245101928711,-0.3221885561943054,3.982550621032715,0.1975315362215042,-0.42875656485557556,0.7615231275558472,0.711665689945221,-0.3046432435512543,-0.45267581939697266,-0.44250330328941345,9.588852882385254,0.07827850431203842,-1.8056772947311401,0.6934830546379089,-0.12655234336853027,1.168137550354004,0.3506790101528168,-0.6411487460136414,-0.4272722005844116,-0.5323448181152344
413410,8.981240272521973,-0.3248264491558075,3.968386650085449,0.06571578234434128,-0.23536789417266846,0.8523457646369934,0.7116531729698181,-0.3047502636909485,-0.4526222050189972,-0.4425046145915985,9.609288215637207,0.04231986775994301,-1.8307547569274902,0.8119033575057983,0.014836156740784645,1.0215946435928345,0.3508149981498718,-0.641161322593689,-0.427238792181015,-0.5322669744491577
413577,9.00676441192627,-0.32545626163482666,4.008767604827881,0.13463954627513885,-0.15532821416854858,0.6653090715408325,0.7116984128952026,-0.3047705292701721,-0.45261648297309875,-0.44242358207702637,9.525996208190918,0.06693777441978455,-1.8153388500213623,0.8822101950645447,0.1759015917778015,0.805833101272583,0.3509468734264374,-0.6411502361297607,-0.427215039730072,-0.532212495803833
413743,8.974424362182617,-0.33982551097869873,3.9681525230407715,0.26021862030029297,0.0629880353808403,0.6150698661804199,0.7117504477500916,-0.3047718107700348,-0.4525910019874573,-0.4423649311065674,9.542410850524902,0.06545049697160721,-1.8360726833343506,0.8170002102851868,-0.47026193141937256,0.8047958612442017,0.3510253131389618,-0.6411989331245422,-0.42721042037010193,-0.5321056842803955
413910,8.935989379882812,-0.2996630072593689,3.924680709838867,0.6760151386260986,-0.03493572026491165,0.7919638156890869,0.7118130922317505,-0.3047627806663513,-0.45258602499961853,-0.4422757625579834,9.615321159362793,0.05441496521234512,-1.8378998041152954,0.7794520258903503,-0.5279545187950134,0.6090251207351685,0.35112082958221436,-0.6412112712860107,-0.4272720217704773,-0.5319783091545105
414077,9.007950782775879,-0.3438248634338379,3.9460082054138184,0.9240870475769043,-0.30094924569129944,0.7826921343803406,0.7118620276451111,-0.3047504723072052,-0.452623188495636,-0.44216737151145935,9.607413291931152,0.0953989028930664,-1.8269948959350586,0.701422929763794,-0.2865932881832123,0.15501444041728973,0.35116931796073914,-0.641197681427002,-0.4273330271244049,-0.5319137573242188
414243,9.005653381347656,-0.2988463342189789,4.026951789855957,0.7692837715148926,-0.1902126967906952,0.36037707328796387,0.7118825912475586,-0.30472230911254883,-0.45265814661979675,-0.4421177804470062,9.617844581604004,0.13724768161773682,-1.83254873752594,0.2910435199737549,-0.18200385570526123,-0.2233811765909195,0.35112079977989197,-0.6412014961242676,-0.42735031247138977,-0.531927227973938
414410,8.979963302612305,-0.2436446249485016,3.9572808742523193,0.9396466612815857,0.013555520214140415,-0.2746065557003021,0.7119001150131226,-0.3046036958694458,-0.45272207260131836,-0.44210588932037354,9.605034828186035,0.1290939301252365,-1.8026087284088135,-0.13456912338733673,0.2229137122631073,0.10760535299777985,0.3511015474796295,-0.6411994099617004,-0.42730894684791565,-0.5319757461547852
414577,8.936144828796387,-0.29813408851623535,4.047575950622559,0.670098602771759,-0.03464117646217346,0.17336595058441162,0.7118620276451111,-0.3046138286590576,-0.4527091681957245,-0.4421735107898712,9.597228050231934,0.11233939975500107,-1.8127436637878418,-0.36581334471702576,0.4542219936847687,0.5932093262672424,0.35109448432922363,-0.6412342190742493,-0.42717236280441284,-0.5320481657981873
414743,8.976770401000977,-0.33725249767303467,4.008293151855469,0.29834312200546265,-0.5396595597267151,0.7515214085578918,0.711860179901123,-0.30468299984931946,-0.45272982120513916,-0.4421077370643616,9.630414009094238,0.11285974830389023,-1.7967108488082886,-0.4620530605316162,0.8022729158401489,0.9038273096084595,0.35115694999694824,-0.6412390470504761,-0.4270223081111908,-0.5321217179298401
414910,8.946904182434082,-0.3104162812232971,4.007840633392334,0.6533351540565491,-0.144430011510849,0.6356239318847656,0.7119125127792358,-0.3046630918979645,-0.4527498781681061,-0.44201651215553284,9.590606689453125,0.1196240559220314,-1.7854267358779907,-0.4910466969013214,0.9875040650367737,1.2570265531539917,0.3512547016143799,-0.6412525177001953,-0.4268268048763275,-0.5321977138519287
415077,8.919363975524902,-0.27022483944892883,4.015293121337891,0.6441401243209839,-0.2503128945827484,0.5636138319969177,0.7119498252868652,-0.3046495318412781,-0.45278042554855347,-0.4419344365596771,9.558320999145508,0.0840439647436142,-1.788856029510498,-0.47140178084373474,1.1333556175231934,1.2814226150512695,0.3513563275337219,-0.6412611603736877,-0.42661309242248535,-0.5322914123535156
415243,8.942760467529297,-0.2893902659416199,4.002130031585693,-0.0005890919710509479,-0.5591252446174622,0.42260313034057617,0.711916446685791,-0.3047249913215637,-0.45279842615127563,-0.4419178366661072,9.566944122314453,0.029982220381498337,-1.7907227277755737,-0.21806654334068298,0.8953879475593567,1.1470839977264404,0.351468950510025,-0.6412569284439087,-0.42645835876464844,-0.5323461890220642
415410,8.965829849243164,-0.3276451826095581,3.982682704925537,0.05789109691977501,-0.35969194769859314,0.50616455078125,0.7118998765945435,-0.30479103326797485,-0.45279252529144287,-0.44190508127212524,9.559667587280273,-0.0030200378969311714,-1.7861968278884888,0.4401222765445709,0.7898764610290527,1.136301040649414,0.35160282254219055,-0.6412543058395386,-0.42631885409355164,-0.5323726534843445
415577,8.93505573272705,-0.31123676896095276,3.9936752319335938,0.3452015519142151,-0.27573350071907043,0.7855734825134277,0.7118688821792603,-0.3048931062221527,-0.4527488052845001,-0.44192934036254883,9.559009552001953,-0.0027412408962845802,-1.78065025806427,1.1735674142837524,0.2744976878166199,1.0985605716705322,0.35180315375328064,-0.6412279009819031,-0.42630186676979065,-0.5322858691215515
415743,8.9520263671875,-0.33917108178138733,4.003903865814209,0.22466818988323212,-0.2578558325767517,0.7591411471366882,0.7118744850158691,-0.30496111512184143,-0.45272552967071533,-0.44189712405204773,9.621127128601074,0.02632836252450943,-1.7736148834228516,1.5037281513214111,0.04000063240528107,0.955103874206543,0.35201480984687805,-0.6411907076835632,-0.4263400733470917,-0.5321601629257202
415910,8.956321716308594,-0.37093132734298706,4.003435134887695,0.2501656413078308,-0.10197694599628448,0.6598279476165771,0.7118576169013977,-0.3050388991832733,-0.45267221331596375,-0.4419252574443817,9.612074851989746,0.07817090302705765,-1.7845165729522705,1.515317678451538,0.39574819803237915,0.5352605581283569,0.3522145748138428,-0.6411021947860718,-0.42639490962028503,-0.5320906639099121
416077,8.96393871307373,-0.3266865313053131,4.020719051361084,0.34749388694763184,-0.2526692748069763,0.541100263595581,0.7119128704071045,-0.3050229549407959,-0.4527033567428589,-0.44181540608406067,9.564282417297363,0.08049371093511581,-1.7728335857391357,1.114133358001709,-0.05061069503426552,0.42472895979881287,0.3523533046245575,-0.6410512924194336,-0.42646729946136475,-0.5320019721984863
416243,8.921900749206543,-0.2754466235637665,3.9836838245391846,0.3647696077823639,-0.38395997881889343,0.567110002040863,0.7118656039237976,-0.3051142692565918,-0.4526805877685547,-0.4418516457080841,9.601129531860352,0.0683324933052063,-1.784595251083374,0.9161086082458496,-0.04587234556674957,0.5647280216217041,0.35246384143829346,-0.6410350203514099,-0.4264865517616272,-0.5319330096244812
416410,8.991107940673828,-0.35014551877975464,3.939802408218384,0.44258102774620056,-0.5233954787254333,0.9954055547714233,0.7119067907333374,-0.30516529083251953,-0.45270493626594543,-0.4417251646518707,9.552010536193848,0.08679614216089249,-1.7836463451385498,0.653143048286438,-0.5345370173454285,0.4553489685058594,0.3524778187274933,-0.6410896182060242,-0.42648059129714966,-0.5318626165390015
416577,8.992619514465332,-0.3252408504486084,4.039279937744141,0.7120906710624695,-0.4265410900115967,0.5691205859184265,0.7119196057319641,-0.30517467856407166,-0.4527432322502136,-0.4416588246822357,9.580460548400879,0.14346574246883392,-1.7955106496810913,-0.12313306331634521,-0.8588451147079468,0.1300164759159088,0.35238781571388245,-0.6411771774291992,-0.426479309797287,-0.5318176746368408
416743,8.996855735778809,-0.2569379508495331,3.938361406326294,0.9034430980682373,-0.4590051472187042,0.014042162336409092,0.7119172215461731,-0.3051154613494873,-0.45283058285713196,-0.4416140913963318,9.563262939453125,0.11421924084424973,-1.8401724100112915,-0.641751766204834,-0.8626868724822998,-0.03608829155564308,0.3522410988807678,-0.6412758231163025,-0.4264621436595917,-0.5318098068237305
416910,8.922926902770996,-0.2572544813156128,4.022761344909668,0.6741326451301575,-0.3757767081260681,0.040154311805963516,0.7118850946426392,-0.3051021099090576,-0.4528774917125702,-0.44162699580192566,9.580598831176758,0.08392148464918137,-1.8358467817306519,-0.839225709438324,-1.0303220748901367,0.10353293269872665,0.35207295417785645,-0.6414079070091248,-0.42642396688461304,-0.5317923426628113
417077,9.014640808105469,-0.3215124011039734,3.9545366764068604,0.3894859254360199,-0.9729496836662292,0.5400246381759644,0.7118669748306274,-0.305153489112854,-0.45296889543533325,-0.4415268898010254,9.585129737854004,0.05884185805916786,-1.8389796018600464,-0.7071666121482849,-0.9391152858734131,0.5425602197647095,0.35196682810783386,-0.6415454745292664,-0.42636361718177795,-0.5317452549934387
417243,8.98200511932373,-0.3283812999725342,3.967391014099121,0.7017046809196472,-0.4049367308616638,0.46795040369033813,0.7118446826934814,-0.30518391728401184,-0.45299041271209717,-0.44151973724365234,9.600115776062012,0.06257539987564087,-1.8350125551223755,-0.6033455729484558,-0.7150425910949707,0.9251883029937744,0.35188567638397217,-0.6417069435119629,-0.4262303113937378,-0.5317109823226929
417410,8.946306228637695,-0.31604453921318054,3.9885880947113037,0.5089116096496582,-0.49693763256073,0.5596375465393066,0.7118610143661499,-0.30519765615463257,-0.45303821563720703,-0.44143474102020264,9.607857704162598,0.06037171557545662,-1.8561646938323975,-0.3582063913345337,-0.2923049032688141,0.8401157259941101,0.3519178032875061,-0.6417614817619324,-0.42618799209594727,-0.5316577553749084
417577,8.949193954467773,-0.3050934076309204,3.9941837787628174,-0.01152571476995945,-0.5493795275688171,0.21604955196380615,0.7117804884910583,-0.3052957057952881,-0.4530394971370697,-0.4414955973625183,9.621841430664062,0.04447723552584648,-1.8498363494873047,-0.134940505027771,0.0748210921883583,0.547990083694458,0.35197779536247253,-0.6417528390884399,-0.4261806607246399,-0.5316343903541565
417743,8.974372863769531,-0.3284142017364502,3.9754726886749268,0.09070096909999847,-0.3545565903186798,0.2570682466030121,0.7117834091186523,-0.30530834197998047,-0.4530688226222992,-0.4414522051811218,9.616767883300781,0.03828684613108635,-1.8473401069641113,0.04696087911725044,0.45066821575164795,0.5119466185569763,0.3520343005657196,-0.6417367458343506,-0.4261220693588257,-0.5316632390022278
417910,8.94233512878418,-0.29099956154823303,4.008052349090576,0.213846817612648,-0.47383493185043335,0.38395360112190247,0.7117669582366943,-0.3053499162197113,-0.4530954957008362,-0.4414224624633789,9.592259407043457,0.05460389330983162,-1.823500394821167,0.3675614297389984,0.7022681832313538,0.5079190135002136,0.35211730003356934,-0.6417001485824585,-0.42605289816856384,-0.5317078828811646
418077,8.958610534667969,-0.30139559507369995,3.9790849685668945,0.2099536955356598,-0.5266355276107788,0.3926747143268585,0.7117503881454468,-0.30539241433143616,-0.4531286358833313,-0.4413856863975525,9.585346221923828,0.059087902307510376,-1.8310770988464355,0.5165505409240723,0.6677166223526001,0.6071682572364807,0.35226917266845703,-0.6416253447532654,-0.42604759335517883,-0.5317018628120422
418243,8.994912147521973,-0.33293774724006653,3.975358486175537,0.2667754590511322,-0.46547237038612366,0.26398366689682007,0.7116570472717285,-0.30549341440200806,-0.45311298966407776,-0.4414824843406677,9.604392051696777,0.0808587521314621,-1.821459174156189,0.3420383632183075,0.6587650179862976,0.4291599690914154,0.3523787260055542,-0.6415584683418274,-0.426032155752182,-0.5317223072052002
418410,8.981851577758789,-0.31664812564849854,3.968635320663452,0.153452068567276,-0.35195690393447876,0.24958933889865875,0.7115967273712158,-0.30556580424308777,-0.4531008303165436,-0.4415420591831207,9.607658386230469,0.10571987181901932,-1.8094104528427124,0.09924280643463135,0.713358461856842,0.38240399956703186,0.3524458706378937,-0.6415120959281921,-0.4259766936302185,-0.5317780375480652
418577,8.97326946258545,-0.2985706329345703,3.9644548892974854,0.19594354927539825,-0.1509612500667572,0.23808924853801727,0.7115721106529236,-0.30559834837913513,-0.45308607816696167,-0.44157442450523376,9.593415260314941,0.11815430968999863,-1.8009922504425049,-0.16098861396312714,0.6024042963981628,0.3434726893901825,0.3524443507194519,-0.6415123343467712,-0.42586973309516907,-0.5318647027015686
418744,8.999547004699707,-0.30373087525367737,3.9882900714874268,0.20165517926216125,-0.2939697504043579,0.27353721857070923,0.7115487456321716,-0.3056330680847168,-0.4530910551548004,-0.44158294796943665,9.595425605773926,0.11223088949918747,-1.7866699695587158,-0.49771878123283386,0.6281065940856934,0.33986130356788635,0.3524227440357208,-0.6415183544158936,-0.4257493019104004,-0.5319680571556091
418910,8.976533889770508,-0.28947967290878296,3.975215435028076,0.42006751894950867,-0.27881985902786255,0.38004764914512634,0.7115609645843506,-0.30563244223594666,-0.45311644673347473,-0.44153764843940735,9.578939437866211,0.09333211928606033,-1.786709189414978,-0.7116103768348694,0.48970839381217957,0.36494892835617065,0.35239142179489136,-0.6415332555770874,-0.4256383776664734,-0.5320596098899841
419077,8.965289115905762,-0.3044249713420868,3.9821858406066895,0.18989895284175873,-0.39456361532211304,0.407722145318985,0.7115526795387268,-0.30566900968551636,-0.4531349241733551,-0.4415064752101898,9.58705997467041,0.08860986679792404,-1.7907968759536743,-0.8087337613105774,0.4194656014442444,0.491373211145401,0.35235103964805603,-0.6415701508522034,-0.4255058765411377,-0.5321478843688965
419244,8.97329044342041,-0.29219043254852295,3.961003541946411,0.17828360199928284,-0.35450536012649536,0.4454496502876282,0.7115316390991211,-0.30572420358657837,-0.45313501358032227,-0.441502183675766,9.581161499023438,0.0767223984003067,-1.7753839492797852,-0.656222939491272,0.41167929768562317,0.6428595185279846,0.3523980677127838,-0.6415591239929199,-0.42544683814048767,-0.5321770906448364
419410,8.987931251525879,-0.3127107322216034,3.9466452598571777,0.28172045946121216,-0.2985800504684448,0.44094181060791016,0.7114934921264648,-0.30579036474227905,-0.45311906933784485,-0.44153428077697754,9.57455825805664,0.07598009705543518,-1.8070038557052612,-0.49414584040641785,0.11580143123865128,0.6228945255279541,0.35236644744873047,-0.6416202783584595,-0.42532801628112793,-0.5322192311286926
419577,8.965530395507812,-0.31297892332077026,3.971803665161133,0.13269297778606415,-0.2786789536476135,0.5162559747695923,0.7114211320877075,-0.3059098720550537,-0.45306551456451416,-0.44162312150001526,9.592637062072754,0.07365201413631439,-1.817993402481079,-0.2118554413318634,0.04938768595457077,0.6487504243850708,0.35239243507385254,-0.6416470408439636,-0.4252726137638092,-0.5322139859199524
420244,8.964103698730469,-0.311573326587677,3.981609582901001,0.24764278531074524,-0.24211683869361877,0.6513501405715942,0.7113679051399231,-0.3061726689338684,-0.4529811441898346,-0.44161325693130493,9.582406997680664,0.0700078085064888,-1.7910289764404297,0.013683585450053215,0.08904895186424255,0.7224382162094116,0.35244399309158325,-0.6416664123535156,-0.4252221882343292,-0.5321969389915466
420410,8.964890480041504,-0.3136119246482849,3.975930690765381,0.28599780797958374,-0.21455760300159454,0.5904431343078613,0.7113955616950989,-0.3061903715133667,-0.45298466086387634,-0.44155260920524597,9.581210136413574,0.07857642322778702,-1.8241733312606812,0.144987091422081,-0.02189885824918747,0.6695607900619507,0.35248488187789917,-0.641693651676178,-0.42517831921577454,-0.5321719646453857
420577,8.957701683044434,-0.3307562470436096,3.986898899078369,0.25448140501976013,-0.3032287657260895,0.655653178691864,0.7113529443740845,-0.30629023909568787,-0.4529457092285156,-0.44159188866615295,9.607897758483887,0.06326182931661606,-1.803201675415039,0.373298704624176,-0.017800824716687202,0.7838574647903442,0.35255879163742065,-0.6417136788368225,-0.42514529824256897,-0.5321254134178162
420744,8.963533401489258,-0.3207109272480011,3.991194486618042,0.22085188329219818,-0.21759267151355743,0.653143048286438,0.7113226652145386,-0.3063795864582062,-0.45290112495422363,-0.4416245222091675,9.606195449829102,0.06674334406852722,-1.8082070350646973,0.4849572479724884,0.21900777518749237,0.8325087428092957,0.35267534852027893,-0.6417014598846436,-0.4251210689544678,-0.5320822596549988
420910,8.967317581176758,-0.30746105313301086,3.96683669090271,0.2371031641960144,-0.3834861218929291,0.6031597852706909,0.7112834453582764,-0.30646976828575134,-0.4528798758983612,-0.44164711236953735,9.581341743469238,0.07731179893016815,-1.7854700088500977,0.4919750690460205,0.34914591908454895,0.7910929918289185,0.35278797149658203,-0.6416835188865662,-0.4250836670398712,-0.5320590734481812
421077,8.965262413024902,-0.3255886435508728,3.974242687225342,0.2472970336675644,-0.1460692286491394,0.6618769764900208,0.7112681269645691,-0.3065430521965027,-0.4528350830078125,-0.44166672229766846,9.57878589630127,0.067855603992939,-1.7944581508636475,0.5065999627113342,0.21186183393001556,0.7596021890640259,0.3528686463832855,-0.6416909098625183,-0.4250308871269226,-0.5320387482643127
421244,8.960176467895508,-0.31856855750083923,3.959916353225708,0.35727792978286743,-0.019260749220848083,0.5841295719146729,0.7112941145896912,-0.3065580129623413,-0.4528104066848755,-0.44163990020751953,9.580830574035645,0.07457822561264038,-1.8165059089660645,0.38584890961647034,0.1581392139196396,0.6655651926994324,0.3529225289821625,-0.6417064070701599,-0.42497485876083374,-0.5320289731025696
421410,8.964142799377441,-0.3033553659915924,3.979231357574463,0.3594678044319153,-0.07688932865858078,0.5745505094528198,0.7113202214241028,-0.30657100677490234,-0.45279553532600403,-0.4416041076183319,9.595272064208984,0.07764303684234619,-1.8156726360321045,0.3269268572330475,0.165989488363266,0.6773982048034668,0.35300323367118835,-0.6417003273963928,-0.42495062947273254,-0.5320021510124207
421577,8.9745454788208,-0.3089199364185333,3.992009401321411,0.26171696186065674,-0.0782339945435524,0.524003803730011,0.7112858295440674,-0.3066447079181671,-0.45274004340171814,-0.4416652023792267,9.595619201660156,0.08492417633533478,-1.797852635383606,0.21214358508586884,0.2197633534669876,0.6813426613807678,0.3530352711677551,-0.6417288780212402,-0.4248652458190918,-0.5320147275924683
421744,8.966780662536621,-0.312345951795578,3.9849181175231934,0.2722949981689453,-0.03242567554116249,0.5333268046379089,0.7112930417060852,-0.3066757917404175,-0.4527062475681305,-0.4416663944721222,9.613495826721191,0.07532565295696259,-1.797648549079895,0.13941632211208344,0.40513530373573303,0.5252844095230103,0.3530920147895813,-0.6417110562324524,-0.42481881380081177,-0.5320357084274292
421910,8.965508460998535,-0.32626810669898987,3.9770750999450684,0.26377877593040466,-0.0627254992723465,0.41279345750808716,0.7112042307853699,-0.30678990483283997,-0.4526204466819763,-0.4418179988861084,9.590815544128418,0.08725230395793915,-1.7990933656692505,-0.025996891781687737,0.5058316588401794,0.5003120303153992,0.353091835975647,-0.6417285203933716,-0.4247019290924072,-0.5321081876754761
422077,8.976208686828613,-0.3105792999267578,4.006374835968018,0.18512217700481415,-0.014676075428724289,0.3557412028312683,0.7111935019493103,-0.3068208396434784,-0.4525843858718872,-0.44185084104537964,9.607040405273438,0.07959192991256714,-1.7980742454528809,-0.08920902013778687,0.5649585127830505,0.52550208568573,0.35311219096183777,-0.6417289972305298,-0.4246007204055786,-0.5321746468544006
422244,8.96993637084961,-0.31515681743621826,3.9905571937561035,0.09605402499437332,-0.034858882427215576,0.4110133647918701,0.7112081050872803,-0.30683812499046326,-0.4525606334209442,-0.4418397545814514,9.61185359954834,0.06873691827058792,-1.791998267173767,-0.14653025567531586,0.6999117732048035,0.6525796055793762,0.35317036509513855,-0.641709566116333,-0.4245072305202484,-0.5322341322898865
422410,8.967508316040039,-0.30700668692588806,3.9816064834594727,-0.10744526982307434,-0.008874799124896526,0.31669461727142334,0.7112070322036743,-0.3068704903125763,-0.45252367854118347,-0.44185686111450195,9.600727081298828,0.09158353507518768,-1.7766468524932861,-0.21398131549358368,0.7794265151023865,0.5463637709617615,0.3532240092754364,-0.6416763663291931,-0.424421101808548,-0.5323072671890259
422577,8.984563827514648,-0.31523197889328003,3.990264415740967,-0.1471961885690689,-0.01664825528860092,0.3587634861469269,0.7112193703651428,-0.3068965971469879,-0.4524921178817749,-0.44185104966163635,9.600160598754883,0.07759372144937515,-1.774304986000061,-0.2275560200214386,0.7472824454307556,0.5815299153327942,0.3532596826553345,-0.6416618227958679,-0.42431169748306274,-0.5323881506919861
422744,8.956879615783691,-0.32062843441963196,4.007136821746826,0.04987432435154915,-0.022372690960764885,0.2530342638492584,0.7111840844154358,-0.3069457411766052,-0.4524444043636322,-0.44192251563072205,9.59854507446289,0.05752374976873398,-1.7674957513809204,-0.3285597264766693,0.6935471296310425,0.45318472385406494,0.3532852232456207,-0.6416381597518921,-0.424225389957428,-0.5324687361717224
422910,8.959428787231445,-0.3210039436817169,3.9928534030914307,0.09321100264787674,-0.2162351906299591,0.32188117504119873,0.7111563682556152,-0.3069932758808136,-0.4524255692958832,-0.4419535994529724,9.607203483581543,0.06908823549747467,-1.7538858652114868,-0.29992470145225525,0.7347962856292725,0.5613599419593811,0.3533232510089874,-0.6416171789169312,-0.4241275489330292,-0.5325467586517334
423077,8.9759521484375,-0.32830286026000977,4.009804725646973,0.009598358534276485,-0.11871485412120819,0.2926698923110962,0.7111307978630066,-0.30703938007354736,-0.45239344239234924,-0.4419955909252167,9.597107887268066,0.07481744885444641,-1.7647701501846313,-0.22377817332744598,0.8218795657157898,0.6676399111747742,0.3533869683742523,-0.6415876150131226,-0.4240274429321289,-0.5326197743415833
423244,8.964003562927246,-0.3355197608470917,4.00012731552124,0.11409816145896912,-0.27737271785736084,0.41205069422721863,0.7111132740974426,-0.30708640813827515,-0.4523829221725464,-0.44200173020362854,9.591562271118164,0.0834893211722374,-1.741998553276062,-0.10919973999261856,0.6741966605186462,0.6277351975440979,0.35343438386917114,-0.6415722966194153,-0.42393043637275696,-0.5326839685440063
423410,8.979459762573242,-0.3456404209136963,3.972747802734375,0.1273399293422699,-0.32114478945732117,0.5579277276992798,0.7110891342163086,-0.3071586489677429,-0.45236125588417053,-0.44201257824897766,9.579379081726074,0.0734982118010521,-1.742950439453125,-0.11575659364461899,0.503731369972229,0.6239446401596069,0.35344865918159485,-0.6415870785713196,-0.42381590604782104,-0.532747745513916
423577,8.975542068481445,-0.3478863835334778,3.981778144836426,0.08045588433742523,-0.2016487568616867,0.5646383762359619,0.7110604643821716,-0.30723971128463745,-0.4523163139820099,-0.44204849004745483,9.597763061523438,0.07555089890956879,-1.7541368007659912,0.029986068606376648,0.30262044072151184,0.7589874863624573,0.35351893305778503,-0.641582727432251,-0.42376428842544556,-0.5327475666999817
423744,8.989747047424316,-0.3320116102695465,3.992924928665161,0.07958506792783737,-0.1874849796295166,0.5322256088256836,0.7110457420349121,-0.30730217695236206,-0.4522818326950073,-0.4420640766620636,9.576011657714844,0.05788543075323105,-1.7681457996368408,0.13511338829994202,0.11352188140153885,0.9538233280181885,0.35359859466552734,-0.6416021585464478,-0.4237082004547119,-0.5327159762382507
423910,8.968064308166504,-0.35253196954727173,3.986644983291626,0.08872877806425095,-0.32977625727653503,0.4525059163570404,0.7110344171524048,-0.3073495328426361,-0.4522782266139984,-0.44205304980278015,9.58553409576416,0.04619723930954933,-1.772879719734192,0.4246649444103241,-0.06506906449794769,0.9172995686531067,0.3536943793296814,-0.6416153907775879,-0.42369142174720764,-0.5326496958732605
424077,8.962618827819824,-0.30775052309036255,3.9099605083465576,0.3069618046283722,-0.27176353335380554,0.5987160801887512,0.7110027074813843,-0.30742478370666504,-0.45224547386169434,-0.44208523631095886,9.600610733032227,0.04229056462645531,-1.768182396888733,0.6735306978225708,-0.022219015285372734,0.8061917424201965,0.35375744104385376,-0.641645073890686,-0.423642098903656,-0.5326113700866699
424244,9.010278701782227,-0.3539261519908905,3.9243862628936768,0.46481290459632874,-0.2760408818721771,0.7593461275100708,0.7110366821289062,-0.30744433403015137,-0.45225098729133606,-0.4420112669467926,9.54221248626709,0.0498364083468914,-1.7723067998886108,0.6766682863235474,0.15491199493408203,0.5384494066238403,0.3537876605987549,-0.6416623592376709,-0.423581063747406,-0.5326188802719116
424410,9.032621383666992,-0.36263734102249146,4.001140117645264,0.8788549304008484,-0.5159037709236145,0.32896310091018677,0.7109890580177307,-0.3074660897254944,-0.45228829979896545,-0.4420345723628998,9.529293060302734,0.044637516140937805,-1.7991046905517578,0.5471704602241516,-0.5837774276733398,0.40262526273727417,0.3538057506084442,-0.6416907906532288,-0.42362889647483826,-0.5325345993041992
424577,9.013586044311523,-0.26233765482902527,3.982377052307129,0.7292255163192749,-0.4569433331489563,-0.39741945266723633,0.7109286785125732,-0.30741438269615173,-0.45236772298812866,-0.44208645820617676,9.636141777038574,0.02335806004703045,-1.819933533668518,0.60558021068573,-0.5526964068412781,0.4843425452709198,0.35381805896759033,-0.6417340040206909,-0.42364925146102905,-0.5324582457542419
424744,8.942537307739258,-0.29395410418510437,3.993962049484253,0.9373671412467957,0.058480191975831985,-0.17168191075325012,0.710915744304657,-0.30733245611190796,-0.45239055156707764,-0.44214102625846863,9.644859313964844,0.07642330974340439,-1.802347183227539,0.5717202425003052,-0.15813279151916504,0.18700473010540009,0.3537888824939728,-0.641761302947998,-0.42362695932388306,-0.5324623584747314
424910,8.949858665466309,-0.3628234267234802,4.026102066040039,0.5082775950431824,-0.42814186215400696,0.5624228715896606,0.7108979821205139,-0.3073748052120209,-0.4524024724960327,-0.44212770462036133,9.64488410949707,0.12352219969034195,-1.7845488786697388,0.4235251843929291,0.18480202555656433,-0.4800203740596771,0.35375699400901794,-0.6416953802108765,-0.4236891269683838,-0.5325135588645935
425077,8.948500633239746,-0.34611597657203674,3.97605562210083,0.49488216638565063,-0.45763489603996277,0.6023786664009094,0.7108867764472961,-0.3074166178703308,-0.45241832733154297,-0.4421003460884094,9.616768836975098,0.1176178902387619,-1.763363242149353,-0.08392000943422318,0.6055930256843567,-0.28994855284690857,0.3537401556968689,-0.6416164636611938,-0.4237003028392792,-0.5326109528541565
425244,8.941695213317871,-0.3041421175003052,4.03532075881958,0.6062461733818054,-0.3725879192352295,0.4104883074760437,0.7109096646308899,-0.3073921799659729,-0.45246607065200806,-0.442031592130661,9.594892501831055,0.09507346898317337,-1.766796588897705,-0.3467191159725189,0.6481485962867737,0.1954953372478485,0.35370397567749023,-0.641604483127594,-0.423602432012558,-0.5327273011207581
425410,8.945344924926758,-0.29418984055519104,4.021026134490967,0.10973120480775833,-0.5155836939811707,0.2681969702243805,0.7107923626899719,-0.3075205087661743,-0.45243287086486816,-0.44216516613960266,9.608114242553711,0.1125236377120018,-1.7764325141906738,-0.3140629529953003,0.8410378694534302,0.6128671169281006,0.3537207841873169,-0.6415961384773254,-0.423466295003891,-0.5328342318534851
425577,8.981755256652832,-0.3363172709941864,3.9553818702697754,0.04434198886156082,-0.5402358770370483,0.4825240671634674,0.7107235789299011,-0.3076305091381073,-0.45241522789001465,-0.442217081785202,9.600872039794922,0.11442862451076508,-1.7563906908035278,-0.5680897235870361,1.0750995874404907,0.943027675151825,0.35379546880722046,-0.6415695548057556,-0.4233190417289734,-0.5329337120056152
425744,8.95998764038086,-0.332547664642334,3.997533082962036,0.4164432883262634,-0.03072243183851242,0.7608315944671631,0.7108006477355957,-0.3076075613498688,-0.4524112045764923,-0.44211331009864807,9.56801986694336,0.08328793197870255,-1.7510441541671753,-0.7023258209228516,1.1723124980926514,0.958190381526947,0.35386642813682556,-0.6415409445762634,-0.42315831780433655,-0.533048689365387
425910,8.934696197509766,-0.3284996747970581,3.9864983558654785,0.260385125875473,-0.231449156999588,0.644614040851593,0.7108084559440613,-0.3076488673686981,-0.45239347219467163,-0.44209030270576477,9.585490226745605,0.038962531834840775,-1.733660340309143,-0.43245765566825867,1.0673900842666626,0.9796794652938843,0.35398101806640625,-0.6414891481399536,-0.4230503737926483,-0.5331207513809204
426077,8.951750755310059,-0.3671799302101135,3.986487627029419,0.11140884459018707,-0.2156205028295517,0.6040563583374023,0.7108030915260315,-0.30770665407180786,-0.452362596988678,-0.44209036231040955,9.592684745788574,0.003686638316139579,-1.718880295753479,0.07233666628599167,1.1398099660873413,0.9439751505851746,0.35409015417099,-0.6414458155632019,-0.422916054725647,-0.5332069396972656
426244,8.976527214050293,-0.33406782150268555,4.015697956085205,0.1834573596715927,0.10102289915084839,0.4442715048789978,0.7108246684074402,-0.3077126145362854,-0.45231953263282776,-0.4420955181121826,9.57249927520752,-0.0029213845264166594,-1.7314199209213257,0.739957332611084,0.9304261803627014,0.9599447846412659,0.35421061515808105,-0.6414161324501038,-0.42279499769210815,-0.5332586765289307
426410,8.936759948730469,-0.2803853750228882,3.9879825115203857,0.30078914761543274,0.04023114964365959,0.46043309569358826,0.7108168601989746,-0.3077438473701477,-0.4522669017314911,-0.44214004278182983,9.596820831298828,0.018635477870702744,-1.7227301597595215,1.2997485399246216,0.4148809015750885,0.8262208104133606,0.3543887436389923,-0.6413522958755493,-0.42281296849250793,-0.5332027673721313
426577,8.984729766845703,-0.33261823654174805,3.943387985229492,0.3966190814971924,-0.4895355701446533,0.8990378379821777,0.7107928395271301,-0.30784159898757935,-0.452245831489563,-0.44213226437568665,9.629081726074219,0.07871770113706589,-1.7344954013824463,1.35635244846344,0.509238064289093,0.5550719499588013,0.35454192757606506,-0.641273021697998,-0.4228377640247345,-0.533176600933075
426744,9.021557807922363,-0.329543799161911,4.026416778564453,0.635021984577179,-0.39561372995376587,0.6814834475517273,0.7108420133590698,-0.30782198905944824,-0.452289879322052,-0.44202184677124023,9.564813613891602,0.09324129670858383,-1.7255711555480957,0.9851861000061035,0.21640808880329132,0.2530214488506317,0.35464662313461304,-0.6411948204040527,-0.42291080951690674,-0.5331431031227112
426910,9.024707794189453,-0.2994402348995209,3.886141777038574,0.8551247715950012,-0.5454736351966858,0.19906829297542572,0.7108303308486938,-0.30778810381889343,-0.4523638188838959,-0.44198864698410034,9.63148021697998,0.07271566987037659,-1.7240458726882935,0.7719218730926514,0.02869262360036373,0.48196062445640564,0.3547321557998657,-0.6411598920822144,-0.4229500889778137,-0.5330971479415894
427077,8.952434539794922,-0.2489408254623413,3.9915401935577393,1.220566749572754,0.05914612486958504,0.09683521091938019,0.7108572125434875,-0.30768144130706787,-0.45239681005477905,-0.44198569655418396,9.579679489135742,0.08908689767122269,-1.745997428894043,0.6311032772064209,-0.18118421733379364,0.29182469844818115,0.35477128624916077,-0.6411397457122803,-0.423001766204834,-0.5330541729927063
427244,8.99001693725586,-0.3334331512451172,3.9702882766723633,0.27915918827056885,-0.8453856706619263,0.5933502316474915,0.7108108401298523,-0.30776554346084595,-0.45243847370147705,-0.44195911288261414,9.631195068359375,0.11814358085393906,-1.7707518339157104,0.22979073226451874,-0.4576605260372162,-0.17367970943450928,0.35468029975891113,-0.6411641240119934,-0.42303258180618286,-0.5330609679222107
427410,8.992208480834961,-0.36105528473854065,3.951517343521118,0.41563647985458374,-0.4272838234901428,0.6353549957275391,0.7108473777770996,-0.3077632486820221,-0.45247671008110046,-0.4418627917766571,9.596030235290527,0.0869089886546135,-1.7717889547348022,-0.07974513620138168,-0.15007761120796204,-0.15882433950901031,0.3546198606491089,-0.6411495208740234,-0.42307135462760925,-0.5330879092216492
427577,8.977996826171875,-0.330970823764801,3.9749221801757812,0.43891841173171997,-0.10583166778087616,0.4346410930156708,0.7108773589134216,-0.30774131417274475,-0.4524809420108795,-0.44182562828063965,9.57938289642334,0.07242535054683685,-1.7738274335861206,-0.08681424707174301,-0.5272886157035828,0.15847216546535492,0.3545350432395935,-0.6412031054496765,-0.4230705797672272,-0.5330806374549866
427744,8.947391510009766,-0.3179677426815033,3.989330768585205,0.08810127526521683,-0.2616336941719055,0.30272287130355835,0.7108354568481445,-0.307794988155365,-0.4524584114551544,-0.4418787360191345,9.593931198120117,0.06509065628051758,-1.7834831476211548,0.2960379719734192,-0.43129220604896545,0.478336364030838,0.3545093834400177,-0.6412539482116699,-0.42305758595466614,-0.5330469608306885
427910,8.956135749816895,-0.32132938504219055,3.9716391563415527,0.23155800998210907,-0.3367941677570343,0.32037001848220825,0.7108081579208374,-0.30782702565193176,-0.45246028900146484,-0.4418981671333313,9.60764217376709,0.08952319622039795,-1.7695324420928955,0.2816436290740967,-0.06280233711004257,0.7195055484771729,0.3545458912849426,-0.6412744522094727,-0.423028826713562,-0.5330206155776978
428077,8.968724250793457,-0.31013917922973633,3.982174873352051,0.5768172144889832,-0.28003641963005066,0.4696408212184906,0.7108479738235474,-0.30779045820236206,-0.4524984359741211,-0.44182059168815613,9.612802505493164,0.09805244952440262,-1.7695252895355225,0.22616656124591827,0.19521360099315643,0.7089658975601196,0.3546017110347748,-0.6412691473960876,-0.42299625277519226,-0.5330157279968262
428244,8.964011192321777,-0.318136066198349,3.95705246925354,0.4579998850822449,-0.2991690933704376,0.4652482271194458,0.7108181715011597,-0.3078307807445526,-0.4524872303009033,-0.4418519139289856,9.62714958190918,0.08144812285900116,-1.7747679948806763,0.021649133414030075,0.5562630295753479,0.5850388407707214,0.35466599464416504,-0.6412264704704285,-0.4229597747325897,-0.5330532789230347
428410,8.979928016662598,-0.34246835112571716,3.96893572807312,0.4216298758983612,-0.24891704320907593,0.35831528902053833,0.7107771039009094,-0.3078707158565521,-0.45246899127960205,-0.44190892577171326,9.611493110656738,0.049800630658864975,-1.7775496244430542,0.10216265916824341,0.852986216545105,0.46239250898361206,0.3547182083129883,-0.6411705017089844,-0.42289280891418457,-0.5331389904022217
428577,8.996939659118652,-0.3316862881183624,3.9843027591705322,0.36383482813835144,-0.17848210036754608,0.22562865912914276,0.710734486579895,-0.30789825320243835,-0.45244893431663513,-0.4419788718223572,9.621261596679688,0.04708611220121384,-1.7714636325836182,0.45767971873283386,0.9300931096076965,0.5380780100822449,0.3547801077365875,-0.641120970249176,-0.4228023886680603,-0.5332290530204773
428744,8.983543395996094,-0.3041492700576782,3.964658498764038,0.34087297320365906,-0.12669318914413452,0.11992506682872772,0.7107091546058655,-0.30789482593536377,-0.4524424374103546,-0.4420285224914551,9.609472274780273,0.07630696892738342,-1.7657889127731323,0.5579791069030762,0.9262257218360901,0.4993388056755066,0.35489901900291443,-0.6410243511199951,-0.42278507351875305,-0.5332797765731812
428910,8.997537612915039,-0.31794270873069763,3.9690680503845215,0.3768588900566101,0.05290943756699562,0.24510715901851654,0.7107000350952148,-0.30789005756378174,-0.4524102210998535,-0.4420795142650604,9.62109375,0.07143251597881317,-1.753401756286621,0.5481054186820984,0.9979540705680847,0.4724198579788208,0.3549991548061371,-0.6409362554550171,-0.42274245619773865,-0.5333527326583862
429077,8.989433288574219,-0.3129504323005676,3.9830400943756104,0.4638395309448242,-0.10816242545843124,0.3691238462924957,0.7107152938842773,-0.3078705966472626,-0.4524112343788147,-0.44206759333610535,9.595582008361816,0.0975986197590828,-1.745729923248291,0.3221757411956787,0.8621554374694824,0.32157379388809204,0.3550603687763214,-0.6408586502075195,-0.422707200050354,-0.5334332585334778
429244,8.987256050109863,-0.30367007851600647,3.9990437030792236,0.4990185797214508,0.016180822625756264,0.3856183588504791,0.7106953263282776,-0.30788731575012207,-0.45236846804618835,-0.4421316385269165,9.616914749145508,0.12215686589479446,-1.7238940000534058,0.026067327708005905,0.835351824760437,0.24732264876365662,0.3550879955291748,-0.6407919526100159,-0.4226602017879486,-0.5335321426391602
429410,8.973455429077148,-0.3133472800254822,3.9782087802886963,0.4336678087711334,-0.08436822891235352,0.41521385312080383,0.7106998562812805,-0.30788567662239075,-0.4523533880710602,-0.44214093685150146,9.59512710571289,0.11571948975324631,-1.7062722444534302,-0.22193403542041779,0.909167468547821,0.338273286819458,0.35509830713272095,-0.6407414078712463,-0.4225762188434601,-0.5336526036262512
429577,8.977239608764648,-0.32100388407707214,4.000685214996338,0.4468071162700653,-0.04820309579372406,0.47469931840896606,0.7107192873954773,-0.30787572264671326,-0.4523383378982544,-0.4421320855617523,9.593474388122559,0.10971371084451675,-1.714927077293396,-0.42488905787467957,0.6579710245132446,0.5037441253662109,0.35508713126182556,-0.6407303810119629,-0.42247456312179565,-0.5337538123130798
429744,8.966045379638672,-0.3264182209968567,3.9892776012420654,0.5149368047714233,0.11294558644294739,0.5122090578079224,0.710719108581543,-0.3078874349594116,-0.4522837996482849,-0.44217997789382935,9.595062255859375,0.09510765224695206,-1.7000765800476074,-0.512317955493927,0.5362338423728943,0.6386718153953552,0.35503846406936646,-0.6407648921012878,-0.42232298851013184,-0.5338645577430725
429910,8.958596229553223,-0.31804999709129333,4.008903503417969,0.29284918308258057,0.21625441312789917,0.49685433506965637,0.7107487320899963,-0.30787932872772217,-0.4522288143634796,-0.44219428300857544,9.59472942352295,0.08430220186710358,-1.7094446420669556,-0.5813442468643188,0.5554946064949036,0.8572250604629517,0.35504209995269775,-0.6407833695411682,-0.42219361662864685,-0.5339423418045044
430077,8.950531959533691,-0.32380053400993347,4.004164695739746,0.27458736300468445,0.26919588446617126,0.6519648432731628,0.7107753157615662,-0.30789580941200256,-0.45214879512786865,-0.4422219693660736,9.598093032836914,0.07996741682291031,-1.727779507637024,-0.43691426515579224,0.6041843891143799,0.9173380732536316,0.3550834655761719,-0.6407809257507324,-0.42208781838417053,-0.5340014100074768
430244,8.956876754760742,-0.3184935748577118,3.9739491939544678,0.2592325210571289,0.17084309458732605,0.7608315944671631,0.7108206748962402,-0.30790719389915466,-0.45208635926246643,-0.44220486283302307,9.606311798095703,0.060272689908742905,-1.7047019004821777,-0.23892807960510254,0.5547518134117126,0.9239205718040466,0.35509631037712097,-0.6408059000968933,-0.42194753885269165,-0.5340738296508789
430410,8.957243919372559,-0.3200991749763489,3.990943670272827,0.1969936639070511,0.13237282633781433,0.5624356865882874,0.7107837200164795,-0.3079805076122284,-0.45198729634284973,-0.4423145353794098,9.618219375610352,0.047645147889852524,-1.723341464996338,-0.04398981109261513,0.6671275496482849,0.9831115007400513,0.3551486134529114,-0.6408078670501709,-0.4218229055404663,-0.534135103225708
430577,8.937789916992188,-0.3280849754810333,3.993285894393921,0.3421664535999298,0.1563078910112381,0.6776031255722046,0.7108303308486938,-0.3079749047756195,-0.4519377052783966,-0.4422941505908966,9.596202850341797,0.0616912916302681,-1.7082116603851318,0.04718499630689621,0.7505224943161011,0.8652161359786987,0.355246901512146,-0.6407589912414551,-0.4217623174190521,-0.534176230430603
430744,8.938946723937988,-0.32195523381233215,3.9950599670410156,0.33801716566085815,-0.09472855925559998,0.6735562682151794,0.7108411192893982,-0.30800479650497437,-0.4519002437591553,-0.44229429960250854,9.603672981262207,0.06093785539269447,-1.691270112991333,0.15297824144363403,0.6422320008277893,0.8809935450553894,0.35531675815582275,-0.6407387852668762,-0.42167532444000244,-0.5342224836349487
430910,8.958428382873535,-0.33443257212638855,3.995137929916382,0.4737260639667511,-0.042568303644657135,0.6583296060562134,0.7108708620071411,-0.3080051839351654,-0.4518740475177765,-0.4422730803489685,9.607192993164062,0.05594724044203758,-1.6759365797042847,0.17061260342597961,0.531380295753479,0.9233442544937134,0.3554277718067169,-0.6406954526901245,-0.4216431677341461,-0.5342260599136353
431077,8.942950248718262,-0.330185204744339,4.009130477905273,0.3970416486263275,0.04567384719848633,0.753749668598175,0.7109271287918091,-0.307995080947876,-0.4518420994281769,-0.4422219693660736,9.612175941467285,0.06791488826274872,-1.6799407005310059,0.012992041185498238,0.5547646284103394,1.0124508142471313,0.3554987907409668,-0.6406893134117126,-0.4215492606163025,-0.5342603325843811
431244,8.955489158630371,-0.3172571063041687,4.029548168182373,0.47622331976890564,-0.17805948853492737,0.6777055859565735,0.710921585559845,-0.30803343653678894,-0.4518090486526489,-0.4422381520271301,9.613783836364746,0.054051224142313004,-1.692125678062439,-0.12863977253437042,0.424472838640213,0.9396082162857056,0.35553401708602905,-0.640701949596405,-0.421448290348053,-0.5343013405799866
431410,8.962272644042969,-0.3251172602176666,3.9896669387817383,0.566034197807312,-0.11941918730735779,0.6334340572357178,0.7109620571136475,-0.30801326036453247,-0.45180627703666687,-0.4421899616718292,9.604700088500977,0.06978362053632736,-1.6867774724960327,-0.2699834406375885,0.2511388957500458,0.9962763786315918,0.3555372953414917,-0.6407477259635925,-0.42132601141929626,-0.5343406796455383
431577,8.96812629699707,-0.33244645595550537,4.005060195922852,0.5908529162406921,-0.05738525465130806,0.6439864635467529,0.7110082507133484,-0.30798670649528503,-0.4517982602119446,-0.4421423375606537,9.607442855834961,0.06107617914676666,-1.691733479499817,-0.34084102511405945,0.18208707869052887,0.9729433059692383,0.3555343449115753,-0.6407961845397949,-0.4212114214897156,-0.5343748927116394
431744,8.95614242553711,-0.3063128888607025,3.9831295013427734,0.4557459354400635,-0.03574252128601074,0.5770348906517029,0.7110618352890015,-0.3079518973827362,-0.4517934024333954,-0.44208550453186035,9.614513397216797,0.05669742450118065,-1.7094050645828247,-0.22896473109722137,-0.027226299047470093,0.9880930781364441,0.3555454909801483,-0.6408440470695496,-0.421133428812027,-0.534371554851532
431910,8.968602180480957,-0.3229243755340576,3.9814810752868652,0.3928540050983429,-0.11731897294521332,0.49348628520965576,0.7110634446144104,-0.30796146392822266,-0.451770156621933,-0.4420999586582184,9.591635704040527,0.06122598052024841,-1.7112654447555542,-0.1818629652261734,0.0030415079090744257,0.8820821046829224,0.3555515706539154,-0.6408821940422058,-0.42106467485427856,-0.5343759655952454
432077,8.968091011047363,-0.3260642886161804,4.01153564453125,0.4394819438457489,-0.03598584607243538,0.6290544271469116,0.7110613584518433,-0.3079906702041626,-0.45172110199928284,-0.44213321805000305,9.596570014953613,0.06785495579242706,-1.7022818326950073,-0.30042415857315063,-0.2078854888677597,0.7368709444999695,0.355525940656662,-0.6409307718276978,-0.421016126871109,-0.5343729257583618
432244,8.955452919006348,-0.3274518549442291,4.0248565673828125,0.35752126574516296,-0.11606393754482269,0.6729673147201538,0.71104896068573,-0.3080403208732605,-0.4516698122024536,-0.4421708583831787,9.613821983337402,0.0714346393942833,-1.719679832458496,-0.2399013191461563,-0.21731092035770416,0.7589234709739685,0.3554896116256714,-0.6409909129142761,-0.42095091938972473,-0.5343762636184692
432410,8.961156845092773,-0.32229137420654297,3.990389347076416,0.22090314328670502,-0.08379195630550385,0.5454545021057129,0.7110404372215271,-0.3080766499042511,-0.4516233205795288,-0.4422067403793335,9.615901947021484,0.06668048352003098,-1.7260719537734985,-0.23727603256702423,-0.17986518144607544,0.8650240302085876,0.355476051568985,-0.6410450339317322,-0.4208891987800598,-0.5343691110610962
432577,8.969084739685059,-0.3220982551574707,3.9695937633514404,0.31495293974876404,-0.06724613904953003,0.3802909255027771,0.7110285758972168,-0.3080895245075226,-0.4515896737575531,-0.4422512650489807,9.60630989074707,0.07242900878190994,-1.7386234998703003,-0.2527461051940918,-0.16918468475341797,0.7623812556266785,0.3554598093032837,-0.6410878896713257,-0.4208430349826813,-0.5343648791313171
432744,8.975055694580078,-0.3224773108959198,3.9960291385650635,0.292375385761261,-0.0004866412782575935,0.4719971716403961,0.7110424041748047,-0.3080894947052002,-0.4515552520751953,-0.442264199256897,9.625297546386719,0.06700820475816727,-1.7187249660491943,-0.3529302179813385,-0.15427811443805695,0.7534040212631226,0.35544610023498535,-0.641124427318573,-0.42080429196357727,-0.5343606472015381
432910,8.956982612609863,-0.3394428789615631,3.9821176528930664,0.26466241478919983,0.04713376611471176,0.5396275520324707,0.711026668548584,-0.30812934041023254,-0.4514863193035126,-0.4423321783542633,9.630568504333496,0.06788614392280579,-1.7568649053573608,-0.6022698879241943,0.21265585720539093,0.714587926864624,0.3554036021232605,-0.6411616206169128,-0.4207019507884979,-0.5344249606132507
433077,8.950862884521484,-0.34610819816589355,3.960608720779419,0.4328994154930115,-0.16322973370552063,0.7262544631958008,0.7110828161239624,-0.3081100285053253,-0.45148807764053345,-0.4422534108161926,9.637310981750488,0.05798163264989853,-1.730943202972412,-0.6450686454772949,0.2580159306526184,0.714728832244873,0.35534223914146423,-0.6412103176116943,-0.420574426651001,-0.5345077514648438
433244,8.973426818847656,-0.34722471237182617,3.9677159786224365,0.29418107867240906,0.022916963323950768,0.6854150295257568,0.7110754251480103,-0.30815884470939636,-0.4514162540435791,-0.44230446219444275,9.598725318908691,0.04861844703555107,-1.7378220558166504,-0.5156092047691345,0.39727213978767395,0.8497459888458252,0.355351060628891,-0.641219437122345,-0.42048463225364685,-0.5345615744590759
433410,8.998456001281738,-0.3329915702342987,3.9710023403167725,0.5303685665130615,0.0734892338514328,0.5047045946121216,0.7110622525215149,-0.30817654728889465,-0.45135676860809326,-0.4423741102218628,9.585006713867188,0.050001103430986404,-1.6970733404159546,-0.369937002658844,0.11818338930606842,0.9428098797798157,0.35535886883735657,-0.6412522792816162,-0.4204063415527344,-0.5345783829689026
433577,8.98029613494873,-0.34901994466781616,3.9436697959899902,0.0700187087059021,-0.003560165176168084,0.5925561785697937,0.711068332195282,-0.3082117736339569,-0.4512999355792999,-0.44239774346351624,9.611201286315918,0.05530572310090065,-1.716111660003662,-0.2802797555923462,-0.056501612067222595,1.0809391736984253,0.355404794216156,-0.6412795782089233,-0.4203670620918274,-0.5345461964607239
433744,8.955126762390137,-0.3132471442222595,3.942267894744873,0.31131595373153687,0.32822030782699585,0.5718610882759094,0.711107075214386,-0.30819812417030334,-0.45122644305229187,-0.442420095205307,9.612052917480469,0.03877805918455124,-1.719330906867981,-0.04094189777970314,0.007370054256170988,0.9458193182945251,0.3554344177246094,-0.6413045525550842,-0.42031869292259216,-0.5345343947410583
433910,8.988502502441406,-0.36493030190467834,3.948812484741211,0.40913084149360657,0.19958055019378662,0.6583423614501953,0.7111297845840454,-0.308205783367157,-0.4511567950248718,-0.44244933128356934,9.555940628051758,0.030469834804534912,-1.7216312885284424,0.1690758317708969,0.07478267699480057,0.9384684562683105,0.35547715425491333,-0.6413207650184631,-0.42027196288108826,-0.5345233082771301
434077,9.040053367614746,-0.3612545430660248,4.020308494567871,0.748537540435791,-0.13091930747032166,0.4523266553878784,0.7111371159553528,-0.3081812262535095,-0.45115604996681213,-0.4424554407596588,9.56539249420166,0.0334465429186821,-1.7451372146606445,0.2791207730770111,-0.5887719392776489,0.7519696354866028,0.3554973006248474,-0.6413546204566956,-0.42031237483024597,-0.5344375371932983
434244,9.017674446105957,-0.2589138448238373,3.983057975769043,0.548143744468689,-0.012242869473993778,-0.34939560294151306,0.711070716381073,-0.30813872814178467,-0.45115095376968384,-0.4425966739654541,9.686667442321777,0.00493829557672143,-1.7711917161941528,0.41146162152290344,-0.3670811951160431,0.7944483160972595,0.3555271327495575,-0.6413809061050415,-0.4203261137008667,-0.5343754291534424
434410,8.942480087280273,-0.31443092226982117,4.0220112800598145,0.8551375865936279,0.5904942750930786,-0.009387053549289703,0.7111480832099915,-0.30797722935676575,-0.4511372148990631,-0.442598819732666,9.636030197143555,0.056192945688962936,-1.7522021532058716,0.30700019001960754,0.06741902232170105,0.3067568838596344,0.3555523753166199,-0.6413363814353943,-0.42037495970726013,-0.5343735814094543
434577,8.921024322509766,-0.35064712166786194,4.0200934410095215,0.4067233204841614,-0.18470598757266998,0.652144193649292,0.7111469507217407,-0.3080061972141266,-0.4511096477508545,-0.44260847568511963,9.621657371520996,0.08283942192792892,-1.7178093194961548,0.25969356298446655,-0.08052632212638855,-0.24657343327999115,0.3554714024066925,-0.6413089632987976,-0.4204213619232178,-0.5344238877296448
434744,8.961302757263184,-0.33837589621543884,4.01444149017334,0.7145237922668457,-0.20974236726760864,0.615889310836792,0.7111676931381226,-0.3079904317855835,-0.45111405849456787,-0.4425818622112274,9.619278907775879,0.09702250361442566,-1.7177774906158447,-0.09647023677825928,0.09387695044279099,-0.10388511419296265,0.35544776916503906,-0.641243040561676,-0.42049986124038696,-0.5344570279121399
434910,8.946114540100098,-0.3195629119873047,4.018479824066162,0.6036720871925354,0.0712481290102005,0.5657908916473389,0.7111902832984924,-0.3079729974269867,-0.4510784447193146,-0.442594051361084,9.611672401428223,0.08594319969415665,-1.6980299949645996,-0.33655089139938354,0.09657908976078033,0.29601237177848816,0.3553783893585205,-0.6412540674209595,-0.4204587936401367,-0.5345219969749451
435077,8.9371919631958,-0.30550822615623474,4.038950443267822,0.06423024088144302,-0.010590849444270134,0.3819173276424408,0.7112162113189697,-0.30795860290527344,-0.4510560929775238,-0.4425850212574005,9.621746063232422,0.08459421247243881,-1.6934599876403809,-0.3899405598640442,0.3059629499912262,0.7583216428756714,0.3553484380245209,-0.6412819623947144,-0.4203561246395111,-0.5345892310142517
435244,8.94233512878418,-0.34066951274871826,4.0143818855285645,0.036184340715408325,-0.15201136469841003,0.5518448352813721,0.711244523525238,-0.307964563369751,-0.4510402977466583,-0.44255128502845764,9.63458251953125,0.11061014980077744,-1.6766525506973267,-0.5184394717216492,0.7557603716850281,1.066672921180725,0.3553735613822937,-0.6412888169288635,-0.42020946741104126,-0.534679651260376
435411,8.944724082946777,-0.314298540353775,4.021430969238281,0.29875290393829346,0.18147236108779907,0.7460146546363831,0.711280107498169,-0.30797481536865234,-0.4509703516960144,-0.4425584673881531,9.613089561462402,0.07908180356025696,-1.680280327796936,-0.7379274964332581,1.049973487854004,1.0653411149978638,0.35540565848350525,-0.6412761211395264,-0.42004284262657166,-0.5348045229911804
435577,8.92760944366455,-0.33787623047828674,3.9922914505004883,0.06813618540763855,0.16738541424274445,0.8399365544319153,0.7113202214241028,-0.30800575017929077,-0.45088934898376465,-0.4425550103187561,9.594810485839844,0.022999223321676254,-1.6733736991882324,-0.40337443351745605,1.0908641815185547,1.1025947332382202,0.3555038869380951,-0.6412219405174255,-0.4199327528476715,-0.5348907709121704
435744,8.9286527633667,-0.37091708183288574,4.014017105102539,0.0009796855738386512,0.16851234436035156,0.8137474060058594,0.7113434672355652,-0.30805402994155884,-0.4507963955402374,-0.4425787925720215,9.590913772583008,-0.009977158159017563,-1.6688196659088135,-0.09252587705850601,0.8336741924285889,1.1707885265350342,0.35561174154281616,-0.6411827206611633,-0.41984283924102783,-0.5349364876747131
435911,8.9350004196167,-0.3665004372596741,4.045502185821533,0.3092285096645355,0.07923929393291473,0.7275479435920715,0.7113486528396606,-0.308091402053833,-0.4507216215133667,-0.4426204562187195,9.560583114624023,-0.01211417093873024,-1.6698659658432007,0.4280458390712738,0.6468295454978943,1.1969647407531738,0.3557083308696747,-0.6411701440811157,-0.41974112391471863,-0.5349670648574829
436077,8.935994148254395,-0.314298540353775,4.001518249511719,0.39403218030929565,0.0749235451221466,0.6873999834060669,0.7114102840423584,-0.3080610930919647,-0.450693279504776,-0.44257134199142456,9.60999584197998,-0.006737364921718836,-1.6611328125,0.9611358046531677,0.06791847944259644,1.1556899547576904,0.3558444082736969,-0.6411516666412354,-0.41974759101867676,-0.5348937511444092
436244,8.987297058105469,-0.3872128129005432,3.980774402618408,0.3232642710208893,-0.12897273898124695,1.0242453813552856,0.711473822593689,-0.3080766797065735,-0.4506637454032898,-0.4424884021282196,9.610111236572266,0.025802094489336014,-1.681283712387085,1.010145664215088,0.23769226670265198,0.8397828936576843,0.35599058866500854,-0.6410832405090332,-0.4198015034198761,-0.5348361134529114
436411,8.996994018554688,-0.3650640547275543,4.05995512008667,0.6960698962211609,-0.08202466368675232,0.761638343334198,0.711530864238739,-0.3080429434776306,-0.4506588280200958,-0.4424251914024353,9.588953018188477,0.04480433836579323,-1.668091893196106,0.9847890734672546,-0.20779582858085632,0.6868621110916138,0.3560826778411865,-0.6410505771636963,-0.4198763370513916,-0.5347553491592407
436577,8.992348670959473,-0.30633601546287537,3.9548685550689697,0.7762888669967651,-0.2797675132751465,0.3975282907485962,0.7115256786346436,-0.3080197870731354,-0.45067453384399414,-0.44243359565734863,9.657153129577637,0.03258684277534485,-1.6836678981781006,0.8784835338592529,-0.05091804265975952,0.8006080985069275,0.3561791181564331,-0.6410207748413086,-0.4199194312095642,-0.5346929430961609
436744,8.92526626586914,-0.2865867018699646,4.025900840759277,0.9223708510398865,0.2059837281703949,0.2687988579273224,0.7115480303764343,-0.3079439401626587,-0.4506540298461914,-0.44247132539749146,9.587950706481934,0.04866214096546173,-1.6881893873214722,0.6817013025283813,-0.3312106430530548,0.7283034920692444,0.3562462627887726,-0.6410096287727356,-0.41998291015625,-0.534611701965332
436911,8.981006622314453,-0.3449729084968567,3.9757184982299805,0.5992667078971863,-0.5958409905433655,0.5774574875831604,0.7115753293037415,-0.30791977047920227,-0.4507187306880951,-0.44237837195396423,9.607959747314453,0.09568142890930176,-1.702170968055725,0.10382748395204544,-0.6211079955101013,0.22065980732440948,0.3562002182006836,-0.6410207748413086,-0.42006194591522217,-0.5345668792724609
437077,8.973477363586426,-0.36774876713752747,4.002979755401611,0.6732361912727356,-0.3950374722480774,0.6527332663536072,0.7115944623947144,-0.30790987610816956,-0.45074355602264404,-0.4423292875289917,9.586481094360352,0.08699481934309006,-1.69795823097229,-0.3812066316604614,-0.7016342878341675,0.01646256260573864,0.35605934262275696,-0.6410717368125916,-0.4200937747955322,-0.5345747470855713
437244,8.962925910949707,-0.33362776041030884,3.979390859603882,0.7704619765281677,-0.03715122118592262,0.6062333583831787,0.7115952372550964,-0.3079075515270233,-0.4507092237472534,-0.44236457347869873,9.603006362915039,0.04114701598882675,-1.7186899185180664,-0.559675931930542,-0.9228512048721313,0.28653571009635925,0.35590773820877075,-0.6411656737327576,-0.42009738087654114,-0.534559965133667
437411,8.929163932800293,-0.32966193556785583,4.021574020385742,0.13717523217201233,-0.27821794152259827,0.22889429330825806,0.7115659713745117,-0.30792251229286194,-0.4507032036781311,-0.4424073100090027,9.59571361541748,0.03059583157300949,-1.7155694961547852,-0.3890697658061981,-0.9505897760391235,0.5977300405502319,0.355823278427124,-0.6412510871887207,-0.4201205372810364,-0.5344958901405334
437577,8.958656311035156,-0.35715252161026,3.9940731525421143,0.19897863268852234,-0.1895083487033844,0.23295390605926514,0.7115048170089722,-0.30796706676483154,-0.4506627321243286,-0.44251617789268494,9.637133598327637,0.04089945927262306,-1.719001293182373,-0.18331009149551392,-0.9289981722831726,0.6904608011245728,0.3557874858379364,-0.6413137316703796,-0.42017507553100586,-0.5344015955924988
437744,8.94575023651123,-0.3529859781265259,4.009858131408691,0.5147832036018372,-0.24892984330654144,0.4818068742752075,0.7114613652229309,-0.30800771713256836,-0.45063158869743347,-0.44258934259414673,9.63304328918457,0.04642989858984947,-1.7348467111587524,-0.2434743195772171,-0.374124675989151,0.6271845698356628,0.35574930906295776,-0.6413515210151672,-0.42017239332199097,-0.5343837738037109
437911,8.952119827270508,-0.33507266640663147,4.026125907897949,0.5233122110366821,-0.19231295585632324,0.39249539375305176,0.7114241719245911,-0.30803006887435913,-0.45060455799102783,-0.4426610469818115,9.606542587280273,0.037868574261665344,-1.757602572441101,-0.3106692433357239,-0.11144084483385086,0.4883124828338623,0.355705589056015,-0.6413664221763611,-0.4201596677303314,-0.5344049334526062
438077,8.961159706115723,-0.35657981038093567,4.007258415222168,0.5132592916488647,-0.29913073778152466,0.32854050397872925,0.7113902568817139,-0.30804064869880676,-0.4506012201309204,-0.44271156191825867,9.621423721313477,0.019003869965672493,-1.7411234378814697,-0.19425950944423676,0.06515230238437653,0.4078630208969116,0.3556540012359619,-0.6413740515708923,-0.4201273024082184,-0.5344555377960205
438244,8.978734016418457,-0.3439241945743561,3.996647357940674,0.489554762840271,-0.26301684975624084,0.2456706166267395,0.7113664150238037,-0.3080315887928009,-0.4506060779094696,-0.4427511692047119,9.607227325439453,0.007885492406785488,-1.7295039892196655,0.1504938155412674,0.2046646773815155,0.39129161834716797,0.3556828200817108,-0.6413216590881348,-0.42016440629959106,-0.5344699621200562
438411,8.979259490966797,-0.3404477834701538,3.987614154815674,0.36169615387916565,-0.03948197886347771,0.13931387662887573,0.7113783359527588,-0.3079800307750702,-0.45060834288597107,-0.44276562333106995,9.61104679107666,0.020180538296699524,-1.7231024503707886,0.3667162358760834,0.20134781301021576,0.4953688085079193,0.3557611405849457,-0.6412487626075745,-0.42023423314094543,-0.5344504117965698
438577,8.974406242370605,-0.31611168384552,4.016781806945801,0.15993210673332214,-0.11064685881137848,0.13046470284461975,0.7113828063011169,-0.30794647336006165,-0.45061036944389343,-0.4427798092365265,9.61485481262207,0.04022517800331116,-1.7088119983673096,0.392136812210083,0.18350857496261597,0.37108317017555237,0.3558083176612854,-0.6411852836608887,-0.4202917814254761,-0.5344499945640564
438744,8.988349914550781,-0.3344004154205322,3.994905948638916,0.37383654713630676,0.021341780200600624,0.24839834868907928,0.7113783955574036,-0.30792465806007385,-0.4505828619003296,-0.44283002614974976,9.603107452392578,0.06163235753774643,-1.7271865606307983,0.2172149121761322,0.15881794691085815,0.20577885210514069,0.35579243302345276,-0.6411460638046265,-0.4203154444694519,-0.534489095211029
438911,8.980753898620605,-0.324701726436615,4.000349044799805,0.3115464746952057,-0.05723158270120621,0.20380663871765137,0.711385190486908,-0.3078889846801758,-0.45057713985443115,-0.4428495466709137,9.622503280639648,0.07714588195085526,-1.7078536748886108,-0.032899513840675354,0.05832652002573013,0.24788610637187958,0.35577377676963806,-0.6411130428314209,-0.4203483760356903,-0.5345151424407959
439077,8.972871780395508,-0.33004459738731384,4.011424541473389,0.47477617859840393,0.03270101174712181,0.2618706226348877,0.7113990783691406,-0.3078445494174957,-0.45056313276290894,-0.44287240505218506,9.6026029586792,0.08282865583896637,-1.6971497535705566,-0.42801380157470703,0.07763848453760147,0.25764453411102295,0.3557230830192566,-0.6410970091819763,-0.4203530550003052,-0.5345644950866699
439244,8.95910358428955,-0.3307848572731018,4.008742332458496,0.4611758291721344,0.054689519107341766,0.3897932469844818,0.7114419937133789,-0.3077879846096039,-0.45055437088012695,-0.4428516626358032,9.611003875732422,0.07097341120243073,-1.6910310983657837,-0.73992520570755,-0.026752464473247528,0.32180437445640564,0.35563552379608154,-0.6411130428314209,-0.42032650113105774,-0.5346243381500244
439411,8.94503116607666,-0.34076249599456787,4.016735076904297,0.3392849862575531,0.09105954319238663,0.35216817259788513,0.7114376425743103,-0.3077813982963562,-0.45050615072250366,-0.4429123103618622,9.616863250732422,0.0631721243262291,-1.7036226987838745,-0.803483247756958,0.0003137555904686451,0.3290015757083893,0.3555558919906616,-0.6411218047142029,-0.42030686140060425,-0.5346823930740356
439577,8.95176887512207,-0.3576352596282959,4.001338958740234,0.3272726535797119,0.12718626856803894,0.3777424693107605,0.7114566564559937,-0.30775514245033264,-0.4504663944244385,-0.4429406523704529,9.598872184753418,0.03369053453207016,-1.6928755044937134,-0.6818612217903137,-0.08936270326375961,0.527871310710907,0.3554690182209015,-0.6411638259887695,-0.4202497601509094,-0.5347344875335693
439744,8.949104309082031,-0.3505934774875641,4.030642986297607,0.3114440143108368,0.11585264652967453,0.33618587255477905,0.7114655375480652,-0.30773475766181946,-0.4504241645336151,-0.4429835081100464,9.60712718963623,0.023442039266228676,-1.7289996147155762,-0.3808736205101013,-0.039328303188085556,0.512311577796936,0.3554222285747528,-0.641177773475647,-0.42022690176963806,-0.534766674041748
439911,8.933341026306152,-0.33965742588043213,4.025707721710205,0.26977217197418213,0.09067536145448685,0.3748994767665863,0.711463451385498,-0.3077326714992523,-0.45037296414375305,-0.4430401921272278,9.638100624084473,0.018406739458441734,-1.713525414466858,-0.10684336721897125,0.15833130478858948,0.5199057459831238,0.3554336726665497,-0.6411486268043518,-0.4202377498149872,-0.5347856879234314
440077,8.943876266479492,-0.3404942750930786,4.021459579467773,0.31497859954833984,0.07792024314403534,0.4634554386138916,0.7114747166633606,-0.30772629380226135,-0.45032626390457153,-0.44307398796081543,9.629721641540527,0.015602992847561836,-1.7084650993347168,0.2210824340581894,0.3155292570590973,0.5094429850578308,0.35547715425491333,-0.6410943865776062,-0.42025890946388245,-0.534805178642273
440244,8.967972755432129,-0.3475894629955292,4.011810779571533,0.2879059910774231,0.21501222252845764,0.5644719004631042,0.7115087509155273,-0.30771154165267944,-0.4502650499343872,-0.44309180974960327,9.618250846862793,0.028653046116232872,-1.6906328201293945,0.42625293135643005,0.5871134400367737,0.5441865921020508,0.3555419147014618,-0.6410228610038757,-0.4202590584754944,-0.5348477363586426
440411,8.946523666381836,-0.3358200788497925,4.04407262802124,0.3979637324810028,0.0872560665011406,0.5542523860931396,0.711559534072876,-0.3076719343662262,-0.4502393901348114,-0.44306379556655884,9.588126182556152,0.0471733994781971,-1.6962233781814575,0.4785028398036957,0.5507050156593323,0.48173004388809204,0.35562044382095337,-0.6409363746643066,-0.42028892040252686,-0.5348756909370422
440577,8.933394432067871,-0.35060420632362366,4.0173468589782715,0.4067233204841614,0.05605980008840561,0.6211912631988525,0.7116085290908813,-0.3076421320438385,-0.4502110481262207,-0.443034827709198,9.599881172180176,0.05461941286921501,-1.6720235347747803,0.43981489539146423,0.25206097960472107,0.5478620529174805,0.3556791841983795,-0.6408814787864685,-0.42032134532928467,-0.5348767638206482
440744,8.96175765991211,-0.332065224647522,4.042669296264648,0.3685603141784668,-0.005327441729605198,0.5449037551879883,0.7116299271583557,-0.3076324462890625,-0.450177937746048,-0.44304075837135315,9.612645149230957,0.07120228558778763,-1.6648460626602173,0.3347131609916687,0.26990020275115967,0.5419326424598694,0.3556992709636688,-0.6408506631851196,-0.4203123450279236,-0.5349075794219971
440911,8.947928428649902,-0.33801954984664917,4.026852130889893,0.4554770290851593,-0.04026316478848457,0.4738926291465759,0.7116361260414124,-0.30762341618537903,-0.45014873147010803,-0.44306665658950806,9.620719909667969,0.09534526616334915,-1.684061050415039,0.18165165185928345,0.1702796220779419,0.686439573764801,0.3557487428188324,-0.6408165097236633,-0.42032766342163086,-0.5349035859107971
441077,8.967318534851074,-0.3344862461090088,4.000735282897949,0.4548751413822174,-0.06948725134134293,0.44459161162376404,0.7116522789001465,-0.30760064721107483,-0.4501332640647888,-0.44307225942611694,9.614357948303223,0.06063459441065788,-1.7018204927444458,0.05083480477333069,0.048760175704956055,0.6743375658988953,0.35577628016471863,-0.6407977342605591,-0.42033934593200684,-0.5348984599113464
441244,8.962301254272461,-0.32992658019065857,4.026326656341553,0.40441808104515076,-0.10047861188650131,0.4347435534000397,0.7116634845733643,-0.30758383870124817,-0.45011863112449646,-0.4430806636810303,9.604133605957031,0.04870794340968132,-1.6955299377441406,-0.12329952418804169,-0.04023754969239235,0.6562677621841431,0.35575172305107117,-0.6408146023750305,-0.42031076550483704,-0.5349171757698059
441411,8.961895942687988,-0.33347442746162415,4.021956920623779,0.38910171389579773,-0.20650239288806915,0.435550332069397,0.7116816639900208,-0.30756136775016785,-0.4501238763332367,-0.44306182861328125,9.608821868896484,0.05458007752895355,-1.676808476448059,-0.16735337674617767,-0.18489807844161987,0.5065743923187256,0.35572490096092224,-0.6408195495605469,-0.4203260838985443,-0.534916877746582
441577,8.962808609008789,-0.33731502294540405,4.014288902282715,0.4193374812602997,-0.01582864671945572,0.2888151705265045,0.7116633057594299,-0.30755478143692017,-0.4500892162322998,-0.44313105940818787,9.595088958740234,0.04583624750375748,-1.6665304899215698,-0.255730003118515,-0.24166861176490784,0.4834332764148712,0.3556821048259735,-0.6408332586288452,-0.42033761739730835,-0.5349198579788208
441744,8.940653800964355,-0.33136793971061707,4.04525899887085,0.4470120370388031,-0.14471173286437988,0.25326475501060486,0.7116644978523254,-0.3075219988822937,-0.45009171962738037,-0.4431493282318115,9.605574607849121,0.05105751007795334,-1.6779671907424927,-0.3773007094860077,-0.4167698919773102,0.377780944108963,0.3556099236011505,-0.640859842300415,-0.42035919427871704,-0.534919023513794
441911,8.934449195861816,-0.3206534683704376,4.031090259552002,0.516563355922699,0.009611165151000023,0.19319018721580505,0.711661696434021,-0.30748140811920166,-0.45007583498954773,-0.44319799542427063,9.625064849853516,0.0547696128487587,-1.6867969036102295,-0.5076820850372314,-0.3540315330028534,0.36136317253112793,0.3555283844470978,-0.6408870816230774,-0.42036959528923035,-0.5349324345588684
442077,8.93822193145752,-0.3337888717651367,4.039798259735107,0.5899436473846436,-0.11081333458423615,0.2340296357870102,0.7116594314575195,-0.30744117498397827,-0.4500770568847656,-0.44322845339775085,9.614679336547852,0.07591573148965836,-1.7143229246139526,-0.7076917290687561,-0.10316795110702515,0.25417405366897583,0.355410099029541,-0.6409165859222412,-0.4203321039676666,-0.5350052118301392
442244,8.952208518981934,-0.33484745025634766,4.0440216064453125,0.4579486548900604,-0.158901184797287,0.21571657061576843,0.7116395831108093,-0.30742332339286804,-0.45007047057151794,-0.44327935576438904,9.631037712097168,0.07958371937274933,-1.6976391077041626,-0.8006017804145813,0.038886480033397675,0.26559728384017944,0.3553008735179901,-0.640934407711029,-0.42028892040252686,-0.535090446472168
442411,8.932303428649902,-0.34883010387420654,4.038390159606934,0.41746780276298523,-0.48679500818252563,0.26429101824760437,0.7116005420684814,-0.30743345618247986,-0.45009320974349976,-0.4433118402957916,9.634967803955078,0.08011787384748459,-1.7018033266067505,-0.9936445951461792,0.2858441174030304,0.3172836899757385,0.3551958501338959,-0.6409432888031006,-0.42021751403808594,-0.5352054834365845
442577,8.965004920959473,-0.3303092420101166,3.998500108718872,0.3660886883735657,-0.31205230951309204,0.4081704020500183,0.711636483669281,-0.30739015340805054,-0.4501274526119232,-0.4432496130466461,9.616860389709473,0.06632386147975922,-1.6667653322219849,-1.0052344799041748,0.3810977637767792,0.5253612995147705,0.3551335334777832,-0.6409422159194946,-0.42014601826667786,-0.5353041887283325
442744,8.974156379699707,-0.3489374816417694,4.043234348297119,0.2532135546207428,-0.21244452893733978,0.39756670594215393,0.7116294503211975,-0.30739548802375793,-0.4501141309738159,-0.4432706832885742,9.57847785949707,0.0564793236553669,-1.6945372819900513,-0.9091483354568481,0.18207427859306335,0.6092171669006348,0.35504043102264404,-0.6409809589385986,-0.4200456142425537,-0.5353983044624329
442911,8.962601661682129,-0.36035972833633423,4.020493984222412,0.061105500906705856,-0.15284380316734314,0.14721541106700897,0.7116316556930542,-0.3073703646659851,-0.45011410117149353,-0.4432846009731293,9.568869590759277,0.04294760152697563,-1.7000919580459595,-0.7244552969932556,-0.26168495416641235,0.7127438187599182,0.35495615005493164,-0.6410435438156128,-0.41998475790023804,-0.5354270935058594
443077,8.935554504394531,-0.33455777168273926,3.9828755855560303,0.40982237458229065,-0.15815840661525726,0.37181317806243896,0.7116472721099854,-0.3073405623435974,-0.450115829706192,-0.44327834248542786,9.624204635620117,0.021090883761644363,-1.690548062324524,-0.4257214665412903,-0.3773006796836853,0.7874303460121155,0.35490646958351135,-0.6410982608795166,-0.4199559688568115,-0.5354171395301819
443244,8.966137886047363,-0.33203625679016113,3.947549819946289,0.510236918926239,-0.196539044380188,0.34025827050209045,0.7116589546203613,-0.3073047995567322,-0.45012685656547546,-0.4432731866836548,9.601302146911621,0.010374484583735466,-1.7027429342269897,-0.12554064393043518,-0.1477980613708496,0.6280041337013245,0.3548983335494995,-0.6411012411117554,-0.4199672043323517,-0.5354101657867432
443411,9.023507118225098,-0.369884192943573,4.039412021636963,0.9708942174911499,-0.3484223484992981,0.2099665254354477,0.7116938233375549,-0.3072018027305603,-0.45020410418510437,-0.4432101547718048,9.524724006652832,0.032107189297676086,-1.679082989692688,0.07894474267959595,-0.40436044335365295,0.3882436752319336,0.3548789620399475,-0.6410964727401733,-0.4200339913368225,-0.5353764295578003
443577,8.982702255249023,-0.2853841185569763,4.0340895652771,0.8944274187088013,-0.27744951844215393,-0.292727530002594,0.711674690246582,-0.3070918321609497,-0.4502759277820587,-0.44324421882629395,9.622017860412598,0.03489832207560539,-1.714592456817627,0.18008928000926971,-0.9643437266349792,0.34065529704093933,0.3548118770122528,-0.6411405205726624,-0.4201204478740692,-0.535300076007843
443744,8.94011402130127,-0.274244099855423,4.039997100830078,1.0540456771850586,0.0824664756655693,-0.34550249576568604,0.7116696238517761,-0.30695170164108276,-0.4503139555454254,-0.4433108866214752,9.64323902130127,0.055520616471767426,-1.716829776763916,0.13932667672634125,-0.7542684078216553,0.178437277674675,0.354769766330719,-0.641140341758728,-0.42024052143096924,-0.5352340340614319
443911,8.940367698669434,-0.3352193534374237,4.042766571044922,0.6614799499511719,-0.4178839325904846,0.26785120368003845,0.7116695046424866,-0.3069082498550415,-0.45036205649375916,-0.4432920217514038,9.639183044433594,0.11663402616977692,-1.7192885875701904,-0.1647280603647232,-0.7034656405448914,-0.4547150433063507,0.3546271026134491,-0.6411318182945251,-0.42036354541778564,-0.5352423191070557
444077,8.965780258178711,-0.35431864857673645,4.003952980041504,0.6624403595924377,-0.530093252658844,0.5309320092201233,0.71165531873703,-0.3069131672382355,-0.45039334893226624,-0.44327977299690247,9.624863624572754,0.13414357602596283,-1.7349289655685425,-0.6712704300880432,-0.47576868534088135,-0.41477206349372864,0.3544519245624542,-0.6411354541778564,-0.42042940855026245,-0.5353021621704102
444244,8.939159393310547,-0.31375136971473694,4.025290012359619,0.6655139327049255,-0.04722981154918671,0.25332877039909363,0.711681067943573,-0.3068421185016632,-0.45040568709373474,-0.44327497482299805,9.601402282714844,0.11447902023792267,-1.7145442962646484,-0.954943835735321,-0.2324480414390564,-0.005583568476140499,0.35428717732429504,-0.6411657929420471,-0.4204128682613373,-0.5353878736495972
444411,8.93712043762207,-0.27528539299964905,4.03320837020874,0.1843794286251068,-0.25943106412887573,0.17541497945785522,0.7116532921791077,-0.306842565536499,-0.45040324330329895,-0.44332176446914673,9.612151145935059,0.10190382599830627,-1.7308011054992676,-1.0816881656646729,-0.19335027039051056,0.4125373065471649,0.35414353013038635,-0.6412266492843628,-0.4203433394432068,-0.5354645848274231
444577,8.954279899597168,-0.3188045620918274,4.039057731628418,0.19135889410972595,-0.3175974488258362,0.34813421964645386,0.711625337600708,-0.30686497688293457,-0.4503941535949707,-0.44336047768592834,9.61611557006836,0.12932558357715607,-1.7220873832702637,-1.1546205282211304,0.24360881745815277,0.6992843151092529,0.35406550765037537,-0.6412578225135803,-0.420246422290802,-0.5355548858642578
444744,8.95143985748291,-0.3321223855018616,4.023129463195801,0.5510892271995544,0.05383148789405823,0.5280506014823914,0.711687445640564,-0.3067995011806488,-0.45038825273513794,-0.44331201910972595,9.608118057250977,0.1026286780834198,-1.7206536531448364,-1.2788164615631104,0.6014182567596436,0.8583391308784485,0.353994756937027,-0.641287088394165,-0.4200904071331024,-0.5356890559196472
444911,8.932490348815918,-0.31730252504348755,4.006192207336426,0.26885008811950684,-0.08085928112268448,0.7190445065498352,0.7116921544075012,-0.3068329691886902,-0.45033594965934753,-0.4433343708515167,9.617486000061035,0.0764382854104042,-1.715189814567566,-1.2621171474456787,0.852192223072052,0.7803614139556885,0.35391709208488464,-0.6413041949272156,-0.4199095666408539,-0.5358617305755615
445077,8.952441215515137,-0.36579951643943787,3.983072280883789,0.0744112953543663,-0.1585170179605484,0.7656211853027344,0.7117003202438354,-0.30688023567199707,-0.4502870440483093,-0.44333818554878235,9.612967491149902,0.0294874869287014,-1.7161046266555786,-0.8399941921234131,1.1330482959747314,0.9494179487228394,0.3539499342441559,-0.6412580013275146,-0.41977882385253906,-0.5359976887702942
445244,8.960470199584961,-0.3676448464393616,4.028071880340576,0.24997356534004211,0.23104575276374817,0.6690101027488708,0.7117458581924438,-0.3068677484989166,-0.4502207040786743,-0.44334104657173157,9.588679313659668,0.00046878636931069195,-1.6903269290924072,-0.21669626235961914,1.0742286443710327,0.9252524375915527,0.35404402017593384,-0.6411768794059753,-0.4197114109992981,-0.5360851883888245
445411,8.950546264648438,-0.31434503197669983,4.061756134033203,0.37851089239120483,0.2741135358810425,0.6187067627906799,0.7118034958839417,-0.3068295121192932,-0.450164794921875,-0.443331778049469,9.575295448303223,-0.0034411742817610502,-1.6973834037780762,0.47522446513175964,0.7991355061531067,1.0342856645584106,0.3541543185710907,-0.6411171555519104,-0.41965606808662415,-0.5361272096633911
445577,8.942392349243164,-0.3003978431224823,3.9637250900268555,-0.017928889021277428,0.08983013778924942,0.716675341129303,0.7118279933929443,-0.3068601191043854,-0.4500911831855774,-0.4433460235595703,9.638226509094238,0.036427244544029236,-1.693230152130127,0.9284027814865112,0.555315375328064,0.8706077337265015,0.3542872667312622,-0.6410378813743591,-0.4196723699569702,-0.5361214876174927
445744,9.017280578613281,-0.3744306266307831,4.025506496429443,0.6700218319892883,0.06250138580799103,0.9612125158309937,0.7119165658950806,-0.3068177402019501,-0.4500677287578583,-0.44325703382492065,9.591495513916016,0.06236320361495018,-1.683286428451538,1.0160365104675293,0.7518927454948425,0.4491763114929199,0.3544328212738037,-0.6408949494361877,-0.41975319385528564,-0.5361328721046448
445911,8.9730863571167,-0.3346400260925293,4.013219833374023,0.35118210315704346,-0.4240567088127136,0.4915909171104431,0.7119216322898865,-0.30681663751602173,-0.4500899910926819,-0.44322705268859863,9.63985538482666,0.0672340989112854,-1.684006690979004,0.9053065776824951,0.11881732195615768,0.5591893196105957,0.3545195162296295,-0.6408270001411438,-0.41982683539390564,-0.5360991954803467
446077,8.978277206420898,-0.2726479172706604,3.9825727939605713,0.9288252592086792,0.43206700682640076,0.10565878450870514,0.7119722962379456,-0.30668655037879944,-0.45007044076919556,-0.4432556629180908,9.611899375915527,0.07029879838228226,-1.697030782699585,0.7988280653953552,0.40411078929901123,0.7350653409957886,0.3546191155910492,-0.640758752822876,-0.41985172033309937,-0.536095142364502
446244,8.943574905395508,-0.2976801097393036,4.048449516296387,0.15842093527317047,-0.16389566659927368,0.3612478971481323,0.7119587659835815,-0.3066983222961426,-0.4500468969345093,-0.4432929456233978,9.586678504943848,0.13808108866214752,-1.7063733339309692,0.385195791721344,-0.1436232179403305,0.34362637996673584,0.35460951924324036,-0.6407362222671509,-0.41990044713020325,-0.5360903143882751
446411,8.985942840576172,-0.3297763764858246,4.010276794433594,0.3894731104373932,-0.12253116816282272,0.48552069067955017,0.7119783163070679,-0.3066791594028473,-0.4500369429588318,-0.4432849884033203,9.632983207702637,0.14495083689689636,-1.707202672958374,-0.448696106672287,-0.04377210885286331,0.041447754949331284,0.3545113205909729,-0.6407246589660645,-0.4199165403842926,-0.5361564755439758
446577,8.955141067504883,-0.32315683364868164,4.022918701171875,0.4216042459011078,0.08790918439626694,0.4642493426799774,0.7120129466056824,-0.3066404163837433,-0.4500093460083008,-0.44328421354293823,9.59943675994873,0.11725117266178131,-1.722470998764038,-0.8587937951087952,0.05128302425146103,0.313493013381958,0.35439276695251465,-0.6407496333122253,-0.4198605418205261,-0.5362489223480225
446744,8.94266414642334,-0.3176458775997162,4.029738426208496,0.22265759110450745,0.036043472588062286,0.3307431936264038,0.7120147347450256,-0.30662888288497925,-0.4499719738960266,-0.4433271884918213,9.615168571472168,0.08170136064291,-1.7156364917755127,-0.9013108015060425,0.18635158240795135,0.5084697008132935,0.35431963205337524,-0.6407588124275208,-0.41980689764022827,-0.5363283157348633
446911,8.936702728271484,-0.3351871371269226,4.041560649871826,-0.06647776812314987,0.28031179308891296,0.1556035578250885,0.7120042443275452,-0.30662399530410767,-0.4498957693576813,-0.44342485070228577,9.629107475280762,0.07229713350534439,-1.730830192565918,-0.902886152267456,0.4807696044445038,0.8836061358451843,0.35429298877716064,-0.64076828956604,-0.41970252990722656,-0.536416232585907
447077,8.930032730102539,-0.3256065249443054,4.033543586730957,0.11455920338630676,0.2474891096353531,0.3128783404827118,0.7120258212089539,-0.30659666657447815,-0.4498385488986969,-0.44346725940704346,9.632040977478027,0.0695645660161972,-1.7201892137527466,-0.7153498530387878,0.8026699423789978,1.0395106077194214,0.3542991578578949,-0.6407644748687744,-0.4195632338523865,-0.5365256071090698
447244,8.943560600280762,-0.3315109312534332,4.0300421714782715,0.059453487396240234,-0.08134593814611435,0.41270390152931213,0.7120196223258972,-0.30661341547966003,-0.44979989528656006,-0.44350460171699524,9.631413459777832,0.05035209283232689,-1.7299764156341553,-0.6278313398361206,1.374998688697815,0.8532295227050781,0.3543470501899719,-0.640690803527832,-0.4194338023662567,-0.5366833209991455
447411,8.962204933166504,-0.34916311502456665,4.046854019165039,0.05718674510717392,0.07383500784635544,0.36660096049308777,0.7120214104652405,-0.30661624670028687,-0.44974789023399353,-0.44355249404907227,9.607752799987793,0.034054581075906754,-1.6760176420211792,-0.350163996219635,1.7717136144638062,0.7281755208969116,0.3544232249259949,-0.6405729651451111,-0.41930335760116577,-0.5368754863739014
447577,8.963748931884766,-0.34826895594596863,4.046403408050537,0.10244438052177429,0.04927242919802666,0.37881821393966675,0.7120407819747925,-0.30660051107406616,-0.44971203804016113,-0.4435686469078064,9.60562801361084,-0.00028388353530317545,-1.6557129621505737,0.09599000215530396,1.7068240642547607,0.6259424686431885,0.35452568531036377,-0.640433669090271,-0.41921648383140564,-0.5370419025421143
447744,8.947602272033691,-0.3269940912723541,4.021749019622803,0.3613119125366211,0.21886689960956573,0.41878682374954224,0.7121019959449768,-0.30653321743011475,-0.44968482851982117,-0.44354450702667236,9.592228889465332,0.024545183405280113,-1.655117154121399,0.5438152551651001,1.3606297969818115,0.6903198957443237,0.3546546399593353,-0.6403014063835144,-0.41917741298675537,-0.5371448993682861
447911,8.950366973876953,-0.3142377436161041,4.026805877685547,-0.017506280913949013,0.11937439441680908,0.41922226548194885,0.7121143341064453,-0.306537002325058,-0.4496259391307831,-0.44358161091804504,9.6178617477417,0.059565089643001556,-1.630889654159546,0.6403110027313232,0.9545916318893433,0.5745633244514465,0.35478392243385315,-0.6401706337928772,-0.41920581459999084,-0.5371930599212646
448077,8.946304321289062,-0.3137657046318054,4.045091152191162,0.18145957589149475,-0.09052809327840805,0.43298912048339844,0.7121090888977051,-0.30654817819595337,-0.44959187507629395,-0.44361716508865356,9.601951599121094,0.08367549628019333,-1.5932482481002808,0.5349148511886597,0.7143318057060242,0.48174285888671875,0.3548758327960968,-0.6400630474090576,-0.41923990845680237,-0.5372341275215149
448244,8.945245742797852,-0.3251703083515167,4.043474197387695,0.3502216637134552,-0.031042592599987984,0.592389702796936,0.712122917175293,-0.30655068159103394,-0.4495536983013153,-0.4436319172382355,9.602309226989746,0.09475518763065338,-1.5939871072769165,0.28709912300109863,0.4155595898628235,0.45460620522499084,0.35489457845687866,-0.640010416507721,-0.41923969984054565,-0.5372846722602844
448411,8.932214736938477,-0.3196592926979065,4.033031940460205,0.3919447064399719,-0.09659828245639801,0.502642810344696,0.7121468186378479,-0.30652934312820435,-0.449541300535202,-0.4436206817626953,9.59669017791748,0.1007024273276329,-1.6020193099975586,0.011404053308069706,-0.060548413544893265,0.38684776425361633,0.35487329959869385,-0.6399903893470764,-0.41927123069763184,-0.5372978448867798
448577,8.92762565612793,-0.33668917417526245,4.053237438201904,0.3983222544193268,-0.20099563896656036,0.5479131937026978,0.7121687531471252,-0.30651503801345825,-0.4495394825935364,-0.44359710812568665,9.599531173706055,0.11104480922222137,-1.5939298868179321,-0.2610958516597748,-0.37539249658584595,0.5756774544715881,0.35481223464012146,-0.6400282979011536,-0.4192677140235901,-0.5372957587242126
448744,8.922029495239258,-0.3247160315513611,4.065561294555664,0.28170767426490784,-0.3302501440048218,0.5152058005332947,0.7121555209159851,-0.306538462638855,-0.4495314061641693,-0.44361037015914917,9.601592063903809,0.08549293875694275,-1.6213444471359253,-0.42622095346450806,-0.6623188853263855,0.7180200815200806,0.35472333431243896,-0.6401092410087585,-0.4192469120025635,-0.537274181842804
448911,8.932196617126465,-0.3390924036502838,4.0829668045043945,0.29041600227355957,-0.4037329852581024,0.6202306747436523,0.7121548056602478,-0.3065626919269562,-0.4495334029197693,-0.4435926675796509,9.608440399169922,0.06608455628156662,-1.618194818496704,-0.49232736229896545,-0.872957706451416,0.7106820344924927,0.35463154315948486,-0.6401979923248291,-0.41925057768821716,-0.5372262597084045
449077,8.929685592651367,-0.3429940342903137,4.045967102050781,0.1939457654953003,-0.2903711795806885,0.49174460768699646,0.7121374011039734,-0.3065919876098633,-0.4495154619216919,-0.44361865520477295,9.612299919128418,0.040191713720560074,-1.6325006484985352,-0.24686801433563232,-0.9410106539726257,0.731645941734314,0.3545438349246979,-0.6402915716171265,-0.4192573130130768,-0.5371673107147217
449244,8.92410659790039,-0.3367249369621277,4.06544303894043,0.1784500628709793,-0.34541285037994385,0.5659958124160767,0.7121605277061462,-0.3065921366214752,-0.44952595233917236,-0.44357094168663025,9.609652519226074,0.038339752703905106,-1.643556833267212,-0.10876432061195374,-0.7405911684036255,0.8100976347923279,0.3544963002204895,-0.6403607726097107,-0.41926687955856323,-0.5371086597442627
449411,8.937141418457031,-0.34349867701530457,4.033899307250977,0.33446988463401794,-0.5098977088928223,0.5796218514442444,0.7121424078941345,-0.3066255450248718,-0.44953644275665283,-0.44356635212898254,9.631878852844238,0.04211211949586868,-1.6584299802780151,0.12087272852659225,-0.6704379916191101,0.7145622968673706,0.35448214411735535,-0.6403964757919312,-0.4193160831928253,-0.537037193775177
449577,8.939327239990234,-0.3448393642902374,4.045620441436768,0.2392290085554123,-0.5241766571998596,0.570478081703186,0.7121075391769409,-0.3066806197166443,-0.4495348036289215,-0.4435860216617584,9.651924133300781,0.04427647590637207,-1.66604745388031,0.3163744807243347,-0.2723526358604431,0.7350013256072998,0.35451123118400574,-0.6403927803039551,-0.4193570911884308,-0.5369902849197388
449744,8.949183464050293,-0.34604811668395996,4.04647159576416,0.21362914144992828,-0.47780486941337585,0.4539402425289154,0.7120782136917114,-0.3067161738872528,-0.4495396912097931,-0.4436033070087433,9.631522178649902,0.046936504542827606,-1.7015504837036133,0.4946260452270508,-0.000832412566523999,0.6869516968727112,0.3545833230018616,-0.6403458118438721,-0.4194178879261017,-0.5369512438774109
449911,8.962179183959961,-0.3369264304637909,4.003231048583984,0.2918502986431122,-0.6328385472297668,0.5429443717002869,0.7120670080184937,-0.30674126744270325,-0.4495742917060852,-0.4435688853263855,9.607759475708008,0.060337770730257034,-1.6890569925308228,0.3940833806991577,0.11872125416994095,0.7032158374786377,0.35463592410087585,-0.6403092741966248,-0.41944214701652527,-0.5369411110877991
450077,8.966401100158691,-0.3459607660770416,4.029259204864502,0.2561717629432678,-0.5430788397789001,0.6245591640472412,0.712070107460022,-0.3067644536495209,-0.44959744811058044,-0.4435243308544159,9.61347770690918,0.06221386790275574,-1.6616166830062866,0.38800036907196045,0.11978419125080109,0.8265538215637207,0.354694128036499,-0.6402831673622131,-0.4194503426551819,-0.536927342414856
450244,8.958964347839355,-0.33001241087913513,4.007361888885498,0.30427244305610657,-0.4546125829219818,0.5725398659706116,0.7120499014854431,-0.3068011701107025,-0.44959789514541626,-0.4435310959815979,9.622467994689941,0.07672309130430222,-1.678993821144104,0.31254538893699646,0.018383515998721123,0.8823896050453186,0.35474634170532227,-0.6402702927589417,-0.4194555878639221,-0.5369040966033936
450411,8.967703819274902,-0.3389747738838196,4.024013042449951,0.3502344489097595,-0.48762738704681396,0.5137715339660645,0.7120212912559509,-0.30683594942092896,-0.4496043920516968,-0.44354650378227234,9.621277809143066,0.06422889977693558,-1.6800512075424194,0.23350459337234497,0.015181927010416985,0.8694422841072083,0.3548024892807007,-0.6402514576911926,-0.41947096586227417,-0.5368773341178894
450577,8.973833084106445,-0.3347976803779602,4.022797584533691,0.2540331482887268,-0.3215674161911011,0.3928539752960205,0.7120110392570496,-0.30684250593185425,-0.44960638880729675,-0.44355612993240356,9.622872352600098,0.0633070096373558,-1.680511713027954,0.11322734504938126,0.029499424621462822,0.8508858680725098,0.35485634207725525,-0.6402308940887451,-0.41948726773262024,-0.5368537306785583
450744,8.960868835449219,-0.32846418023109436,3.994966983795166,0.16104625165462494,-0.3246665596961975,0.49766114354133606,0.7119855880737305,-0.306883305311203,-0.4495861530303955,-0.443589448928833,9.62846565246582,0.048547014594078064,-1.6890641450881958,-0.02606092020869255,0.0814419761300087,0.6574971675872803,0.3548556864261627,-0.6402220726013184,-0.4194760322570801,-0.536873459815979
450911,8.982828140258789,-0.33582374453544617,3.99204158782959,0.17473623156547546,-0.22362446784973145,0.4241398870944977,0.7119953036308289,-0.30687928199768066,-0.4495820105075836,-0.44358065724372864,9.614707946777344,0.051973018795251846,-1.6576292514801025,-0.0759928822517395,0.09669435024261475,0.6410537958145142,0.35486677289009094,-0.6402018666267395,-0.4194800555706024,-0.536886990070343
451077,8.96654987335205,-0.34697794914245605,4.017711639404297,0.010392352007329464,-0.2005346268415451,0.41371551156044006,0.7120175361633301,-0.30687063932418823,-0.4495789408683777,-0.4435541033744812,9.623662948608398,0.05540260300040245,-1.6600289344787598,-0.09617569297552109,-0.020170003175735474,0.5447500944137573,0.3548389673233032,-0.6402020454406738,-0.4194723963737488,-0.536911129951477
451244,8.948145866394043,-0.3360740840435028,4.016331195831299,0.14257949590682983,-0.30860739946365356,0.3045926094055176,0.7120330929756165,-0.3068464994430542,-0.44960179924964905,-0.4435226321220398,9.626545906066895,0.05926132947206497,-1.6937882900238037,-0.13243046402931213,0.0622708760201931,0.5841039419174194,0.35484468936920166,-0.6401792764663696,-0.41948628425598145,-0.5369237065315247
451411,8.951086044311523,-0.32767319679260254,4.0182976722717285,0.1636459231376648,-0.4152458608150482,0.3457905948162079,0.7120159864425659,-0.30685925483703613,-0.4496150016784668,-0.4435279667377472,9.62452220916748,0.06334543228149414,-1.6832489967346191,-0.12128892540931702,0.1205141544342041,0.5645102858543396,0.35484302043914795,-0.6401583552360535,-0.4194873869419098,-0.5369488596916199
451577,8.94758129119873,-0.31847915053367615,4.037248134613037,0.13414010405540466,-0.3369734585285187,0.3366469144821167,0.7119958996772766,-0.3068755269050598,-0.4496144950389862,-0.443549245595932,9.630725860595703,0.0705728754401207,-1.6918607950210571,-0.22567348182201385,0.05623908340930939,0.5105955600738525,0.35481682419776917,-0.6401485800743103,-0.41948243975639343,-0.5369817614555359
451744,8.947609901428223,-0.3287893533706665,4.014163970947266,-0.0002305142697878182,-0.4547407031059265,0.32322585582733154,0.7119415402412415,-0.3069319427013397,-0.44960474967956543,-0.4436076581478119,9.633490562438965,0.0783153623342514,-1.690315842628479,-0.40375855565071106,0.2530214190483093,0.5411514639854431,0.3547838032245636,-0.6401376128196716,-0.41944581270217896,-0.5370453596115112
451911,8.946761131286621,-0.33039167523384094,4.010269641876221,0.044444434344768524,-0.3979060649871826,0.4791431725025177,0.7119000554084778,-0.3069928288459778,-0.44958317279815674,-0.44365394115448,9.618220329284668,0.06455054134130478,-1.6669095754623413,-0.4179864227771759,0.33832454681396484,0.6022250056266785,0.3547585606575012,-0.640125036239624,-0.41939717531204224,-0.5371147990226746
452078,8.948389053344727,-0.3550422787666321,4.008731842041016,-0.11737018823623657,-0.35001036524772644,0.5179336071014404,0.7118850350379944,-0.3070421516895294,-0.44956374168395996,-0.4436635971069336,9.632789611816406,0.05017061159014702,-1.683746337890625,-0.42182838916778564,0.3333044648170471,0.6416172981262207,0.35474222898483276,-0.6401110291481018,-0.41935184597969055,-0.5371778011322021
452244,8.944504737854004,-0.35012152791023254,4.0044941902160645,-0.033194057643413544,-0.29085782170295715,0.3915221393108368,0.7118509411811829,-0.30708929896354675,-0.44953653216362,-0.4437132179737091,9.612405776977539,0.05860688537359238,-1.664803147315979,-0.3377290368080139,0.37628254294395447,0.5786740779876709,0.3547309637069702,-0.6400852799415588,-0.4193168878555298,-0.5372430682182312
452411,8.960366249084473,-0.3745504915714264,4.039107799530029,-0.05728280171751976,-0.2921384274959564,0.3966318368911743,0.711793839931488,-0.30716121196746826,-0.4494927227497101,-0.44379937648773193,9.614404678344727,0.05880003795027733,-1.665260672569275,-0.2713153064250946,0.05773742496967316,0.7839471101760864,0.35472267866134644,-0.6400940418243408,-0.41928377747535706,-0.5372639298439026
452578,8.944234848022461,-0.3438735902309418,3.9969942569732666,0.2668907046318054,-0.18926504254341125,0.4709470868110657,0.7117918133735657,-0.3071688115596771,-0.4494757354259491,-0.44381454586982727,9.617773056030273,0.027372291311621666,-1.6548792123794556,-0.12090475857257843,0.03724726662039757,0.6940593123435974,0.35471415519714355,-0.6400953531265259,-0.41926541924476624,-0.5372823476791382
452744,8.960915565490723,-0.3378336727619171,3.978158950805664,0.2958330810070038,-0.12619376182556152,0.46531230211257935,0.7117999196052551,-0.3071642816066742,-0.4494577646255493,-0.44382286071777344,9.60752010345459,0.02702539786696434,-1.682508945465088,0.0879732221364975,0.14710015058517456,0.7459378838539124,0.35474130511283875,-0.6400768160820007,-0.41925856471061707,-0.5372918248176575
452911,9.011317253112793,-0.3854602575302124,4.03363037109375,0.8119161128997803,-0.3521105945110321,0.38627150654792786,0.7118117809295654,-0.30711519718170166,-0.44950070977211,-0.4437943696975708,9.545697212219238,0.04350809380412102,-1.6531373262405396,0.1683458685874939,-0.15653200447559357,0.4689364731311798,0.3547285795211792,-0.6400660872459412,-0.4192914366722107,-0.5372874140739441
453078,8.970701217651367,-0.3131362795829773,4.0584516525268555,0.48764657974243164,-0.3623812794685364,-0.21223962306976318,0.7117695212364197,-0.30706164240837097,-0.4495503902435303,-0.44384893774986267,9.662947654724121,0.017981169745326042,-1.6728389263153076,0.21972490847110748,-0.6392545104026794,0.35892990231513977,0.35467633605003357,-0.6400884985923767,-0.4193561375141144,-0.5372447967529297
453244,8.942545890808105,-0.28957292437553406,4.032897472381592,0.8662150502204895,0.041242845356464386,-0.4474794566631317,0.711764395236969,-0.3069186508655548,-0.44959908723831177,-0.4439067244529724,9.672442436218262,0.03279381990432739,-1.678092360496521,0.26826098561286926,-0.15787667036056519,0.11298401653766632,0.35465577244758606,-0.6400437355041504,-0.419441282749176,-0.5372452139854431
453411,8.91930103302002,-0.34971731901168823,4.0954084396362305,0.44176146388053894,-0.5985944271087646,0.2042548954486847,0.7117784023284912,-0.3068658113479614,-0.44968342781066895,-0.4438351094722748,9.67111587524414,0.07481426000595093,-1.659674882888794,0.07701098173856735,0.07273366302251816,-0.5253036022186279,0.35457900166511536,-0.6399536728858948,-0.4195564091205597,-0.5373132824897766
453578,8.944613456726074,-0.3571375906467438,4.067226886749268,0.3029150068759918,-0.7983349561691284,0.37506595253944397,0.7117121815681458,-0.3069224953651428,-0.4497225880622864,-0.4438624978065491,9.655077934265137,0.10286467522382736,-1.615971565246582,-0.38479235768318176,0.5908401608467102,-0.5100512504577637,0.3545082211494446,-0.6398362517356873,-0.41962504386901855,-0.5374462008476257
453744,8.90982723236084,-0.3374938368797302,4.040860176086426,0.5598487854003906,-0.39741945266723633,0.38096967339515686,0.7117165327072144,-0.30689549446105957,-0.4497580826282501,-0.4438381791114807,9.604109764099121,0.09848494827747345,-1.6398638486862183,-0.5991194248199463,0.7394450306892395,-0.14532645046710968,0.35443252325057983,-0.6397566199302673,-0.41960999369621277,-0.5376026034355164
453911,8.910606384277344,-0.3057156503200531,4.046078205108643,-0.10242518782615662,-0.6984070539474487,0.14899545907974243,0.7116429209709167,-0.30695483088493347,-0.4497828483581543,-0.44389012455940247,9.61749267578125,0.09938234835863113,-1.637493371963501,-0.6262689232826233,0.6874896287918091,0.31912779808044434,0.35439690947532654,-0.6397042274475098,-0.4195624887943268,-0.5377255082130432
454078,8.946531295776367,-0.34932586550712585,4.0400710105896,-0.29056328535079956,-0.8150473237037659,0.13767465949058533,0.7115578055381775,-0.3070348799228668,-0.4498116672039032,-0.44394204020500183,9.603532791137695,0.10188441723585129,-1.6116236448287964,-0.7124556303024292,0.7646480202674866,0.7560548782348633,0.35439154505729675,-0.6396769881248474,-0.4194631576538086,-0.537838876247406
454244,8.948850631713867,-0.3615831732749939,4.049242973327637,0.3746689558029175,-0.502738893032074,0.5065358877182007,0.7115375995635986,-0.3070594072341919,-0.449828177690506,-0.4439408779144287,9.598440170288086,0.08726884424686432,-1.6007736921310425,-0.836843729019165,0.5464021563529968,0.8658309578895569,0.3543759882450104,-0.6396750211715698,-0.41936227679252625,-0.5379301309585571
454411,8.922699928283691,-0.33556386828422546,4.040875434875488,0.31007373332977295,-0.5430276393890381,0.6209478974342346,0.7115241885185242,-0.3070957660675049,-0.44984275102615356,-0.4439225494861603,9.61526107788086,0.033784013241529465,-1.6051889657974243,-0.7403862476348877,0.4229361116886139,0.745822548866272,0.35433146357536316,-0.6396848559379578,-0.41926395893096924,-0.5380244255065918
454578,8.937088966369629,-0.3762742280960083,4.034909725189209,0.22972668707370758,-0.37092307209968567,0.6027628183364868,0.7115135192871094,-0.3071310520172119,-0.4498330354690552,-0.4439249038696289,9.610696792602539,0.015976985916495323,-1.6236436367034912,-0.3193519413471222,0.3395923674106598,0.7288797497749329,0.35432711243629456,-0.6396743655204773,-0.4192104637622833,-0.5380813479423523
454744,8.927929878234863,-0.38571542501449585,4.044354438781738,0.2600136995315552,-0.3681057095527649,0.4591140151023865,0.7114959955215454,-0.3071537911891937,-0.44983118772506714,-0.44393908977508545,9.592196464538574,0.0021349957678467035,-1.6293128728866577,0.24102190136909485,0.1260208785533905,0.7700138092041016,0.3543635904788971,-0.6396550536155701,-0.41920676827430725,-0.5380833148956299
454911,8.936427116394043,-0.32352158427238464,4.046539306640625,0.3773582875728607,-0.38794273138046265,0.19306211173534393,0.7114574909210205,-0.3071562945842743,-0.4498452842235565,-0.4439849257469177,9.600844383239746,-0.00034126307582482696,-1.6131532192230225,0.6889880895614624,-0.28168848156929016,0.7742910981178284,0.3544292449951172,-0.6396363973617554,-0.4192713797092438,-0.5380117893218994
455078,8.954782485961914,-0.33284443616867065,4.005440711975098,0.11850355565547943,-0.8160206079483032,0.4683474004268646,0.7114006876945496,-0.30722716450691223,-0.4498772621154785,-0.4439944326877594,9.654617309570312,0.05186375230550766,-1.6258405447006226,0.9462547302246094,-0.4530757963657379,0.5611550211906433,0.35450267791748047,-0.639597475528717,-0.4193960428237915,-0.5379125475883484
455244,9.018824577331543,-0.35974764823913574,4.010753154754639,0.8177943229675293,-0.7193583250045776,0.6825976967811584,0.71141517162323,-0.3072149455547333,-0.4499477446079254,-0.4439082443714142,9.602995872497559,0.0782223790884018,-1.629430890083313,0.5812225937843323,-0.2291824370622635,0.1166338175535202,0.3545040786266327,-0.6395451426506042,-0.41950270533561707,-0.5378906726837158
455411,8.97382640838623,-0.33691003918647766,3.9765796661376953,0.7899405360221863,-1.143402338027954,0.181011363863945,0.7113486528396606,-0.30721908807754517,-0.4500698149204254,-0.44388827681541443,9.653999328613281,0.07026883214712143,-1.647039532661438,0.3465718924999237,-0.896457314491272,0.1813955456018448,0.3544515073299408,-0.6395583152770996,-0.41962337493896484,-0.5378153920173645
455578,8.96799087524414,-0.25311049818992615,3.967416524887085,1.2755699157714844,-0.3291616141796112,-0.15000078082084656,0.711353063583374,-0.3070819675922394,-0.45016559958457947,-0.44387903809547424,9.59765625,0.059497345238924026,-1.6653003692626953,0.08118585497140884,-0.5941762328147888,0.3269397020339966,0.3544148802757263,-0.6395624279975891,-0.4197065234184265,-0.5377697944641113
455744,8.97775936126709,-0.31268802285194397,3.985361337661743,0.4345386326313019,-1.150253415107727,0.22218374907970428,0.7112821936607361,-0.30711629986763,-0.4502708315849304,-0.44386208057403564,9.601163864135742,0.12237967550754547,-1.6938745975494385,-0.49566978216171265,-1.0742863416671753,-0.14887382090091705,0.3542416989803314,-0.6396166086196899,-0.41979551315307617,-0.5377501249313354
455911,9.010878562927246,-0.3582659959793091,3.9785263538360596,0.5993947982788086,-0.9471831917762756,0.2657509446144104,0.7112341523170471,-0.3071240484714508,-0.4503634572029114,-0.44383981823921204,9.624029159545898,0.12176473438739777,-1.7003744840621948,-1.140815258026123,-1.0370453596115112,-0.4004673361778259,0.35400262475013733,-0.6396774649620056,-0.4198683500289917,-0.5377782583236694
456078,8.979928970336914,-0.3488021790981293,3.982771635055542,0.5515630841255188,-0.4726311266422272,0.150788351893425,0.7112123370170593,-0.3070937395095825,-0.4504126012325287,-0.4438457787036896,9.597599029541016,0.09511488676071167,-1.7058353424072266,-1.399541974067688,-1.137536883354187,-0.2149161696434021,0.353731244802475,-0.639782190322876,-0.41989147663116455,-0.5378142595291138
456244,8.963652610778809,-0.32718363404273987,3.988504648208618,0.2975875437259674,-0.5757222771644592,0.13229598104953766,0.7111566066741943,-0.3071099817752838,-0.45044687390327454,-0.4438890814781189,9.626786231994629,0.06162875145673752,-1.7099897861480713,-1.169872760772705,-1.195421576499939,0.037490591406822205,0.3535056710243225,-0.639889121055603,-0.41992148756980896,-0.5378119945526123
456411,8.964690208435059,-0.34851571917533875,4.0076518058776855,-0.02095119096338749,-0.4730793833732605,-0.13095775246620178,0.7110879421234131,-0.30712413787841797,-0.4504695236682892,-0.443966269493103,9.620182991027832,0.056318074464797974,-1.7305210828781128,-0.6805551052093506,-0.9156413078308105,0.45327436923980713,0.3533731997013092,-0.6399757862091064,-0.4199345111846924,-0.5377855896949768
456578,8.947010040283203,-0.3426324129104614,3.9891486167907715,0.2729097008705139,-0.5201042294502258,0.11724853515625,0.711051344871521,-0.307121217250824,-0.45050910115242004,-0.4439867436885834,9.621333122253418,0.06488820910453796,-1.696756362915039,-0.28891125321388245,-0.56072598695755,0.567327618598938,0.35332101583480835,-0.6400130391120911,-0.41996291279792786,-0.5377535223960876
456744,8.974316596984863,-0.32728734612464905,3.985300302505493,0.34260183572769165,-0.582573652267456,0.2500375807285309,0.7110081911087036,-0.30713778734207153,-0.45054423809051514,-0.44400864839553833,9.636462211608887,0.048825956881046295,-1.7160931825637817,-0.15395793318748474,-0.1231074407696724,0.27196204662323,0.35328951478004456,-0.6399878859519958,-0.4200117886066437,-0.5377659797668457
456911,8.971770286560059,-0.3460373878479004,3.984992742538452,0.26673707365989685,-0.43927061557769775,0.10615824162960052,0.7109886407852173,-0.3071165084838867,-0.4505845904350281,-0.44401389360427856,9.635780334472656,0.05985483154654503,-1.7007085084915161,0.1052105575799942,0.33075597882270813,0.11623682826757431,0.3532814383506775,-0.6399163007736206,-0.42005401849746704,-0.5378233194351196
457078,8.990388870239258,-0.34906643629074097,3.977497100830078,0.30591171979904175,-0.3077237904071808,0.08510460704565048,0.7109616994857788,-0.30709803104400635,-0.45060357451438904,-0.44405046105384827,9.614948272705078,0.04225289076566696,-1.6888352632522583,0.481499582529068,0.30766618251800537,0.23166048526763916,0.353309690952301,-0.6398389935493469,-0.4201091527938843,-0.5378536581993103
457244,8.994032859802246,-0.324762761592865,4.007819175720215,0.34159013628959656,-0.14349514245986938,0.053921133279800415,0.7109532952308655,-0.30705538392066956,-0.450614869594574,-0.44408196210861206,9.612183570861816,0.0821869745850563,-1.6956024169921875,0.6820469498634338,0.2444283813238144,0.4673869013786316,0.3533870279788971,-0.6397590041160583,-0.42017918825149536,-0.5378432869911194
457411,8.958627700805664,-0.31128737330436707,3.970587968826294,0.19635334610939026,-0.09768683463335037,0.0778818130493164,0.7109374403953552,-0.3070315718650818,-0.45060744881629944,-0.44413134455680847,9.60463809967041,0.0973406657576561,-1.679273009300232,0.6729031801223755,0.15381066501140594,0.43074795603752136,0.35343989729881287,-0.6396957039833069,-0.4202394485473633,-0.5378367900848389
457578,8.974874496459961,-0.3050895035266876,4.014129161834717,0.3126477897167206,-0.3297891318798065,0.124484121799469,0.7109242081642151,-0.30700424313545227,-0.4506361782550812,-0.4441421627998352,9.631509780883789,0.14101342856884003,-1.6685725450515747,0.31770631670951843,0.11927194148302078,0.3375561535358429,0.35346004366874695,-0.6396408081054688,-0.4202928841114044,-0.537847101688385
457744,8.992798805236816,-0.3045283555984497,3.9780406951904297,0.3077685832977295,-0.3995068669319153,0.24978141486644745,0.7108927965164185,-0.30701106786727905,-0.45065179467201233,-0.4441719949245453,9.639552116394043,0.12771709263324738,-1.6749881505966187,-0.09166784584522247,0.2129247635602951,0.30148065090179443,0.3534381687641144,-0.6396018862724304,-0.42030608654022217,-0.5378975868225098
457911,8.975160598754883,-0.30416715145111084,3.99863600730896,0.3442026376724243,-0.1076117530465126,0.27553504705429077,0.7108676433563232,-0.30701354146003723,-0.45062732696533203,-0.4442353844642639,9.598100662231445,0.12405181676149368,-1.6680716276168823,-0.42679721117019653,0.25466063618659973,0.3444972038269043,0.35341012477874756,-0.6395660638809204,-0.42030712962150574,-0.5379576086997986
