sampleTimeFine,D4:22:CD:00:A9:12_acc_x,D4:22:CD:00:A9:12_acc_y,D4:22:CD:00:A9:12_acc_z,D4:22:CD:00:A9:12_gyro_x,D4:22:CD:00:A9:12_gyro_y,D4:22:CD:00:A9:12_gyro_z,D4:22:CD:00:A9:12_quat_w,D4:22:CD:00:A9:12_quat_x,D4:22:CD:00:A9:12_quat_y,D4:22:CD:00:A9:12_quat_z,D4:22:CD:00:A1:93_acc_x,D4:22:CD:00:A1:93_acc_y,D4:22:CD:00:A1:93_acc_z,D4:22:CD:00:A1:93_gyro_x,D4:22:CD:00:A1:93_gyro_y,D4:22:CD:00:A1:93_gyro_z,D4:22:CD:00:A1:93_quat_w,D4:22:CD:00:A1:93_quat_x,D4:22:CD:00:A1:93_quat_y,D4:22:CD:00:A1:93_quat_z
2203827,0.09165509045124054,0.19228088855743408,-0.34741002321243286,-1.0216073989868164,-0.028380366042256355,-0.681872546672821,0.7027494311332703,-0.2907179594039917,-0.49815863370895386,-0.4164903461933136,-0.2510829269886017,0.16421771049499512,0.043203435838222504,-1.2679065465927124,-0.5144524574279785,-0.018896587193012238,0.3418286442756653,-0.640920877456665,-0.4359000027179718,-0.5313801169395447
2203994,9.25584602355957,0.056261200457811356,3.2933709621429443,0.35056740045547485,-0.5245608687400818,0.6209350824356079,0.7023998498916626,-0.291233628988266,-0.4981532394886017,-0.41672641038894653,9.526540756225586,0.23786979913711548,-1.9768701791763306,0.33874714374542236,-0.49485015869140625,0.5872030854225159,0.34205883741378784,-0.6408951282501221,-0.43610554933547974,-0.5310943126678467
2204161,9.27415657043457,0.05773429200053215,3.273982048034668,0.41368988156318665,-0.4371319115161896,0.506510317325592,0.702370822429657,-0.29137513041496277,-0.49808287620544434,-0.41676032543182373,9.536575317382812,0.2577587068080902,-1.9779609441757202,0.33097371459007263,-0.5015606880187988,0.5745248794555664,0.3425939381122589,-0.640616774559021,-0.43675488233566284,-0.5305513739585876
2204327,9.266596794128418,0.04537491872906685,3.2839202880859375,0.1880420297384262,-0.4184858500957489,0.4640188217163086,0.7024614214897156,-0.29133108258247375,-0.4982340931892395,-0.4164577126502991,9.551101684570312,0.24627193808555603,-1.962579607963562,0.2781091034412384,-0.4799307584762573,0.477836936712265,0.34282511472702026,-0.640436589717865,-0.4372329115867615,-0.5302256941795349
2204494,9.254268646240234,0.04432322084903717,3.2731242179870605,0.3233667314052582,-0.47120964527130127,0.4509563148021698,0.7025284767150879,-0.29135608673095703,-0.49830830097198486,-0.41623830795288086,9.553788185119629,0.24618610739707947,-1.9637383222579956,0.2768796682357788,-0.26277345418930054,0.5146551132202148,0.34307414293289185,-0.6402455568313599,-0.43754497170448303,-0.5300378799438477
2204661,9.2639799118042,0.05496666207909584,3.2744574546813965,0.45070022344589233,-0.43873271346092224,0.47549328207969666,0.702633798122406,-0.29133233428001404,-0.49840399622917175,-0.41596245765686035,9.559978485107422,0.25771936774253845,-1.9846913814544678,0.42718783020973206,-0.05709071084856987,0.5394483208656311,0.3431459367275238,-0.64021235704422,-0.4375467598438263,-0.5300300717353821
2204827,9.263167381286621,0.056643545627593994,3.2795321941375732,0.43873918056488037,-0.36275267601013184,0.5281787514686584,0.7026392221450806,-0.29139772057533264,-0.4984346926212311,-0.4158708453178406,9.536489486694336,0.25796613097190857,-1.9657553434371948,0.322662353515625,0.053472910076379776,0.4749426543712616,0.34310823678970337,-0.6402465105056763,-0.4374750554561615,-0.5300724506378174
2204994,9.249773979187012,0.05152931436896324,3.288652181625366,0.35414037108421326,-0.37489303946495056,0.5130031108856201,0.702597439289093,-0.2914995551109314,-0.4984314441680908,-0.41587400436401367,9.5706205368042,0.26721063256263733,-1.9772528409957886,0.2507675290107727,0.1148025244474411,0.5359649658203125,0.3430621027946472,-0.6402867436408997,-0.4373737573623657,-0.5301371812820435
2205161,9.264103889465332,0.0708341971039772,3.291522979736328,0.38878151774406433,-0.325383722782135,0.5070865750312805,0.7026754021644592,-0.2914561331272125,-0.4984806478023529,-0.4157136082649231,9.540974617004395,0.26445695757865906,-1.9614567756652832,0.06356431543827057,0.1415293663740158,0.6127005815505981,0.3429805636405945,-0.6403527855873108,-0.43723437190055847,-0.5302251577377319
2205327,9.258843421936035,0.053768277168273926,3.2905898094177246,0.35456299781799316,-0.17542137205600739,0.5013749599456787,0.702692985534668,-0.291465163230896,-0.49846890568733215,-0.41569167375564575,9.5181245803833,0.25795894861221313,-1.9513717889785767,0.04877298325300217,0.008420174941420555,0.783870279788971,0.3430662155151367,-0.6403060555458069,-0.43727385997772217,-0.5301936268806458
2205494,9.247235298156738,0.04799270257353783,3.280773162841797,0.332151859998703,-0.19902350008487701,0.49866005778312683,0.7027217149734497,-0.2914649546146393,-0.4984610080718994,-0.41565263271331787,9.524788856506348,0.23669074475765228,-1.9828943014144897,0.01235172525048256,-0.19755075871944427,1.0280362367630005,0.3431258499622345,-0.6403235197067261,-0.4372457265853882,-0.5301573872566223
2205661,9.26334285736084,0.043440189212560654,3.294802665710449,-0.026970170438289642,-0.5276857018470764,0.5046149492263794,0.7026351094245911,-0.2916196882724762,-0.49841004610061646,-0.41575169563293457,9.562697410583496,0.2124961018562317,-1.975088357925415,0.1433606743812561,-0.148617684841156,1.105808973312378,0.3431782126426697,-0.6403816938400269,-0.4371722340583801,-0.5301136374473572
2205827,9.2545804977417,0.040353924036026,3.278123378753662,0.07871422916650772,-0.4093165993690491,0.6149417161941528,0.7026130557060242,-0.2917177677154541,-0.498373806476593,-0.41576337814331055,9.548633575439453,0.18471166491508484,-1.9794950485229492,0.42430636286735535,0.10563316941261292,0.9239204525947571,0.34328505396842957,-0.6403988003730774,-0.43712118268013,-0.5300658941268921
2205994,9.26899242401123,0.02815905585885048,3.257495641708374,0.06889175623655319,-0.2180793285369873,0.6927787065505981,0.7026214003562927,-0.2918006479740143,-0.4983256757259369,-0.4157488942146301,9.428677558898926,0.19895870983600616,-1.9395095109939575,0.4824599623680115,-0.014599237591028214,0.6841087341308594,0.34338080883026123,-0.64042729139328,-0.4370793104171753,-0.5300039649009705
2206161,9.273345947265625,0.04068296402692795,3.313885450363159,-0.08336932957172394,-0.13719442486763,0.44021186232566833,0.7026082277297974,-0.29188835620880127,-0.498277485370636,-0.4157673418521881,9.51621150970459,0.14949943125247955,-1.9914085865020752,0.5909682512283325,-0.9256046414375305,0.42635542154312134,0.3433851897716522,-0.640532910823822,-0.437069833278656,-0.5298813581466675
2206327,9.227280616760254,0.008811783976852894,3.242600679397583,-0.08010371029376984,-0.03231041878461838,0.5205588936805725,0.7026540040969849,-0.29192110896110535,-0.49823763966560364,-0.41571474075317383,9.559596061706543,0.1383490264415741,-1.9687174558639526,0.8487087488174438,-0.7911635041236877,0.16646333038806915,0.3434486389160156,-0.6405845284461975,-0.43713006377220154,-0.5297280550003052
2206494,9.241960525512695,0.0304693765938282,3.217928409576416,0.19655828177928925,-0.09187275916337967,0.5295746326446533,0.7026985287666321,-0.29194918274879456,-0.49821940064430237,-0.4156416058540344,9.543937683105469,0.20437808334827423,-1.9574047327041626,1.04421067237854,-0.9655603766441345,-0.6114135980606079,0.34340956807136536,-0.6406481862068176,-0.4371970295906067,-0.5296210646629333
2206661,9.328533172607422,-0.011923074722290039,3.2910618782043457,0.5454800724983215,-0.047831714153289795,0.4722149074077606,0.7027297019958496,-0.2919650375843048,-0.49821770191192627,-0.41557982563972473,9.579975128173828,0.27731743454933167,-1.9312282800674438,0.5842961072921753,-1.0116631984710693,-1.0329474210739136,0.3434613347053528,-0.6405644416809082,-0.43747881054878235,-0.5294561386108398
2206827,9.302037239074707,0.0667889267206192,3.2972493171691895,0.27732789516448975,0.12237107008695602,-0.05136626586318016,0.7026078701019287,-0.2921173572540283,-0.4981132745742798,-0.41580405831336975,9.540764808654785,0.28203731775283813,-1.920555591583252,0.15442538261413574,-0.7661654949188232,-1.1652882099151611,0.3433035910129547,-0.6405953764915466,-0.43753597140312195,-0.5294737815856934
2206994,9.247701644897461,0.10773304849863052,3.274568796157837,-0.1289343386888504,0.7061101198196411,-0.7314346432685852,0.7028127312660217,-0.29180434346199036,-0.4981983006000519,-0.4155755341053009,9.542966842651367,0.28002873063087463,-1.9596335887908936,-0.09776367247104645,-0.783927857875824,-0.8204771876335144,0.343199759721756,-0.6406008005142212,-0.43762069940567017,-0.5294644832611084
2207161,9.228349685668945,0.021317772567272186,3.3432888984680176,0.241175577044487,0.01227488461881876,-0.27881982922554016,0.7028071284294128,-0.2917546331882477,-0.49822384119033813,-0.41558927297592163,9.540681838989258,0.32536810636520386,-1.9491041898727417,-0.4898301661014557,-0.7437032461166382,-0.32921284437179565,0.3430423140525818,-0.6406901478767395,-0.437574565410614,-0.5294967293739319
2207327,9.276424407958984,0.028706371784210205,3.297349214553833,0.1708046793937683,-0.6833467483520508,0.018998220562934875,0.7027276158332825,-0.29182854294776917,-0.49825966358184814,-0.4156290292739868,9.530137062072754,0.3691549003124237,-1.9680759906768799,-0.9459794759750366,-0.7606972455978394,0.04873456433415413,0.34293466806411743,-0.6407583951950073,-0.43755799531936646,-0.5294975638389587
2207494,9.242130279541016,0.05185442417860031,3.320056438446045,1.132574200630188,-0.10124699771404266,-0.13501733541488647,0.7027401328086853,-0.2917378544807434,-0.49831199645996094,-0.41560858488082886,9.577210426330566,0.3434617817401886,-1.9666575193405151,-1.3823174238204956,-0.7672540545463562,0.2698234021663666,0.342781126499176,-0.6408631801605225,-0.4374895393848419,-0.5295267105102539
2207661,9.207282066345215,0.09669194370508194,3.3422539234161377,0.5917494297027588,-0.6652642488479614,-0.12296656519174576,0.7027130126953125,-0.2917077839374542,-0.49840113520622253,-0.4155685305595398,9.564315795898438,0.26262661814689636,-1.9897927045822144,-1.4451326131820679,-0.4069729745388031,0.5788277983665466,0.3426322638988495,-0.6409830451011658,-0.43734005093574524,-0.529601514339447
2207827,9.234810829162598,0.0605323426425457,3.320936441421509,-0.16413897275924683,-0.7882564067840576,-0.39588266611099243,0.7025924324989319,-0.2917795777320862,-0.49843889474868774,-0.41567686200141907,9.547945976257324,0.22459743916988373,-1.9866706132888794,-0.8432468771934509,-0.1476956456899643,0.8973602056503296,0.3425799608230591,-0.6410767436027527,-0.43719282746315,-0.5296433568000793
2207994,9.241652488708496,0.023409852758049965,3.3126909732818604,-0.02951863408088684,-0.5504937171936035,-0.15303587913513184,0.7025237679481506,-0.29182326793670654,-0.4984574615955353,-0.415740042924881,9.540772438049316,0.1959148496389389,-1.9905424118041992,-0.21518510580062866,0.09335189312696457,1.2334628105163574,0.3426302969455719,-0.641146719455719,-0.43704700469970703,-0.5296464562416077
2208161,9.242768287658691,0.03278309106826782,3.3150296211242676,-0.014048567041754723,-0.5604442358016968,0.17611932754516602,0.702555239200592,-0.2917974293231964,-0.49851709604263306,-0.4156336784362793,9.586246490478516,0.17949725687503815,-1.9945809841156006,0.560168981552124,0.4427219033241272,1.1202162504196167,0.3427966237068176,-0.6411276459693909,-0.43698155879974365,-0.5296159386634827
2208328,9.241406440734863,0.027390040457248688,3.3053276538848877,-0.08727527409791946,-0.37206289172172546,0.05515054240822792,0.702548623085022,-0.29181036353111267,-0.49852707982063293,-0.41562366485595703,9.554357528686523,0.2171608954668045,-1.9831572771072388,0.8977058529853821,1.0808240175247192,0.7149465084075928,0.3430088758468628,-0.6410209536552429,-0.43694451451301575,-0.5296382308006287
2208494,9.237579345703125,0.03456404432654381,3.3372201919555664,0.060477983206510544,-0.15552030503749847,0.08520704507827759,0.7025233507156372,-0.2918505370616913,-0.4984915852546692,-0.41568079590797424,9.524452209472656,0.22190001606941223,-1.994645357131958,1.0036016702651978,0.7632648348808289,0.5878691673278809,0.34318214654922485,-0.6409440040588379,-0.43691766262054443,-0.5296412110328674
2208661,9.228819847106934,0.043919432908296585,3.3151438236236572,-0.1134130209684372,-0.5128046274185181,0.2501400113105774,0.7024838924407959,-0.29193246364593506,-0.49847808480262756,-0.41570615768432617,9.560101509094238,0.24018871784210205,-1.9859063625335693,1.1444075107574463,0.9542842507362366,0.7293919920921326,0.34337544441223145,-0.6408700346946716,-0.43685948848724365,-0.5296534299850464
2208828,9.237268447875977,0.049269407987594604,3.2813775539398193,-0.07326512783765793,-0.7591603994369507,0.29434752464294434,0.702440083026886,-0.2920173704624176,-0.49849626421928406,-0.4156985878944397,9.485784530639648,0.3009920120239258,-1.9818328619003296,0.9220123887062073,0.5746785402297974,0.35168159008026123,0.3434672951698303,-0.6408353447914124,-0.4368065595626831,-0.529679536819458
2208994,9.313258171081543,0.0018711111042648554,3.2310237884521484,0.040909890085458755,-1.0452542304992676,0.7060332894325256,0.7023548483848572,-0.29219749569892883,-0.49850043654441833,-0.41571104526519775,9.548262596130371,0.37402835488319397,-1.9901665449142456,0.03583856672048569,0.33975884318351746,-0.04115960747003555,0.34353598952293396,-0.6407475471496582,-0.4368690550327301,-0.5296895503997803
2209161,9.296504974365234,0.05674756318330765,3.3205976486206055,0.17857812345027924,-0.19200558960437775,0.35034966468811035,0.7023295760154724,-0.29227128624916077,-0.49845659732818604,-0.41575440764427185,9.51896858215332,0.33238616585731506,-1.9955759048461914,-0.8280202150344849,0.3654356300830841,-0.1397428959608078,0.343443363904953,-0.640748143196106,-0.4367964565753937,-0.5298087000846863
2209328,9.264222145080566,0.11830826848745346,3.208648443222046,0.41582855582237244,-0.4625525176525116,-0.3285212814807892,0.7022818922996521,-0.2922530174255371,-0.49850398302078247,-0.41579103469848633,9.515801429748535,0.3003696799278259,-1.9936710596084595,-1.2393217086791992,0.19484221935272217,0.2000672072172165,0.343319296836853,-0.6408071517944336,-0.4366673529148102,-0.5299243330955505
2209494,9.264633178710938,0.08977352827787399,3.2641403675079346,0.42461371421813965,-0.12043090909719467,-0.18914978206157684,0.7022829055786133,-0.2921982705593109,-0.4985315799713135,-0.4157946705818176,9.511375427246094,0.2781192660331726,-2.0014281272888184,-1.3244967460632324,0.07361730933189392,0.5324047803878784,0.3432149887084961,-0.6408911943435669,-0.436522901058197,-0.5300092101097107
2209661,9.304391860961914,0.051744695752859116,3.2404940128326416,0.676335334777832,-0.8923720121383667,0.22538533806800842,0.7022167444229126,-0.2922478914260864,-0.4986063241958618,-0.4157819151878357,9.554704666137695,0.27412936091423035,-1.98172926902771,-1.253395915031433,-0.0008324126829393208,0.7079414129257202,0.34314170479774475,-0.6409760117530823,-0.43639230728149414,-0.5300616025924683
2209828,9.276888847351074,0.0516153983771801,3.2427902221679688,0.7737531661987305,-0.23494525253772736,0.10501846671104431,0.7021952867507935,-0.2922382652759552,-0.49862900376319885,-0.4157976806163788,9.557374000549316,0.24210654199123383,-1.9704315662384033,-1.2475306987762451,0.3354303240776062,0.6731978058815002,0.3431261479854584,-0.6410009264945984,-0.43629521131515503,-0.5301214456558228
2209994,9.26360034942627,0.09080705791711807,3.278184175491333,0.7325936555862427,-0.3269461393356323,0.025017205625772476,0.7022590041160583,-0.2921141982078552,-0.4987338185310364,-0.4156515598297119,9.553466796875,0.2050417810678482,-1.9914240837097168,-0.8249849677085876,0.43683096766471863,0.3776400089263916,0.3430664837360382,-0.6410351991653442,-0.4361690580844879,-0.5302224159240723
2210161,9.26707649230957,0.10535133630037308,3.2745718955993652,0.20615020394325256,-0.4013509750366211,-0.14736264944076538,0.7022277116775513,-0.29210183024406433,-0.4987834393978119,-0.41565370559692383,9.535465240478516,0.21746514737606049,-1.9512752294540405,-0.31367871165275574,0.47212526202201843,0.2495253086090088,0.34306079149246216,-0.6410250663757324,-0.4361053705215454,-0.5302907824516296
2210328,9.271013259887695,0.05868198722600937,3.280740976333618,-0.11286235600709915,-0.10291182994842529,0.023147480562329292,0.7022171020507812,-0.2921108901500702,-0.49877968430519104,-0.41566964983940125,9.52659797668457,0.2347744256258011,-1.9643927812576294,0.03690149635076523,0.3138772249221802,0.1449998915195465,0.34306514263153076,-0.6410089731216431,-0.4360765814781189,-0.5303311944007874
2210494,9.249581336975098,0.06873470544815063,3.2540769577026367,-0.05915252864360809,-0.26395168900489807,0.2727688252925873,0.7022126317024231,-0.29214203357696533,-0.4987853169441223,-0.415648490190506,9.520353317260742,0.273347407579422,-1.9430357217788696,0.3152090907096863,0.0369783379137516,0.05128302797675133,0.3430260717868805,-0.6410322189331055,-0.43603602051734924,-0.5303616523742676
2210661,9.271163940429688,0.09210164099931717,3.270792007446289,0.15553949773311615,-0.3068017065525055,0.13511337339878082,0.7021425366401672,-0.2922193706035614,-0.4987708628177643,-0.4157298505306244,9.519723892211914,0.30591949820518494,-1.9557991027832031,0.23068715631961823,-0.10909728705883026,0.06009379401803017,0.343060165643692,-0.6409974694252014,-0.43610334396362305,-0.5303261280059814
2210828,9.263731956481934,0.06792648136615753,3.2567875385284424,-0.02049015834927559,-0.3353854715824127,0.033072393387556076,0.7020940780639648,-0.29226306080818176,-0.4987803101539612,-0.41576969623565674,9.538381576538086,0.3329770863056183,-1.955302119255066,0.03215674310922623,-0.25237470865249634,0.18415530025959015,0.34302571415901184,-0.6410315036773682,-0.4360920786857605,-0.5303166508674622
2210994,9.273055076599121,0.059050675481557846,3.2527148723602295,0.25297024846076965,-0.2080903798341751,0.18221516907215118,0.7020353078842163,-0.2923300862312317,-0.49875959753990173,-0.4158467948436737,9.556588172912598,0.3356092572212219,-1.9373213052749634,-0.27012431621551514,-0.144109845161438,0.399372398853302,0.34300389885902405,-0.6410694718360901,-0.43605557084083557,-0.5303148627281189
2211161,9.247020721435547,0.072071373462677,3.3042690753936768,0.18439222872257233,0.01523315254598856,0.12557265162467957,0.7019622921943665,-0.2924153506755829,-0.498698353767395,-0.4159833788871765,9.568704605102539,0.32570669054985046,-1.9693069458007812,-0.5344858169555664,-0.07765771448612213,0.5487713813781738,0.34293726086616516,-0.6411523222923279,-0.43593987822532654,-0.5303528904914856
2211328,9.25209903717041,0.07911252230405807,3.2734739780426025,0.24846237897872925,-0.24813582003116608,0.05486880615353584,0.7019429206848145,-0.2924157679080963,-0.4987219274044037,-0.4159875810146332,9.566740036010742,0.3103259205818176,-1.9599283933639526,-0.8330658078193665,0.1506987065076828,0.7021912932395935,0.34289711713790894,-0.6412174701690674,-0.43581172823905945,-0.5304054021835327
2211494,9.258024215698242,0.08453438431024551,3.2878077030181885,0.13983893394470215,-0.24504950642585754,0.19831271469593048,0.7019182443618774,-0.2924484312534332,-0.49872612953186035,-0.41600120067596436,9.547698974609375,0.2741968333721161,-1.9619702100753784,-0.798104465007782,0.37883102893829346,0.6621458530426025,0.3429137170314789,-0.6412251591682434,-0.43573060631752014,-0.5304520726203918
2211661,9.266661643981934,0.08263184875249863,3.298872470855713,0.26598143577575684,-0.17469140887260437,0.2532903552055359,0.7018671035766602,-0.2925158441066742,-0.49869996309280396,-0.4160715937614441,9.55202865600586,0.2548110783100128,-1.9703004360198975,-0.6631896495819092,0.42186039686203003,0.6676526665687561,0.34289610385894775,-0.6412644982337952,-0.4355963170528412,-0.5305261611938477
2211828,9.272214889526367,0.08944094181060791,3.313828229904175,0.46236681938171387,-0.1366821527481079,0.24978142976760864,0.7018581032752991,-0.2925227880477905,-0.4987034499645233,-0.41607749462127686,9.538233757019043,0.24759042263031006,-1.9590177536010742,-0.23392076790332794,0.5015029907226562,0.7595638036727905,0.34297311305999756,-0.6412482857704163,-0.43553274869918823,-0.5305482745170593
2211994,9.244180679321289,0.07460683584213257,3.277569055557251,0.20840412378311157,-0.22598083317279816,0.3259279727935791,0.7018530368804932,-0.29254627227783203,-0.4987086057662964,-0.41606345772743225,9.567573547363281,0.2548125088214874,-1.9786134958267212,0.10975681245326996,0.8387966752052307,0.7618816494941711,0.3430449664592743,-0.6412380933761597,-0.4354062080383301,-0.530617892742157
2212161,9.258407592773438,0.07725322991609573,3.2967588901519775,0.07013396918773651,-0.3013206124305725,0.33138349652290344,0.7018338441848755,-0.29259252548217773,-0.49871060252189636,-0.4160609543323517,9.539505004882812,0.2624024450778961,-1.9682544469833374,0.4605996310710907,1.0811055898666382,0.7384077310562134,0.34320124983787537,-0.6411596536636353,-0.4353424310684204,-0.5306639671325684
2212328,9.263321876525879,0.07540074735879898,3.305999517440796,0.054215677082538605,0.009278200566768646,0.2972930073738098,0.7017982602119446,-0.2926624119281769,-0.49865540862083435,-0.41613784432411194,9.5607328414917,0.2732713222503662,-1.9805915355682373,0.6677934527397156,1.3013492822647095,0.796113133430481,0.34338846802711487,-0.6410635709762573,-0.43526989221572876,-0.5307185649871826
2212494,9.260273933410645,0.07249687612056732,3.3019015789031982,0.21789363026618958,0.05809600278735161,0.3942754864692688,0.7018646597862244,-0.2926170825958252,-0.4986606240272522,-0.41605138778686523,9.570756912231445,0.2636767625808716,-1.9588158130645752,0.7794904112815857,1.583101749420166,0.8299602270126343,0.3435708284378052,-0.6409716606140137,-0.43514612317085266,-0.5308130979537964
2212661,9.252238273620605,0.06949286162853241,3.3029026985168457,0.10784866660833359,0.08040466159582138,0.4198625683784485,0.7018571496009827,-0.29267042875289917,-0.49860432744026184,-0.4160940945148468,9.585205078125,0.26298606395721436,-1.9459710121154785,0.9172995686531067,1.8828983306884766,0.9473177790641785,0.34383365511894226,-0.6408248543739319,-0.43505457043647766,-0.5308951735496521
2212828,9.250425338745117,0.061013538390398026,3.3049912452697754,0.07845810055732727,0.2262817919254303,0.4421968162059784,0.7018736600875854,-0.2927035987377167,-0.4985392689704895,-0.4161207675933838,9.572469711303711,0.2814173102378845,-1.9217197895050049,0.9621858596801758,2.150230884552002,1.1116743087768555,0.34411734342575073,-0.6406759023666382,-0.43492192029953003,-0.5309995412826538
2212994,9.25544261932373,0.06826622039079666,3.3040578365325928,-0.07274007052183151,0.37240222096443176,0.49559932947158813,0.7018777132034302,-0.2927713096141815,-0.4984332025051117,-0.4161933362483978,9.537671089172363,0.2912006378173828,-1.9107491970062256,0.9062860608100891,2.147426128387451,1.0815410614013672,0.344378262758255,-0.6405400633811951,-0.4347696006298065,-0.5311190485954285
2213161,9.254813194274902,0.06203646957874298,3.291598320007324,-0.1925818920135498,0.267799973487854,0.5291903614997864,0.7018563151359558,-0.2928779721260071,-0.4983181953430176,-0.4162922203540802,9.515074729919434,0.2948043644428253,-1.902585744857788,0.7130128145217896,1.7465237379074097,1.142038345336914,0.3446100950241089,-0.6404401659965515,-0.43462884426116943,-0.5312044620513916
2213328,9.246440887451172,0.0656198263168335,3.301086187362671,-0.09517677873373032,-0.21473686397075653,0.5917109847068787,0.7018414735794067,-0.2929683327674866,-0.4982790946960449,-0.41630035638809204,9.536457061767578,0.27814561128616333,-1.911975383758545,0.6730696558952332,1.407167911529541,1.1237890720367432,0.3447989821434021,-0.6403798460960388,-0.434484601020813,-0.5312726497650146
2213494,9.27700424194336,0.06372084468603134,3.2585935592651367,-0.2610446512699127,0.1691654771566391,0.5992538928985596,0.7018581032752991,-0.29304075241088867,-0.49819740653038025,-0.4163194000720978,9.546454429626465,0.27932119369506836,-1.9018148183822632,0.39117634296417236,1.151258945465088,1.0140771865844727,0.34496328234672546,-0.6403245329856873,-0.4343736469745636,-0.5313231945037842
2213661,9.25590705871582,0.07402391731739044,3.2865452766418457,-0.1329042911529541,0.17225179076194763,0.5504873394966125,0.7018826603889465,-0.29308974742889404,-0.49812984466552734,-0.4163244962692261,9.516914367675781,0.25740060210227966,-1.885695219039917,0.24100913107395172,0.8704412579536438,0.9642990231513977,0.34509560465812683,-0.6402919292449951,-0.4342746436595917,-0.5313576459884644
2213828,9.271838188171387,0.07556536048650742,3.2903358936309814,0.09642540663480759,0.2634970545768738,0.6652963161468506,0.7019220590591431,-0.29312828183174133,-0.49805593490600586,-0.4163192808628082,9.556640625,0.26220062375068665,-1.88518488407135,0.05413884297013283,0.6168113946914673,0.8993579149246216,0.3451593220233917,-0.6403086185455322,-0.4341432452201843,-0.5314035415649414
2213994,9.251333236694336,0.07071592658758163,3.258007049560547,0.04589155316352844,0.17891110479831696,0.6536040902137756,0.7019327878952026,-0.29319924116134644,-0.4979747235774994,-0.41634824872016907,9.565961837768555,0.2662314176559448,-1.904346227645874,-0.03072243183851242,0.5290622711181641,0.8970015048980713,0.3452190160751343,-0.6403281092643738,-0.4340212941169739,-0.5314409136772156
2214161,9.259247779846191,0.06898710131645203,3.2777397632598877,0.3727479875087738,0.181510791182518,0.7397907376289368,0.7020020484924316,-0.2931958734989166,-0.4979376196861267,-0.41627827286720276,9.541702270507812,0.270002156496048,-1.8849180936813354,-0.12706460058689117,0.4218091070652008,0.810789167881012,0.34523993730545044,-0.6403683423995972,-0.43388572335243225,-0.5314895510673523
2214328,9.254373550415039,0.07553667575120926,3.271871566772461,0.44308045506477356,-0.031055400148034096,0.6730697154998779,0.7020397782325745,-0.2932111918926239,-0.49791908264160156,-0.4162259101867676,9.541038513183594,0.2596248984336853,-1.901631474494934,-0.2603274881839752,0.13962122797966003,0.8191518187522888,0.3452845513820648,-0.6403937935829163,-0.43381741642951965,-0.5314854383468628
2214494,9.248101234436035,0.06830556690692902,3.282890796661377,0.3922520875930786,0.015169120393693447,0.6205124258995056,0.7020569443702698,-0.293246865272522,-0.4978824853897095,-0.41621559858322144,9.537040710449219,0.23825764656066895,-1.9001437425613403,-0.37724944949150085,-0.028903929516673088,0.7754308581352234,0.3453028202056885,-0.6404364705085754,-0.43375125527381897,-0.5314761996269226
2214661,9.253247261047363,0.05784868821501732,3.274515390396118,0.4412875771522522,-0.043938588351011276,0.6112150549888611,0.702014684677124,-0.2933479845523834,-0.4978155493736267,-0.4162956774234772,9.552343368530273,0.24400819838047028,-1.8857412338256836,-0.3078518211841583,-0.15418842434883118,0.7634440064430237,0.34526610374450684,-0.6405276656150818,-0.43363407254219055,-0.5314857959747314
2214828,9.250171661376953,0.06580930203199387,3.2706995010375977,0.46848827600479126,-0.07031966745853424,0.4636474847793579,0.701972484588623,-0.2934255301952362,-0.497766375541687,-0.4163709878921509,9.57506275177002,0.2398669570684433,-1.9132065773010254,-0.24127160012722015,-0.09716176986694336,0.5341207981109619,0.3452371656894684,-0.6405837535858154,-0.4335591793060303,-0.5314981341362
2214994,9.258990287780762,0.05628592520952225,3.2957074642181396,0.1740703135728836,-0.1871647983789444,0.5570825934410095,0.7019515037536621,-0.2935030460357666,-0.49773338437080383,-0.4163910448551178,9.561405181884766,0.23378382623195648,-1.9164537191390991,-0.12332513928413391,-0.08443225920200348,0.494446724653244,0.34521880745887756,-0.6406291723251343,-0.43349844217300415,-0.5315048098564148
2215161,9.251026153564453,0.042163483798503876,3.3030457496643066,0.3746689558029175,-0.2838911712169647,0.5025659799575806,0.7019421458244324,-0.29354605078697205,-0.4977341592311859,-0.4163757562637329,9.575095176696777,0.23300421237945557,-1.9021416902542114,-0.05682177096605301,0.02506842650473118,0.5746144652366638,0.3452366888523102,-0.6406542658805847,-0.4334501326084137,-0.5315023064613342
2215328,9.267301559448242,0.05527028441429138,3.301204204559326,0.3610301911830902,-0.22732551395893097,0.47257348895072937,0.7019467949867249,-0.2935703694820404,-0.497737854719162,-0.41634640097618103,9.580190658569336,0.22982138395309448,-1.9285448789596558,-0.02521570213139057,0.13379435241222382,0.5112231373786926,0.34521588683128357,-0.6407009363174438,-0.43335193395614624,-0.5315396189689636
2215494,9.259437561035156,0.04297197237610817,3.2972092628479004,0.1715090423822403,-0.16785284876823425,0.37323468923568726,0.7019410133361816,-0.29360395669937134,-0.49772754311561584,-0.4163444936275482,9.571375846862793,0.2529880702495575,-1.9048417806625366,0.0035025367978960276,0.3697769343852997,0.4445020258426666,0.3452742099761963,-0.6406698822975159,-0.4333306550979614,-0.5315566658973694
2215661,9.257241249084473,0.044699013233184814,3.293093204498291,0.24130362272262573,-0.1464662253856659,0.4371255338191986,0.7019205093383789,-0.2936616837978363,-0.4977000951766968,-0.41637131571769714,9.55772876739502,0.27192407846450806,-1.9247326850891113,-0.12794823944568634,0.527858555316925,0.45135337114334106,0.34528374671936035,-0.6406716704368591,-0.4332341253757477,-0.5316271185874939
2215828,9.249563217163086,0.03736421465873718,3.29836106300354,0.21542200446128845,-0.2404007762670517,0.456463098526001,0.701913058757782,-0.29370585083961487,-0.4976934492588043,-0.4163607060909271,9.540141105651855,0.27009305357933044,-1.8920174837112427,-0.16671305894851685,0.5361441969871521,0.4878130853176117,0.3452467620372772,-0.6407136917114258,-0.4330764710903168,-0.5317288637161255
2215994,9.25294017791748,0.055899471044540405,3.303571939468384,0.36524349451065063,-0.18060794472694397,0.2978692650794983,0.7018786072731018,-0.293753057718277,-0.4976765811443329,-0.416405588388443,9.552478790283203,0.26836931705474854,-1.9100308418273926,-0.32051730155944824,0.3824552595615387,0.6410922408103943,0.34531131386756897,-0.6406925320625305,-0.4330374002456665,-0.5317443013191223
2216161,9.261890411376953,0.05440841615200043,3.308692693710327,0.28082403540611267,-0.06623443961143494,0.4083368480205536,0.70184326171875,-0.2938247323036194,-0.49762922525405884,-0.41647130250930786,9.538871765136719,0.2668350338935852,-1.8932476043701172,-0.4233010709285736,0.3612479269504547,0.729853093624115,0.34531763195991516,-0.6407272815704346,-0.4329187273979187,-0.5317949056625366
2216328,9.231078147888184,0.05559929460287094,3.300807237625122,0.22041645646095276,-0.015470068901777267,0.3489665985107422,0.701797366142273,-0.29390472173690796,-0.49756959080696106,-0.41656336188316345,9.543373107910156,0.26378047466278076,-1.8584961891174316,-0.5380587577819824,0.03270101174712181,0.6955576539039612,0.34524405002593994,-0.6408277153968811,-0.4327565133571625,-0.5318537950515747
2216494,9.240323066711426,0.05798815190792084,3.318366765975952,0.17330193519592285,-0.030812077224254608,0.3076021373271942,0.7017934322357178,-0.2939305007457733,-0.4975438416004181,-0.41658252477645874,9.563743591308594,0.27106934785842896,-1.8853442668914795,-0.5945220589637756,-0.08722405880689621,0.43953317403793335,0.34515470266342163,-0.6409100890159607,-0.4326397180557251,-0.531907320022583
2216661,9.260885238647461,0.05014282092452049,3.338408946990967,-0.5053897500038147,0.879815399646759,0.177412748336792,0.7017601728439331,-0.2940305769443512,-0.4973478317260742,-0.41680198907852173,9.553995132446289,0.2742342948913574,-1.8790823221206665,-0.6770204901695251,0.14818866550922394,0.4313754737377167,0.3451111316680908,-0.6409454345703125,-0.43255361914634705,-0.5319631099700928
2216828,9.230469703674316,0.07412566244602203,3.301610231399536,-1.4276392459869385,1.7543867826461792,-0.3022170662879944,0.7017830014228821,-0.2940637469291687,-0.4970698058605194,-0.41707170009613037,9.51546859741211,0.2449451982975006,-1.872069001197815,-0.6299315094947815,-0.03606267645955086,0.4573723077774048,0.34502655267715454,-0.6410225033760071,-0.4324356019496918,-0.5320210456848145
2216994,9.235746383666992,0.07368471473455429,3.3086493015289307,-0.6972289085388184,1.146469235420227,-0.005058508366346359,0.7017868161201477,-0.29410919547080994,-0.4968683123588562,-0.4172734022140503,9.497276306152344,0.23613646626472473,-1.8871922492980957,-0.5756454467773438,-0.5295681953430176,0.5965902209281921,0.34493428468704224,-0.6411377787590027,-0.4323423206806183,-0.5320177674293518
2217161,9.248735427856445,0.04750024899840355,3.3229165077209473,-0.619314968585968,1.2472807168960571,0.2064831554889679,0.7018693089485168,-0.2940894067287445,-0.49669134616851807,-0.41735926270484924,9.520380973815918,0.2462267279624939,-1.8731162548065186,-0.4266435205936432,-0.7769483923912048,0.46836021542549133,0.3448525369167328,-0.6412385702133179,-0.4323117733001709,-0.5319741368293762
2217328,9.226927757263184,0.038148924708366394,3.32696795463562,-0.9784820079803467,1.8772380352020264,0.061707403510808945,0.701884388923645,-0.2941629886627197,-0.49637147784233093,-0.4176621437072754,9.502523422241211,0.2524811029434204,-1.8870428800582886,-0.523203432559967,-0.9974737763404846,0.3750787675380707,0.34469592571258545,-0.6413914561271667,-0.43223947286605835,-0.5319501161575317
2217494,9.187533378601074,0.06371168047189713,3.3268613815307617,-1.6560149192810059,1.6916484832763672,-0.2010468989610672,0.7019349336624146,-0.29418641328811646,-0.4961065649986267,-0.4178754985332489,9.534647941589355,0.26301681995391846,-1.9202618598937988,-0.569191038608551,-1.3662326335906982,0.4949718713760376,0.34457117319107056,-0.6415418982505798,-0.432231605052948,-0.5318559408187866
2217661,9.21465015411377,0.06331302225589752,3.3098998069763184,-1.5098942518234253,0.9200145602226257,-0.3311850130558014,0.7019007802009583,-0.2942650020122528,-0.49591490626335144,-0.4181051552295685,9.599276542663574,0.23980961740016937,-1.9346628189086914,-0.6044853329658508,-1.4435703754425049,0.4440666139125824,0.34445732831954956,-0.6416777968406677,-0.432258278131485,-0.5317440629005432
2217828,9.25184440612793,0.024362947791814804,3.2668769359588623,-0.8833051323890686,0.6498005986213684,-0.1023099273443222,0.701851487159729,-0.2943553924560547,-0.49575358629226685,-0.4183156192302704,9.67083740234375,0.22757138311862946,-1.9683270454406738,-0.3619330823421478,-0.6398437023162842,0.5008884072303772,0.34438738226890564,-0.6417701840400696,-0.43221768736839294,-0.5317107439041138
2217994,9.238249778747559,0.06592290848493576,3.2509496212005615,-0.3037281930446625,1.1039776802062988,-0.056604065001010895,0.7018723487854004,-0.29435044527053833,-0.4955868124961853,-0.41848158836364746,9.623559951782227,0.2863504886627197,-1.939731240272522,-0.41119906306266785,-0.10685617476701736,0.05705868825316429,0.34427982568740845,-0.6418220400810242,-0.43214961886405945,-0.5317731499671936
2218161,9.272969245910645,0.003422430483624339,3.3052022457122803,0.16984421014785767,0.5212247967720032,0.22085188329219818,0.7018888592720032,-0.2943513095378876,-0.49549809098243713,-0.41855835914611816,9.618081092834473,0.29615288972854614,-1.9373352527618408,-0.44180622696876526,0.16750064492225647,-0.4203427731990814,0.3441520929336548,-0.6418216824531555,-0.4321138858795166,-0.5318853259086609
2218328,9.337170600891113,0.07050471007823944,3.4038639068603516,1.0662630796432495,0.13654769957065582,-0.36530113220214844,0.7018548846244812,-0.29427266120910645,-0.4955102801322937,-0.41865628957748413,9.599634170532227,0.2664138972759247,-1.9148956537246704,-0.46494731307029724,0.8692437410354614,-0.19392654299736023,0.344140887260437,-0.6417357325553894,-0.43208977580070496,-0.5320158004760742
2218494,9.285271644592285,0.13343366980552673,3.3489437103271484,0.8258494138717651,0.6355343461036682,-0.7880771160125732,0.7018630504608154,-0.29410719871520996,-0.4955042898654938,-0.4187657833099365,9.561842918395996,0.27057787775993347,-1.9389302730560303,-0.15811999142169952,1.0856902599334717,0.36799684166908264,0.3442107141017914,-0.6416561603546143,-0.4320213794708252,-0.5321220755577087
2218661,9.167622566223145,0.05489536002278328,3.397249221801758,1.2539783716201782,0.914994478225708,-0.395831435918808,0.7019145488739014,-0.2939305603504181,-0.49546635150909424,-0.41884827613830566,9.551458358764648,0.28069454431533813,-1.9065543413162231,0.15731960535049438,1.2706780433654785,0.8066527247428894,0.34435227513313293,-0.64157634973526,-0.4319240152835846,-0.5322058200836182
2218828,9.177467346191406,0.03907729685306549,3.3843491077423096,0.6997710466384888,-0.6222477555274963,0.4342953562736511,0.7018705010414124,-0.2939779758453369,-0.4955066442489624,-0.4188411831855774,9.519058227539062,0.3023783564567566,-1.8664014339447021,0.2440442144870758,1.1108932495117188,1.1930716037750244,0.3445071280002594,-0.6415402889251709,-0.43178826570510864,-0.5322592854499817
2218994,9.250307083129883,0.04927901551127434,3.3291852474212646,0.6420143246650696,-0.8674124479293823,0.369290292263031,0.7018595933914185,-0.2939741015434265,-0.49561038613319397,-0.4187396168708801,9.551002502441406,0.2997622489929199,-1.8802540302276611,0.23706476390361786,1.145355224609375,1.2625973224639893,0.34462907910346985,-0.6415372490882874,-0.431596964597702,-0.5323391556739807
2219161,9.21828842163086,0.10204020142555237,3.3460450172424316,0.9073362946510315,-0.5407353639602661,0.5860506296157837,0.7018740773200989,-0.2939656376838684,-0.49567165970802307,-0.4186485707759857,9.550528526306152,0.2577763795852661,-1.9096165895462036,0.3670235872268677,1.1758981943130493,1.1107394695281982,0.3447607457637787,-0.641508936882019,-0.43143805861473083,-0.5324167013168335
2219328,9.183696746826172,0.0722619965672493,3.3269176483154297,0.09061133861541748,-0.8817300200462341,0.4545678198337555,0.7018425464630127,-0.29402583837509155,-0.49573880434036255,-0.4185797870159149,9.549419403076172,0.21981804072856903,-1.881947636604309,0.6914340257644653,1.1637706756591797,1.0668907165527344,0.34496739506721497,-0.6414231657981873,-0.4313681125640869,-0.5324428677558899
2219494,9.233138084411621,0.04822159558534622,3.3269243240356445,0.7831786870956421,-0.47726699709892273,0.6003808975219727,0.7018159627914429,-0.2940748929977417,-0.4957564175128937,-0.4185689091682434,9.544455528259277,0.1982826292514801,-1.8732781410217285,1.1884994506835938,0.984097421169281,1.1915730237960815,0.34517693519592285,-0.6413676738739014,-0.4312838613986969,-0.5324423313140869
2219661,9.221287727355957,0.0779857262969017,3.3384056091308594,1.312247395515442,-0.3843441307544708,0.9430786967277527,0.701838493347168,-0.2940905690193176,-0.49578115344047546,-0.418491005897522,9.560648918151855,0.2450820803642273,-1.875429391860962,1.5507910251617432,0.7573098540306091,1.052931547164917,0.3453722298145294,-0.6413211822509766,-0.43122416734695435,-0.5324200391769409
2219828,9.200967788696289,0.0535714365541935,3.3444762229919434,0.9042243361473083,-0.618252158164978,0.9175172448158264,0.7018541097640991,-0.2941257059574127,-0.49582621455192566,-0.41838666796684265,9.558192253112793,0.27641919255256653,-1.8622561693191528,1.422971248626709,0.8412171602249146,0.5845650434494019,0.3455743193626404,-0.641204833984375,-0.43125417828559875,-0.5324046015739441
2219994,9.21894645690918,0.05744533613324165,3.346287488937378,0.84188312292099,-0.5746593475341797,0.8760247826576233,0.7018282413482666,-0.2942081689834595,-0.4958365857601166,-0.4183596670627594,9.505982398986816,0.289561003446579,-1.864987850189209,1.1533079147338867,0.5834765434265137,0.4531590938568115,0.3457156717777252,-0.6411204934120178,-0.4312780201435089,-0.53239506483078
2220161,9.24195671081543,0.06237752363085747,3.3799078464508057,0.9475995302200317,-0.2081671953201294,0.7386254668235779,0.7018770575523376,-0.2941858768463135,-0.4958582818508148,-0.4182678759098053,9.59108829498291,0.2704826295375824,-1.8593729734420776,0.8563798666000366,0.36056917905807495,0.7527508735656738,0.34582871198654175,-0.6410943865776062,-0.4312513768672943,-0.5323747992515564
2220328,9.21436882019043,0.09372562915086746,3.328122138977051,0.862501323223114,-0.5177607536315918,0.7294304966926575,0.7018684148788452,-0.29422691464424133,-0.4958842694759369,-0.4182225465774536,9.527288436889648,0.28612345457077026,-1.8494237661361694,0.605080783367157,0.19327983260154724,0.5647792220115662,0.3458685874938965,-0.6411007642745972,-0.4312026798725128,-0.5323805212974548
2220494,9.24625015258789,0.00908595509827137,3.2669565677642822,0.9712527990341187,-0.7467638254165649,1.1243654489517212,0.7018547654151917,-0.2943188548088074,-0.49591150879859924,-0.41814854741096497,9.561627388000488,0.3441777229309082,-1.8582688570022583,0.009291006252169609,-0.14773403108119965,0.3812898099422455,0.34581807255744934,-0.6411507725715637,-0.4311436116695404,-0.532400906085968
2220661,9.290021896362305,0.065912164747715,3.393033981323242,1.5527122020721436,-0.47628089785575867,0.8413193821907043,0.7019169926643372,-0.29425737261772156,-0.4959931969642639,-0.417990505695343,9.537161827087402,0.31030750274658203,-1.8667479753494263,-0.5598039627075195,-0.3001552224159241,0.24059931933879852,0.3457237780094147,-0.6412073373794556,-0.4310986399650574,-0.5324304699897766
2220828,9.26497745513916,0.1245575100183487,3.2519712448120117,1.3701577186584473,-0.9180871248245239,0.392930805683136,0.7019267082214355,-0.2941916286945343,-0.496137797832489,-0.4178487956523895,9.584027290344238,0.26326385140419006,-1.887395977973938,-0.6177014708518982,-0.5627365708351135,0.5554690361022949,0.34564122557640076,-0.6412981152534485,-0.43104588985443115,-0.5324174761772156
2220994,9.226238250732422,0.12153840810060501,3.330528974533081,1.2955480813980103,0.18175412714481354,0.25818243622779846,0.7019791007041931,-0.29408547282218933,-0.4961549937725067,-0.41781502962112427,9.554234504699707,0.2348490208387375,-1.8634124994277954,-0.38590654730796814,-0.31299999356269836,0.9427458643913269,0.345619797706604,-0.6413867473602295,-0.43095558881759644,-0.5323978066444397
2221161,9.22103500366211,0.05975477024912834,3.345716714859009,0.7282138466835022,-0.6833339929580688,0.7363075017929077,0.7019471526145935,-0.2941552400588989,-0.4961869418621063,-0.4177817106246948,9.55813217163086,0.2514849305152893,-1.8774996995925903,-0.06585025042295456,-0.4841696619987488,1.2086182832717896,0.345605731010437,-0.6415146589279175,-0.4308353066444397,-0.5323500633239746
2221328,9.277557373046875,0.042995646595954895,3.315974473953247,0.7151129245758057,-0.7388750910758972,0.6747729182243347,0.7019845843315125,-0.29413333535194397,-0.49628061056137085,-0.41762298345565796,9.568161964416504,0.24776747822761536,-1.8690619468688965,0.034890905022621155,-0.3195696771144867,1.1409498453140259,0.34565016627311707,-0.6415846347808838,-0.4307747185230255,-0.5322859287261963
2221494,9.225913047790527,0.07294926047325134,3.3624212741851807,0.6519649028778076,-0.2681649327278137,0.8117112517356873,0.7020018100738525,-0.2941695749759674,-0.49627459049224854,-0.4175755977630615,9.545215606689453,0.24153345823287964,-1.879550814628601,0.0917510911822319,-0.21743901073932648,0.7702315449714661,0.3456566035747528,-0.6416369676589966,-0.4307231307029724,-0.5322604775428772
2221661,9.206473350524902,0.09381460398435593,3.3533775806427,-0.09593235701322556,-0.3966253995895386,0.5181640982627869,0.702003002166748,-0.2942178547382355,-0.4962784945964813,-0.4175350069999695,9.549954414367676,0.22337706387043,-1.8497896194458008,0.13260334730148315,-0.3277145028114319,0.5774959325790405,0.34562429785728455,-0.6416999697685242,-0.4306737780570984,-0.5322454571723938
2221828,9.235916137695312,0.06480087339878082,3.3417153358459473,-0.292727530002594,-0.46986493468284607,0.2963325083255768,0.701931893825531,-0.2943272590637207,-0.496255487203598,-0.4176046848297119,9.561500549316406,0.2320314645767212,-1.8650144338607788,0.31098297238349915,-0.5286588668823242,0.6627861261367798,0.34561610221862793,-0.6417638659477234,-0.4306563138961792,-0.5321876406669617
2221994,9.237947463989258,0.03793998435139656,3.3367910385131836,0.15126219391822815,-0.45167994499206543,0.6363667845726013,0.7019091844558716,-0.29440566897392273,-0.49624812602996826,-0.41759639978408813,9.573334693908691,0.24144616723060608,-1.8678910732269287,0.37443849444389343,-0.5321423411369324,0.5722710490226746,0.34563982486724854,-0.6417924761772156,-0.4306926429271698,-0.5321085453033447
2222161,9.217970848083496,0.06915933638811111,3.340536117553711,0.49462607502937317,-0.5901806354522705,0.5745888948440552,0.7018958926200867,-0.2944432497024536,-0.4962838590145111,-0.41754987835884094,9.560181617736816,0.2540823817253113,-1.857700228691101,0.3067953288555145,-0.528799831867218,0.5608861446380615,0.34566056728363037,-0.6418198347091675,-0.4307297170162201,-0.5320320129394531
2222328,9.23216724395752,0.062409624457359314,3.339885711669922,0.5809920430183411,-0.7031453847885132,0.5440201163291931,0.7018835544586182,-0.294467568397522,-0.4963425099849701,-0.41748353838920593,9.535112380981445,0.27509260177612305,-1.8527579307556152,0.095016710460186,-0.7015318274497986,0.4456802010536194,0.3456721603870392,-0.6418389678001404,-0.4308071732521057,-0.5319387316703796
2222494,9.254781723022461,0.044185660779476166,3.3297548294067383,0.5176901817321777,-0.6299058198928833,0.39248257875442505,0.7018285393714905,-0.294525682926178,-0.4963705837726593,-0.41750168800354004,9.545331001281738,0.25808724761009216,-1.8667811155319214,-0.09759718179702759,-1.0021225214004517,0.4138179421424866,0.3456301689147949,-0.6418997049331665,-0.43087124824523926,-0.5318407416343689
2222661,9.2493257522583,0.06702146679162979,3.324502944946289,0.5222365260124207,-0.5986840128898621,0.403560072183609,0.7018153071403503,-0.2945360839366913,-0.4964224398136139,-0.41745510697364807,9.552328109741211,0.2648555040359497,-1.885616421699524,-0.24706009030342102,-1.1379081010818481,0.3532567620277405,0.34553778171539307,-0.6419926285743713,-0.43090909719467163,-0.5317580699920654
2222828,9.240283012390137,0.06265515089035034,3.3398163318634033,0.3747585713863373,-0.6373719573020935,0.38481155037879944,0.7017724514007568,-0.29458528757095337,-0.4964562654495239,-0.4174520671367645,9.570120811462402,0.26996198296546936,-1.8930145502090454,-0.37908077239990234,-1.1391505002975464,0.4082728326320648,0.3454313278198242,-0.6420996189117432,-0.43092548847198486,-0.5316848158836365
2222994,9.259918212890625,0.07472436875104904,3.293733835220337,0.42260313034057617,-0.6734858751296997,0.3546013832092285,0.7017036080360413,-0.2946571111679077,-0.49648118019104004,-0.4174874722957611,9.582132339477539,0.28556689620018005,-1.9145855903625488,-0.5404792428016663,-0.9766634702682495,0.4253564774990082,0.34532174468040466,-0.6422020196914673,-0.43092113733291626,-0.5316356420516968
2223161,9.251901626586914,0.08222149312496185,3.3309760093688965,0.6099343299865723,-0.4932493269443512,0.4786053001880646,0.7016955614089966,-0.29466941952705383,-0.49651679396629333,-0.4174499809741974,9.566088676452637,0.27529698610305786,-1.9152277708053589,-0.46220675110816956,-0.7892040610313416,0.6402341723442078,0.34524285793304443,-0.6423026919364929,-0.4308888018131256,-0.5315914750099182
2223328,9.237884521484375,0.0651853084564209,3.343600273132324,0.6002335548400879,-0.551851212978363,0.41393962502479553,0.7016603350639343,-0.29470324516296387,-0.49654731154441833,-0.4174489676952362,9.560469627380371,0.23562632501125336,-1.9046980142593384,-0.3052777945995331,-0.6098511815071106,0.8527299761772156,0.34518513083457947,-0.6424111723899841,-0.4308152198791504,-0.531557559967041
2223494,9.235269546508789,0.07805072516202927,3.3450090885162354,0.4598439931869507,-0.389735609292984,0.394710898399353,0.7016218900680542,-0.294748991727829,-0.4965478181838989,-0.4174807369709015,9.542991638183594,0.23915834724903107,-1.9127854108810425,-0.03923865407705307,-0.47566622495651245,0.8478379845619202,0.345207154750824,-0.6424579620361328,-0.430812805891037,-0.5314887166023254
2223661,9.238856315612793,0.06330244243144989,3.341583013534546,0.41198667883872986,-0.2607244849205017,0.5694791674613953,0.7015873789787292,-0.2948206663131714,-0.4965144693851471,-0.4175276756286621,9.556658744812012,0.2440890520811081,-1.9199060201644897,0.15894600749015808,-0.46566447615623474,0.9149688482284546,0.3451997637748718,-0.642540454864502,-0.43075501918792725,-0.5314404964447021
2223828,9.231549263000488,0.060162294656038284,3.34012770652771,0.23716719448566437,-0.37783849239349365,0.6754900813102722,0.7015367150306702,-0.29493245482444763,-0.4964730441570282,-0.4175831973552704,9.572592735290527,0.24727481603622437,-1.9073055982589722,0.40618541836738586,-0.3808480501174927,1.0036016702651978,0.3452138304710388,-0.6426202654838562,-0.43068769574165344,-0.5313894748687744
2223994,9.2329683303833,0.04590485990047455,3.328866958618164,0.3173605501651764,-0.2919975817203522,0.782051682472229,0.7015472650527954,-0.2949846684932709,-0.49645471572875977,-0.4175502359867096,9.546609878540039,0.24736343324184418,-1.9153029918670654,0.5397940278053284,-0.16051478683948517,0.9255468845367432,0.3453415632247925,-0.6425961852073669,-0.43074092268943787,-0.5312924981117249
2224161,9.245625495910645,0.058202773332595825,3.3310368061065674,0.23632195591926575,-0.17416633665561676,0.7643405199050903,0.7015714049339294,-0.29502546787261963,-0.49642661213874817,-0.41751423478126526,9.549301147460938,0.2386750429868698,-1.9267480373382568,0.6428595185279846,-0.21559491753578186,0.9764265418052673,0.34543460607528687,-0.6426100134849548,-0.43074601888656616,-0.5312111377716064
2224328,9.215973854064941,0.04979022964835167,3.321743965148926,0.14037679135799408,-0.47505152225494385,0.916275143623352,0.7015541791915894,-0.29513436555862427,-0.4963991343975067,-0.41749900579452515,9.571781158447266,0.23740842938423157,-1.90134859085083,0.7283419370651245,-0.3401878774166107,1.0070210695266724,0.3455181419849396,-0.6426401138305664,-0.4307478070259094,-0.5311189889907837
2224494,9.246297836303711,0.03423820436000824,3.340057134628296,0.3197297155857086,-0.5698953866958618,0.928466796875,0.7015543580055237,-0.29521289467811584,-0.49640247225761414,-0.417439341545105,9.550045013427734,0.24535086750984192,-1.9050278663635254,0.7038562893867493,-0.47240063548088074,0.9222813248634338,0.3455863296985626,-0.6426740288734436,-0.4307655692100525,-0.5310191512107849
2224661,9.237581253051758,0.02381853014230728,3.326115369796753,0.48083364963531494,-0.34595075249671936,1.035463809967041,0.701574981212616,-0.295279860496521,-0.49638131260871887,-0.41738247871398926,9.54089641571045,0.2526973485946655,-1.9159905910491943,0.6098447442054749,-0.7398356199264526,0.7946020364761353,0.34560626745224,-0.6427351236343384,-0.4307863116264343,-0.530915379524231
2224828,9.219045639038086,0.04976709187030792,3.315274953842163,0.3181929588317871,-0.42372366786003113,1.0150632858276367,0.7015825510025024,-0.29536566138267517,-0.49635928869247437,-0.4173350930213928,9.547304153442383,0.25142350792884827,-1.8987984657287598,0.42585596442222595,-0.9475545883178711,0.768310546875,0.3456268310546875,-0.6427929401397705,-0.4308467209339142,-0.53078293800354
2224995,9.240692138671875,0.045507192611694336,3.323853015899658,0.45082834362983704,-0.6013093590736389,0.9784756302833557,0.7015774846076965,-0.2954498827457428,-0.4963623881340027,-0.417280375957489,9.564217567443848,0.2523748576641083,-1.9046130180358887,0.2934255003929138,-1.1511244773864746,0.740738570690155,0.34560781717300415,-0.6428806781768799,-0.43089547753334045,-0.5306494832038879
2225161,9.26101016998291,0.04322998598217964,3.301475763320923,0.19147412478923798,-0.4205476939678192,0.8933901190757751,0.7016093134880066,-0.29549506306648254,-0.49636363983154297,-0.417193204164505,9.545807838439941,0.2556210160255432,-1.927492380142212,0.12093675881624222,-1.093277931213379,0.648686408996582,0.34558045864105225,-0.6429573893547058,-0.4309508204460144,-0.5305293798446655
2225328,9.24816608428955,0.05327858403325081,3.3247203826904297,0.4350892901420593,-0.4103410542011261,0.9213592410087585,0.7015947699546814,-0.2955876588821411,-0.4963349401950836,-0.41718626022338867,9.54989242553711,0.2493313103914261,-1.9031034708023071,-0.05618146061897278,-1.2917380332946777,0.660378634929657,0.3454776406288147,-0.6430960297584534,-0.43094533681869507,-0.5304328799247742
2225495,9.242120742797852,0.04746316373348236,3.3144643306732178,0.7030750513076782,-0.6404967308044434,0.8804557919502258,0.701617956161499,-0.29560935497283936,-0.4963800609111786,-0.4170781672000885,9.545475959777832,0.24484938383102417,-1.9206727743148804,-0.09664953500032425,-1.376913070678711,0.6614671945571899,0.3453778028488159,-0.6432328820228577,-0.430956095457077,-0.5303230285644531
2225661,9.250985145568848,0.04064958542585373,3.324697494506836,0.6926249861717224,-0.7164896130561829,0.8391552567481995,0.7016041874885559,-0.29566773772239685,-0.4964134693145752,-0.4170202314853668,9.540897369384766,0.23860964179039001,-1.9427679777145386,-0.09025915712118149,-1.4943345785140991,0.5685186982154846,0.3453010618686676,-0.6433427333831787,-0.4310276210308075,-0.5301815867424011
2225828,9.25732135772705,0.045335426926612854,3.302239179611206,0.7090556025505066,-0.6277416944503784,0.7410202622413635,0.7015977501869202,-0.29570433497428894,-0.4964473247528076,-0.4169647991657257,9.55005168914795,0.22266726195812225,-1.9515349864959717,-0.1575949490070343,-1.4971648454666138,0.5376042723655701,0.3451688885688782,-0.6434907913208008,-0.4310414493083954,-0.5300768613815308
2225995,9.249149322509766,0.049974314868450165,3.3211514949798584,0.6042868494987488,-0.8283019661903381,0.7259086966514587,0.7015621066093445,-0.29577356576919556,-0.4964892566204071,-0.4169258773326874,9.530526161193848,0.2492441087961197,-1.948665738105774,-0.15671129524707794,-1.40786612033844,0.483177125453949,0.3450803756713867,-0.6435941457748413,-0.43110841512680054,-0.5299545526504517
2226161,9.254780769348145,0.04484333097934723,3.2859983444213867,0.3698793351650238,-0.825253963470459,0.5590676069259644,0.7015253901481628,-0.2958315312862396,-0.49653735756874084,-0.4168891906738281,9.546533584594727,0.23763097822666168,-1.9613573551177979,-0.13935869932174683,-1.2690324783325195,0.5792376399040222,0.34499749541282654,-0.6437011957168579,-0.431146502494812,-0.5298473834991455
2226328,9.264474868774414,0.05657925456762314,3.297267436981201,0.7699882388114929,-0.5093981623649597,0.614672839641571,0.701493501663208,-0.2958792448043823,-0.49654754996299744,-0.4168968200683594,9.54952335357666,0.25904348492622375,-1.9768437147140503,-0.11480891704559326,-1.02681303024292,0.5076757073402405,0.3449390232563019,-0.6437734961509705,-0.4311971068382263,-0.5297564268112183
2226495,9.249764442443848,0.03302343934774399,3.316659688949585,0.6894233822822571,-0.5226783156394958,0.6284651756286621,0.7015106678009033,-0.29587361216545105,-0.4965916574001312,-0.41681936383247375,9.56334400177002,0.24696794152259827,-1.9543075561523438,-0.04539850726723671,-0.6996236443519592,0.5637162923812866,0.3448905348777771,-0.6438371539115906,-0.4312064051628113,-0.5297030806541443
2226661,9.24177074432373,0.04576678201556206,3.310631513595581,0.9483166933059692,-0.4257343113422394,0.6026092171669006,0.7014964818954468,-0.2958909869194031,-0.49660801887512207,-0.416811466217041,9.553227424621582,0.254020094871521,-1.9501430988311768,0.046198904514312744,-0.5431941151618958,0.7504328489303589,0.3448936641216278,-0.6438800692558289,-0.43122151494026184,-0.529636561870575
2226828,9.228595733642578,0.04690955951809883,3.335891008377075,0.9231264591217041,-0.4500279426574707,0.5808255672454834,0.7014744877815247,-0.29591500759124756,-0.4966234564781189,-0.4168131947517395,9.542563438415527,0.24866212904453278,-1.9753822088241577,-0.01924794353544712,-0.37745431065559387,0.7536344528198242,0.34488946199417114,-0.6439226269721985,-0.4312092363834381,-0.5295975804328918
2226995,9.236250877380371,0.04693550989031792,3.3142125606536865,0.6579838395118713,-0.5293632745742798,0.5501927733421326,0.7014729976654053,-0.2959209978580475,-0.4966602027416229,-0.41676732897758484,9.532008171081543,0.23727522790431976,-1.9734536409378052,0.212707057595253,-0.32941773533821106,0.814656674861908,0.34491127729415894,-0.6439557075500488,-0.4312037527561188,-0.5295476317405701
2227161,9.251824378967285,0.04864232987165451,3.3143348693847656,0.4799243211746216,-0.3886086940765381,0.5918518304824829,0.7015035152435303,-0.29590731859207153,-0.4966892898082733,-0.41669130325317383,9.53607177734375,0.23432810604572296,-1.9587396383285522,0.2136291116476059,-0.5978643894195557,0.9559875726699829,0.3449445068836212,-0.6440038084983826,-0.4312211573123932,-0.5294533967971802
2227328,9.25692081451416,0.026125332340598106,3.3036623001098633,0.4261761009693146,-0.389735609292984,0.7682465314865112,0.7014784812927246,-0.2959878444671631,-0.4966614544391632,-0.4167092442512512,9.557428359985352,0.20719358325004578,-1.9752742052078247,0.4796554148197174,-0.6840895414352417,1.0517535209655762,0.34499871730804443,-0.644055187702179,-0.43124812841415405,-0.5293334126472473
2227495,9.254146575927734,0.0333014652132988,3.2871479988098145,0.6050296425819397,-0.29471251368522644,0.8678926825523376,0.7015272378921509,-0.2959880530834198,-0.4966685175895691,-0.4166186451911926,9.551791191101074,0.2058996707201004,-1.983871579170227,0.6993483304977417,-0.38971003890037537,0.9833419322967529,0.3450700342655182,-0.6440821886062622,-0.43126368522644043,-0.5292414426803589
2227661,9.271455764770508,0.037800565361976624,3.3141119480133057,0.5987672805786133,-0.28755372762680054,0.9445897936820984,0.7015836834907532,-0.29599031805992126,-0.4966734051704407,-0.41651612520217896,9.48652172088623,0.2428082823753357,-1.9720207452774048,0.8987689018249512,-0.4138500392436981,0.7571050524711609,0.34516116976737976,-0.6440699696540833,-0.43134254217147827,-0.5291327238082886
2227828,9.280207633972168,0.015812410041689873,3.3436129093170166,0.8296402096748352,-0.08824855834245682,0.962134599685669,0.7016464471817017,-0.29598066210746765,-0.49665743112564087,-0.4164362847805023,9.525964736938477,0.23040486872196198,-1.991396427154541,0.7004880905151367,-1.0246872901916504,0.536746084690094,0.3451703190803528,-0.6441071033477783,-0.4314483106136322,-0.5289952754974365
2227995,9.239479064941406,0.008741878904402256,3.3034069538116455,0.6099088191986084,-0.02972353994846344,0.9281082153320312,0.7016770243644714,-0.2960171401500702,-0.4966052174568176,-0.41642114520072937,9.583403587341309,0.20584474503993988,-1.998957633972168,0.7139732241630554,-0.7614911794662476,0.5919030904769897,0.34520673751831055,-0.6441221237182617,-0.4315440356731415,-0.5288750529289246
2228161,9.230744361877441,0.05790675804018974,3.253570079803467,0.5910578966140747,0.033328525722026825,0.7128974199295044,0.7016907334327698,-0.2960454225540161,-0.49654895067214966,-0.4164451062679291,9.554950714111328,0.2533215880393982,-1.9870105981826782,0.6485839486122131,-0.8175317049026489,0.14654946327209473,0.34516844153404236,-0.6441417932510376,-0.431641161441803,-0.5287968516349792
2228328,9.276779174804688,-0.01998043805360794,3.2754738330841064,0.6619794368743896,-0.040775418281555176,0.8183193206787109,0.7017255425453186,-0.2960575222969055,-0.496512770652771,-0.4164208769798279,9.566088676452637,0.2879898250102997,-1.9704458713531494,0.2551345229148865,-0.8283915519714355,-0.17284730076789856,0.3450770080089569,-0.6441537141799927,-0.43175143003463745,-0.5287519097328186
2228495,9.303462982177734,0.020870551466941833,3.3808059692382812,1.157789945602417,-0.045129578560590744,0.5642285943031311,0.7017708420753479,-0.2959952652454376,-0.49652165174484253,-0.41637808084487915,9.541189193725586,0.2979123592376709,-1.9789694547653198,-0.3098624050617218,-0.5318989157676697,-0.007286813110113144,0.3449617028236389,-0.6441826820373535,-0.4317862391471863,-0.5287636518478394
2228661,9.263354301452637,0.10638219863176346,3.287461757659912,1.0477451086044312,0.47724777460098267,-0.018402723595499992,0.7017848491668701,-0.29590532183647156,-0.49647387862205505,-0.4164753258228302,9.550325393676758,0.28509342670440674,-1.973386287689209,-0.5686531662940979,-0.5484447479248047,0.3519761562347412,0.3448573350906372,-0.6442404389381409,-0.43178048729896545,-0.5287659764289856
2228828,9.205204010009766,0.05359330773353577,3.3508291244506836,1.1902925968170166,0.2850757837295532,0.08762744814157486,0.7018637657165527,-0.2957403063774109,-0.49649807810783386,-0.4164309501647949,9.575345993041992,0.2626885175704956,-1.941088080406189,-0.5941249132156372,-0.1926587074995041,0.8542283177375793,0.3447706699371338,-0.6443356871604919,-0.4316585958003998,-0.5288057923316956
2228995,9.278599739074707,0.016084715723991394,3.3532159328460693,0.5127469897270203,-0.7431268692016602,0.7595126032829285,0.7018646597862244,-0.29577282071113586,-0.4965459704399109,-0.41634929180145264,9.559831619262695,0.26382899284362793,-1.9539916515350342,-0.6644702553749084,0.02397988922894001,1.191329836845398,0.3447359502315521,-0.6444228291511536,-0.4315132200717926,-0.528840959072113
2229161,9.265168190002441,0.022152911871671677,3.319789409637451,0.826899528503418,-0.15030811727046967,0.6069377064704895,0.7019069790840149,-0.29573312401771545,-0.49655431509017944,-0.41629618406295776,9.548633575439453,0.2604415714740753,-1.947898507118225,-0.630712628364563,0.16326174139976501,1.3277814388275146,0.34473931789398193,-0.6444928050041199,-0.43137088418006897,-0.52886962890625
2229328,9.189193725585938,0.06041846424341202,3.337221622467041,0.6969407200813293,-0.15695461630821228,0.6864395141601562,0.7019490599632263,-0.2957117259502411,-0.4965524673461914,-0.416242390871048,9.545783996582031,0.21982136368751526,-1.937532901763916,-0.3401622474193573,0.12394625693559647,1.1744894981384277,0.3447400629520416,-0.6445536613464355,-0.4312484860420227,-0.5288949012756348
2229495,9.225508689880371,0.05025433748960495,3.340245008468628,-0.14939886331558228,-0.6691317558288574,0.49334537982940674,0.701887309551239,-0.2958155870437622,-0.49654629826545715,-0.4162799119949341,9.518500328063965,0.15363642573356628,-1.9427683353424072,0.20971037447452545,-0.02320510521531105,1.309250831604004,0.34484174847602844,-0.6445666551589966,-0.4312238395214081,-0.528832733631134
2229661,9.259000778198242,0.02182559296488762,3.318026542663574,0.24459484219551086,-0.3597303628921509,0.5904174447059631,0.7018871307373047,-0.2958478033542633,-0.4965396225452423,-0.41626542806625366,9.50256061553955,0.1446370929479599,-1.9603493213653564,0.9789236187934875,-0.46504977345466614,1.3439687490463257,0.34495362639427185,-0.6446078419685364,-0.431230366230011,-0.5287043452262878
2229828,9.224764823913574,0.006442979443818331,3.3320300579071045,0.6495829820632935,-0.28066396713256836,0.9480862021446228,0.7018918395042419,-0.2959076464176178,-0.49650469422340393,-0.41625672578811646,9.560898780822754,0.17676107585430145,-1.9794846773147583,1.5878018140792847,-0.6941298246383667,1.2674765586853027,0.3451032340526581,-0.6446305513381958,-0.4313035011291504,-0.5285192728042603
2229995,9.215278625488281,0.018066762015223503,3.3026320934295654,0.37942013144493103,-0.6313530206680298,0.9918709993362427,0.7018901705741882,-0.295986145734787,-0.4965069591999054,-0.41620099544525146,9.576047897338867,0.20407292246818542,-1.9818552732467651,1.8923368453979492,-0.4100337326526642,1.0187643766403198,0.345309317111969,-0.6445767283439636,-0.43144580721855164,-0.5283341407775879
2230161,9.250118255615234,-0.017218386754393578,3.311037302017212,0.4161871373653412,-0.367708683013916,1.00052809715271,0.7019124031066895,-0.29604169726371765,-0.4964863359928131,-0.4161485731601715,9.510519027709961,0.21962694823741913,-1.9937680959701538,1.5857912302017212,-0.1497574746608734,0.7327345609664917,0.3454985022544861,-0.6444852352142334,-0.43160122632980347,-0.5281951427459717
2230328,9.253692626953125,0.0040937685407698154,3.3515167236328125,0.7859193086624146,-0.26098060607910156,1.0639835596084595,0.7019753456115723,-0.29604217410087585,-0.49648359417915344,-0.41604527831077576,9.571054458618164,0.20579858124256134,-1.9992398023605347,1.4681904315948486,-0.47977715730667114,0.9019448757171631,0.34562909603118896,-0.6444680690765381,-0.43169865012168884,-0.52805095911026
2230495,9.223215103149414,0.032057058066129684,3.3479716777801514,0.9340632557868958,-0.3012949824333191,0.9695240259170532,0.7020260095596313,-0.2960353195667267,-0.49649015069007874,-0.41595685482025146,9.51335334777832,0.2281384915113449,-2.0085806846618652,1.1892296075820923,-0.20424845814704895,0.8446875810623169,0.34574925899505615,-0.6444374322891235,-0.4317704737186432,-0.5279509425163269
2230661,9.234771728515625,-0.012565897777676582,3.2864954471588135,0.48409920930862427,-0.8740846514701843,1.227431058883667,0.7020303010940552,-0.2961290180683136,-0.4965154826641083,-0.41585278511047363,9.509093284606934,0.2953106462955475,-1.9956027269363403,0.5046405792236328,-0.8260607719421387,0.4416333734989166,0.3457196354866028,-0.6444761753082275,-0.43183982372283936,-0.5278663635253906
2230828,9.314372062683105,0.010978189297020435,3.34326434135437,1.1757957935333252,-0.7955433130264282,1.0930155515670776,0.7020525336265564,-0.2961491048336029,-0.4965733587741852,-0.4157317578792572,9.569426536560059,0.28688693046569824,-1.9918365478515625,-0.27198123931884766,-0.7035168409347534,0.2445436716079712,0.3456227481365204,-0.6445202231407166,-0.4318805932998657,-0.5278425216674805
2230995,9.275822639465332,0.06817319989204407,3.2491414546966553,0.8200353980064392,-0.7473145127296448,0.6346251368522644,0.7020470499992371,-0.29615533351898193,-0.49663296341896057,-0.41566556692123413,9.579574584960938,0.23197409510612488,-2.0108561515808105,-0.7385550141334534,-0.45842885971069336,0.3408345878124237,0.34549328684806824,-0.6445837616920471,-0.43185070157051086,-0.5278741717338562
2231161,9.244686126708984,0.10064096748828888,3.2852208614349365,0.9230625033378601,-0.026880530640482903,0.2505626380443573,0.7020537257194519,-0.29610416293144226,-0.4966270625591278,-0.41569754481315613,9.540640830993652,0.2024228572845459,-1.9962623119354248,-0.7207541465759277,-0.14601801335811615,0.579596221446991,0.345411092042923,-0.6446306705474854,-0.4317946434020996,-0.5279165506362915
2231328,9.263582229614258,0.041071586310863495,3.290983200073242,0.5425986051559448,-0.8233073949813843,0.633574903011322,0.7020528316497803,-0.29611480236053467,-0.4966951906681061,-0.4156102240085602,9.535998344421387,0.19188787043094635,-2.0134799480438232,-0.5538234114646912,-0.1386287361383438,0.9037889838218689,0.34537896513938904,-0.644680917263031,-0.4317331314086914,-0.5279265642166138
2231495,9.306859016418457,0.007450769189745188,3.2557833194732666,0.67341548204422,-0.5899116396903992,0.6189372539520264,0.7020450830459595,-0.2961310148239136,-0.49672725796699524,-0.41557350754737854,9.549412727355957,0.2039525806903839,-2.0252509117126465,-0.3584368824958801,0.010584447532892227,0.8244919180870056,0.3453686535358429,-0.644705057144165,-0.4316866099834442,-0.5279419422149658
2231661,9.24854564666748,0.020671291276812553,3.313152551651001,1.1718770265579224,-0.1354527622461319,0.5571978688240051,0.7021076679229736,-0.2960400879383087,-0.49676063656806946,-0.4154924154281616,9.553991317749023,0.20116522908210754,-2.0266544818878174,-0.24986468255519867,0.2576061189174652,0.6055033802986145,0.3453589379787445,-0.6446974277496338,-0.43164730072021484,-0.5279896855354309
2231828,9.23090648651123,0.03717849403619766,3.2921135425567627,0.13755939900875092,-0.6744592189788818,0.3978100121021271,0.7020881175994873,-0.29606255888938904,-0.4968012273311615,-0.41546085476875305,9.55119800567627,0.1934012770652771,-2.011620283126831,0.05650801584124565,0.5938368439674377,0.41399726271629333,0.3453851342201233,-0.644635796546936,-0.4316342771053314,-0.5280585289001465
2231995,9.274282455444336,0.021121080964803696,3.277898073196411,-0.015188329853117466,-0.23312678933143616,0.21580618619918823,0.7020427584648132,-0.2961089611053467,-0.4967661499977112,-0.41554662585258484,9.540140151977539,0.19367936253547668,-2.0110056400299072,0.3786902129650116,0.7257934808731079,0.4477163851261139,0.3454468250274658,-0.6445545554161072,-0.43162885308265686,-0.5281216502189636
2232161,9.243759155273438,0.017079966142773628,3.282182216644287,0.18495570123195648,-0.1270005851984024,0.3481854200363159,0.7020223140716553,-0.296137273311615,-0.49672698974609375,-0.41560766100883484,9.540321350097656,0.21446672081947327,-1.990776777267456,0.5518704056739807,0.6390048265457153,0.5118377804756165,0.3455345928668976,-0.6444664001464844,-0.43164941668510437,-0.5281550884246826
2232328,9.236753463745117,0.005505545064806938,3.3245277404785156,0.5592469573020935,-0.30572596192359924,0.58565354347229,0.7020131945610046,-0.2961624264717102,-0.49671435356140137,-0.41562020778656006,9.513096809387207,0.22771531343460083,-1.9848650693893433,0.7009490728378296,0.43501245975494385,0.4337446391582489,0.34562036395072937,-0.6443788409233093,-0.4317029118537903,-0.5281620621681213
2232495,9.268177032470703,0.021582644432783127,3.3008785247802734,0.5446988940238953,-0.25832971930503845,0.37812671065330505,0.7019992470741272,-0.29616549611091614,-0.4967077076435089,-0.4156493544578552,9.542947769165039,0.23883700370788574,-1.9551483392715454,0.5311241745948792,0.18331649899482727,0.35884028673171997,0.3456445038318634,-0.6443341970443726,-0.4317324161529541,-0.528176486492157
2232661,9.255743026733398,0.01943311095237732,3.301265001296997,0.39725932478904724,-0.24800771474838257,0.278083473443985,0.7019566297531128,-0.2961956858634949,-0.4966837167739868,-0.41572868824005127,9.539732933044434,0.26436397433280945,-1.975650668144226,0.31079089641571045,0.0414605550467968,0.318295419216156,0.34564319252967834,-0.6443023085594177,-0.43176648020744324,-0.5281885266304016
2232828,9.245779991149902,0.02224019356071949,3.2980146408081055,0.3354302942752838,-0.20842333137989044,0.30417001247406006,0.7019462585449219,-0.29619503021240234,-0.49667271971702576,-0.4157596528530121,9.531719207763672,0.262937068939209,-1.9629729986190796,-0.010321917943656445,-0.04379771649837494,0.40481510758399963,0.34561413526535034,-0.6442973613739014,-0.431773841381073,-0.528207540512085
2232995,9.263778686523438,0.036312807351350784,3.325286388397217,0.4622771739959717,-0.06220043823122978,0.3705068826675415,0.7019737362861633,-0.296156108379364,-0.4966645836830139,-0.4157509207725525,9.5142240524292,0.25932151079177856,-1.9537750482559204,-0.3868926167488098,-0.2641821801662445,0.5599640011787415,0.34557756781578064,-0.6443123817443848,-0.4317883849143982,-0.5282012224197388
2233161,9.264068603515625,0.02538023516535759,3.3134171962738037,0.6236884593963623,-0.10572922229766846,0.43766340613365173,0.7020056843757629,-0.2961116135120392,-0.4966653883457184,-0.41572773456573486,9.514348983764648,0.242092102766037,-1.9657644033432007,-0.5465621948242188,-0.4974370300769806,0.6823158860206604,0.34550413489341736,-0.6443740129470825,-0.4317707121372223,-0.5281885862350464
2233328,9.245468139648438,0.04298378899693489,3.311694383621216,0.7336565852165222,0.06334660947322845,0.4754549562931061,0.7020341157913208,-0.29607582092285156,-0.4966369867324829,-0.41573911905288696,9.549178123474121,0.2488979995250702,-1.9696112871170044,-0.47047969698905945,-0.5170180201530457,0.813158392906189,0.34544986486434937,-0.6444385647773743,-0.4317519962787628,-0.5281606912612915
2233495,9.251934051513672,0.05209818854928017,3.3003315925598145,0.48193496465682983,0.08089131116867065,0.4680144786834717,0.7020636200904846,-0.296050488948822,-0.496599942445755,-0.4157516360282898,9.572982788085938,0.22037576138973236,-1.9685250520706177,-0.3930141031742096,-0.2899869978427887,1.0413035154342651,0.345414936542511,-0.6445121169090271,-0.431681364774704,-0.5281515717506409
2233661,9.259126663208008,0.0326150506734848,3.2910873889923096,0.5288573503494263,0.043791308999061584,0.51494961977005,0.702117383480072,-0.29599905014038086,-0.49658384919166565,-0.41571667790412903,9.572559356689453,0.2076728343963623,-1.9759902954101562,-0.14395618438720703,0.028270019218325615,1.1416412591934204,0.34546858072280884,-0.6445229649543762,-0.43165385723114014,-0.528125524520874
2233828,9.229354858398438,0.031213996931910515,3.314987897872925,0.6361874341964722,0.38871750235557556,0.6414892673492432,0.7021899819374084,-0.29594674706459045,-0.4965202212333679,-0.41570714116096497,9.567498207092285,0.17619991302490234,-1.9873428344726562,0.16016261279582977,0.3702124059200287,1.0482574701309204,0.34554189443588257,-0.6445055603981018,-0.4316115379333496,-0.5281333923339844
2233995,9.239322662353516,0.020917462185025215,3.3063886165618896,0.6095117926597595,0.21050436794757843,0.6371735334396362,0.7022256255149841,-0.2959349751472473,-0.4964562654495239,-0.4157315790653229,9.561129570007324,0.18808044493198395,-1.9939302206039429,0.5229920148849487,0.7235267162322998,1.0034606456756592,0.34566640853881836,-0.6444413065910339,-0.43158164620399475,-0.528154730796814
2234161,9.235028266906738,0.0008570963982492685,3.3488380908966064,0.5037825703620911,0.17760485410690308,0.7071089744567871,0.7022947669029236,-0.29589715600013733,-0.49641314148902893,-0.415693461894989,9.54853630065918,0.17652879655361176,-1.9695088863372803,0.9081045985221863,0.9303620457649231,0.9359071254730225,0.3458280563354492,-0.6443430185317993,-0.4315687417984009,-0.528179407119751
2234328,9.224871635437012,0.013482806272804737,3.342388391494751,0.45296698808670044,0.02327553927898407,0.7308903932571411,0.7023375034332275,-0.29589301347732544,-0.4963705241680145,-0.4156748652458191,9.526924133300781,0.2065606713294983,-1.9459353685379028,1.1224702596664429,0.8028493523597717,0.9724950194358826,0.3460336923599243,-0.6442219614982605,-0.43161261081695557,-0.528156578540802
2234495,9.237314224243164,0.005447549745440483,3.3281383514404297,0.5023354291915894,0.06092621013522148,0.872887134552002,0.702394962310791,-0.29589056968688965,-0.49632126092910767,-0.41563838720321655,9.540968894958496,0.20689278841018677,-1.9556828737258911,1.1859511137008667,0.5633833408355713,0.902021586894989,0.34620872139930725,-0.6441249847412109,-0.431659072637558,-0.5281221270561218
2234661,9.247767448425293,0.006639870814979076,3.333530902862549,0.7762120962142944,0.15231232345104218,0.8928650617599487,0.70245361328125,-0.2958780527114868,-0.49626466631889343,-0.41561585664749146,9.556572914123535,0.22696293890476227,-1.9385451078414917,1.1430373191833496,0.6663849353790283,1.064841628074646,0.346375435590744,-0.6440515518188477,-0.43165189027786255,-0.5281082391738892
2234828,9.22882080078125,0.0056007858365774155,3.3340084552764893,0.7869182229042053,0.09056010842323303,1.008852243423462,0.7025505304336548,-0.29583388566970825,-0.49623581767082214,-0.4155178964138031,9.546732902526855,0.23903967440128326,-1.949065089225769,0.8800972700119019,0.4791432321071625,0.9431173205375671,0.3465113937854767,-0.6439852714538574,-0.4316653907299042,-0.5280887484550476
2234995,9.229227066040039,0.017992276698350906,3.324380397796631,0.5046661496162415,-0.32050448656082153,0.9726486206054688,0.7025861740112305,-0.2958618700504303,-0.4962201714515686,-0.41545629501342773,9.548011779785156,0.23754876852035522,-1.9404287338256836,0.663797914981842,0.3117513656616211,0.9368805289268494,0.3466193675994873,-0.6439390182495117,-0.43167635798454285,-0.5280655026435852
2235161,9.255309104919434,0.010193794965744019,3.324883222579956,0.5709391236305237,-0.1375017911195755,0.8865259885787964,0.7026333212852478,-0.2958652079105377,-0.49619385600090027,-0.4154057800769806,9.536208152770996,0.2233121544122696,-1.9533079862594604,0.3398100733757019,0.3114183843135834,0.9349082708358765,0.3466847836971283,-0.6439189910888672,-0.4316466152667999,-0.5280712842941284
2235328,9.242256164550781,0.02149328775703907,3.3294107913970947,0.5065871477127075,-0.02170676179230213,0.9376745223999023,0.7027043104171753,-0.29585331678390503,-0.49616074562072754,-0.4153338074684143,9.535974502563477,0.2074700891971588,-1.948589563369751,-0.006147047970443964,0.07425762712955475,0.7621378898620605,0.3467002511024475,-0.6439134478569031,-0.43163445591926575,-0.5280777812004089
2235495,9.246241569519043,0.027166109532117844,3.303861379623413,0.47297054529190063,-0.1445324718952179,0.8028493523597717,0.7027292847633362,-0.2958751916885376,-0.49612361192703247,-0.4153202176094055,9.546932220458984,0.20432302355766296,-1.947988748550415,-0.2101394087076187,-0.01220445055514574,0.7500743269920349,0.34669259190559387,-0.6439223885536194,-0.4316147565841675,-0.5280880928039551
2235661,9.262721061706543,0.02642885223031044,3.318993330001831,0.5270261168479919,-0.08882483839988708,0.7012308835983276,0.7027302980422974,-0.295910120010376,-0.49607059359550476,-0.41535696387290955,9.525185585021973,0.19137349724769592,-1.9642781019210815,-0.25115811824798584,-0.16573978960514069,0.7470135688781738,0.3466688394546509,-0.6439465880393982,-0.43159735202789307,-0.528088390827179
2235828,9.240254402160645,0.02032000944018364,3.3247320652008057,0.5046277642250061,-0.03881604224443436,0.6132128238677979,0.7027856707572937,-0.2958691120147705,-0.4960571229457855,-0.4153086543083191,9.544821739196777,0.19341202080249786,-1.9486396312713623,-0.3425186276435852,-0.17540855705738068,0.6443450450897217,0.34662389755249023,-0.6439734101295471,-0.4315771758556366,-0.5281016826629639
2235995,9.2353515625,0.03165283054113388,3.329002618789673,0.5451598763465881,-0.2998991012573242,0.5680447816848755,0.7027887105941772,-0.29587531089782715,-0.4960506558418274,-0.4153067469596863,9.542146682739258,0.18833380937576294,-1.9554272890090942,-0.30927330255508423,-0.30503442883491516,0.4393666386604309,0.34654080867767334,-0.6440098285675049,-0.4315626919269562,-0.5281234979629517
2236161,9.244245529174805,0.012763799168169498,3.316678047180176,0.4636474847793579,-0.38949230313301086,0.44095462560653687,0.7027828693389893,-0.2958754301071167,-0.49606019258499146,-0.41530510783195496,9.564105033874512,0.19094443321228027,-1.96929931640625,-0.21855315566062927,-0.1542140543460846,0.5741918683052063,0.3465103805065155,-0.6440180540084839,-0.43156716227531433,-0.5281298756599426
2236328,9.245128631591797,0.009373239241540432,3.302523612976074,0.3466742932796478,-0.23230716586112976,0.34101390838623047,0.7027837634086609,-0.29586273431777954,-0.4960556626319885,-0.4153180718421936,9.54122543334961,0.19672711193561554,-1.9691632986068726,-0.10565238445997238,-0.10152873396873474,0.5381676554679871,0.3464793860912323,-0.6440236568450928,-0.4315662682056427,-0.528144121170044
2236495,9.242013931274414,0.016647502779960632,3.3347415924072266,0.4909762144088745,-0.3150874078273773,0.3899597227573395,0.7027863264083862,-0.295845627784729,-0.496065229177475,-0.4153144955635071,9.539135932922363,0.1841961294412613,-1.9655550718307495,-0.0044053844176232815,-0.20062430202960968,0.4688853323459625,0.34647461771965027,-0.6440038084983826,-0.43162158131599426,-0.5281261801719666
2236661,9.236974716186523,0.013121104799211025,3.3108205795288086,0.48613542318344116,-0.28205981850624084,0.42095109820365906,0.7027855515480042,-0.29583799839019775,-0.49606412649154663,-0.41532254219055176,9.541081428527832,0.1959475427865982,-1.9758902788162231,0.08527107536792755,-0.25534579157829285,0.48297229409217834,0.3464479446411133,-0.6440080404281616,-0.43164849281311035,-0.5281164646148682
2236828,9.242668151855469,0.012888126075267792,3.3124120235443115,0.380041241645813,-0.40461665391921997,0.34177589416503906,0.7027496695518494,-0.2958631217479706,-0.4960601329803467,-0.41537001729011536,9.539329528808594,0.20492024719715118,-1.9984525442123413,0.09680958837270737,-0.2279658168554306,0.4742383360862732,0.3464406132698059,-0.6439946293830872,-0.4316982924938202,-0.5280969738960266
2236995,9.248032569885254,0.016447244212031364,3.317082166671753,0.5232610106468201,-0.33866390585899353,0.23764103651046753,0.7027830481529236,-0.29578444361686707,-0.49611008167266846,-0.4153100848197937,9.538907051086426,0.2157883495092392,-1.977099061012268,0.13075923919677734,-0.3141525983810425,0.4072355329990387,0.34641748666763306,-0.6439884305000305,-0.43175187706947327,-0.5280758738517761
2237161,9.2471923828125,0.007595864124596119,3.3121652603149414,0.540549635887146,-0.327291876077652,0.38300585746765137,0.702802300453186,-0.2957427203655243,-0.4961359202861786,-0.4152761399745941,9.568163871765137,0.19800029695034027,-1.9832358360290527,0.23478521406650543,-0.24291084706783295,0.40047383308410645,0.3464181423187256,-0.6439619064331055,-0.43182504177093506,-0.5280481576919556
2237328,9.251358985900879,0.015763575211167336,3.314786911010742,0.4737645089626312,-0.41912615299224854,0.46614474058151245,0.7028023600578308,-0.29573702812194824,-0.49615278840065,-0.4152601361274719,9.54649543762207,0.223301962018013,-1.9950551986694336,0.24456925690174103,-0.0075173270888626575,0.37972745299339294,0.3464137613773346,-0.6439319849014282,-0.43186289072036743,-0.5280564427375793
2237495,9.237282752990723,0.011941074393689632,3.335771322250366,0.5872543454170227,-0.11624322831630707,0.5198801159858704,0.7028478384017944,-0.29568684101104736,-0.4961545169353485,-0.4152167737483978,9.548872947692871,0.21751563251018524,-2.010357618331909,0.10974399745464325,0.1997598260641098,0.47411027550697327,0.34642452001571655,-0.6438925862312317,-0.4318808913230896,-0.5280827283859253
2237661,9.228899955749512,0.011104123666882515,3.3459246158599854,0.5582480430603027,-0.17241188883781433,0.39198315143585205,0.7028689384460449,-0.29564759135246277,-0.4961569011211395,-0.41520607471466064,9.545437812805176,0.22284060716629028,-1.9853241443634033,0.11812575906515121,0.35634949803352356,0.5921528339385986,0.3464454710483551,-0.64385586977005,-0.43186914920806885,-0.5281233787536621
2237828,9.262709617614746,0.015266619622707367,3.309544324874878,0.5794552564620972,-0.2197057455778122,0.43275853991508484,0.7028465867042542,-0.2956640124320984,-0.49613162875175476,-0.4152624011039734,9.523560523986816,0.22505122423171997,-1.9830299615859985,0.1599961221218109,0.35890433192253113,0.8677132725715637,0.34648236632347107,-0.643841564655304,-0.43182313442230225,-0.5281542539596558
2237995,9.261536598205566,0.029228342697024345,3.338611125946045,0.5660854578018188,-0.2301172912120819,0.5308423638343811,0.7028385996818542,-0.2956778407096863,-0.49610933661460876,-0.4152926802635193,9.534035682678223,0.21386124193668365,-1.9772095680236816,0.1446925401687622,0.1889641135931015,1.0524193048477173,0.3465530574321747,-0.643825113773346,-0.43181073665618896,-0.5281381607055664
2238161,9.257048606872559,0.006719693541526794,3.342491388320923,0.43102964758872986,-0.0989418476819992,0.6157357096672058,0.7028815746307373,-0.29565250873565674,-0.49609315395355225,-0.4152572453022003,9.557769775390625,0.1770825833082199,-1.9626823663711548,0.22594885528087616,0.09564423561096191,1.2023178339004517,0.34662091732025146,-0.6438348889350891,-0.4317738115787506,-0.52811199426651
2238328,9.257608413696289,0.011680168099701405,3.31156849861145,0.2608589231967926,-0.2603786885738373,0.762355625629425,0.7028966546058655,-0.29568663239479065,-0.49606335163116455,-0.4152432382106781,9.545077323913574,0.15784776210784912,-1.967995047569275,0.46757906675338745,0.5519216656684875,1.1476857662200928,0.34673574566841125,-0.643794059753418,-0.4317373037338257,-0.52811598777771
2238495,9.265460014343262,0.013285609893500805,3.3149938583374023,-0.17343638837337494,-0.05216025933623314,0.7253323793411255,0.7029181122779846,-0.2957349717617035,-0.4959968030452728,-0.4152521789073944,9.466442108154297,0.16646407544612885,-1.9452844858169556,0.5824648141860962,0.5910963416099548,0.920181155204773,0.3468635678291321,-0.6437159776687622,-0.4317513108253479,-0.5281157493591309
2238661,9.258142471313477,0.0033258728217333555,3.3552262783050537,-0.16202594339847565,0.04157581180334091,0.6026860475540161,0.7029381990432739,-0.2957687973976135,-0.4959258735179901,-0.4152786135673523,9.505380630493164,0.1443495899438858,-1.9827077388763428,0.6059772372245789,-0.31840425729751587,0.7487168312072754,0.34691402316093445,-0.643703818321228,-0.43181654810905457,-0.5280442237854004
2238828,9.227694511413574,-0.019118404015898705,3.2842671871185303,-0.03597303852438927,-0.13888487219810486,0.7048166394233704,0.7029589414596558,-0.295805960893631,-0.49587759375572205,-0.4152747392654419,9.573920249938965,0.1409084051847458,-1.9775816202163696,0.6652962565422058,-0.07411033660173416,0.5431749224662781,0.3469504714012146,-0.6436734795570374,-0.43186745047569275,-0.5280156135559082
2238995,9.226579666137695,0.012470302172005177,3.2632102966308594,0.2500375807285309,-0.10229711979627609,0.7228351831436157,0.7029790878295898,-0.2958328425884247,-0.4958299994468689,-0.4152783453464508,9.57142162322998,0.19901229441165924,-1.958978295326233,0.626275360584259,-0.02557428367435932,-0.09402422606945038,0.34694135189056396,-0.6435982584953308,-0.43197759985923767,-0.5280233025550842
2239161,9.27635669708252,-0.04440581053495407,3.330540657043457,0.6447165012359619,-0.13335251808166504,0.5811969637870789,0.7030007839202881,-0.2958163321018219,-0.4958125650882721,-0.4152742028236389,9.578564643859863,0.24979084730148315,-1.9485713243484497,0.14902108907699585,0.08050711452960968,-0.3907601535320282,0.3468710482120514,-0.6435203552246094,-0.4320732355117798,-0.5280861258506775
2239328,9.280365943908691,0.011942246928811073,3.3486101627349854,0.954041063785553,-0.22792738676071167,0.1667066365480423,0.7030261158943176,-0.29571738839149475,-0.4958576261997223,-0.41524791717529297,9.549617767333984,0.2605481445789337,-1.9491260051727295,-0.3395346999168396,0.224130317568779,-0.11579500138759613,0.3468283712863922,-0.6434366703033447,-0.4321552813053131,-0.528148889541626
2239495,9.256552696228027,0.08792606741189957,3.3095955848693848,0.8060507774353027,0.2524067163467407,-0.516467273235321,0.7030293941497803,-0.2955665588378906,-0.495866984128952,-0.4153386056423187,9.547479629516602,0.22748254239559174,-1.9493441581726074,-0.5755045413970947,0.21868762373924255,0.3172453045845032,0.3467719256877899,-0.6434119939804077,-0.43214911222457886,-0.5282211899757385
2239661,9.23007869720459,0.010766041465103626,3.383774995803833,0.9001903533935547,-0.01919671706855297,-0.07681248337030411,0.7030611038208008,-0.29543232917785645,-0.4959045648574829,-0.4153355360031128,9.532153129577637,0.22932212054729462,-1.93728506565094,-0.6560820937156677,0.32536450028419495,0.7188907861709595,0.34674185514450073,-0.6434119939804077,-0.4320877492427826,-0.5282911658287048
2239828,9.253541946411133,-0.010433445684611797,3.3445656299591064,0.4963932931423187,-0.852313756942749,0.5273334383964539,0.7030417919158936,-0.2954454720020294,-0.49596887826919556,-0.4152820408344269,9.539375305175781,0.2440328598022461,-1.930240511894226,-0.8540939092636108,0.3926234841346741,0.9071058034896851,0.34670671820640564,-0.6434326171875,-0.43198341131210327,-0.5283742547035217
2239995,9.245118141174316,0.011737111955881119,3.337095022201538,0.5171011686325073,-0.25187528133392334,0.16614319384098053,0.703052818775177,-0.2953850030899048,-0.49599429965019226,-0.41527611017227173,9.546590805053711,0.20562922954559326,-1.923496961593628,-0.9415485262870789,0.47193315625190735,0.7465397715568542,0.3466523289680481,-0.6434441208839417,-0.4318792521953583,-0.528481125831604
2240161,9.19166088104248,0.06588088721036911,3.358938455581665,0.12271683663129807,-0.47757434844970703,0.30068668723106384,0.7030259966850281,-0.29540327191352844,-0.49600347876548767,-0.4152974784374237,9.554646492004395,0.1529189646244049,-1.940942406654358,-0.6716290712356567,0.47487860918045044,0.7163167595863342,0.34661194682121277,-0.6434473991394043,-0.4317861497402191,-0.5285796523094177
2240328,9.232762336730957,0.011354386806488037,3.314112424850464,-0.5352029800415039,-0.6566583514213562,-0.03963564708828926,0.7029027342796326,-0.29551631212234497,-0.4959801733493805,-0.4154534637928009,9.537464141845703,0.10936528444290161,-1.9431700706481934,-0.08698073774576187,0.5618337988853455,0.770526111125946,0.34664326906204224,-0.6434115767478943,-0.4317389130592346,-0.5286412239074707
2240495,9.240734100341797,-0.028927940875291824,3.3190457820892334,0.2567993104457855,-0.09775085747241974,0.1753765493631363,0.7028930187225342,-0.29549887776374817,-0.4959574341773987,-0.415509432554245,9.5213041305542,0.11400221288204193,-1.9156582355499268,0.6332419514656067,0.5274743437767029,0.7644942402839661,0.34674525260925293,-0.6433374881744385,-0.43175557255744934,-0.5286509394645691
2240661,9.214597702026367,-0.0020886026322841644,3.3297531604766846,0.1664249151945114,-0.060996636748313904,0.4036753475666046,0.7028834223747253,-0.2955200970172882,-0.49590620398521423,-0.41557174921035767,9.561699867248535,0.13017582893371582,-1.9352946281433105,1.1845297813415527,0.46555566787719727,0.7235267758369446,0.34690240025520325,-0.6432294249534607,-0.43183431029319763,-0.5286149978637695
2240828,9.220688819885254,-0.008876146748661995,3.31880259513855,0.21687552332878113,-0.3968687653541565,0.4507194459438324,0.7028698325157166,-0.2955416738986969,-0.49590155482292175,-0.41558507084846497,9.569141387939453,0.19068333506584167,-1.9353594779968262,1.3581644296646118,0.4449950158596039,0.35417237877845764,0.3470439314842224,-0.643093466758728,-0.4319579005241394,-0.5285865664482117
2240995,9.237401008605957,-0.04159107059240341,3.324249505996704,0.016283273696899414,-0.32799625396728516,0.3222782015800476,0.7028149366378784,-0.295606404542923,-0.4958609938621521,-0.41568025946617126,9.502193450927734,0.2135036587715149,-1.9425095319747925,1.1150168180465698,0.47979629039764404,0.08724326640367508,0.3471221923828125,-0.6429685354232788,-0.4320574104785919,-0.5286058783531189
2241161,9.24064826965332,-0.007567254826426506,3.3340909481048584,0.23619389533996582,-0.12237747758626938,0.31937113404273987,0.702802836894989,-0.2956137955188751,-0.4958263039588928,-0.41573652625083923,9.564417839050293,0.20334137976169586,-1.946071982383728,0.8943250775337219,-0.2439993917942047,0.15767818689346313,0.34715187549591064,-0.6429041028022766,-0.43218672275543213,-0.5285590291023254
2241328,9.215438842773438,0.023152031004428864,3.376647472381592,0.5694535374641418,-0.19596275687217712,0.24275074899196625,0.7028170824050903,-0.29555997252464294,-0.4958387017250061,-0.41573604941368103,9.493131637573242,0.21026667952537537,-1.9422167539596558,0.6998093724250793,-0.3170211911201477,0.26613515615463257,0.3471709191799164,-0.6428589224815369,-0.43229907751083374,-0.5285095572471619
2241495,9.233040809631348,-0.02532530203461647,3.286032199859619,0.3902798891067505,-0.9059084057807922,0.5617825388908386,0.7028038501739502,-0.2955758273601532,-0.49590757489204407,-0.41566506028175354,9.528519630432129,0.27145659923553467,-1.9380064010620117,0.1415293663740158,-1.2208548784255981,0.011954727582633495,0.34704527258872986,-0.642909049987793,-0.43241655826568604,-0.5284349918365479
2241662,9.306567192077637,0.0037021648604422808,3.352410078048706,0.9049543738365173,-0.603729784488678,0.4820502698421478,0.7028079032897949,-0.2955411672592163,-0.49596425890922546,-0.4156152307987213,9.541802406311035,0.27956798672676086,-1.9397567510604858,-0.5369319319725037,-1.0852997303009033,-0.25313034653663635,0.3468395173549652,-0.6429696679115295,-0.43249449133872986,-0.5284325480461121
2241828,9.256223678588867,0.039096128195524216,3.2753689289093018,0.7891720533370972,-0.7979508638381958,0.06645854562520981,0.7027606964111328,-0.29550883173942566,-0.49604615569114685,-0.4156203269958496,9.525740623474121,0.22164605557918549,-1.9968326091766357,-0.9185609817504883,-1.3498018980026245,-0.007901517674326897,0.3466324508190155,-0.6430578231811523,-0.4325767159461975,-0.5283938646316528
2241995,9.267806053161621,0.08863703906536102,3.298664093017578,1.0814898014068604,-0.20508088171482086,-0.3138324022293091,0.7027544975280762,-0.29537233710289,-0.4961085021495819,-0.41565337777137756,9.528544425964355,0.22038382291793823,-1.9801400899887085,-0.9567623734474182,-1.4037295579910278,0.2175990790128708,0.3464285731315613,-0.6431715488433838,-0.43262937664985657,-0.5283461213111877
2242162,9.274420738220215,0.011680275201797485,3.331104040145874,0.8769596815109253,-0.8710879683494568,0.12584160268306732,0.7027133107185364,-0.2953341007232666,-0.49620458483695984,-0.4156356155872345,9.530540466308594,0.20954830944538116,-1.9877238273620605,-0.7420254945755005,-1.3034942150115967,0.5408826470375061,0.3462587296962738,-0.6433016061782837,-0.4326404333114624,-0.5282899141311646
2242328,9.284788131713867,0.003820962505415082,3.2499289512634277,0.9502888321876526,-0.7080631256103516,0.18765786290168762,0.7026882767677307,-0.2952858507633209,-0.49628379940986633,-0.4156172573566437,9.552145004272461,0.20348240435123444,-2.00277042388916,-0.5368037819862366,-0.9854871034622192,0.7465013265609741,0.3461515009403229,-0.6434038281440735,-0.43264177441596985,-0.528234601020813
2242495,9.252201080322266,0.03397449478507042,3.3000824451446533,1.226560115814209,-0.39797013998031616,0.2762521803379059,0.70270174741745,-0.2951987385749817,-0.49634385108947754,-0.4155849516391754,9.5567045211792,0.19908052682876587,-1.9732275009155273,-0.4228912889957428,-0.693681538105011,0.5527540445327759,0.34607627987861633,-0.6434505581855774,-0.4326792061328888,-0.5281963348388672
2242662,9.221759796142578,0.05579516664147377,3.3022115230560303,0.42402464151382446,-0.7760647535324097,0.18777307868003845,0.7026683688163757,-0.29518553614616394,-0.4964127838611603,-0.41556835174560547,9.559842109680176,0.19522157311439514,-2.0146563053131104,-0.2357136756181717,-0.42363402247428894,0.43001797795295715,0.34602129459381104,-0.6434640288352966,-0.4327213764190674,-0.5281813740730286
2242828,9.26611614227295,0.011536909267306328,3.304422378540039,-0.06699001044034958,-0.7164640426635742,-0.006748945917934179,0.7025834918022156,-0.29523199796676636,-0.4964376986026764,-0.41564905643463135,9.538166999816895,0.18716438114643097,-1.992222785949707,0.08965084701776505,-0.25054341554641724,0.4541451632976532,0.34599703550338745,-0.6434592008590698,-0.4327627420425415,-0.5281692743301392
2242995,9.245497703552246,0.015607047826051712,3.3058605194091797,0.3288862705230713,-0.4907264709472656,0.14047925174236298,0.7025406956672668,-0.29523515701293945,-0.49645715951919556,-0.41569584608078003,9.537604331970215,0.1889416128396988,-1.993999719619751,0.399372398853302,-0.15509770810604095,0.46725890040397644,0.346016526222229,-0.6434262990951538,-0.432831346988678,-0.5281404256820679
2243162,9.236199378967285,0.03052815981209278,3.3147315979003906,0.5261551737785339,-0.6881363391876221,0.24161097407341003,0.7025020122528076,-0.29523274302482605,-0.49650734663009644,-0.4157029092311859,9.54895305633545,0.21344593167304993,-1.9919867515563965,0.537834644317627,-0.05729560926556587,0.5789942145347595,0.34603458642959595,-0.6434109807014465,-0.43285611271858215,-0.5281270146369934
2243328,9.278882026672363,0.021969107910990715,3.3141462802886963,0.5207765698432922,-0.6051512360572815,0.20827604830265045,0.7024793028831482,-0.29520899057388306,-0.49655911326408386,-0.4156965911388397,9.562034606933594,0.22866985201835632,-1.981079339981079,0.390817791223526,-0.07965549826622009,0.3756166398525238,0.3460579514503479,-0.6433607935905457,-0.43293875455856323,-0.5281050205230713
2243495,9.260220527648926,0.012917260639369488,3.305978298187256,0.477401465177536,-0.46008092164993286,0.22621776163578033,0.7024362683296204,-0.295218288898468,-0.49657052755355835,-0.4157489836215973,9.55531120300293,0.24962285161018372,-1.989397644996643,0.25650477409362793,0.0336102657020092,0.3530646562576294,0.3460424542427063,-0.6433346271514893,-0.432964563369751,-0.5281260013580322
2243662,9.267373085021973,0.024328937754034996,3.2774903774261475,0.2581440210342407,-0.43425053358078003,0.16216041147708893,0.7024102807044983,-0.2952095866203308,-0.4965897500514984,-0.41577616333961487,9.531936645507812,0.2517649829387665,-1.9803104400634766,-0.13374951481819153,0.1462036669254303,0.35686811804771423,0.34603217244148254,-0.6432899236679077,-0.4330005943775177,-0.5281574726104736
2243828,9.261468887329102,0.027018245309591293,3.3194141387939453,0.334700345993042,-0.27312105894088745,0.24661825597286224,0.7024003863334656,-0.2951941192150116,-0.49659091234207153,-0.415802538394928,9.54497241973877,0.26629871129989624,-1.9878777265548706,-0.2635675072669983,0.18005087971687317,0.4423249065876007,0.34598883986473083,-0.6432792544364929,-0.43297871947288513,-0.5282167792320251
2243995,9.250692367553711,0.037299271672964096,3.281928300857544,0.4164048433303833,-0.43478837609291077,0.24857760965824127,0.7023646235466003,-0.2952018976211548,-0.49660006165504456,-0.415846586227417,9.523972511291504,0.22649939358234406,-1.9823557138442993,-0.47269514203071594,0.18603143095970154,0.3916117250919342,0.34593454003334045,-0.6432648301124573,-0.43296200037002563,-0.5282835960388184
2244162,9.260982513427734,0.05460858345031738,3.2976534366607666,0.6081159114837646,-0.1048583984375,0.2889304757118225,0.7023736238479614,-0.29516008496284485,-0.49659326672554016,-0.4158688485622406,9.550755500793457,0.23173128068447113,-1.9928804636001587,-0.4988841116428375,0.16933196783065796,0.496354877948761,0.3459029197692871,-0.6432441473007202,-0.4329584240913391,-0.5283323526382446
2244328,9.259798049926758,0.04027536138892174,3.303446054458618,0.4837149679660797,-0.0702812448143959,0.3395027220249176,0.7023893594741821,-0.29512473940849304,-0.4965783655643463,-0.41588518023490906,9.55320930480957,0.2052459716796875,-1.9725031852722168,-0.3388431668281555,0.2349516749382019,0.48548227548599243,0.34587764739990234,-0.6432196497917175,-0.4329497516155243,-0.5283859372138977
2244495,9.249659538269043,0.03326238691806793,3.3228471279144287,0.2157677710056305,-0.04812626168131828,0.26589182019233704,0.7023800015449524,-0.29512280225753784,-0.496540367603302,-0.4159477949142456,9.544010162353516,0.20680133998394012,-1.984433889389038,-0.04181273281574249,0.27275604009628296,0.4662984013557434,0.3458796441555023,-0.6431770920753479,-0.43296200037002563,-0.5284264087677002
2244828,9.251702308654785,0.02986133098602295,3.330146312713623,0.34801897406578064,-0.11003217101097107,0.3011605441570282,0.7023980617523193,-0.2950764000415802,-0.4965144693851471,-0.4159812927246094,9.548062324523926,0.19162391126155853,-1.972728967666626,0.13688065111637115,0.28006842732429504,0.4487408697605133,0.3458978235721588,-0.6431242227554321,-0.43298885226249695,-0.5284568071365356
2244995,9.254873275756836,0.026306353509426117,3.289928674697876,0.1613151878118515,-0.16097581386566162,0.3031070828437805,0.7024074792861938,-0.2950569987297058,-0.49650275707244873,-0.41599297523498535,9.541367530822754,0.20927250385284424,-1.964185357093811,0.4285324513912201,0.3298211097717285,0.451481431722641,0.3459221124649048,-0.6430737972259521,-0.4330029785633087,-0.5284906029701233
2245162,9.247331619262695,0.027958787977695465,3.3076698780059814,0.12967069447040558,-0.06756629049777985,0.4772605895996094,0.7024068832397461,-0.29507920145988464,-0.4964532256126404,-0.416037380695343,9.55846881866455,0.2279830127954483,-1.9488080739974976,0.5303941965103149,0.3622339963912964,0.35962146520614624,0.3459768295288086,-0.642988383769989,-0.43306538462638855,-0.5285075902938843
2245328,9.248690605163574,0.027336565777659416,3.3239734172821045,0.5959498286247253,-0.03001808188855648,0.49069446325302124,0.7024552226066589,-0.29502156376838684,-0.4964463710784912,-0.4160047173500061,9.564077377319336,0.2470349222421646,-1.9616103172302246,0.5805437564849854,0.542982816696167,0.48917052149772644,0.34604889154434204,-0.6429013013839722,-0.43309998512268066,-0.528537929058075
2245495,9.245089530944824,0.04074373096227646,3.305345296859741,0.6117464900016785,-0.12395265698432922,0.5002544522285461,0.7024676203727722,-0.2950054407119751,-0.4964269995689392,-0.41601836681365967,9.545632362365723,0.25351735949516296,-1.9462130069732666,0.4571930766105652,0.5750499367713928,0.6170163154602051,0.34612053632736206,-0.6428272128105164,-0.43310976028442383,-0.5285733938217163
2245662,9.241116523742676,0.03014027513563633,3.303178071975708,0.5820549726486206,-0.1668667197227478,0.3666265904903412,0.7024591565132141,-0.29499512910842896,-0.4964098334312439,-0.4160604178905487,9.520058631896973,0.24642246961593628,-1.9454041719436646,0.31081652641296387,0.4776448607444763,0.7106307744979858,0.34620028734207153,-0.6427558064460754,-0.43313202261924744,-0.5285896062850952
2245828,9.258585929870605,0.05111134424805641,3.314635992050171,0.45961353182792664,-0.2160559445619583,0.4724070429801941,0.7025006413459778,-0.29494529962539673,-0.4964243471622467,-0.4160084128379822,9.514853477478027,0.24473774433135986,-1.9392520189285278,0.12973473966121674,0.23552797734737396,0.7930139899253845,0.3462536334991455,-0.6427178382873535,-0.43314456939697266,-0.5285906791687012
2245995,9.247797012329102,0.03950278460979462,3.3162312507629395,0.3786901533603668,-0.2396964430809021,0.4723685681819916,0.702490508556366,-0.294960618019104,-0.4964023530483246,-0.41604092717170715,9.524023056030273,0.22349508106708527,-1.9445197582244873,-0.1555459201335907,0.0024268035776913166,0.794179379940033,0.3462325632572174,-0.6427399516105652,-0.43310317397117615,-0.5286116003990173
2246162,9.238966941833496,0.06158965826034546,3.2946808338165283,0.3017752468585968,-0.3531991243362427,0.48093608021736145,0.7025220990180969,-0.2949281334877014,-0.4964255392551422,-0.4159829616546631,9.533055305480957,0.22787465155124664,-1.9617829322814941,-0.3055850863456726,-0.21973133087158203,0.8736811280250549,0.3461921513080597,-0.642789363861084,-0.4330574870109558,-0.5286152958869934
2246328,9.252291679382324,0.058832187205553055,3.303306818008423,0.3923032879829407,-0.2204228788614273,0.514539897441864,0.702523946762085,-0.29493480920791626,-0.4964063763618469,-0.41599807143211365,9.5543851852417,0.2065560668706894,-1.9600292444229126,-0.33336207270622253,-0.14148454368114471,0.807561993598938,0.3461841344833374,-0.6428006887435913,-0.43305709958076477,-0.5286068916320801
2246495,9.234918594360352,0.05208388343453407,3.284989595413208,0.2400358021259308,-0.17652270197868347,0.5298306941986084,0.7025671601295471,-0.2949027419090271,-0.4964049458503723,-0.41594958305358887,9.55346965789795,0.21028098464012146,-1.9712412357330322,-0.2639516592025757,-0.014419950544834137,0.7232065796852112,0.3461761474609375,-0.6427996158599854,-0.43305453658103943,-0.5286155343055725
2246662,9.235672950744629,0.05304946005344391,3.29162335395813,0.3130064010620117,-0.369937002658844,0.42837876081466675,0.7025598287582397,-0.2949075400829315,-0.4964078962802887,-0.41595491766929626,9.54104232788086,0.21223360300064087,-1.975711464881897,-0.2604939341545105,-0.13691267371177673,0.7363202571868896,0.34614232182502747,-0.6428254842758179,-0.4330311715602875,-0.5286256074905396
2246828,9.266510963439941,0.029228342697024345,3.3169000148773193,0.20328158140182495,-0.28869351744651794,0.5200210213661194,0.7025509476661682,-0.29493504762649536,-0.49638620018959045,-0.41597625613212585,9.56314754486084,0.22156906127929688,-1.975121021270752,-0.3187628388404846,-0.09168065339326859,0.7826664447784424,0.34611210227012634,-0.6428511738777161,-0.433000385761261,-0.5286393165588379
2246995,9.246673583984375,0.02529093809425831,3.3251004219055176,0.29702407121658325,-0.17455054819583893,0.5531126260757446,0.7025676369667053,-0.29493486881256104,-0.4963652491569519,-0.41597315669059753,9.550820350646973,0.22006912529468536,-1.978997826576233,-0.25543540716171265,0.10010082274675369,0.7524049878120422,0.3460897207260132,-0.6428641676902771,-0.43295663595199585,-0.5286740064620972
2247162,9.24195384979248,0.02222597785294056,3.303607940673828,0.518842875957489,-0.16071969270706177,0.5553921461105347,0.7026011347770691,-0.2949043810367584,-0.4963604807853699,-0.4159441590309143,9.547572135925293,0.209647998213768,-1.9889148473739624,-0.18720322847366333,0.16117432713508606,0.7636874914169312,0.346097856760025,-0.6428535580635071,-0.43293923139572144,-0.5286958813667297
2247328,9.252513885498047,0.030952073633670807,3.2993838787078857,0.3674589991569519,-0.3294689655303955,0.3720308542251587,0.7025613784790039,-0.29493796825408936,-0.4963400959968567,-0.4160115420818329,9.561018943786621,0.21319852769374847,-1.9603407382965088,-0.1770733743906021,0.3430500626564026,0.8949140906333923,0.3461224436759949,-0.642841637134552,-0.4328940510749817,-0.5287312865257263
2247495,9.246244430541992,0.02239421010017395,3.299433946609497,0.1924218237400055,-0.05236516147851944,0.45157113671302795,0.7025576233863831,-0.2949560880661011,-0.4962913691997528,-0.41606324911117554,9.556236267089844,0.20051813125610352,-1.9609633684158325,-0.02109205536544323,0.6697656512260437,0.9283642172813416,0.3461756408214569,-0.6428061723709106,-0.43282946944236755,-0.5287922620773315
2247662,9.23714542388916,0.02814459800720215,3.3006680011749268,0.10098446905612946,-0.20450459420681,0.5076628923416138,0.7025632262229919,-0.29497191309928894,-0.49626535177230835,-0.41607359051704407,9.562658309936523,0.2004367858171463,-1.9584972858428955,0.12066782265901566,0.7725366353988647,0.9251114726066589,0.34628820419311523,-0.642722487449646,-0.4328221082687378,-0.5288263559341431
2247828,9.262829780578613,0.013896889984607697,3.300382137298584,0.25979602336883545,-0.21232923865318298,0.5491811037063599,0.7025634050369263,-0.29499194025993347,-0.4962376654148102,-0.41609203815460205,9.540726661682129,0.20495370030403137,-1.9437706470489502,0.19061611592769623,0.7590515613555908,0.9017655253410339,0.3463827073574066,-0.6426532864570618,-0.43279415369033813,-0.528871476650238
2247995,9.25171947479248,0.014834107831120491,3.290714979171753,0.09764202684164047,-0.061777833849191666,0.5747426152229309,0.7025841474533081,-0.29500335454940796,-0.49619486927986145,-0.41609999537467957,9.53896713256836,0.21104833483695984,-1.9546042680740356,0.19637896120548248,0.8020808100700378,0.7968558669090271,0.3464626967906952,-0.6425819993019104,-0.43276190757751465,-0.5289322137832642
2248162,9.256522178649902,0.012209171429276466,3.2954607009887695,0.21379560232162476,-0.1727704554796219,0.5157436728477478,0.7026013135910034,-0.2950020432472229,-0.496175080537796,-0.4160956144332886,9.568363189697266,0.2161332219839096,-1.9669580459594727,0.10714433342218399,0.7055210471153259,0.821175217628479,0.34652358293533325,-0.6425290107727051,-0.4327177107334137,-0.5289928317070007
2248328,9.271556854248047,0.024615034461021423,3.3270277976989746,0.13221915066242218,-0.018377110362052917,0.5334292650222778,0.7025992274284363,-0.2950339615345001,-0.4961138069629669,-0.41614940762519836,9.55570125579834,0.19807003438472748,-1.9432735443115234,0.14809903502464294,0.7796441912651062,0.8176149725914001,0.34660235047340393,-0.6424600481987,-0.4326854646205902,-0.5290510654449463
2248495,9.243942260742188,0.02040948159992695,3.3217456340789795,0.13548478484153748,-0.07222782075405121,0.5896747708320618,0.7026187181472778,-0.29504719376564026,-0.496071457862854,-0.41615769267082214,9.545408248901367,0.2271377146244049,-1.937972068786621,0.1536569744348526,0.8330721855163574,0.7414555549621582,0.3466796278953552,-0.6423822641372681,-0.4326578676700592,-0.5291175842285156
2248662,9.254837989807129,0.016425520181655884,3.311042308807373,0.3389776647090912,0.023915858939290047,0.5762280821800232,0.7026591897010803,-0.29502561688423157,-0.4960367977619171,-0.41614609956741333,9.560308456420898,0.22398550808429718,-1.9470077753067017,0.003451310796663165,0.9431427121162415,0.8774334192276001,0.34676116704940796,-0.642311155796051,-0.43260180950164795,-0.5291963815689087
2248828,9.24292278289795,0.03344469144940376,3.3328893184661865,0.5047814846038818,0.024069536477327347,0.49522799253463745,0.7027145028114319,-0.29496634006500244,-0.49602434039115906,-0.4161093831062317,9.53059196472168,0.21824288368225098,-1.9403870105743408,0.007049895823001862,1.0720515251159668,0.7407768964767456,0.3468366265296936,-0.6422240734100342,-0.43254807591438293,-0.5292965769767761
2248995,9.263492584228516,0.03740015625953674,3.3307182788848877,0.5805438160896301,-0.1764586865901947,0.46287909150123596,0.7027174830436707,-0.2949555516242981,-0.4960101246833801,-0.41612905263900757,9.533430099487305,0.1968676894903183,-1.9678192138671875,-0.05031615123152733,0.7661206126213074,0.8910850286483765,0.34690216183662415,-0.6421709060668945,-0.43249398469924927,-0.5293622016906738
2249162,9.252951622009277,0.02625972218811512,3.3064489364624023,0.6354830861091614,0.0976676344871521,0.6852614283561707,0.7027673125267029,-0.294925332069397,-0.4959697723388672,-0.4161144196987152,9.549476623535156,0.18609386682510376,-1.9585005044937134,0.1333717256784439,0.8567512631416321,0.9192845821380615,0.3469960391521454,-0.6421005129814148,-0.4324517250061035,-0.5294206142425537
2249328,9.245077133178711,0.004135704133659601,3.3048298358917236,0.5823110938072205,0.3061293363571167,0.7423392534255981,0.7028153538703918,-0.2949129641056061,-0.495889812707901,-0.416137158870697,9.516594886779785,0.16999994218349457,-1.9382686614990234,0.33376553654670715,0.5332244038581848,1.060935616493225,0.3471040427684784,-0.6420500874519348,-0.4324338138103485,-0.5294256210327148
2249495,9.226500511169434,0.003955224994570017,3.3012003898620605,0.2725639045238495,0.08575771749019623,0.7647887468338013,0.7028670310974121,-0.29490989446640015,-0.49583548307418823,-0.4161168932914734,9.555107116699219,0.1663655787706375,-1.9385015964508057,0.5926457643508911,0.556070864200592,0.8248633146286011,0.34721606969833374,-0.6419727802276611,-0.4324522614479065,-0.5294308662414551
2249662,9.266915321350098,0.022200999781489372,3.34075665473938,0.17372454702854156,0.17974351346492767,0.6638747453689575,0.702897310256958,-0.29492542147636414,-0.4957568049430847,-0.41614842414855957,9.534627914428711,0.18662388622760773,-1.9398295879364014,0.645907461643219,0.7184810638427734,0.5810049176216125,0.34732288122177124,-0.6418667435646057,-0.43248704075813293,-0.5294610857963562
2249828,9.234221458435059,0.013460843823850155,3.329037666320801,0.5502440333366394,0.1169411912560463,0.5184202790260315,0.702929675579071,-0.2948967516422272,-0.4957130551338196,-0.41616618633270264,9.486912727355957,0.21505165100097656,-1.962744116783142,0.62554532289505,0.39778438210487366,0.3488641679286957,0.3473908007144928,-0.641770601272583,-0.43255969882011414,-0.5294735431671143
2249995,9.243073463439941,0.015278995968401432,3.2704010009765625,0.6511707901954651,0.15510410070419312,0.5502567887306213,0.70298171043396,-0.29484495520591736,-0.4956778287887573,-0.41615697741508484,9.587761878967285,0.2019663006067276,-1.9629336595535278,0.637391209602356,0.10711871832609177,0.47787532210350037,0.3474447429180145,-0.6417107582092285,-0.4326264560222626,-0.5294562578201294
2250162,9.255721092224121,0.01076400838792324,3.2622177600860596,0.9047238826751709,0.4590628445148468,0.6826233267784119,0.7030665278434753,-0.294768363237381,-0.4956154525279999,-0.4161422848701477,9.619257926940918,0.22457121312618256,-1.9506962299346924,0.46074044704437256,0.5460819602012634,0.33181890845298767,0.3475010395050049,-0.6416141986846924,-0.4326750934123993,-0.5294966101646423
2250328,9.291528701782227,-0.018101507797837257,3.3366591930389404,1.2053142786026,0.39208561182022095,0.359800785779953,0.703157901763916,-0.29461997747421265,-0.49560561776161194,-0.41610488295555115,9.616642951965332,0.3036450445652008,-1.9373888969421387,-0.11379722505807877,0.6587393879890442,-0.17805948853492737,0.3474748730659485,-0.6415035128593445,-0.4327252507209778,-0.5296069383621216
2250495,9.301301002502441,0.1111810952425003,3.382359504699707,1.0782496929168701,0.21344983577728271,-0.2493908405303955,0.7031784653663635,-0.2944703996181488,-0.4956209659576416,-0.4161577522754669,9.601690292358398,0.28837770223617554,-1.904941201210022,-0.6494484543800354,1.0196094512939453,-0.24086181819438934,0.3474191129207611,-0.6413852572441101,-0.4327259957790375,-0.5297859311103821
2250662,9.262248039245605,0.10202457010746002,3.32220196723938,0.43219512701034546,0.7490754723548889,-0.7268628478050232,0.7031946778297424,-0.2943030893802643,-0.49557286500930786,-0.41630569100379944,9.585013389587402,0.25934621691703796,-1.8819352388381958,-1.193116307258606,1.3348634243011475,0.4354478716850281,0.34738779067993164,-0.6413097977638245,-0.43261006474494934,-0.5299922823905945
2250828,9.230765342712402,0.0011707849334925413,3.4230611324310303,0.8669578433036804,0.40056338906288147,0.0861290991306305,0.7032503485679626,-0.2941742241382599,-0.4955501854419708,-0.4163297712802887,9.573687553405762,0.21896161139011383,-1.8961442708969116,-1.103036642074585,1.5136529207229614,1.0151017904281616,0.3474196791648865,-0.6412534117698669,-0.4324364960193634,-0.5301816463470459
2250995,9.231911659240723,0.025949034839868546,3.3838179111480713,0.12544459104537964,-0.09238500148057938,0.48642995953559875,0.7032553553581238,-0.2941896319389343,-0.495509535074234,-0.4163588285446167,9.534782409667969,0.21527865529060364,-1.8727028369903564,-0.8735852241516113,1.5865211486816406,1.4705853462219238,0.34749916195869446,-0.6412193775177002,-0.43221718072891235,-0.5303494930267334
2251162,9.224536895751953,0.03776475042104721,3.365915536880493,0.6792551875114441,0.15165919065475464,0.4459618926048279,0.7032924890518188,-0.29413866996765137,-0.49547407031059265,-0.4163742959499359,9.525321006774902,0.1931738406419754,-1.874585509300232,-0.7926234602928162,1.4224590063095093,1.5764938592910767,0.34759292006492615,-0.6411933302879333,-0.43201321363449097,-0.5304856896400452
2251328,9.196285247802734,0.07300826907157898,3.3591530323028564,-0.5161983370780945,-0.14322620630264282,0.40674883127212524,0.703268826007843,-0.2942085862159729,-0.49540790915489197,-0.4164436459541321,9.539156913757324,0.17541368305683136,-1.846242070198059,-0.6348235011100769,1.3579660654067993,1.28546941280365,0.34766265749931335,-0.6411558985710144,-0.4318363070487976,-0.5306290984153748
2251495,9.221866607666016,0.005470579490065575,3.335564136505127,-0.9237348437309265,-0.2808944880962372,0.3076917827129364,0.7032004594802856,-0.29433467984199524,-0.49532702565193176,-0.41656631231307983,9.52581787109375,0.1540525108575821,-1.840787410736084,-0.148707315325737,1.0404582023620605,1.0430195331573486,0.3477475643157959,-0.6410964727401733,-0.4317455589771271,-0.5307191014289856
2251662,9.232182502746582,-0.01921853795647621,3.3230762481689453,0.16157129406929016,0.17719505727291107,0.7180070877075195,0.703234076499939,-0.29435425996780396,-0.4952458441257477,-0.4165920615196228,9.530753135681152,0.13710862398147583,-1.8526339530944824,0.44708889722824097,0.939928412437439,1.0539946556091309,0.3478710353374481,-0.6410250067710876,-0.4316898584365845,-0.530769944190979
2251828,9.207010269165039,0.015991393476724625,3.318152666091919,0.4654403626918793,0.2288302630186081,0.9233569502830505,0.7032850980758667,-0.29436859488487244,-0.4951605498790741,-0.4165971875190735,9.538009643554688,0.15036596357822418,-1.8534022569656372,0.8815826773643494,0.4985063672065735,1.2140100002288818,0.34802693128585815,-0.6409698724746704,-0.4316834807395935,-0.5307393074035645
2251995,9.184470176696777,-0.008331007324159145,3.3421263694763184,0.36475688219070435,-0.06346827000379562,0.9828553795814514,0.7033358812332153,-0.29438987374305725,-0.49511200189590454,-0.41655433177948,9.586457252502441,0.1822795271873474,-1.8417781591415405,1.0637528896331787,0.27968427538871765,1.0156779289245605,0.3481796681880951,-0.6409032344818115,-0.4317312240600586,-0.5306810736656189
2252162,9.203022956848145,-0.019169015809893608,3.344745635986328,0.16556690633296967,-0.027687329798936844,0.8886006474494934,0.7033753991127014,-0.2944221496582031,-0.49505189061164856,-0.4165361821651459,9.569252967834473,0.2145654708147049,-1.8424744606018066,0.8487599492073059,0.4953432083129883,0.6820597648620605,0.3482840657234192,-0.6408226490020752,-0.431762158870697,-0.5306844115257263
2252328,9.228531837463379,0.02937854267656803,3.39009428024292,0.3614271879196167,-0.11106947064399719,0.6366100311279297,0.7033937573432922,-0.2944314777851105,-0.4950167238712311,-0.41654035449028015,9.527294158935547,0.23417717218399048,-1.8645375967025757,0.30812716484069824,-0.049534957855939865,0.7666072845458984,0.3483120799064636,-0.6408156752586365,-0.431772917509079,-0.5306658148765564
2252495,9.209759712219238,0.04797839745879173,3.336937665939331,0.184968501329422,-0.4532550871372223,0.6203075647354126,0.7033854722976685,-0.2944706380367279,-0.49501103162765503,-0.41653332114219666,9.566652297973633,0.17312800884246826,-1.8931022882461548,0.06617680937051773,0.023288344964385033,0.9384684562683105,0.3483521044254303,-0.6408124566078186,-0.43176618218421936,-0.5306490063667297
2252662,9.265945434570312,-0.03232323378324509,3.29085636138916,0.48102572560310364,-0.7339831590652466,1.1602745056152344,0.7033898830413818,-0.2945500910282135,-0.4950200617313385,-0.41645917296409607,9.530510902404785,0.2071695774793625,-1.877705454826355,-0.0910787582397461,-0.3762633502483368,0.7234243154525757,0.34831827878952026,-0.6408487558364868,-0.43176567554473877,-0.5306277871131897
2252828,9.280144691467285,0.008496019057929516,3.390651226043701,0.798098087310791,-0.27328750491142273,0.8598759174346924,0.7034274935722351,-0.2945421636104584,-0.49501749873161316,-0.41640403866767883,9.573166847229004,0.23409494757652283,-1.901912808418274,-0.5833292603492737,-0.4855270981788635,0.3234051465988159,0.3482113182544708,-0.6408846974372864,-0.4317832589149475,-0.5306403636932373
2252995,9.2537260055542,0.07029342651367188,3.2744994163513184,1.0661734342575073,-0.5887463688850403,0.2550320625305176,0.7034326195716858,-0.2944643497467041,-0.495100200176239,-0.41635218262672424,9.560216903686523,0.21325631439685822,-1.9063392877578735,-0.9806206226348877,-0.24394816160202026,0.2408938705921173,0.34807342290878296,-0.6409186124801636,-0.4317629039287567,-0.5307062864303589
2253162,9.221783638000488,0.06800469011068344,3.3607985973358154,0.8046164512634277,-0.08400964736938477,0.23696225881576538,0.703447163105011,-0.29439833760261536,-0.4951063394546509,-0.4163670837879181,9.54359245300293,0.17959897220134735,-1.9213436841964722,-0.9983445405960083,-0.3663640320301056,0.5621539354324341,0.34794333577156067,-0.6409895420074463,-0.4317075312137604,-0.5307508111000061
2253328,9.259981155395508,-0.0153609998524189,3.3249762058258057,0.6700218319892883,-0.8690645694732666,0.740444004535675,0.7034533023834229,-0.29440203309059143,-0.49517980217933655,-0.41626670956611633,9.520084381103516,0.16793453693389893,-1.9135031700134277,-0.6446332335472107,-0.39986544847488403,0.7598583698272705,0.34786731004714966,-0.6410515308380127,-0.4316723346710205,-0.5307545065879822
2253495,9.280165672302246,-0.014985630288720131,3.3401546478271484,0.8699289560317993,-0.41223639249801636,0.6341257095336914,0.7034776210784912,-0.29437020421028137,-0.49521106481552124,-0.41621094942092896,9.505661010742188,0.20178957283496857,-1.9181709289550781,-0.504288375377655,-0.4172436594963074,0.8168978095054626,0.3478165566921234,-0.641103982925415,-0.43165475130081177,-0.5307387113571167
2253662,9.224556922912598,0.030513830482959747,3.3241262435913086,0.9962379336357117,-0.24177105724811554,0.4896315634250641,0.7035192847251892,-0.2942948341369629,-0.49524474143981934,-0.41615355014801025,9.5262451171875,0.19625145196914673,-1.9160184860229492,-0.6185211539268494,-0.32124730944633484,0.6733130812644958,0.34773799777030945,-0.6411556601524353,-0.4316220283508301,-0.5307545065879822
