sampleTimeFine,D4:22:CD:00:A9:12_acc_x,D4:22:CD:00:A9:12_acc_y,D4:22:CD:00:A9:12_acc_z,D4:22:CD:00:A9:12_gyro_x,D4:22:CD:00:A9:12_gyro_y,D4:22:CD:00:A9:12_gyro_z,D4:22:CD:00:A9:12_quat_w,D4:22:CD:00:A9:12_quat_x,D4:22:CD:00:A9:12_quat_y,D4:22:CD:00:A9:12_quat_z,D4:22:CD:00:A1:93_acc_x,D4:22:CD:00:A1:93_acc_y,D4:22:CD:00:A1:93_acc_z,D4:22:CD:00:A1:93_gyro_x,D4:22:CD:00:A1:93_gyro_y,D4:22:CD:00:A1:93_gyro_z,D4:22:CD:00:A1:93_quat_w,D4:22:CD:00:A1:93_quat_x,D4:22:CD:00:A1:93_quat_y,D4:22:CD:00:A1:93_quat_z
4066259,-0.20877425372600555,0.11032526195049286,0.08101280778646469,-0.1549832969903946,0.11899174004793167,-0.16811291873455048,0.6944867372512817,-0.29774585366249084,-0.5035218596458435,-0.41892874240875244,0.011458927765488625,-0.20665019750595093,-0.22389955818653107,0.024901892989873886,0.051636166870594025,-0.22771725058555603,0.35822296142578125,-0.6277704238891602,-0.44090694189071655,-0.5321481823921204
4066425,9.313450813293457,0.07634440809488297,3.1466453075408936,-1.3341655731201172,-0.11370758712291718,0.3605307638645172,0.6946467757225037,-0.2977280616760254,-0.5034279823303223,-0.4187890291213989,9.6224365234375,0.22418732941150665,-1.723127841949463,0.045046333223581314,-0.3194287419319153,0.9005873203277588,0.3586324155330658,-0.6274815201759338,-0.44110339879989624,-0.5320504307746887
4066592,9.298235893249512,0.0642276257276535,3.077777624130249,-1.0310262441635132,-0.44913145899772644,0.5447500944137573,0.6946542263031006,-0.29797205328941345,-0.5029153823852539,-0.4192187488079071,9.634440422058105,0.2257421463727951,-1.700591802597046,-0.06928236037492752,-0.17640747129917145,0.8824663162231445,0.3588612973690033,-0.6270818114280701,-0.44158825278282166,-0.5319650769233704
4066759,9.327486038208008,0.050267159938812256,3.0871970653533936,-0.5737884044647217,-0.13665655255317688,0.7018967866897583,0.6948768496513367,-0.2979488968849182,-0.5029318928718567,-0.41884639859199524,9.614031791687012,0.24798683822155,-1.6704274415969849,-0.440704882144928,0.036991141736507416,0.8830041885375977,0.3586103022098541,-0.6270208954811096,-0.44141149520874023,-0.5323528051376343
4067259,9.309173583984375,0.06649989634752274,3.1312057971954346,-0.6507546305656433,0.05435654893517494,0.7245256304740906,0.6947736144065857,-0.2988128066062927,-0.5023012757301331,-0.4191588759422302,9.610936164855957,0.23411229252815247,-1.6920297145843506,-0.7896139621734619,-0.050495438277721405,0.9529141783714294,0.3584854006767273,-0.6268087029457092,-0.441342294216156,-0.5327441692352295
4067425,9.315314292907715,0.06061935797333717,3.113694429397583,-0.9169729948043823,-0.16413897275924683,0.7903117537498474,0.6946021318435669,-0.2992135286331177,-0.5019822120666504,-0.419539213180542,9.6338472366333,0.21900805830955505,-1.6926100254058838,-1.1393297910690308,-0.2290928214788437,0.8911747336387634,0.3582541048526764,-0.6267885565757751,-0.4411463737487793,-0.5330854654312134
4067592,9.329166412353516,0.06342507153749466,3.1424174308776855,-0.6948597431182861,-0.32391104102134705,0.8409610390663147,0.6945810914039612,-0.29940375685691833,-0.501850426197052,-0.4195958971977234,9.614274024963379,0.21250005066394806,-1.7093342542648315,-1.3521201610565186,0.005513133946806192,0.7886086106300354,0.3580532371997833,-0.6268323659896851,-0.4408895969390869,-0.5333812832832336
4067759,9.319129943847656,0.0800355076789856,3.1012187004089355,-0.2892570197582245,-0.03858553245663643,0.6718018651008606,0.69455486536026,-0.2995491027832031,-0.5017049312591553,-0.41970959305763245,9.598758697509766,0.21197569370269775,-1.6912505626678467,-1.4751633405685425,-0.20141826570034027,0.6194879412651062,0.3580378592014313,-0.6267832517623901,-0.4408875107765198,-0.5334510803222656
4067925,9.309539794921875,0.09695455431938171,3.1202874183654785,-0.19263310730457306,-0.012972831726074219,0.5145910978317261,0.6945493221282959,-0.29961198568344116,-0.5016385316848755,-0.41975313425064087,9.595126152038574,0.21812252700328827,-1.729447364807129,-1.5659220218658447,-0.2513502240180969,0.5493987798690796,0.35790038108825684,-0.6268650889396667,-0.44073063135147095,-0.5335767865180969
4068092,9.315458297729492,0.058388736099004745,3.1295390129089355,-0.2481614202260971,-0.2347915917634964,0.3893578350543976,0.6944049000740051,-0.29979208111763,-0.5015375018119812,-0.41998425126075745,9.566271781921387,0.23573575913906097,-1.6847476959228516,-1.7223899364471436,-0.41405487060546875,0.4792328178882599,0.35777121782302856,-0.6269558072090149,-0.44065091013908386,-0.5336226224899292
4068259,9.319557189941406,0.07752859592437744,3.0891242027282715,-0.5006002187728882,-0.3024347424507141,0.1937536597251892,0.6943535208702087,-0.2998542785644531,-0.5015157461166382,-0.4200506806373596,9.582291603088379,0.24181802570819855,-1.6853208541870117,-1.913268804550171,-0.8700634241104126,0.7318125367164612,0.35758447647094727,-0.6271272301673889,-0.4405233561992645,-0.5336517095565796
4068425,9.334741592407227,0.05866410583257675,3.1050097942352295,-0.2987721264362335,-0.5160318613052368,0.23379911482334137,0.6942576766014099,-0.2999534010887146,-0.5015214085578918,-0.42013153433799744,9.608940124511719,0.3152647912502289,-1.705082654953003,-2.3119564056396484,-1.0254557132720947,0.872310996055603,0.35739535093307495,-0.6273072361946106,-0.4404008686542511,-0.5336676836013794
4068592,9.313286781311035,0.04697287827730179,3.079026222229004,-0.5959690809249878,-0.7173348665237427,0.42565104365348816,0.6941888928413391,-0.3000642657279968,-0.5015556216239929,-0.42012524604797363,9.556227684020996,0.2729480564594269,-1.7111115455627441,-2.676809072494507,-0.8440665602684021,1.1706348657608032,0.35706886649131775,-0.6275855898857117,-0.4401134252548218,-0.533796489238739
4068759,9.320802688598633,0.06560364365577698,3.1187500953674316,-0.9686466455459595,-0.6498197913169861,0.15711469948291779,0.6941262483596802,-0.30015695095062256,-0.5016018152236938,-0.4201076030731201,9.497929573059082,0.3146967887878418,-1.712190866470337,-3.3563783168792725,-1.5333044528961182,1.1613633632659912,0.3566470146179199,-0.6279405951499939,-0.43983694911003113,-0.5338888168334961
4068925,9.323269844055176,0.02418277971446514,3.1141510009765625,-1.137101411819458,-0.6865100264549255,0.022814512252807617,0.6940059065818787,-0.3003076910972595,-0.5016133785247803,-0.4201849699020386,9.630221366882324,0.24892398715019226,-1.7320542335510254,-4.041914939880371,-2.046736717224121,1.2396100759506226,0.35618019104003906,-0.6283239126205444,-0.4396118223667145,-0.5339346528053284
4069092,9.281292915344238,0.08832364529371262,3.053542375564575,-1.07623291015625,-0.6475275158882141,0.3932510316371918,0.6937946677207947,-0.30063286423683167,-0.5015124082565308,-0.4204214811325073,9.637449264526367,0.198423370718956,-1.725428819656372,-4.290908336639404,-1.7934268712997437,1.052137851715088,0.3556702136993408,-0.6287219524383545,-0.4393269121646881,-0.534040629863739
4069259,9.327303886413574,0.063613161444664,3.027045249938965,-1.7099549770355225,-0.927230954170227,0.17033085227012634,0.6936256289482117,-0.300889253616333,-0.5014991760253906,-0.42053285241127014,9.623896598815918,0.1742733120918274,-1.7452465295791626,-4.232729911804199,-1.8849283456802368,0.33785074949264526,0.35515913367271423,-0.6290594935417175,-0.43914055824279785,-0.5341365337371826
4069425,9.371583938598633,0.04540710523724556,3.171097993850708,-0.4980517327785492,-0.29358553886413574,0.02678447589278221,0.69352787733078,-0.3009943664073944,-0.5015040636062622,-0.4206128716468811,9.667790412902832,0.1641685515642166,-1.7390974760055542,-3.825000286102295,-1.5621569156646729,0.10731080174446106,0.354667991399765,-0.6293792128562927,-0.43893197178840637,-0.5342576503753662
4069592,9.313124656677246,0.13121397793293,3.079233169555664,-0.3392273485660553,-0.8993259072303772,-0.43795153498649597,0.693347156047821,-0.3011142611503601,-0.501569390296936,-0.42074713110923767,9.613419532775879,0.17379477620124817,-1.7326511144638062,-3.2722911834716797,-0.9775981307029724,-0.002036209451034665,0.3543325364589691,-0.6295769214630127,-0.43880194425582886,-0.5343540906906128
4069759,9.313976287841797,0.08885053545236588,3.1528007984161377,-0.13640044629573822,-0.5007154941558838,-0.6826809644699097,0.6931900382041931,-0.3011572062969208,-0.5016269683837891,-0.4209066927433014,9.591537475585938,0.19165195524692535,-1.7146106958389282,-2.8186392784118652,-0.8391233086585999,-0.0022283049765974283,0.35410311818122864,-0.6297088265419006,-0.4387432634830475,-0.5343990325927734
4069925,9.320019721984863,0.03661550208926201,3.1639254093170166,-0.26625683903694153,-1.0047990083694458,0.02778337337076664,0.6930608153343201,-0.3012639880180359,-0.5017045140266418,-0.42095065116882324,9.608457565307617,0.19989988207817078,-1.7176735401153564,-2.1029179096221924,-0.850111186504364,0.3323695957660675,0.35388267040252686,-0.6299000382423401,-0.4385983943939209,-0.5344385504722595
4070092,9.305843353271484,0.04483938589692116,3.1307947635650635,-0.6628823280334473,-1.1821413040161133,-0.041121192276477814,0.6928834915161133,-0.3014419972896576,-0.5017533898353577,-0.4210568070411682,9.589730262756348,0.23814211785793304,-1.7176780700683594,-1.5835949182510376,-0.6940273642539978,0.30979201197624207,0.3537049889564514,-0.6300656199455261,-0.43846240639686584,-0.5344725847244263
4070259,9.299077033996582,0.08329234272241592,3.132765054702759,-0.4993579685688019,-1.0447676181793213,-0.06645214557647705,0.6927522420883179,-0.30156251788139343,-0.5018135905265808,-0.4211147725582123,9.580333709716797,0.2210782766342163,-1.74287748336792,-1.1577963829040527,-0.8605098128318787,0.6710975170135498,0.35357141494750977,-0.630252480506897,-0.4383213222026825,-0.5344563126564026
4070425,9.286680221557617,0.0952032282948494,3.106504440307617,-0.8658629655838013,-1.248094081878662,0.14496147632598877,0.6925716400146484,-0.30178478360176086,-0.5018360614776611,-0.421225905418396,9.566186904907227,0.16995550692081451,-1.7472715377807617,-0.30330559611320496,-1.1598200798034668,0.8232242465019226,0.3535670340061188,-0.6303814053535461,-0.43831750750541687,-0.5343103408813477
4070592,9.311399459838867,0.028867855668067932,3.0818862915039062,-0.656715989112854,-1.3676732778549194,0.06770716607570648,0.6924114227294922,-0.3019559681415558,-0.5019043684005737,-0.4212850332260132,9.529006958007812,0.12549875676631927,-1.750108003616333,0.847312867641449,-1.499943494796753,0.9633512496948242,0.35366103053092957,-0.6304901838302612,-0.43840450048446655,-0.5340483784675598
4070759,9.316877365112305,0.019811376929283142,3.074878692626953,0.1298884153366089,-1.0591363906860352,0.4507898688316345,0.6923403143882751,-0.3020521104335785,-0.5019777417182922,-0.42124560475349426,9.571067810058594,0.10817627608776093,-1.774224042892456,2.035447597503662,-1.7999452352523804,1.1238020658493042,0.35391631722450256,-0.6305326819419861,-0.4386425018310547,-0.5336334705352783
4070925,9.301337242126465,0.03482891619205475,3.10054087638855,0.7559651732444763,-0.9911858439445496,0.7724342346191406,0.6922332048416138,-0.30221474170684814,-0.5020042061805725,-0.4212733805179596,9.607295036315918,0.13174864649772644,-1.7968233823776245,3.1617658138275146,-1.4252057075500488,0.7779921293258667,0.3541754186153412,-0.6305548548698425,-0.4388558566570282,-0.5332597494125366
4071092,9.305644035339355,0.014580817893147469,3.080486297607422,0.7432485222816467,-0.7467255592346191,0.8508090376853943,0.6922623515129089,-0.30223676562309265,-0.5020805597305298,-0.4211186468601227,9.613779067993164,0.19042913615703583,-1.8128864765167236,3.65478515625,-1.3039681911468506,0.6045942306518555,0.354523628950119,-0.630495011806488,-0.4391726553440094,-0.532837986946106
4071259,9.327067375183105,0.031026877462863922,3.093949556350708,1.2590115070343018,-0.2606732249259949,0.8206885457038879,0.692376971244812,-0.30214446783065796,-0.502159833908081,-0.42090195417404175,9.656668663024902,0.22145281732082367,-1.817695140838623,3.824981927871704,-0.6008612513542175,0.6306936740875244,0.3548789322376251,-0.6304178237915039,-0.43940481543540955,-0.5325015783309937
4071425,9.289934158325195,0.06334105879068375,3.086862564086914,0.8569305539131165,-0.5464341640472412,0.9133681058883667,0.6924196481704712,-0.3021654486656189,-0.5022100210189819,-0.4207567870616913,9.565592765808105,0.27598968148231506,-1.78830087184906,3.548658609390259,-0.552350640296936,0.5855126976966858,0.35522517561912537,-0.6303299069404602,-0.43964576721191406,-0.5321757793426514
4071592,9.323664665222168,-0.014622665010392666,3.0046145915985107,1.3707597255706787,-1.050325632095337,1.408371925354004,0.692476212978363,-0.3022034764289856,-0.5023191571235657,-0.42050597071647644,9.635485649108887,0.36675721406936646,-1.8155962228775024,2.480058431625366,-0.6142181158065796,0.368649959564209,0.355446457862854,-0.6302846670150757,-0.4398326873779297,-0.5319268703460693
4071759,9.368330001831055,0.05349638685584068,3.110013723373413,1.3894182443618774,-0.6885204911231995,1.112647533416748,0.6925382614135742,-0.30220428109169006,-0.5024064183235168,-0.42029884457588196,9.601505279541016,0.3661652207374573,-1.811171293258667,1.283996820449829,-0.29186955094337463,0.3686756193637848,0.3555571734905243,-0.6302806735038757,-0.43990597128868103,-0.5317969918251038
4071925,9.345404624938965,0.11553585529327393,2.9828338623046875,1.43149995803833,-0.4481837749481201,0.5603097677230835,0.6926044821739197,-0.3021228313446045,-0.502509355545044,-0.42012542486190796,9.588891983032227,0.31861019134521484,-1.7939848899841309,0.16878128051757812,-0.28043344616889954,0.7864699959754944,0.3556165099143982,-0.6303341388702393,-0.4398929178714752,-0.5317047834396362
4072092,9.324835777282715,0.10110455006361008,3.1053802967071533,1.4589825868606567,-0.19607801735401154,0.7183657288551331,0.6926282048225403,-0.30211466550827026,-0.5025392770767212,-0.4200561046600342,9.597306251525879,0.25270694494247437,-1.809434413909912,-0.5121643543243408,-0.09654707461595535,1.082450270652771,0.3556044399738312,-0.6304566860198975,-0.4397485852241516,-0.5316869616508484
4072259,9.364021301269531,0.07715089619159698,3.0458567142486572,1.0296623706817627,-1.2198303937911987,0.9365347623825073,0.6926596164703369,-0.302120178937912,-0.5026998519897461,-0.4198082983493805,9.601217269897461,0.23655080795288086,-1.808998703956604,-0.8222828507423401,-0.015303587540984154,1.3798136711120605,0.3556141257286072,-0.6305880546569824,-0.4395783841609955,-0.5316655039787292
4072425,9.380074501037598,0.07876478880643845,3.0490329265594482,1.0459394454956055,-0.6957945823669434,0.7953959703445435,0.6927046775817871,-0.3021000027656555,-0.502805769443512,-0.41962170600891113,9.595128059387207,0.21453328430652618,-1.7923611402511597,-1.1208884716033936,0.09593876451253891,1.2629940509796143,0.35557833313941956,-0.6307312250137329,-0.43937262892723083,-0.5316896438598633
4072592,9.322916030883789,0.09669764339923859,3.051178455352783,0.7052393555641174,-0.35223865509033203,0.7675678730010986,0.6927449107170105,-0.30210545659065247,-0.5028504133224487,-0.4194977283477783,9.56107234954834,0.18818557262420654,-1.8069877624511719,-0.9177669882774353,0.24245624244213104,0.9830603003501892,0.35558056831359863,-0.6308087110519409,-0.4392373561859131,-0.5317080616950989
4072759,9.338178634643555,0.07238243520259857,3.0674238204956055,-0.12531013786792755,-0.614538311958313,0.530739963054657,0.6926990747451782,-0.3022104501724243,-0.5028713941574097,-0.4194726049900055,9.568631172180176,0.1604548841714859,-1.790566086769104,-0.657209038734436,0.20835289359092712,0.6423344612121582,0.3555506765842438,-0.6308779120445251,-0.43912097811698914,-0.5317420363426208
4072925,9.342469215393066,0.049537625163793564,3.047454357147217,0.06998030096292496,-0.34703925251960754,0.448138952255249,0.6926975250244141,-0.30224743485450745,-0.5028963088989258,-0.4194185137748718,9.575109481811523,0.1570563018321991,-1.8066855669021606,-0.08453471213579178,0.3491971492767334,0.5928251147270203,0.3556024432182312,-0.6308863162994385,-0.4390706419944763,-0.5317391753196716
4073092,9.31589126586914,0.026896655559539795,3.0464494228363037,0.5672252774238586,-0.24763640761375427,0.5438664555549622,0.6927129626274109,-0.3022571802139282,-0.5029249787330627,-0.4193517863750458,9.57383918762207,0.15844029188156128,-1.8084772825241089,0.432528018951416,0.32271361351013184,0.3604923188686371,0.35567858815193176,-0.6308601498603821,-0.43907594680786133,-0.531714677810669
4073259,9.317156791687012,0.02953743189573288,3.0390844345092773,0.670982301235199,-0.41762787103652954,0.3727223873138428,0.6927037239074707,-0.3022632896900177,-0.5029794573783875,-0.41929733753204346,9.594917297363281,0.16091696918010712,-1.7926814556121826,0.8172179460525513,0.41258853673934937,0.5085337162017822,0.3557787835597992,-0.6308423280715942,-0.4390566349029541,-0.531684935092926
4073425,9.327703475952148,0.03821892663836479,3.0312647819519043,0.5858840942382812,-0.3074164092540741,0.32384052872657776,0.6927306056022644,-0.30222705006599426,-0.503044605255127,-0.41920095682144165,9.600869178771973,0.19905738532543182,-1.7906692028045654,1.1238915920257568,0.638582170009613,0.4955865144729614,0.35594502091407776,-0.6307715177536011,-0.43907690048217773,-0.531640887260437
4073592,9.332313537597656,0.027697725221514702,3.0474936962127686,0.5878690481185913,0.02047094888985157,0.36065879464149475,0.6927692294120789,-0.3021911084651947,-0.503065288066864,-0.4191380441188812,9.592729568481445,0.23666860163211823,-1.8014194965362549,1.2254587411880493,0.6143270134925842,0.5070866346359253,0.35612526535987854,-0.6306934952735901,-0.4391111731529236,-0.5315843820571899
4073759,9.31869125366211,0.030415643006563187,3.0736358165740967,0.7217082381248474,-0.03715122118592262,0.3877570331096649,0.6928028464317322,-0.30215850472450256,-0.5030921697616577,-0.4190737009048462,9.604684829711914,0.25226956605911255,-1.7930119037628174,1.0992521047592163,0.6972736716270447,0.5366052389144897,0.3562988340854645,-0.6306182146072388,-0.43912774324417114,-0.5315436720848083
4073925,9.337743759155273,0.045401014387607574,3.077939510345459,0.9284026622772217,0.06816179305315018,0.4291727840900421,0.6928397417068481,-0.30212196707725525,-0.5031061768531799,-0.4190222918987274,9.592391014099121,0.24734094738960266,-1.7797062397003174,1.0432372093200684,0.7197744250297546,0.6546541452407837,0.3564848303794861,-0.6305440068244934,-0.4391387403011322,-0.5314980745315552
4074092,9.362008094787598,0.05277185142040253,3.0860581398010254,1.0326464176177979,0.17057417333126068,0.48050060868263245,0.6929043531417847,-0.30205756425857544,-0.5031221508979797,-0.4189426898956299,9.582768440246582,0.2371072620153427,-1.7569197416305542,0.8584928512573242,0.7849332094192505,0.8146054744720459,0.3566475212574005,-0.630501389503479,-0.43909206986427307,-0.5314778089523315
4074259,9.321441650390625,0.06999944895505905,3.0874271392822266,0.9421567320823669,0.20092521607875824,0.4528133273124695,0.6929833889007568,-0.3019770681858063,-0.5031429529190063,-0.41884496808052063,9.57542896270752,0.22448380291461945,-1.7652291059494019,0.7275095582008362,0.6607884168624878,0.893146812915802,0.35676056146621704,-0.6305086016654968,-0.43899253010749817,-0.5314757823944092
4074425,9.320596694946289,0.052712831646203995,3.0902981758117676,0.795383095741272,0.14952053129673004,0.5355295538902283,0.6930537223815918,-0.3019241988658905,-0.5031532645225525,-0.4187542200088501,9.58454418182373,0.21898625791072845,-1.7540466785430908,0.6382236480712891,0.7100160717964172,0.8729127645492554,0.3569449186325073,-0.6304500102996826,-0.438978374004364,-0.5314332246780396
4074592,9.338854789733887,0.06046926975250244,3.0791306495666504,0.6893851161003113,0.22173555195331573,0.6164529323577881,0.6931191086769104,-0.30189651250839233,-0.5031375885009766,-0.41868504881858826,9.606962203979492,0.21893943846225739,-1.7733319997787476,0.5819525718688965,0.6330242156982422,0.8831066489219666,0.35707253217697144,-0.6304394006729126,-0.43890640139579773,-0.5314195156097412
4074759,9.334301948547363,0.057623427361249924,3.0749661922454834,0.20460064709186554,0.5144502520561218,0.5397812724113464,0.693191409111023,-0.30187997221946716,-0.5030743479728699,-0.41865310072898865,9.622896194458008,0.21932756900787354,-1.7591511011123657,0.44603872299194336,0.8448540568351746,0.9487136006355286,0.3572230339050293,-0.6304092407226562,-0.4388272762298584,-0.5314195156097412
4074925,9.31666374206543,0.06264084577560425,3.0867462158203125,0.11987383663654327,0.3942883014678955,0.6238164901733398,0.6932387351989746,-0.30190661549568176,-0.5030013918876648,-0.4186430871486664,9.59171199798584,0.22526578605175018,-1.7460898160934448,0.23388879001140594,1.046656608581543,0.9562565684318542,0.3573645055294037,-0.630376935005188,-0.438716858625412,-0.5314539670944214
4075092,9.30664348602295,0.05717997997999191,3.11908221244812,0.026464320719242096,0.38177645206451416,0.6543596386909485,0.693191647529602,-0.30205515027046204,-0.5028562545776367,-0.41878822445869446,9.605162620544434,0.22113533318042755,-1.7227396965026855,0.07886790484189987,1.2137281894683838,0.8615023493766785,0.3575117886066437,-0.630318820476532,-0.4386145770549774,-0.5315080881118774
4075259,9.317241668701172,0.06836291402578354,3.103311061859131,0.09948611259460449,0.3484543263912201,0.6316923499107361,0.6932390928268433,-0.3020825684070587,-0.5027871131896973,-0.4187730848789215,9.583577156066895,0.2060295045375824,-1.715409278869629,-0.13164927065372467,1.073972463607788,0.8149256110191345,0.3575783669948578,-0.6303191781044006,-0.438448965549469,-0.5315995812416077
4075425,9.313867568969727,0.06018756702542305,3.132882833480835,-0.01228128932416439,0.48890164494514465,0.6487760543823242,0.6933218240737915,-0.3020784258842468,-0.5027167797088623,-0.41872334480285645,9.581917762756348,0.1993807852268219,-1.7098371982574463,-0.1620771586894989,0.9475226998329163,0.8190621733665466,0.3576943278312683,-0.6302811503410339,-0.4383575916290283,-0.5316420793533325
4075592,9.303625106811523,0.058066874742507935,3.0891172885894775,-0.18103057146072388,0.13535669445991516,0.6841343641281128,0.6932768821716309,-0.3022315502166748,-0.5025990009307861,-0.4188285768032074,9.555058479309082,0.18371018767356873,-1.7172331809997559,-0.18136350810527802,0.6031213998794556,0.9757348895072937,0.3577597141265869,-0.6303125023841858,-0.43822091817855835,-0.5316734910011292
4075759,9.316767692565918,0.053138863295316696,3.082418918609619,-0.219705730676651,0.07006993144750595,0.6574971675872803,0.6932883858680725,-0.302312970161438,-0.5025328993797302,-0.4188302159309387,9.581449508666992,0.16697119176387787,-1.723949909210205,-0.09143732488155365,0.24440276622772217,0.9467414021492004,0.35782769322395325,-0.6303491592407227,-0.43813467025756836,-0.5316553711891174
4075925,9.314789772033691,0.03924887627363205,3.1005895137786865,0.11384204775094986,0.11281754076480865,0.5989338159561157,0.6933300495147705,-0.30233457684516907,-0.5024968981742859,-0.4187888503074646,9.587453842163086,0.19066549837589264,-1.705199956893921,-0.11292638629674911,-0.05847379192709923,0.8033487200737,0.35785815119743347,-0.6304059028625488,-0.438068151473999,-0.5316224098205566
4076092,9.311674118041992,0.047699399292469025,3.0842502117156982,0.113265760242939,-0.06439032405614853,0.5375657081604004,0.6933415532112122,-0.3023790121078491,-0.5024710297584534,-0.4187687337398529,9.574182510375977,0.18377771973609924,-1.7112795114517212,-0.16659781336784363,-0.33829250931739807,0.5641132593154907,0.3578169643878937,-0.630496621131897,-0.4379970133304596,-0.5316011309623718
4076259,9.323265075683594,0.058903709053993225,3.089803695678711,0.06414060294628143,-0.14715775847434998,0.5250155329704285,0.6933434009552002,-0.3024333417415619,-0.5024505257606506,-0.4187512695789337,9.592313766479492,0.17020247876644135,-1.7097312211990356,0.047402702271938324,-0.5443978905677795,0.4427987337112427,0.3577806055545807,-0.6305779814720154,-0.4379725158214569,-0.5315492749214172
4076425,9.327109336853027,0.04026094079017639,3.1015264987945557,0.30342724919319153,-0.14418669044971466,0.5393458008766174,0.693325936794281,-0.30250120162963867,-0.5024212002754211,-0.4187663793563843,9.600442886352539,0.16416937112808228,-1.7430541515350342,0.1767212152481079,-0.6236052513122559,0.43923860788345337,0.35773777961730957,-0.6306694746017456,-0.43794581294059753,-0.5314915180206299
4076592,9.324889183044434,0.046980779618024826,3.0978214740753174,0.474763423204422,-0.1680065095424652,0.43460267782211304,0.6933211088180542,-0.3025297224521637,-0.5024185180664062,-0.4187568724155426,9.588591575622559,0.18985727429389954,-1.7256273031234741,0.266186386346817,-0.6434677839279175,0.4681425094604492,0.35771286487579346,-0.6307529211044312,-0.43793392181396484,-0.531419038772583
4076759,9.31467342376709,0.046173159033060074,3.081557273864746,0.8327776789665222,-0.19743549823760986,0.48550787568092346,0.6933294534683228,-0.3025319576263428,-0.502435564994812,-0.41872096061706543,9.602534294128418,0.21724995970726013,-1.754242181777954,0.23176294565200806,-0.8001407980918884,0.3803037703037262,0.357709676027298,-0.6308101415634155,-0.43798500299453735,-0.5313112735748291
4076926,9.310076713562012,0.05486617237329483,3.125122308731079,0.5969359874725342,-0.3355519771575928,0.3919190764427185,0.6932985782623291,-0.3025750517845154,-0.5024468898773193,-0.41872739791870117,9.604377746582031,0.21776241064071655,-1.742707371711731,0.04324064031243324,-0.6512797474861145,0.3152603209018707,0.3576575815677643,-0.6308905482292175,-0.4379776418209076,-0.531256914138794
4077092,9.318658828735352,0.058192044496536255,3.093998670578003,0.44584664702415466,-0.19230014085769653,0.21647211909294128,0.6933603882789612,-0.3024919629096985,-0.5025138258934021,-0.41860467195510864,9.584795951843262,0.21927881240844727,-1.7740992307662964,-0.035050977021455765,-0.5382124781608582,0.6354445815086365,0.35761314630508423,-0.6310000419616699,-0.43790915608406067,-0.531213104724884
4077259,9.328326225280762,0.043940696865320206,3.105257034301758,0.4122171700000763,-0.12164751440286636,0.2907361388206482,0.6933298110961914,-0.302533894777298,-0.5024954676628113,-0.4186471104621887,9.60459041595459,0.2211025208234787,-1.764970302581787,-0.2975939214229584,-0.5746720433235168,0.7886726260185242,0.35756245255470276,-0.6311282515525818,-0.43781962990760803,-0.5311686992645264
4077426,9.329512596130371,0.05876781418919563,3.0876007080078125,0.19991351664066315,-0.25818881392478943,0.30733317136764526,0.6933122277259827,-0.3025694787502289,-0.5024993419647217,-0.418645977973938,9.631963729858398,0.2033873349428177,-1.7602170705795288,-0.3935391306877136,-0.2651810944080353,0.7000270485877991,0.35755378007888794,-0.6312000155448914,-0.43776094913482666,-0.5311376452445984
4077592,9.321026802062988,0.053446635603904724,3.0671589374542236,0.12365170568227768,-0.3007058799266815,0.45847368240356445,0.6932958364486694,-0.30262789130210876,-0.5024951696395874,-0.41863587498664856,9.546900749206543,0.17598403990268707,-1.7492955923080444,-0.3812962472438812,0.08954839408397675,0.8063197135925293,0.3575434982776642,-0.631277859210968,-0.4376354515552521,-0.5311556458473206
4077759,9.335528373718262,0.05513113737106323,3.123769998550415,0.22126169502735138,-0.19036637246608734,0.313493013381958,0.6932461857795715,-0.3027028441429138,-0.5024661421775818,-0.41869857907295227,9.520336151123047,0.1648595780134201,-1.775122046470642,-0.279575377702713,-0.6057018637657166,0.5011188983917236,0.3574477434158325,-0.631406843662262,-0.43754956126213074,-0.5311373472213745
4077926,9.312455177307129,0.004381184000521898,3.1015050411224365,0.0977572649717331,-0.31994104385375977,0.3019673228263855,0.6932150721549988,-0.3027563691139221,-0.5024672746658325,-0.41871020197868347,9.64443588256836,0.14931385219097137,-1.7756940126419067,-0.00906689465045929,-0.6345801949501038,0.23344050347805023,0.35740041732788086,-0.6314693689346313,-0.43756601214408875,-0.53108149766922
4078092,9.285401344299316,0.0685095265507698,3.0226492881774902,0.053524136543273926,-0.29104989767074585,0.40900281071662903,0.6931942701339722,-0.30281633138656616,-0.5024601817131042,-0.4187096357345581,9.624049186706543,0.1767468899488449,-1.7807044982910156,0.03583856672048569,-0.27504196763038635,-0.2494932860136032,0.35736653208732605,-0.6314519047737122,-0.43763914704322815,-0.5310647487640381
4078259,9.337323188781738,0.00814302358776331,3.045412302017212,0.5650609731674194,-0.006620882544666529,0.2772766947746277,0.6931940317153931,-0.3028152287006378,-0.5024515986442566,-0.41872116923332214,9.655069351196289,0.23739559948444366,-1.7690316438674927,0.15288861095905304,-0.18908575177192688,-0.9363235235214233,0.35726577043533325,-0.6314027309417725,-0.4377441704273224,-0.5311042666435242
4078426,9.366358757019043,0.04203542321920395,3.1326446533203125,1.423509120941162,0.13487006723880768,-0.1400502324104309,0.6931079030036926,-0.3028191328048706,-0.5024212002754211,-0.4188975393772125,9.618331909179688,0.2526339888572693,-1.7764379978179932,0.0006979460595175624,0.10845056176185608,-0.7023001909255981,0.35716673731803894,-0.6313702464103699,-0.4377762973308563,-0.5311832427978516
4078592,9.341864585876465,0.1250646412372589,3.0349888801574707,1.3005552291870117,0.13451148569583893,-0.739489734172821,0.6931226253509521,-0.3026198744773865,-0.5025126934051514,-0.4189072251319885,9.594173431396484,0.2752675414085388,-1.7285414934158325,-0.2775135636329651,0.1722133755683899,-0.19249223172664642,0.35707855224609375,-0.6313843131065369,-0.43772998452186584,-0.5312638878822327
4078759,9.306790351867676,0.06075979024171829,3.1477231979370117,1.1030300855636597,0.31486329436302185,-0.4230833351612091,0.6931217908859253,-0.3024985194206238,-0.5025331974029541,-0.4189716875553131,9.599713325500488,0.26567643880844116,-1.7171051502227783,-0.2753877341747284,0.31067565083503723,0.4499703049659729,0.3570258915424347,-0.6314462423324585,-0.43759146332740784,-0.5313398838043213
4078926,9.335176467895508,0.04023262485861778,3.1154744625091553,0.8380411863327026,-0.47088950872421265,0.2021034210920334,0.6930518746376038,-0.302543044090271,-0.5025607347488403,-0.4190220534801483,9.57005786895752,0.2902311384677887,-1.7290639877319336,-0.40039053559303284,0.41879966855049133,0.8946196436882019,0.35706406831741333,-0.6314830780029297,-0.4374704360961914,-0.5313700437545776
4079092,9.33014965057373,0.06567706167697906,3.1141111850738525,0.7464885711669922,-0.007914324291050434,0.18827255070209503,0.6930643320083618,-0.30250364542007446,-0.5025748610496521,-0.4190131723880768,9.590743064880371,0.25893521308898926,-1.7184886932373047,-0.6338247060775757,0.31316009163856506,1.0999950170516968,0.3570935130119324,-0.6315488219261169,-0.43732401728630066,-0.5313926935195923
4079259,9.268370628356934,0.1075294017791748,3.1435577869415283,0.5246056914329529,-0.05652722716331482,0.32660675048828125,0.693081259727478,-0.30248838663101196,-0.5025805234909058,-0.418989360332489,9.57878589630127,0.21348285675048828,-1.7462754249572754,-0.49720650911331177,0.17816834151744843,1.0580029487609863,0.35714825987815857,-0.6315938830375671,-0.43722906708717346,-0.531380295753479
4079426,9.296565055847168,0.09922902286052704,3.114776372909546,-0.2693943381309509,-0.6113110780715942,0.21674105525016785,0.6929666996002197,-0.3026374876499176,-0.5025622844696045,-0.4190931022167206,9.576881408691406,0.15937647223472595,-1.729907512664795,-0.08890169113874435,0.04669835790991783,0.9019448757171631,0.3571629524230957,-0.6316645741462708,-0.43711918592453003,-0.5313768982887268
4079592,9.331798553466797,0.04702712595462799,3.0799334049224854,-0.050738755613565445,-0.09389615058898926,0.40145981311798096,0.6929567456245422,-0.30269062519073486,-0.5025301575660706,-0.4191094934940338,9.574925422668457,0.1217404454946518,-1.7074894905090332,0.6710591316223145,-0.22557102143764496,0.9773486256599426,0.3572442829608917,-0.6317152976989746,-0.4370840787887573,-0.5312908291816711
4079759,9.285452842712402,0.0618719644844532,3.0933587551116943,0.40858015418052673,0.016142403706908226,0.6357647776603699,0.6929004788398743,-0.3028144836425781,-0.5024403929710388,-0.4192206859588623,9.602279663085938,0.13219384849071503,-1.724666953086853,1.2051736116409302,-0.4333028197288513,0.8980900645256042,0.3573126792907715,-0.6317849159240723,-0.4370558559894562,-0.5311853885650635
4079926,9.303152084350586,0.03932539001107216,3.0869109630584717,0.2921704351902008,-0.20194333791732788,0.8016326427459717,0.6928992867469788,-0.30289608240127563,-0.5024058222770691,-0.41920506954193115,9.594066619873047,0.2112184762954712,-1.740265130996704,1.2905023097991943,-0.2108309417963028,0.5809024572372437,0.3574005961418152,-0.6317949891090393,-0.43707671761512756,-0.5310968160629272
4080092,9.317107200622559,0.04719163104891777,3.07673978805542,0.2233235239982605,-0.07003792375326157,0.785061240196228,0.6929083466529846,-0.3029699921607971,-0.502357542514801,-0.41919469833374023,9.591136932373047,0.2310991734266281,-1.7285157442092896,1.0777504444122314,-0.6069186329841614,0.410091370344162,0.3574455976486206,-0.6318231225013733,-0.4371359050273895,-0.5309844613075256
4080259,9.306496620178223,0.06880618631839752,3.1318562030792236,0.2954360842704773,0.09701450169086456,0.5773935317993164,0.6929472088813782,-0.3029785454273224,-0.5023258924484253,-0.4191622734069824,9.618987083435059,0.23264238238334656,-1.7705010175704956,0.7890056371688843,-0.36551880836486816,0.5664312839508057,0.3574802875518799,-0.6318660378456116,-0.43713313341140747,-0.5309123992919922
4080426,9.287306785583496,0.0758620873093605,3.064891815185547,0.10340487211942673,-0.2975042760372162,0.5360032916069031,0.6929070949554443,-0.30307453870773315,-0.5022949576377869,-0.41919630765914917,9.54022216796875,0.2660210430622101,-1.7428854703903198,0.4016135036945343,-0.8156747817993164,0.4352942109107971,0.357477068901062,-0.631924569606781,-0.43718084692955017,-0.5308055281639099
4080592,9.3523530960083,0.015358218923211098,3.0813632011413574,0.8307415843009949,-0.39451244473457336,0.7971761226654053,0.6928935647010803,-0.30313852429389954,-0.5022968053817749,-0.41916999220848083,9.618321418762207,0.2915051281452179,-1.7688809633255005,-0.39776524901390076,-1.061031699180603,0.11229248344898224,0.3574090600013733,-0.6319815516471863,-0.4372694790363312,-0.5307103991508484
4080759,9.352766990661621,0.06285537779331207,3.1291210651397705,0.6183290481567383,-0.5578190088272095,0.5037121772766113,0.6927767395973206,-0.3032895624637604,-0.5022686123847961,-0.41928771138191223,9.608468055725098,0.27142539620399475,-1.7657297849655151,-0.8289037346839905,-0.9558145403862,0.1888360232114792,0.35728293657302856,-0.6320815682411194,-0.4372776448726654,-0.5306695699691772
4080926,9.335267066955566,0.12654949724674225,3.021878719329834,0.8887030482292175,-0.3635338246822357,-0.030684011057019234,0.6927595734596252,-0.30323514342308044,-0.5023373961448669,-0.4192730188369751,9.608444213867188,0.22325977683067322,-1.7956609725952148,-1.0235987901687622,-0.9784691333770752,0.4076197147369385,0.35713160037994385,-0.6322250962257385,-0.4372260272502899,-0.5306430459022522
4081092,9.324211120605469,0.09724261611700058,3.11651349067688,0.8306262493133545,-0.2494932860136032,0.16034188866615295,0.6927494406700134,-0.30320483446121216,-0.5023766756057739,-0.41926464438438416,9.599206924438477,0.1997457593679428,-1.790494441986084,-0.7689316868782043,-0.739810049533844,0.6522210240364075,0.35705286264419556,-0.6323396563529968,-0.4371781647205353,-0.5305989980697632
4081259,9.358332633972168,0.04759205877780914,3.0947251319885254,0.5299971699714661,-0.8566935062408447,0.3589811623096466,0.6927079558372498,-0.30323874950408936,-0.5024601817131042,-0.4192086458206177,9.603801727294922,0.19152036309242249,-1.800291895866394,-0.4376057982444763,-0.6820150017738342,0.8916869759559631,0.35698971152305603,-0.6324779391288757,-0.43708717823028564,-0.5305514931678772
4081426,9.354560852050781,0.04534962773323059,3.111962080001831,0.5046021938323975,-0.32166990637779236,0.3135186433792114,0.6926571130752563,-0.303292453289032,-0.5024579167366028,-0.41925638914108276,9.602853775024414,0.19536468386650085,-1.8001070022583008,-0.30390751361846924,-0.3727031648159027,0.8267715573310852,0.3569672107696533,-0.6325696706771851,-0.43701353669166565,-0.5305178165435791
4081592,9.299623489379883,0.07335516065359116,3.1025993824005127,0.40016642212867737,-0.5215641856193542,0.3694823980331421,0.6925551891326904,-0.3034154772758484,-0.5024409890174866,-0.4193560779094696,9.58868408203125,0.19008256494998932,-1.797709345817566,-0.07409754395484924,-0.11867644637823105,0.5618337988853455,0.3569878041744232,-0.6325914263725281,-0.43700069189071655,-0.5304886102676392
4081759,9.322185516357422,0.06503333151340485,3.103593587875366,-0.21445512771606445,-0.5550015568733215,0.2619602680206299,0.6925102472305298,-0.3034825623035431,-0.5024620294570923,-0.41935643553733826,9.587968826293945,0.19742095470428467,-1.7911219596862793,0.16615597903728485,-0.0063647557981312275,0.27713584899902344,0.3569878339767456,-0.6325967311859131,-0.43699386715888977,-0.5304878354072571
4081926,9.292901992797852,0.054140396416187286,3.0884945392608643,-0.13940991461277008,-0.33930420875549316,0.09120041877031326,0.6924753785133362,-0.30351459980010986,-0.5024742484092712,-0.4193761646747589,9.59289264678955,0.21518750488758087,-1.7768056392669678,0.3357376456260681,-0.013369828462600708,0.3294113278388977,0.35701894760131836,-0.6325870156288147,-0.43701064586639404,-0.5304646492004395
4082092,9.295538902282715,0.06124255061149597,3.0769400596618652,0.302044153213501,-0.6938864588737488,0.3541788160800934,0.692385196685791,-0.30362066626548767,-0.5024902820587158,-0.4194292724132538,9.588376998901367,0.2236989140510559,-1.7755225896835327,0.37473297119140625,-0.025843212381005287,0.4821910858154297,0.35706114768981934,-0.6325885057449341,-0.4370133876800537,-0.5304323434829712
4082259,9.312668800354004,0.05922199413180351,3.095625877380371,0.14014628529548645,-0.4703004062175751,0.3009684681892395,0.6923282146453857,-0.30369260907173157,-0.5024958848953247,-0.4194642901420593,9.607931137084961,0.24017450213432312,-1.7750290632247925,0.37108322978019714,-0.020259644836187363,0.47449448704719543,0.3570598363876343,-0.6326238512992859,-0.436965674161911,-0.5304304361343384
4082426,9.317540168762207,0.05747322738170624,3.073002815246582,0.24298125505447388,-0.5772204995155334,0.17015154659748077,0.6922578811645508,-0.30375343561172485,-0.5025226473808289,-0.4195043444633484,9.591120719909668,0.24520981311798096,-1.749602198600769,0.024645818397402763,-0.06273830682039261,0.44167178869247437,0.35711100697517395,-0.6326037645339966,-0.43700525164604187,-0.5303873419761658
4082592,9.332260131835938,0.052030667662620544,3.0906691551208496,0.2762649655342102,-0.4715554118156433,0.21613916754722595,0.692182719707489,-0.303827702999115,-0.5025267004966736,-0.41956982016563416,9.579748153686523,0.2543470561504364,-1.752842664718628,-0.31789201498031616,-0.06610637903213501,0.43634432554244995,0.3570760190486908,-0.6326450109481812,-0.436955064535141,-0.5304030776023865
4082759,9.334870338439941,0.06289173662662506,3.084500312805176,0.37314504384994507,-0.49176380038261414,0.1901806890964508,0.6921453475952148,-0.3038475811481476,-0.5025663375854492,-0.4195697605609894,9.552181243896484,0.24294531345367432,-1.7415807247161865,-0.5615327954292297,-0.4735915958881378,0.46409568190574646,0.35700803995132446,-0.6327201724052429,-0.43692174553871155,-0.5303866267204285
4082926,9.330307006835938,0.06550538539886475,3.0885376930236816,0.2621011435985565,-0.4667273759841919,0.347852498292923,0.6921020746231079,-0.30390307307243347,-0.5025806427001953,-0.41958361864089966,9.582902908325195,0.2357296645641327,-1.7773934602737427,-0.6536232829093933,-0.6433781981468201,0.5362851023674011,0.35694772005081177,-0.6327994465827942,-0.4369097650051117,-0.5303423404693604
4083092,9.328022003173828,0.08287860453128815,3.093902111053467,0.31181541085243225,-0.4754869341850281,0.33251044154167175,0.6920816898345947,-0.3039262294769287,-0.5026155710220337,-0.419558584690094,9.578394889831543,0.2163752019405365,-1.7544713020324707,-0.7328818440437317,-0.6591428518295288,0.6862090229988098,0.35688677430152893,-0.6328959465026855,-0.43687543272972107,-0.5302965044975281
4083259,9.326080322265625,0.08143381774425507,3.09682035446167,0.29427066445350647,-0.6352332830429077,0.39684951305389404,0.6919982433319092,-0.30403053760528564,-0.5026230216026306,-0.41961178183555603,9.617857933044434,0.21331998705863953,-1.783406376838684,-0.4472233057022095,-0.7834155559539795,0.7328497171401978,0.3568171262741089,-0.6330150961875916,-0.43682861328125,-0.5302399396896362
4083426,9.3421630859375,0.07169964164495468,3.0900113582611084,0.17847567796707153,-0.6567608118057251,0.3859128952026367,0.6919355988502502,-0.3041127920150757,-0.5026463866233826,-0.41962745785713196,9.607921600341797,0.19342194497585297,-1.8013899326324463,-0.19402900338172913,-0.5442569851875305,0.6901277899742126,0.35676395893096924,-0.633114755153656,-0.43677088618278503,-0.5302041172981262
4083592,9.322132110595703,0.06087062507867813,3.078052282333374,0.3210616111755371,-0.506657600402832,0.48777467012405396,0.691849410533905,-0.30423516035079956,-0.50262451171875,-0.4197070002555847,9.600167274475098,0.18111437559127808,-1.788964867591858,0.1357152760028839,-0.3592309057712555,0.7826536297798157,0.3568028509616852,-0.6331533789634705,-0.43677249550819397,-0.5301304459571838
4083759,9.307962417602539,0.046400126069784164,3.0707175731658936,0.29623010754585266,-0.5377130508422852,0.5847059488296509,0.6918197870254517,-0.3043040335178375,-0.5026391744613647,-0.41968828439712524,9.587149620056152,0.19943220913410187,-1.7941073179244995,0.4028429687023163,-0.4343145787715912,0.7534807920455933,0.3568083941936493,-0.6332240104675293,-0.4367401897907257,-0.5300691723823547
4083926,9.321917533874512,0.07220030575990677,3.0682530403137207,0.5235811471939087,-0.6514077186584473,0.612316370010376,0.6918079853057861,-0.3043414056301117,-0.502688467502594,-0.41962167620658875,9.598092079162598,0.20736245810985565,-1.791181206703186,0.5703884363174438,-0.2750931978225708,0.8997038006782532,0.3569111227989197,-0.6332326531410217,-0.43677252531051636,-0.5299628376960754
4084092,9.329955101013184,0.04725034162402153,3.093235731124878,0.38873034715652466,-0.6451966762542725,0.7158941626548767,0.6917259097099304,-0.30448460578918457,-0.5026724934577942,-0.4196723997592926,9.58470630645752,0.21450254321098328,-1.8115034103393555,0.6624532341957092,-0.16700759530067444,0.8089322447776794,0.35698431730270386,-0.6332530975341797,-0.43677008152008057,-0.5298912525177002
4084259,9.321759223937988,0.06367865949869156,3.0967352390289307,0.14976385235786438,-0.5956616997718811,0.6861065626144409,0.6916341185569763,-0.3046475350856781,-0.5026372671127319,-0.41974741220474243,9.588775634765625,0.21178574860095978,-1.7727245092391968,0.6361232995986938,-0.14915555715560913,0.8988712430000305,0.35706502199172974,-0.6332771182060242,-0.4367595613002777,-0.529816746711731
4084426,9.306222915649414,0.053686581552028656,3.061760902404785,0.08821653574705124,-0.8350892663002014,0.684659481048584,0.6915844082832336,-0.304756224155426,-0.5026676058769226,-0.4197143614292145,9.597245216369629,0.2245931327342987,-1.7824397087097168,0.41963207721710205,-0.03152923285961151,0.8505657315254211,0.3571430742740631,-0.6332885026931763,-0.4367476999759674,-0.5297603011131287
4084592,9.326692581176758,0.06076576188206673,3.091193437576294,0.23493890464305878,-0.5422464609146118,0.6911394596099854,0.6915403604507446,-0.3048596978187561,-0.5026604533195496,-0.4197203516960144,9.595246315002441,0.23088081181049347,-1.7905977964401245,0.24713052809238434,0.11033309996128082,0.860144853591919,0.3571644723415375,-0.6333395838737488,-0.436654269695282,-0.5297619104385376
4084759,9.330625534057617,0.05841377004981041,3.0957796573638916,0.2025132030248642,-0.4396291673183441,0.6782305836677551,0.6915472149848938,-0.30490410327911377,-0.5026746392250061,-0.41965946555137634,9.603174209594727,0.210894376039505,-1.7780938148498535,-0.022334273904561996,0.11754307150840759,0.8763192296028137,0.35718655586242676,-0.6333844661712646,-0.43656831979751587,-0.5297641754150391
4084926,9.315655708312988,0.05772848799824715,3.0960958003997803,0.18918178975582123,-0.6898396015167236,0.6856455206871033,0.691490113735199,-0.3050200939178467,-0.5026794075965881,-0.41966375708580017,9.571853637695312,0.22571581602096558,-1.7843738794326782,-0.21384042501449585,0.12680205702781677,0.7505865097045898,0.35714980959892273,-0.6334564089775085,-0.43644067645072937,-0.5298080444335938
4085092,9.331759452819824,0.07623773068189621,3.061769485473633,0.022494353353977203,-0.5751203298568726,0.57341068983078,0.6914592385292053,-0.30509889125823975,-0.5026905536651611,-0.4196441173553467,9.569175720214844,0.21512317657470703,-1.7947696447372437,-0.5418494343757629,0.055624376982450485,0.5754212737083435,0.35707521438598633,-0.6335307955741882,-0.43632087111473083,-0.5298681259155273
4085259,9.322783470153809,0.06989350914955139,3.0787065029144287,-0.009233377873897552,-0.5515055060386658,0.5469271540641785,0.6913946270942688,-0.3052159249782562,-0.50267493724823,-0.41968417167663574,9.580842971801758,0.2085254192352295,-1.7787405252456665,-0.8640187978744507,-0.05332563817501068,0.3417310118675232,0.3570038378238678,-0.6335669159889221,-0.4362744987010956,-0.5299111008644104
4085426,9.317150115966797,0.06923894584178925,3.0807881355285645,-0.16589345037937164,-0.6818357110023499,0.36749741435050964,0.6913242936134338,-0.30531689524650574,-0.5026867389678955,-0.41971227526664734,9.60170841217041,0.19902537763118744,-1.8059618473052979,-1.0945841073989868,-0.12286411225795746,0.2273959368467331,0.35685861110687256,-0.6336449384689331,-0.43617767095565796,-0.5299954414367676
4085592,9.317975997924805,0.07495628297328949,3.0558018684387207,-0.18071040511131287,-0.826547384262085,0.34680235385894775,0.6912422776222229,-0.3054254651069641,-0.5027135014533997,-0.41973626613616943,9.573416709899902,0.19643940031528473,-1.7901134490966797,-1.0915876626968384,-0.16056601703166962,0.2143334597349167,0.3567088544368744,-0.633725643157959,-0.4360831677913666,-0.530077338218689
4085759,9.34402847290039,0.0707552582025528,3.0526540279388428,0.05484319105744362,-0.7132879495620728,0.23542551696300507,0.6911979913711548,-0.30546319484710693,-0.5027676224708557,-0.4197169244289398,9.59029483795166,0.21797673404216766,-1.8206217288970947,-1.0623763799667358,-0.23993977904319763,0.2518816888332367,0.3566167652606964,-0.6337658762931824,-0.4360616207122803,-0.5301091074943542
4085926,9.33701229095459,0.05831721052527428,3.049381971359253,0.35881471633911133,-0.6496405005455017,0.15584686398506165,0.69111567735672,-0.3055223822593689,-0.5027996301651001,-0.4197710156440735,9.598394393920898,0.2052944153547287,-1.8061320781707764,-0.9212248921394348,-0.007927130907773972,0.32111287117004395,0.35650625824928284,-0.6338270902633667,-0.4359714090824127,-0.5301844477653503
4086092,9.326834678649902,0.06297673285007477,3.031257390975952,0.2473994791507721,-0.37846606969833374,0.11508427560329437,0.6910722851753235,-0.3055407404899597,-0.5028192400932312,-0.41980546712875366,9.604816436767578,0.20820321142673492,-1.7851818799972534,-0.6420592069625854,0.035979438573122025,0.3517199754714966,0.3564494252204895,-0.6338533163070679,-0.43592581152915955,-0.5302289128303528
4086259,9.33387565612793,0.05094664916396141,3.049778938293457,0.32956498861312866,-0.2280554324388504,0.027296733111143112,0.6909926533699036,-0.305589884519577,-0.502799391746521,-0.4199245572090149,9.592370986938477,0.20009595155715942,-1.7900848388671875,-0.44835028052330017,0.15798552334308624,0.31855154037475586,0.3564012348651886,-0.6338690519332886,-0.4358752369880676,-0.5302839279174805
4086426,9.333086013793945,0.06216878816485405,3.1087470054626465,0.11356031149625778,-0.11815138906240463,0.04201123118400574,0.6909679770469666,-0.3055878281593323,-0.5027955770492554,-0.4199713468551636,9.578718185424805,0.20790283381938934,-1.7702834606170654,-0.025523055344820023,0.08311961591243744,0.5018616318702698,0.35641011595726013,-0.6338727474212646,-0.4358554184436798,-0.5302898287773132
4086592,9.329813003540039,0.03329091519117355,3.0862741470336914,0.07494915276765823,-0.5902317762374878,0.1330643594264984,0.6909368634223938,-0.3055956959724426,-0.5028501152992249,-0.4199514389038086,9.604011535644531,0.19234630465507507,-1.802687406539917,0.3172709345817566,0.08852389454841614,0.5452879667282104,0.3564285933971405,-0.6338819861412048,-0.4358266592025757,-0.5302900075912476
4086759,9.330574989318848,0.028180819004774094,3.047276258468628,0.33523818850517273,-0.571188747882843,0.2328130304813385,0.6908560395240784,-0.305666446685791,-0.5028632283210754,-0.4200174808502197,9.594376564025879,0.20317529141902924,-1.7943401336669922,0.5290367603302002,0.2217867523431778,0.6845570206642151,0.3564934730529785,-0.633871853351593,-0.4358047544956207,-0.5302764773368835
4086926,9.348108291625977,0.04915820434689522,3.0716869831085205,0.1859033852815628,-0.21993623673915863,0.32903993129730225,0.690844714641571,-0.30568400025367737,-0.5028601884841919,-0.42002683877944946,9.507896423339844,0.20306114852428436,-1.7818598747253418,0.6919846534729004,0.001069330144673586,0.6774494647979736,0.35658320784568787,-0.6338491439819336,-0.43583810329437256,-0.530215859413147
4087092,9.315075874328613,0.048218004405498505,3.0842392444610596,0.21943040192127228,-0.17499877512454987,0.2758679986000061,0.6907828450202942,-0.3057539761066437,-0.502818763256073,-0.42012739181518555,9.595343589782715,0.19388794898986816,-1.8197460174560547,0.7012181282043457,-0.6753813028335571,0.794666051864624,0.35658296942710876,-0.6339324712753296,-0.43582746386528015,-0.5301252007484436
4087259,9.285382270812988,0.03402761369943619,3.0276920795440674,0.4755445718765259,-0.29321417212486267,0.44753706455230713,0.6907820701599121,-0.3057601749897003,-0.5028320550918579,-0.4201080799102783,9.633683204650879,0.1966126412153244,-1.8003140687942505,0.6883348226547241,-0.18934187293052673,0.6507098078727722,0.3566439747810364,-0.6339340209960938,-0.4358571469783783,-0.5300579071044922
4087426,9.322818756103516,0.05571373179554939,3.001267671585083,0.23213431239128113,-0.23620030283927917,0.5568521022796631,0.6907891035079956,-0.30578622221946716,-0.5028253197669983,-0.42008548974990845,9.620373725891113,0.24614636600017548,-1.7993080615997314,0.3620995879173279,-0.38930025696754456,-0.1959499716758728,0.35658153891563416,-0.6339264512062073,-0.4359319508075714,-0.5300473570823669
4087592,9.346162796020508,0.01684505306184292,3.0545969009399414,0.9348506927490234,-0.4490802586078644,0.523856520652771,0.6907987594604492,-0.3057651221752167,-0.5028769969940186,-0.4200233221054077,9.61622142791748,0.26531165838241577,-1.7825604677200317,0.11020504683256149,-0.01401014719158411,-0.6515742540359497,0.35647720098495483,-0.6338792443275452,-0.436002254486084,-0.5301161408424377
4087759,9.386274337768555,0.10640261322259903,3.10414719581604,0.850680947303772,-0.4876018166542053,-0.25738200545310974,0.6907433867454529,-0.30571070313453674,-0.5029538869857788,-0.42006194591522217,9.608489036560059,0.2635232210159302,-1.7741488218307495,-0.36906614899635315,0.38727039098739624,-0.36215075850486755,0.35635846853256226,-0.6338581442832947,-0.43596741557121277,-0.5302498936653137
4087926,9.349337577819824,0.11843974888324738,3.0528311729431152,0.7416477203369141,0.10811760276556015,-0.6670442819595337,0.6906936168670654,-0.3056100904941559,-0.5029764175415039,-0.4201900064945221,9.588409423828125,0.24203413724899292,-1.7587286233901978,-0.6532391309738159,0.48244720697402954,0.0029518636874854565,0.3562595546245575,-0.6338566541671753,-0.4358879029750824,-0.5303834676742554
4088092,9.307208061218262,0.04184546321630478,3.146421432495117,0.9949700832366943,-0.24488301575183868,0.057724617421627045,0.6907113790512085,-0.3055117428302765,-0.5030462741851807,-0.42014870047569275,9.591917991638184,0.25354889035224915,-1.7569479942321777,-0.787436842918396,0.8410761952400208,0.5988313555717468,0.35625943541526794,-0.633836030960083,-0.4357776343822479,-0.530498743057251
4088259,9.31296443939209,0.06305521726608276,3.0911502838134766,0.517907977104187,-0.679056704044342,0.37810108065605164,0.6906505227088928,-0.3055661916732788,-0.5030816793441772,-0.4201667904853821,9.585006713867188,0.2623896300792694,-1.7518575191497803,-0.9199697971343994,0.8965149521827698,0.7344505786895752,0.3562355637550354,-0.6338470578193665,-0.43561121821403503,-0.5306383967399597
4088426,9.31352710723877,0.0815160721540451,3.0823473930358887,0.7176229953765869,-0.16623921692371368,0.1475355625152588,0.6906502842903137,-0.3055179715156555,-0.5031083822250366,-0.42017000913619995,9.585247993469238,0.23179441690444946,-1.7623896598815918,-0.9619874358177185,0.942284882068634,0.7182249426841736,0.3562118411064148,-0.6338526606559753,-0.435444712638855,-0.5307843089103699
4088592,9.302255630493164,0.10795120894908905,3.1302437782287598,-0.3603450357913971,-0.24090026319026947,0.18008928000926971,0.690598726272583,-0.3055846095085144,-0.5030751824378967,-0.42024627327919006,9.561314582824707,0.17780253291130066,-1.7401151657104492,-0.707512378692627,0.7871102690696716,0.7147031426429749,0.35622087121009827,-0.6338401436805725,-0.4353306293487549,-0.5308867692947388
4088759,9.309610366821289,0.07220792770385742,3.0771193504333496,-0.7230721116065979,-0.5837005972862244,0.07357888668775558,0.6904696226119995,-0.3057363033294678,-0.5030362010002136,-0.420394629240036,9.574440002441406,0.16029897332191467,-1.7474963665008545,-0.2507227063179016,0.6485327482223511,0.7250123023986816,0.35625842213630676,-0.6338194608688354,-0.43525153398513794,-0.5309510827064514
4088926,9.333317756652832,0.04105128347873688,3.068553924560547,-0.07973232865333557,0.006768155377358198,0.42045164108276367,0.6904512643814087,-0.3057907223701477,-0.502974808216095,-0.4204586446285248,9.574861526489258,0.13881772756576538,-1.7515696287155151,0.3399253785610199,0.47253507375717163,0.7327728867530823,0.3563234508037567,-0.6337960958480835,-0.4352056384086609,-0.5309730172157288
4089092,9.29604721069336,0.06150718778371811,3.0511558055877686,0.00369463162496686,-0.13253290951251984,0.5589779019355774,0.690427839756012,-0.30586400628089905,-0.502920925617218,-0.4205084443092346,9.616182327270508,0.16522550582885742,-1.764607310295105,0.8235315680503845,0.42511317133903503,0.5324944257736206,0.35641276836395264,-0.6337403059005737,-0.4352152645587921,-0.5309716463088989
4089259,9.302956581115723,0.05058187618851662,3.08455753326416,0.1802941858768463,-0.1545214056968689,0.4934093952178955,0.6903781294822693,-0.30595022439956665,-0.5028617978096008,-0.42059803009033203,9.559124946594238,0.20387515425682068,-1.758416771888733,0.9054026007652283,0.5128366947174072,0.12255037575960159,0.3565129339694977,-0.6336232423782349,-0.43530040979385376,-0.5309744477272034
4089426,9.307458877563477,0.02768699638545513,3.095515012741089,0.021905260160565376,0.006768155377358198,0.364167720079422,0.6903746128082275,-0.30597326159477234,-0.5028184652328491,-0.4206385910511017,9.632740020751953,0.22577670216560364,-1.7577273845672607,0.7283675074577332,0.146511048078537,0.26089736819267273,0.35655519366264343,-0.633575439453125,-0.43534377217292786,-0.5309674739837646
4089592,9.292230606079102,0.08188442140817642,3.0940558910369873,0.22205568850040436,-0.2661159336566925,0.26531553268432617,0.6903387904167175,-0.3060043752193451,-0.5028071403503418,-0.42068830132484436,9.582329750061035,0.2181665301322937,-1.7741707563400269,0.6379035115242004,0.33283060789108276,0.276328980922699,0.3565932512283325,-0.6335257887840271,-0.43535876274108887,-0.530988872051239
4089759,9.32988452911377,0.01700844243168831,3.0137879848480225,0.0020169999916106462,-0.44222885370254517,0.44981661438941956,0.690313994884491,-0.3060544729232788,-0.5028080344200134,-0.42069146037101746,9.588458061218262,0.2888321578502655,-1.7588611841201782,0.07592244446277618,-0.2054394632577896,-0.16079650819301605,0.3565547466278076,-0.6334834098815918,-0.4354515075683594,-0.5309892296791077
4089926,9.349157333374023,0.06880265474319458,3.1392412185668945,0.6328193545341492,-0.23605942726135254,0.4329378306865692,0.6903306841850281,-0.3060280978679657,-0.5028274059295654,-0.4206601083278656,9.60599422454834,0.300275057554245,-1.7562512159347534,-0.9009779691696167,-0.10948149114847183,-0.29229211807250977,0.3564063608646393,-0.6334878206253052,-0.43545836210250854,-0.531078040599823
4090092,9.326910018920898,0.10937472432851791,3.0041677951812744,0.6108308434486389,-0.5052872896194458,0.002785380929708481,0.6902755498886108,-0.3060186505317688,-0.5028725862503052,-0.4207034409046173,9.600919723510742,0.2809255123138428,-1.7614389657974243,-1.4431986808776855,-0.32134971022605896,-0.1616545468568802,0.35621511936187744,-0.633534848690033,-0.43543699383735657,-0.5311678647994995
4090259,9.332077026367188,0.1344546675682068,3.0692083835601807,0.5906608700752258,0.02996045909821987,-0.44425228238105774,0.6902675628662109,-0.3059014081954956,-0.5029101371765137,-0.4207570254802704,9.600481986999512,0.25554317235946655,-1.7850394248962402,-1.7325968742370605,-0.1290367841720581,0.07611454278230667,0.35602229833602905,-0.6336004734039307,-0.4353559911251068,-0.5312851071357727
4090426,9.337373733520508,0.07378073036670685,3.0643911361694336,0.5766507387161255,-0.5957514047622681,-0.12858857214450836,0.6902167201042175,-0.3058651387691498,-0.5029841065406799,-0.4207785129547119,9.596895217895508,0.22325722873210907,-1.7587074041366577,-1.7558659315109253,-0.21020343899726868,0.373798131942749,0.3558090031147003,-0.6337213516235352,-0.4352072477340698,-0.5314057469367981
4090592,9.376970291137695,0.0707661584019661,3.0372800827026367,0.14699769020080566,-0.8074787855148315,0.03882245346903801,0.6901530623435974,-0.30588245391845703,-0.5030544400215149,-0.42078614234924316,9.61000919342041,0.22097598016262054,-1.7688952684402466,-1.6732009649276733,-0.13747617602348328,0.3734779953956604,0.3556272089481354,-0.6338159441947937,-0.43508487939834595,-0.5315147042274475
4090759,9.325207710266113,0.09252692759037018,3.0505154132843018,0.5434310436248779,-0.41917741298675537,-0.049150772392749786,0.6901416778564453,-0.30581584572792053,-0.5031225681304932,-0.4207717180252075,9.578351020812988,0.20100624859333038,-1.7724043130874634,-1.476495385169983,0.05338326469063759,0.15747326612472534,0.35548996925354004,-0.63384610414505,-0.43502604961395264,-0.5316187143325806
4090926,9.291901588439941,0.11276139318943024,3.0929651260375977,-0.3387663662433624,-0.5936639308929443,-0.25341203808784485,0.6900386810302734,-0.30586570501327515,-0.5031436085700989,-0.4208792448043823,9.563521385192871,0.19506609439849854,-1.7864184379577637,-1.0737227201461792,0.08048149198293686,-0.05728280171751976,0.3553464114665985,-0.6338629126548767,-0.4349823594093323,-0.5317304730415344
4091092,9.341772079467773,0.07388444244861603,3.069093942642212,-0.5128813982009888,-0.4722341001033783,-0.46667614579200745,0.6899334788322449,-0.30589765310287476,-0.5031580328941345,-0.42101120948791504,9.565914154052734,0.18976417183876038,-1.7787694931030273,-0.5197969079017639,0.06972416490316391,-0.039008136838674545,0.35525235533714294,-0.6338543891906738,-0.4349783658981323,-0.5318065285682678
4091259,9.312915802001953,0.03503252565860748,3.070023775100708,0.29307976365089417,-0.4098416268825531,-0.17170754075050354,0.6898942589759827,-0.3058573305606842,-0.5032078623771667,-0.42104533314704895,9.593423843383789,0.215366393327713,-1.7613284587860107,-0.02110486477613449,0.019702568650245667,0.14282280206680298,0.35524141788482666,-0.633814811706543,-0.4350297152996063,-0.5318191647529602
4091426,9.307455062866211,0.060802675783634186,3.0497467517852783,0.47694048285484314,-0.5143030285835266,-0.13894890248775482,0.6898225545883179,-0.30584970116615295,-0.5032516717910767,-0.42111581563949585,9.596598625183105,0.2407073676586151,-1.7832649946212769,0.19411225616931915,0.14538410305976868,0.14136289060115814,0.35524019598960876,-0.63376784324646,-0.43507105112075806,-0.5318421125411987
4091592,9.317432403564453,0.07291509211063385,3.073542594909668,0.5493218898773193,-0.3099777102470398,-0.17659956216812134,0.6897790431976318,-0.30580514669418335,-0.5032896995544434,-0.42117413878440857,9.59900188446045,0.2723425030708313,-1.7601019144058228,0.3386191129684448,0.31273746490478516,0.2900446355342865,0.35526934266090393,-0.6337136030197144,-0.43509578704833984,-0.5318669676780701
4091759,9.310408592224121,0.05678659677505493,3.0605897903442383,0.5654194951057434,-0.40935492515563965,-0.21976976096630096,0.6897755861282349,-0.3057019114494324,-0.503376841545105,-0.42115068435668945,9.610231399536133,0.2712767720222473,-1.7527778148651123,0.3066416382789612,0.23153239488601685,0.30679526925086975,0.3552984893321991,-0.6336621046066284,-0.43512973189353943,-0.5318810939788818
4091926,9.34289836883545,0.07646288722753525,3.064434051513672,0.2676719129085541,-0.28409603238105774,-0.1455441564321518,0.6897208094596863,-0.3056885600090027,-0.5033915638923645,-0.4212323725223541,9.607460021972656,0.27314698696136475,-1.7690820693969727,0.09158460795879364,0.21561409533023834,0.12698136270046234,0.35528287291526794,-0.6336188912391663,-0.4351534843444824,-0.5319235324859619
4092092,9.340835571289062,0.08469531685113907,3.04445743560791,0.40800392627716064,-0.3952295780181885,-0.09772525727748871,0.6896632313728333,-0.3056759834289551,-0.5034209489822388,-0.4213007092475891,9.584449768066406,0.27780693769454956,-1.776573896408081,0.010635673068463802,0.2603594660758972,0.15915091335773468,0.3552455008029938,-0.6335939764976501,-0.4351428151130676,-0.5319870710372925
4092259,9.339004516601562,0.0891655758023262,3.071321964263916,0.4743279814720154,-0.32827794551849365,0.10617103427648544,0.6896299123764038,-0.3056623041629791,-0.5034417510032654,-0.42134037613868713,9.58849811553955,0.28953689336776733,-1.784427285194397,-0.21218839287757874,0.29414263367652893,0.08875440061092377,0.3551955819129944,-0.6335636377334595,-0.4351342022418976,-0.5320636034011841
4092426,9.356023788452148,0.11845022439956665,3.0604631900787354,0.8205476403236389,-0.3788246214389801,0.11531476676464081,0.6896083950996399,-0.30561813712120056,-0.5034878253936768,-0.42135247588157654,9.584775924682617,0.2722352147102356,-1.772661566734314,-0.2559092938899994,0.28622832894325256,0.19493186473846436,0.3551795184612274,-0.6335172653198242,-0.4351508319377899,-0.5321158170700073
4092592,9.347003936767578,0.10732141137123108,3.041659355163574,0.8447005152702332,-0.3778385818004608,0.09896107763051987,0.6895706057548523,-0.30558979511260986,-0.5035239458084106,-0.42139172554016113,9.607544898986816,0.2933562695980072,-1.787713885307312,-0.3682466149330139,0.39240577816963196,0.32377657294273376,0.3551536798477173,-0.6334889531135559,-0.4351232945919037,-0.5321893095970154
4092759,9.337377548217773,0.09407194703817368,3.072798490524292,0.6363539695739746,-0.20172561705112457,0.07334836572408676,0.6895537376403809,-0.3055463433265686,-0.5035448670387268,-0.4214257001876831,9.615480422973633,0.2824511229991913,-1.789184331893921,-0.5928699970245361,0.5752037167549133,0.33222874999046326,0.35512176156044006,-0.6334559917449951,-0.4350720942020416,-0.53229159116745
4092926,9.3290376663208,0.09857100248336792,3.045337200164795,0.5866140723228455,-0.233472540974617,0.10953910648822784,0.6895732879638672,-0.30546513199806213,-0.5035929083824158,-0.4213951826095581,9.594533920288086,0.2758236229419708,-1.7523787021636963,-0.5641197562217712,0.7905808091163635,0.46789923310279846,0.35508763790130615,-0.633436918258667,-0.43496519327163696,-0.5324245095252991
4093092,9.328469276428223,0.11433883756399155,3.0416533946990967,0.09125164151191711,-0.19294045865535736,0.2143590748310089,0.6895534992218018,-0.30547094345092773,-0.503582239151001,-0.4214361310005188,9.595693588256836,0.2588745951652527,-1.7786129713058472,-0.6889175772666931,0.8238516449928284,0.42664992809295654,0.35508447885513306,-0.6333821415901184,-0.4349049925804138,-0.5325407981872559
4093259,9.333989143371582,0.1204427182674408,3.0723628997802734,0.10750288516283035,-0.11478330194950104,0.12062940001487732,0.6895201206207275,-0.3054806888103485,-0.5035582780838013,-0.42151233553886414,9.582578659057617,0.27071091532707214,-1.775694727897644,-0.6116312146186829,0.9481885433197021,0.4332323968410492,0.35508373379707336,-0.6333247423171997,-0.4348282814025879,-0.5326722264289856
4093426,9.337687492370605,0.09311369806528091,3.0657999515533447,-0.04363124072551727,0.012492595240473747,0.20604778826236725,0.6895104646682739,-0.3054839074611664,-0.5035203695297241,-0.4215710759162903,9.567845344543457,0.2634161412715912,-1.779421091079712,-0.7560997009277344,0.9970190525054932,0.23840941488742828,0.35504794120788574,-0.633266031742096,-0.43474525213241577,-0.5328336954116821
4093593,9.33303165435791,0.10747218132019043,3.060840129852295,-0.095368891954422,-0.031042592599987984,0.18279144167900085,0.6894676685333252,-0.3055252134799957,-0.5034651160240173,-0.42167726159095764,9.583609580993652,0.26706817746162415,-1.7817304134368896,-0.8163408041000366,1.0331459045410156,0.028282826766371727,0.3549683690071106,-0.6332136988639832,-0.4346466660499573,-0.5330293774604797
4093759,9.331822395324707,0.10566609352827072,3.0526535511016846,-0.11722932755947113,0.0651266872882843,0.15737083554267883,0.6894168257713318,-0.3055751323699951,-0.5033910870552063,-0.4218124449253082,9.61903190612793,0.2926653027534485,-1.7616229057312012,-0.9348505735397339,1.2085416316986084,-0.09385773539543152,0.35489362478256226,-0.6331337094306946,-0.4345594346523285,-0.5332450866699219
4093926,9.343950271606445,0.09991207718849182,3.0263726711273193,0.0478893406689167,0.28159239888191223,0.24125239253044128,0.6894299983978271,-0.3055582046508789,-0.5033278465270996,-0.42187878489494324,9.609384536743164,0.2855219542980194,-1.754089117050171,-1.0920358896255493,1.5871100425720215,0.04183194041252136,0.3548398017883301,-0.6330397129058838,-0.43442997336387634,-0.5334978103637695
4094093,9.334047317504883,0.1098289042711258,3.0424654483795166,0.07346361875534058,0.41153842210769653,0.23958759009838104,0.6894404888153076,-0.3055461049079895,-0.5032439827919006,-0.421970397233963,9.625846862792969,0.3125431537628174,-1.7418241500854492,-1.0990921258926392,1.5410200357437134,0.2139364629983902,0.3547731339931488,-0.6329784393310547,-0.4342602789402008,-0.5337530374526978
4094259,9.337148666381836,0.11096613854169846,3.050161600112915,0.09175107628107071,0.38802599906921387,0.15451501309871674,0.6894818544387817,-0.3054827153682709,-0.5031943917274475,-0.4220079481601715,9.64398193359375,0.3151760697364807,-1.7163722515106201,-1.3176836967468262,1.8125147819519043,0.32439127564430237,0.35472261905670166,-0.6329048871994019,-0.4340629577636719,-0.5340341925621033
4094426,9.339593887329102,0.12602196633815765,3.041718006134033,-0.10339846462011337,0.3444843888282776,0.10988488048315048,0.6895238161087036,-0.3054191768169403,-0.5031506419181824,-0.4220375418663025,9.588191986083984,0.29577216506004333,-1.7096105813980103,-1.2616047859191895,1.7684993743896484,0.5681472420692444,0.3546834886074066,-0.6328542232513428,-0.4338391423225403,-0.5343021154403687
4094593,9.340502738952637,0.11213913559913635,3.081346035003662,-0.2747730314731598,0.7121931314468384,0.05588049814105034,0.6895707249641418,-0.30535921454429626,-0.5030540823936462,-0.4221194088459015,9.558869361877441,0.27127760648727417,-1.674963355064392,-1.0814707279205322,1.3717842102050781,0.6755285263061523,0.35466468334198,-0.6328139901161194,-0.43366578221321106,-0.5345029234886169
4094759,9.324509620666504,0.10068811476230621,3.109283447265625,0.02850053273141384,0.592684268951416,0.0727720856666565,0.689614474773407,-0.3052881360054016,-0.5029805302619934,-0.42218685150146484,9.571579933166504,0.2507173418998718,-1.6765037775039673,-0.7712495923042297,0.7391760945320129,0.8660102486610413,0.3546355366706848,-0.6328304409980774,-0.4335143268108368,-0.5346257090568542
4094926,9.326730728149414,0.09707972407341003,3.0596742630004883,-0.17183560132980347,0.1651827096939087,0.17658035457134247,0.6895952820777893,-0.3053058087825775,-0.5029114484786987,-0.4222877025604248,9.602364540100098,0.23637047410011292,-1.643660306930542,-0.2592773735523224,0.43423134088516235,0.8516157865524292,0.3546542227268219,-0.6328258514404297,-0.43344491720199585,-0.5346750020980835
4095093,9.333829879760742,0.08664435148239136,3.0618486404418945,-0.23712237179279327,0.3231489956378937,0.3961964547634125,0.689588189125061,-0.30534833669662476,-0.5028053522109985,-0.42239490151405334,9.608010292053223,0.2359974980354309,-1.6739332675933838,0.033110812306404114,0.5302788615226746,0.5943619012832642,0.3547110855579376,-0.6327612996101379,-0.4334472417831421,-0.5347117781639099
4095259,9.319466590881348,0.09967159479856491,3.0761334896087646,-0.22390620410442352,0.7288541197776794,0.43033814430236816,0.6896446943283081,-0.30532944202423096,-0.5026805996894836,-0.4224648177623749,9.574044227600098,0.2320808619260788,-1.663446068763733,0.5019000172615051,0.1708815097808838,0.6828281879425049,0.3547687232494354,-0.6327277421951294,-0.43346425890922546,-0.5346994400024414
4095426,9.292342185974121,0.0940113365650177,3.090304374694824,-0.02064383588731289,0.44580820202827454,0.3708910644054413,0.6896558403968811,-0.3053387701511383,-0.5025776028633118,-0.4225621819496155,9.554835319519043,0.2673286497592926,-1.6610124111175537,0.6755669116973877,-0.14176629483699799,0.44370797276496887,0.3547998368740082,-0.6326977610588074,-0.4335276782512665,-0.5346629619598389
4095593,9.316181182861328,0.08367597311735153,3.087071180343628,0.29571783542633057,0.11277912557125092,0.470101922750473,0.6896841526031494,-0.3053184747695923,-0.5025383234024048,-0.4225775897502899,9.640477180480957,0.24820810556411743,-1.6814842224121094,0.746462881565094,-0.4166161119937897,0.5646767616271973,0.35481297969818115,-0.6327065229415894,-0.43357953429222107,-0.5346018671989441
4095759,9.28499984741211,0.08421967923641205,3.07230544090271,0.4646591544151306,0.2564663290977478,0.4792712330818176,0.6897186636924744,-0.3052876889705658,-0.5024853944778442,-0.42260634899139404,9.635095596313477,0.29342320561408997,-1.6716396808624268,0.7599735260009766,-0.3095422387123108,0.47338029742240906,0.3548275828361511,-0.6326990127563477,-0.4336370825767517,-0.5345544815063477
4095926,9.303401947021484,0.07149852067232132,3.063321352005005,0.7777103185653687,0.06875088065862656,0.5702731013298035,0.6897655725479126,-0.3052358031272888,-0.5024710297584534,-0.42258426547050476,9.601251602172852,0.3353087604045868,-1.6493217945098877,0.4968031644821167,-0.28615790605545044,-0.23599541187286377,0.35476329922676086,-0.6326587200164795,-0.43373730778694153,-0.5345633625984192
4096093,9.345196723937988,0.09221140295267105,3.1074349880218506,1.674513578414917,-0.4281163215637207,0.5032703876495361,0.6898173689842224,-0.3051132261753082,-0.5025684833526611,-0.4224725365638733,9.586112976074219,0.3270944058895111,-1.663551926612854,0.20155270397663116,-0.6253340244293213,-0.07557027041912079,0.3547041416168213,-0.6326358318328857,-0.433866947889328,-0.5345244407653809
4096259,9.356551170349121,0.17073523998260498,3.1276485919952393,1.3058955669403076,-0.3372936546802521,-0.1172933578491211,0.6897639036178589,-0.30504530668258667,-0.5026198625564575,-0.42254769802093506,9.587803840637207,0.30542951822280884,-1.6574324369430542,0.08671819418668747,-0.6894553899765015,0.34608519077301025,0.3546431064605713,-0.6326658129692078,-0.43392932415008545,-0.5344789028167725
4096426,9.274551391601562,0.11898691952228546,3.1427719593048096,1.359195590019226,0.04954136535525322,0.02934575080871582,0.6898025274276733,-0.3048950731754303,-0.502667248249054,-0.4225365221500397,9.563698768615723,0.3102419674396515,-1.6722168922424316,0.06846914440393448,-0.797745943069458,0.9671676158905029,0.35464927554130554,-0.6327219605445862,-0.43397074937820435,-0.5343745946884155
4096593,9.263470649719238,0.09013037383556366,3.12935471534729,1.4304499626159668,-0.4120827317237854,0.7634697556495667,0.6898455023765564,-0.3048321008682251,-0.5027247667312622,-0.42244356870651245,9.583392143249512,0.3034752309322357,-1.6999495029449463,0.019997114315629005,-0.8054681420326233,1.268974781036377,0.35464516282081604,-0.6328221559524536,-0.43394866585731506,-0.5342766642570496
4096759,9.3025484085083,0.10979828238487244,3.1216020584106445,0.760229766368866,-0.671065628528595,0.8782787322998047,0.6898635029792786,-0.3048407733440399,-0.5027734637260437,-0.42235004901885986,9.580921173095703,0.28397682309150696,-1.6677643060684204,0.04288206622004509,-0.7854647040367126,1.5098750591278076,0.35465168952941895,-0.6329438090324402,-0.4338919520378113,-0.534174382686615
4096926,9.309693336486816,0.12866555154323578,3.096632719039917,0.7654803991317749,-0.5867613554000854,1.051676630973816,0.6899135112762451,-0.304838091135025,-0.5028167366981506,-0.4222186207771301,9.582010269165039,0.2396060973405838,-1.7331277132034302,0.2277033030986786,-0.6385630369186401,1.4368916749954224,0.3546648919582367,-0.6330502033233643,-0.43383294343948364,-0.5340873003005981
4097093,9.28795051574707,0.13557378947734833,3.1242361068725586,0.07384781539440155,-0.6050487756729126,1.1523473262786865,0.6899169683456421,-0.3049379289150238,-0.5027997493743896,-0.4221610724925995,9.599705696105957,0.21831847727298737,-1.7218642234802246,0.6530406475067139,-0.7279641628265381,1.3513580560684204,0.3546910583972931,-0.6331474184989929,-0.43380334973335266,-0.5339787602424622
4097259,9.301203727722168,0.07454175502061844,3.0721330642700195,0.20439574122428894,-0.6630743741989136,1.250623345375061,0.6899023652076721,-0.305065780878067,-0.5027735233306885,-0.42212387919425964,9.61723518371582,0.21475450694561005,-1.744221806526184,1.2068126201629639,-0.5365347266197205,1.3251559734344482,0.3548225462436676,-0.6331648826599121,-0.4338598847389221,-0.5338248610496521
4097426,9.322084426879883,0.06245236471295357,3.083092212677002,0.583156406879425,-0.37388136982917786,1.3144886493682861,0.6899559497833252,-0.30511102080345154,-0.5027574896812439,-0.4220224618911743,9.627857208251953,0.2099224030971527,-1.7351596355438232,1.7813698053359985,-0.4651010036468506,1.3867548704147339,0.3550085723400116,-0.633156418800354,-0.43394380807876587,-0.5336430072784424
4097593,9.30569076538086,0.08227281272411346,3.090440273284912,0.8610541224479675,-0.4000703692436218,1.4469701051712036,0.6899873614311218,-0.3051883280277252,-0.5027257800102234,-0.42195308208465576,9.553632736206055,0.2424391657114029,-1.7260830402374268,1.9384781122207642,-0.2705981731414795,1.1598904132843018,0.35518619418144226,-0.6331241130828857,-0.434030681848526,-0.533492386341095
4097759,9.328972816467285,0.05940091982483864,3.0752623081207275,0.550858736038208,-0.5257134437561035,1.3987414836883545,0.690047025680542,-0.3052361011505127,-0.5027285814285278,-0.42181751132011414,9.59321117401123,0.24466675519943237,-1.747389793395996,1.8706300258636475,-0.8194398880004883,1.106948971748352,0.35531747341156006,-0.6331355571746826,-0.4341440796852112,-0.5332990884780884
4097926,9.337555885314941,0.08302909135818481,3.115980386734009,0.5768811702728271,-0.36387962102890015,1.225958228111267,0.6901042461395264,-0.30526459217071533,-0.5027207136154175,-0.4217126667499542,9.597496032714844,0.23947486281394958,-1.7670408487319946,1.664729118347168,-0.5314762592315674,0.9734041094779968,0.3554445207118988,-0.6331213116645813,-0.43424713611602783,-0.5331474542617798
4098093,9.323270797729492,0.058458708226680756,3.018763780593872,0.3178984224796295,-0.3535448908805847,1.3190988302230835,0.6901450753211975,-0.3053390383720398,-0.502683162689209,-0.4216369390487671,9.544666290283203,0.2563455104827881,-1.7665989398956299,1.2683346271514893,-0.9566599726676941,0.644908607006073,0.3554863929748535,-0.6331366300582886,-0.4343765079975128,-0.5329958200454712
4098259,9.368136405944824,0.04579813778400421,3.0880489349365234,1.0940784215927124,-0.2928299605846405,1.5558497905731201,0.6902382969856262,-0.3053503632545471,-0.502676248550415,-0.4214843809604645,9.583319664001465,0.2797068655490875,-1.7668585777282715,0.6348171830177307,-1.1190189123153687,0.2619859278202057,0.35544049739837646,-0.6331640481948853,-0.43451395630836487,-0.5328819155693054
4098426,9.365596771240234,0.07445260882377625,3.064467430114746,0.9619424939155579,-0.5199889540672302,1.0183289051055908,0.6902447938919067,-0.3053872883319855,-0.5026849508285522,-0.42143651843070984,9.592418670654297,0.2812020480632782,-1.771246075630188,0.1740703135728836,-1.2609388828277588,0.2685171365737915,0.3553478717803955,-0.6332228183746338,-0.4346281886100769,-0.5327805280685425
4098593,9.347139358520508,0.128569558262825,2.993759870529175,1.0135905742645264,-0.13059915602207184,0.638018786907196,0.6902639269828796,-0.3053610026836395,-0.5026786923408508,-0.42143169045448303,9.614373207092285,0.24149101972579956,-1.8035829067230225,-0.026035308837890625,-1.1632006168365479,0.5035136342048645,0.3552584946155548,-0.6333013772964478,-0.43469735980033875,-0.5326902866363525
4098759,9.321271896362305,0.07907653599977493,3.0377674102783203,1.3105058670043945,0.0033488606568425894,0.7496516704559326,0.6903522610664368,-0.30525675415992737,-0.5027015805244446,-0.4213351309299469,9.607684135437012,0.22837984561920166,-1.7838362455368042,0.037785131484270096,-0.884278416633606,0.7045220732688904,0.35520264506340027,-0.6333723664283752,-0.4347322881221771,-0.5326145887374878
4098926,9.35547161102295,0.07234042137861252,3.0349764823913574,0.9330386519432068,-0.6227856278419495,0.7192750573158264,0.6903676986694336,-0.30523666739463806,-0.5027596354484558,-0.42125511169433594,9.613519668579102,0.2551681101322174,-1.779776692390442,0.08076323568820953,-0.6717954874038696,0.783140242099762,0.3551846146583557,-0.6334176659584045,-0.4347701668739319,-0.5325419902801514
4099093,9.360103607177734,0.05400741472840309,3.06443452835083,1.3133231401443481,-0.0659911185503006,0.6418094635009766,0.6904440522193909,-0.30512863397598267,-0.5027948617935181,-0.4211662709712982,9.567305564880371,0.24997331202030182,-1.7737809419631958,-0.07432805746793747,-0.5407865047454834,0.5327633619308472,0.35512563586235046,-0.6334564089775085,-0.434795618057251,-0.5325143933296204
4099259,9.326553344726562,0.0900350883603096,3.0643248558044434,0.7661462426185608,-0.24761076271533966,0.5733594298362732,0.6904749870300293,-0.30508607625961304,-0.5028152465820312,-0.4211219549179077,9.583662986755371,0.2403247058391571,-1.7785837650299072,-0.2167602777481079,-0.4354158639907837,0.3247241675853729,0.3550284802913666,-0.6334943175315857,-0.43480509519577026,-0.5325263738632202
4099426,9.32659912109375,0.09111814200878143,3.043219804763794,-0.08609708398580551,-0.29440516233444214,0.21166974306106567,0.6904069185256958,-0.3051486015319824,-0.5027782320976257,-0.4212324917316437,9.61104679107666,0.22860905528068542,-1.7869771718978882,-0.14076738059520721,-0.320991188287735,0.3621571660041809,0.3549647927284241,-0.6335089206695557,-0.4348300099372864,-0.5325310826301575
4099593,9.349750518798828,0.06197209656238556,3.078059434890747,0.13279543817043304,-0.28757938742637634,0.3068337142467499,0.6903900504112244,-0.305152952671051,-0.5027756094932556,-0.4212602972984314,9.59849739074707,0.2279939502477646,-1.7937684059143066,0.08936911076307297,-0.18927784264087677,0.3202931880950928,0.35493430495262146,-0.6334927678108215,-0.4348788261413574,-0.5325307846069336
4099759,9.339694023132324,0.05574949458241463,3.0402016639709473,0.3702123463153839,-0.21423740684986115,0.3948005437850952,0.6903840899467468,-0.3051479160785675,-0.5027685165405273,-0.4212821424007416,9.6323823928833,0.22899888455867767,-1.7841873168945312,0.3116873800754547,0.02232787385582924,0.3009812533855438,0.354921817779541,-0.6334588527679443,-0.4349195659160614,-0.5325461626052856
4099926,9.330968856811523,0.06283754110336304,3.047003746032715,0.7330418229103088,-0.2221517562866211,0.340821772813797,0.6903689503669739,-0.3051285743713379,-0.5027715563774109,-0.42131704092025757,9.630253791809082,0.24930813908576965,-1.785493016242981,0.4131648540496826,0.1102050393819809,0.40308621525764465,0.3549498915672302,-0.6334059238433838,-0.43497389554977417,-0.5325460433959961
4100093,9.34604549407959,0.07267556339502335,3.061197519302368,0.7553632259368896,-0.09833995997905731,0.31250694394111633,0.6903806328773499,-0.30507519841194153,-0.5027784109115601,-0.42132842540740967,9.606780052185059,0.251625657081604,-1.768162488937378,0.372863233089447,0.40023040771484375,0.4586273431777954,0.3549625277519226,-0.6333625912666321,-0.43496647477149963,-0.5325950384140015
4100259,9.350136756896973,0.07258985191583633,3.057904005050659,0.7489216923713684,0.24511994421482086,0.2339271754026413,0.6904377341270447,-0.30496516823768616,-0.5027721524238586,-0.4213220477104187,9.57697582244873,0.266030490398407,-1.7573590278625488,0.33194699883461,0.3335989713668823,0.33294588327407837,0.3549898862838745,-0.6332924365997314,-0.4350091516971588,-0.5326253771781921
4100426,9.330525398254395,0.07520048320293427,3.0902721881866455,0.6662567257881165,0.19982387125492096,0.3347259759902954,0.6904799342155457,-0.30489060282707214,-0.502750813961029,-0.4213322699069977,9.566386222839355,0.26699963212013245,-1.7456755638122559,0.2508571743965149,0.0778690055012703,0.47549334168434143,0.35502326488494873,-0.6332400441169739,-0.4350678026676178,-0.5326175689697266
4100593,9.31432819366455,0.08657282590866089,3.0772976875305176,0.3078710436820984,-0.08484206348657608,0.32170188426971436,0.6904861330986023,-0.3048665225505829,-0.5027376413345337,-0.4213551878929138,9.598844528198242,0.26282262802124023,-1.7368351221084595,0.21602390706539154,-0.061265576630830765,0.5896491408348083,0.35505157709121704,-0.6332091093063354,-0.4351179897785187,-0.5325945019721985
4100759,9.345520973205566,0.07889467477798462,3.063565492630005,0.5747553706169128,-0.02649633400142193,0.476722776889801,0.6905405521392822,-0.30479612946510315,-0.5027444362640381,-0.4213087558746338,9.597724914550781,0.25394290685653687,-1.7277480363845825,0.26704442501068115,0.012915203347802162,0.6462276577949524,0.35507145524024963,-0.6331910490989685,-0.43513721227645874,-0.5325869917869568
4100926,9.323396682739258,0.07549398392438889,3.080307722091675,0.6776032447814941,0.13502375781536102,0.5999454855918884,0.6905500888824463,-0.3047971725463867,-0.5026862025260925,-0.4213619530200958,9.59350872039795,0.22494159638881683,-1.763407588005066,0.3821607232093811,0.07985400408506393,0.8156172633171082,0.35512015223503113,-0.6331712603569031,-0.43514806032180786,-0.5325692892074585
4101093,9.32726001739502,0.06912999600172043,3.0697367191314697,0.7222333550453186,0.19605880975723267,0.6350861191749573,0.6905978322029114,-0.30475756525993347,-0.5026439428329468,-0.42136287689208984,9.581945419311523,0.23144200444221497,-1.7421650886535645,0.45637351274490356,0.0847076028585434,0.7453231811523438,0.35516247153282166,-0.6331493258476257,-0.43516144156455994,-0.5325561761856079
4101259,9.325660705566406,0.06436417996883392,3.069014310836792,0.6252379417419434,0.11452078074216843,0.741596519947052,0.6906307339668274,-0.3047531843185425,-0.5025915503501892,-0.4213745892047882,9.58893871307373,0.21440115571022034,-1.7677005529403687,0.6949173808097839,0.13973647356033325,0.6550383567810059,0.3552347719669342,-0.6330960988998413,-0.4352116286754608,-0.5325301289558411
4101426,9.3230562210083,0.06556431949138641,3.086094856262207,0.8001214861869812,0.12810830771923065,0.6902301907539368,0.6907179355621338,-0.3046681582927704,-0.5025860071182251,-0.4212997853755951,9.592228889465332,0.22595547139644623,-1.7471739053726196,0.83040851354599,0.0685972198843956,0.4840351939201355,0.3553100824356079,-0.6330240964889526,-0.43530139327049255,-0.5324922800064087
4101593,9.336164474487305,0.07724965363740921,3.0788819789886475,0.5284475088119507,0.07471863925457001,0.6070786118507385,0.6907399892807007,-0.30466073751449585,-0.5025408864021301,-0.42132288217544556,9.618237495422363,0.2264334112405777,-1.7495512962341309,0.7823718786239624,0.23427295684814453,0.454055517911911,0.35538390278816223,-0.632943868637085,-0.4353755712509155,-0.5324777364730835
4101759,9.317337989807129,0.054900161921978,3.068373203277588,0.6878483295440674,0.27918484807014465,0.6470344662666321,0.6908224821090698,-0.30458420515060425,-0.5025092363357544,-0.4212806224822998,9.582995414733887,0.25404223799705505,-1.748000979423523,0.6861321330070496,0.21314246952533722,0.4402759075164795,0.35542717576026917,-0.6328846216201782,-0.43542248010635376,-0.5324808359146118
4101926,9.31386947631836,0.06872337311506271,3.0671043395996094,0.7762376666069031,0.18709436058998108,0.74036705493927,0.6908888816833496,-0.3045342266559601,-0.5024743676185608,-0.42124950885772705,9.607659339904785,0.2638704478740692,-1.74432373046875,0.48448342084884644,0.11482812464237213,0.42174509167671204,0.3554369807243347,-0.6328482627868652,-0.4354518949985504,-0.5324933528900146
4102093,9.331772804260254,0.08904509246349335,3.076188087463379,0.5722836852073669,0.39173978567123413,0.7618560791015625,0.6909259557723999,-0.30453792214393616,-0.5023791193962097,-0.42129966616630554,9.618023872375488,0.28277787566185,-1.7165473699569702,0.08618032932281494,0.1402999609708786,0.34508630633354187,0.35544225573539734,-0.6327956318855286,-0.4354996085166931,-0.5325133800506592
4102259,9.314309120178223,0.07969583570957184,3.089169979095459,0.44778043031692505,0.4996333718299866,0.7995324730873108,0.6910194754600525,-0.30448782444000244,-0.5023010969161987,-0.42127546668052673,9.601494789123535,0.29454001784324646,-1.7298364639282227,-0.2550897002220154,0.20351211726665497,0.4950615167617798,0.35539934039115906,-0.6327908039093018,-0.4354667365550995,-0.5325749516487122
4102426,9.302263259887695,0.10032656788825989,3.110004186630249,0.5984984040260315,0.4219372272491455,0.6642974019050598,0.6910874247550964,-0.30443909764289856,-0.5022329688072205,-0.42128026485443115,9.59367847442627,0.2743993401527405,-1.7211675643920898,-0.5697160363197327,0.019907470792531967,0.7839086651802063,0.35534778237342834,-0.6328264474868774,-0.4354037642478943,-0.5326182842254639
4102593,9.323765754699707,0.08698766678571701,3.1201014518737793,0.6195776462554932,0.2598472535610199,0.45260846614837646,0.6911318302154541,-0.3043825030326843,-0.5021917819976807,-0.4212976098060608,9.622380256652832,0.25975802540779114,-1.7020856142044067,-0.9306886196136475,-0.07847730815410614,0.8203810453414917,0.35525667667388916,-0.6328933835029602,-0.43531060218811035,-0.5326757431030273
4102759,9.322549819946289,0.07422060519456863,3.105478286743164,0.36085090041160583,0.27027156949043274,0.5096606612205505,0.6912012100219727,-0.30431631207466125,-0.5021544098854065,-0.4212760031223297,9.631241798400879,0.22292457520961761,-1.7116864919662476,-0.87618488073349,0.07464181631803513,0.7999422550201416,0.35518863797187805,-0.6329358816146851,-0.4352273941040039,-0.5327386260032654
4102926,9.310823440551758,0.08391570299863815,3.123420000076294,0.19416344165802002,0.09760358929634094,0.504435658454895,0.6912281513214111,-0.3043038249015808,-0.5021081566810608,-0.4212958812713623,9.561911582946777,0.18480396270751953,-1.7254419326782227,-0.6068800687789917,0.2345418930053711,0.7841391563415527,0.35516828298568726,-0.6329392790794373,-0.4351748526096344,-0.5327911376953125
4103093,9.339691162109375,0.08438776433467865,3.1404964923858643,-0.047242626547813416,-0.2271590530872345,0.4030734896659851,0.6912358999252319,-0.30430230498313904,-0.5020995736122131,-0.42129454016685486,9.510283470153809,0.18920283019542694,-1.7270792722702026,-0.3507530987262726,-0.4194847643375397,0.37678200006484985,0.3550924062728882,-0.6329600214958191,-0.4352051913738251,-0.532792329788208
4103259,9.337796211242676,0.0371890626847744,3.1209990978240967,-0.0484464205801487,-0.19241541624069214,0.38515734672546387,0.6911887526512146,-0.3043648600578308,-0.5020474791526794,-0.4213888645172119,9.606790542602539,0.1827656477689743,-1.7601341009140015,-0.04176150634884834,-0.798744797706604,0.18002526462078094,0.3550080358982086,-0.6329798102378845,-0.43529966473579407,-0.532747745513916
4103426,9.285479545593262,0.09165442734956741,3.057149887084961,0.1886439323425293,-0.1266675889492035,0.27588075399398804,0.6911901235580444,-0.3043438792228699,-0.5020365118980408,-0.4214150011539459,9.619776725769043,0.2114434391260147,-1.7641788721084595,0.1523122936487198,-0.7143124938011169,-0.1549312025308609,0.3549131751060486,-0.6329687237739563,-0.43542584776878357,-0.5327209234237671
4103593,9.292141914367676,0.017491230741143227,3.063032388687134,0.5061389803886414,-0.2520289719104767,0.2864972651004791,0.6911842823028564,-0.3043150305747986,-0.5020478963851929,-0.4214314818382263,9.636648178100586,0.26997482776641846,-1.745245099067688,0.3691878914833069,-0.6246681809425354,-1.030795931816101,0.3547605872154236,-0.6328967213630676,-0.4356266260147095,-0.5327440500259399
4103759,9.372268676757812,0.04240923374891281,3.1143438816070557,1.0406758785247803,-0.4833372235298157,0.020304467529058456,0.6911727786064148,-0.30422282218933105,-0.502129852771759,-0.4214194118976593,9.621758460998535,0.3086426258087158,-1.7382439374923706,0.07476986199617386,-0.23048868775367737,-0.8744174242019653,0.35461488366127014,-0.6328215003013611,-0.435766339302063,-0.5328161120414734
4103926,9.348467826843262,0.10992853343486786,3.084693431854248,1.3162559270858765,0.01320975087583065,-0.680298924446106,0.6911889314651489,-0.30399468541145325,-0.5022256374359131,-0.4214433431625366,9.609387397766113,0.3199489712715149,-1.758832335472107,-0.2930733263492584,-0.00467431778088212,-0.560085654258728,0.3544803559780121,-0.6327619552612305,-0.4358450472354889,-0.5329119563102722
4104093,9.29024600982666,0.09325557947158813,3.1231155395507812,1.3582093715667725,0.14222091436386108,-0.5552576780319214,0.6912139058113098,-0.30377551913261414,-0.5022984743118286,-0.42147383093833923,9.612792015075684,0.32860738039016724,-1.740282654762268,-0.49801337718963623,0.285664826631546,9.604762453818694e-05,0.35440585017204285,-0.6327115893363953,-0.4358619451522827,-0.5330073833465576
4104259,9.326562881469727,0.07041975855827332,3.1072027683258057,1.1611838340759277,-0.60179603099823,-0.08970847725868225,0.6911636590957642,-0.30370432138442993,-0.5023839473724365,-0.4215056300163269,9.595415115356445,0.3415215015411377,-1.727609395980835,-0.6322365999221802,0.5091484785079956,0.4657861292362213,0.35437139868736267,-0.6326782703399658,-0.4358169734477997,-0.5331066250801086
4104426,9.35151195526123,0.082755908370018,3.1115310192108154,0.9492257833480835,-0.4355055093765259,-0.09191116690635681,0.6911352872848511,-0.30362123250961304,-0.5024534463882446,-0.4215291142463684,9.578886032104492,0.33451351523399353,-1.713874340057373,-0.9883941411972046,0.6847748160362244,0.7236804366111755,0.35431063175201416,-0.6326856017112732,-0.43568333983421326,-0.5332476496696472
4104593,9.28657054901123,0.1234719455242157,3.155137300491333,0.6199105381965637,-0.24221929907798767,0.022955378517508507,0.6911284923553467,-0.3035498559474945,-0.5024889707565308,-0.42154940962791443,9.564926147460938,0.2848353981971741,-1.7006405591964722,-0.9588627219200134,0.5995228886604309,0.8298707008361816,0.35427621006965637,-0.6326874494552612,-0.43557098507881165,-0.5333600640296936
4104759,9.290534973144531,0.12970192730426788,3.133061170578003,-0.011922711506485939,-0.6748818159103394,-0.08043668419122696,0.6910380721092224,-0.30358192324638367,-0.5025206804275513,-0.42163655161857605,9.569182395935059,0.23064029216766357,-1.7133979797363281,-0.5850324630737305,0.3493252098560333,0.8186267018318176,0.35423681139945984,-0.6327064037322998,-0.4354758560657501,-0.5334414839744568
4104926,9.323795318603516,0.08788519352674484,3.0849905014038086,-0.13985814154148102,-0.4671500027179718,0.16874286532402039,0.6909788250923157,-0.3036246597766876,-0.50251704454422,-0.4217073619365692,9.55734634399414,0.1963009238243103,-1.7016968727111816,0.015156314708292484,0.18631316721439362,0.8565334677696228,0.3542574644088745,-0.6326996684074402,-0.4354460537433624,-0.5334601998329163
4105093,9.31011962890625,0.08867920935153961,3.1014657020568848,0.5789685845375061,-0.2227664440870285,0.4735851585865021,0.6910092830657959,-0.3035767078399658,-0.5025348663330078,-0.4216707646846771,9.593997955322266,0.1907021552324295,-1.6988366842269897,0.7004752159118652,-0.27177631855010986,0.8909313082695007,0.3543270230293274,-0.6326860785484314,-0.4355026185512543,-0.5333837270736694
4105259,9.298086166381836,0.08169478178024292,3.1147053241729736,0.44834381341934204,-0.11959849298000336,0.4929099977016449,0.6910454034805298,-0.3035338222980499,-0.5025352239608765,-0.4216420650482178,9.58598804473877,0.2566390633583069,-1.7054158449172974,1.2446683645248413,-0.1717715561389923,0.7049703001976013,0.3544451892375946,-0.6326199173927307,-0.4356204569339752,-0.5332874655723572
4105426,9.301557540893555,0.07155248522758484,3.1033973693847656,0.28934022784233093,-0.4533959627151489,0.5321358442306519,0.6910380125045776,-0.30354756116867065,-0.502547025680542,-0.421629935503006,9.579293251037598,0.2490789145231247,-1.7225337028503418,1.4668711423873901,-0.9192140102386475,0.8548941016197205,0.35455411672592163,-0.6326046586036682,-0.4357873201370239,-0.5330967307090759
4105593,9.323408126831055,0.07861954718828201,3.139012098312378,0.3604283034801483,-0.31279510259628296,0.45248034596443176,0.6910832524299622,-0.3034874200820923,-0.5025838017463684,-0.4215552508831024,9.602640151977539,0.25890907645225525,-1.7310333251953125,1.4054265022277832,-0.6693111062049866,0.915225088596344,0.35465091466903687,-0.632598876953125,-0.43589943647384644,-0.5329476594924927
4105759,9.28708553314209,0.08760833740234375,3.0739221572875977,0.14619088172912598,-0.5923960208892822,0.851372480392456,0.6910707950592041,-0.30355748534202576,-0.5025805234909058,-0.42152923345565796,9.534283638000488,0.3076991140842438,-1.749426245689392,1.1420637369155884,-1.3516716957092285,0.6435254216194153,0.35465526580810547,-0.632644772529602,-0.43604758381843567,-0.5327690839767456
4105926,9.331647872924805,0.04920996353030205,3.0570907592773438,0.8874223828315735,-0.8231537342071533,1.1508874893188477,0.6911020278930664,-0.3035780191421509,-0.5026392936706543,-0.4213933050632477,9.608497619628906,0.33711808919906616,-1.7474619150161743,0.4183386564254761,-1.5854004621505737,0.38823091983795166,0.354577898979187,-0.6327142715454102,-0.4361976385116577,-0.5326152443885803
4106093,9.33752155303955,0.08175463229417801,3.105259418487549,0.6017512083053589,-0.8210920095443726,0.7395859360694885,0.6910836696624756,-0.3036111891269684,-0.5026901364326477,-0.42133867740631104,9.606924057006836,0.3365061283111572,-1.7758152484893799,-0.08722405880689621,-1.614842414855957,0.40262526273727417,0.35445401072502136,-0.6328119039535522,-0.4363102614879608,-0.5324894189834595
4106259,9.336211204528809,0.16897404193878174,3.0192904472351074,0.993920087814331,-0.6685042977333069,0.29438599944114685,0.6910608410835266,-0.3035699725151062,-0.5027651786804199,-0.4213162064552307,9.599778175354004,0.2844039797782898,-1.7724584341049194,-0.3715377748012543,-1.731431007385254,0.6382875442504883,0.35430169105529785,-0.6329579949378967,-0.43637117743492126,-0.5323672294616699
4106426,9.339502334594727,0.10834597796201706,3.093827486038208,0.9716368913650513,-0.4796874523162842,0.543034017086029,0.6910777688026428,-0.30352312326431274,-0.5028181076049805,-0.4212593138217926,9.583484649658203,0.24714325368404388,-1.79465651512146,-0.2969024181365967,-1.6255098581314087,0.9662070274353027,0.3542015552520752,-0.6331018805503845,-0.4364178478717804,-0.5322244763374329
4106593,9.346551895141602,0.05895911529660225,3.045599937438965,0.8963099122047424,-1.2879730463027954,0.6487632393836975,0.6910399198532104,-0.30353936553001404,-0.5029438734054565,-0.42115941643714905,9.584545135498047,0.25905877351760864,-1.7938616275787354,-0.21579979360103607,-1.4837052822113037,1.1314985752105713,0.35411280393600464,-0.633256196975708,-0.43642672896385193,-0.5320925116539001
4106759,9.3401460647583,0.10442965477705002,3.0636849403381348,0.90596604347229,-0.6981126070022583,0.5675966739654541,0.691043496131897,-0.3035094439983368,-0.5030166506767273,-0.42108815908432007,9.565245628356934,0.2650376558303833,-1.8232836723327637,-0.13307078182697296,-1.3616989850997925,0.9318348169326782,0.3540325164794922,-0.6333770155906677,-0.4364645481109619,-0.5319711565971375
4106926,9.308570861816406,0.12210983037948608,3.064288377761841,0.5568393468856812,-1.0122010707855225,0.6619922518730164,0.691007137298584,-0.30354931950569153,-0.5030904412269592,-0.4210308790206909,9.598512649536133,0.2510116994380951,-1.8192543983459473,-0.11459121853113174,-1.127816915512085,0.8030285239219666,0.3539573550224304,-0.6334717869758606,-0.43650227785110474,-0.531877338886261
4107093,9.326990127563477,0.08693747967481613,3.049459457397461,0.04016711562871933,-0.9455440640449524,0.4419023394584656,0.690946638584137,-0.30361196398735046,-0.5031411051750183,-0.4210245609283447,9.605557441711426,0.23303474485874176,-1.8237566947937012,-0.03777873516082764,-0.7655764222145081,0.6153643727302551,0.35391172766685486,-0.633510947227478,-0.43656131625175476,-0.5318126082420349
4107259,9.325669288635254,0.07166031748056412,3.0642189979553223,0.2260897010564804,-0.5605851411819458,0.48600733280181885,0.6909310817718506,-0.3036283850669861,-0.5031669735908508,-0.421007364988327,9.592948913574219,0.2267901748418808,-1.8302626609802246,0.14973823726177216,-0.3977523744106293,0.7434918284416199,0.35389214754104614,-0.6335405707359314,-0.43657535314559937,-0.5317787528038025
4107426,9.322782516479492,0.08815420418977737,3.0633747577667236,0.4489457905292511,-0.7361857891082764,0.6158636808395386,0.690908670425415,-0.3036571741104126,-0.5032098293304443,-0.42097219824790955,9.592066764831543,0.23530375957489014,-1.8152689933776855,0.4713313579559326,-0.2752981185913086,0.7567849159240723,0.35394635796546936,-0.6335163116455078,-0.436647891998291,-0.5317120552062988
4107593,9.319000244140625,0.0919271782040596,3.0847887992858887,0.4997613728046417,-0.5596503019332886,0.5053577423095703,0.6908977627754211,-0.30365806818008423,-0.5032452940940857,-0.42094719409942627,9.589431762695312,0.2583937346935272,-1.8107340335845947,0.5547518134117126,-0.21636326611042023,0.8946195244789124,0.35399240255355835,-0.6335167288780212,-0.4366762340068817,-0.5316576957702637
4107759,9.331367492675781,0.08202864229679108,3.055100440979004,0.30213382840156555,-0.7549214959144592,0.5070098042488098,0.6908665299415588,-0.3036877512931824,-0.5032899379730225,-0.4209235608577728,9.596027374267578,0.2687270939350128,-1.8037253618240356,0.44021186232566833,-0.026329854503273964,0.8715168833732605,0.3540491759777069,-0.6334978938102722,-0.43670105934143066,-0.5316219925880432
4107926,9.347487449645996,0.08919418603181839,3.056194543838501,0.336313933134079,-0.2906144857406616,0.5095838308334351,0.6908552646636963,-0.30370453000068665,-0.5032789707183838,-0.42094293236732483,9.616507530212402,0.27314355969429016,-1.7881966829299927,0.3398101031780243,0.10617104917764664,0.7350524663925171,0.3540995121002197,-0.6334611773490906,-0.43672966957092285,-0.5316087007522583
4108093,9.337120056152344,0.0865442156791687,3.079268217086792,0.19828712940216064,-0.2020585983991623,0.49753308296203613,0.6908465623855591,-0.30372512340545654,-0.5032535791397095,-0.42097267508506775,9.602275848388672,0.2666884958744049,-1.8031091690063477,0.21014578640460968,0.34110352396965027,0.6754260659217834,0.3541514277458191,-0.6334066987037659,-0.43674522638320923,-0.5316262245178223
4108259,9.329538345336914,0.09091810137033463,3.0661468505859375,0.37699970602989197,-0.2231762409210205,0.5579918026924133,0.6908712387084961,-0.3037058711051941,-0.5032549500465393,-0.420944482088089,9.592714309692383,0.26090219616889954,-1.796657919883728,0.13355101644992828,0.3312426209449768,0.7495364546775818,0.3542124032974243,-0.6333523392677307,-0.43676191568374634,-0.531636655330658
4108426,9.326391220092773,0.09625004231929779,3.0785529613494873,0.16853797435760498,-0.08806926757097244,0.6098448038101196,0.6908976435661316,-0.3037055432796478,-0.5032262206077576,-0.4209356904029846,9.565906524658203,0.24245032668113708,-1.7809170484542847,0.08299155533313751,0.2570810914039612,0.8810064792633057,0.354258269071579,-0.6333274841308594,-0.43674802780151367,-0.5316469669342041
4108593,9.335935592651367,0.08183077722787857,3.077369213104248,0.21065807342529297,-0.06924393773078918,0.5823240280151367,0.6909002661705017,-0.303727924823761,-0.503181517124176,-0.4209686517715454,9.580750465393066,0.24691618978977203,-1.7732962369918823,0.16901180148124695,0.07954663783311844,0.9671803116798401,0.35430431365966797,-0.6333203315734863,-0.4367380738258362,-0.5316330790519714
4108759,9.323813438415527,0.08775603026151657,3.056680679321289,0.4310040771961212,-0.127384752035141,0.711424708366394,0.6909251809120178,-0.30373072624206543,-0.5031566023826599,-0.42095547914505005,9.578828811645508,0.22106888890266418,-1.7849591970443726,0.2966911196708679,0.03756742551922798,0.9418237805366516,0.3543453514575958,-0.6333175897598267,-0.4367290437221527,-0.5316163301467896
4108926,9.34220027923584,0.07601495087146759,3.071380615234375,0.21010738611221313,-0.3113095760345459,0.7610365748405457,0.6909350156784058,-0.3037644028663635,-0.5031382441520691,-0.4209369421005249,9.590079307556152,0.23989006876945496,-1.757139801979065,0.4633657932281494,-0.04611566662788391,1.0067265033721924,0.35440754890441895,-0.6333122849464417,-0.43673795461654663,-0.5315739512443542
4109093,9.336779594421387,0.07890544086694717,3.062166929244995,0.2268836796283722,-6.403174484148622e-05,0.7780176997184753,0.6909757256507874,-0.3037714660167694,-0.5030931830406189,-0.42091894149780273,9.590978622436523,0.24030731618404388,-1.765510082244873,0.5252588391304016,0.055214572697877884,0.9468054175376892,0.3544873893260956,-0.6332839727401733,-0.4367631673812866,-0.5315338373184204
4109259,9.31331729888916,0.06596139073371887,3.04032039642334,0.3993852436542511,0.009060491807758808,0.7972912788391113,0.6910095810890198,-0.30378127098083496,-0.5030455589294434,-0.4209131896495819,9.592690467834473,0.2340937703847885,-1.7501250505447388,0.5903663635253906,0.1730329990386963,0.8532038927078247,0.35456815361976624,-0.6332419514656067,-0.43678927421569824,-0.5315085053443909
4109426,9.31269645690918,0.07405959814786911,3.0818443298339844,0.28854626417160034,0.020688656717538834,0.8058971166610718,0.6910433173179626,-0.30379825830459595,-0.5029922127723694,-0.4209093451499939,9.572648048400879,0.24182775616645813,-1.7740532159805298,0.602301836013794,0.19591793417930603,0.8303572535514832,0.35464397072792053,-0.6332010626792908,-0.4368099868297577,-0.5314897298812866
4109593,9.32473087310791,0.08048289269208908,3.0486958026885986,0.41056519746780396,-0.21363553404808044,0.8159118294715881,0.691071093082428,-0.30381208658218384,-0.5029729008674622,-0.42087700963020325,9.592138290405273,0.22752301394939423,-1.773369312286377,0.6486992239952087,0.18542954325675964,0.9170690178871155,0.35472261905670166,-0.6331695914268494,-0.43681883811950684,-0.5314674377441406
4109759,9.308331489562988,0.06590568274259567,3.082754135131836,0.4706909656524658,-0.22288168966770172,0.822827160358429,0.6910843253135681,-0.3038407564163208,-0.5029460787773132,-0.42086634039878845,9.596619606018066,0.22602011263370514,-1.767978549003601,0.5178311467170715,0.19787731766700745,0.8997038006782532,0.3547908365726471,-0.633141279220581,-0.43682050704956055,-0.5314539670944214
4109926,9.302155494689941,0.08074003458023071,3.089524745941162,0.24788609147071838,-0.1344410628080368,0.7520849108695984,0.6911035776138306,-0.3038652837276459,-0.5029094219207764,-0.42086106538772583,9.576605796813965,0.23460924625396729,-1.7663085460662842,0.4064030945301056,0.2199554592370987,0.8856294751167297,0.3548586368560791,-0.6331086158752441,-0.4368246793746948,-0.5314444899559021
4110093,9.320619583129883,0.05166424438357353,3.0815258026123047,0.4037777781486511,-0.25155508518218994,0.7591795921325684,0.6911325454711914,-0.30386871099472046,-0.5029014348983765,-0.42082053422927856,9.58023738861084,0.23048274219036102,-1.7526781558990479,0.31414616107940674,0.06127198785543442,0.8495795726776123,0.35490575432777405,-0.6330903768539429,-0.43683338165283203,-0.5314275622367859
4110260,9.321219444274902,0.06641415506601334,3.084991931915283,0.18736331164836884,-0.33575689792633057,0.7630215287208557,0.6911462545394897,-0.30389904975891113,-0.5028886198997498,-0.4207914173603058,9.553397178649902,0.21869535744190216,-1.7734142541885376,0.18682542443275452,-0.17510120570659637,0.939928412437439,0.3549371063709259,-0.6330987811088562,-0.4368414282798767,-0.5313898324966431
4110426,9.317152976989746,0.06324005872011185,3.102262258529663,0.17323791980743408,-0.3361794948577881,0.8016455173492432,0.6911492943763733,-0.30394867062568665,-0.5028643608093262,-0.42077964544296265,9.566091537475586,0.2233993411064148,-1.7553480863571167,0.15767818689346313,-0.502303421497345,0.9057227969169617,0.35495007038116455,-0.633125364780426,-0.4368765950202942,-0.5313205122947693
4110593,9.328254699707031,0.05308396741747856,3.065760850906372,0.26956725120544434,-0.4913155734539032,0.7726518511772156,0.6911887526512146,-0.30394166707992554,-0.5028949975967407,-0.42068299651145935,9.582242965698242,0.20041415095329285,-1.7591038942337036,0.18463554978370667,-0.6575419902801514,1.0389344692230225,0.35496607422828674,-0.6331712603569031,-0.43690913915634155,-0.5312284827232361
4110760,9.324604988098145,0.05534607172012329,3.053821563720703,0.04368885979056358,-0.4615023732185364,0.7629318833351135,0.6912023425102234,-0.3039761185646057,-0.5028966069221497,-0.4206339120864868,9.578022003173828,0.17491531372070312,-1.7940521240234375,0.3519505262374878,-0.3523154854774475,0.9055946469306946,0.3549906611442566,-0.6331901550292969,-0.43693143129348755,-0.5311710238456726
4110926,9.331441879272461,0.050460077822208405,3.0844647884368896,0.3604154586791992,-0.33785709738731384,0.6865547299385071,0.6912251114845276,-0.3039765954017639,-0.5029021501541138,-0.4205894470214844,9.51114559173584,0.19292739033699036,-1.7828741073608398,0.40860578417778015,-0.6186491250991821,0.5027580261230469,0.3549659550189972,-0.6332066059112549,-0.4370012879371643,-0.531110405921936
4111093,9.326895713806152,0.01991947554051876,3.0945208072662354,0.07646030932664871,-0.23778828978538513,0.4982246458530426,0.6912301182746887,-0.30398690700531006,-0.5028879046440125,-0.420590877532959,9.579813957214355,0.19495756924152374,-1.805893898010254,0.34141087532043457,-1.0274534225463867,0.3237765431404114,0.35489529371261597,-0.6332470774650574,-0.4371032416820526,-0.5310256481170654
4111260,9.291769981384277,0.04396231472492218,3.024198293685913,0.45820480585098267,-0.3915797173976898,0.5355295538902283,0.6912878155708313,-0.30391812324523926,-0.5029423832893372,-0.42048078775405884,9.619915962219238,0.1882597804069519,-1.7903016805648804,0.40627506375312805,-0.8921160101890564,0.24647743999958038,0.35485535860061646,-0.6332505345344543,-0.43723630905151367,-0.5309386253356934
4111426,9.307069778442383,0.04429527744650841,3.007930040359497,0.4774142801761627,-0.4551120400428772,0.45939576625823975,0.6912685036659241,-0.303927481174469,-0.502959132194519,-0.42048555612564087,9.608052253723145,0.2416742444038391,-1.8289626836776733,0.39331504702568054,-0.8436694741249084,-0.309772789478302,0.3547712564468384,-0.6332186460494995,-0.4374127686023712,-0.5308876037597656
4111593,9.358721733093262,0.02397269755601883,3.0935721397399902,1.6719518899917603,-0.5512108206748962,0.5641900897026062,0.6913189888000488,-0.3038094937801361,-0.5030665993690491,-0.42035919427871704,9.620716094970703,0.2915124297142029,-1.8218586444854736,-0.12224943190813065,-0.6865484714508057,-0.503520131111145,0.35464006662368774,-0.6331849694252014,-0.437564879655838,-0.5308900475502014
4111760,9.3503999710083,0.10324526578187943,3.0609960556030273,1.0275110006332397,-0.46752142906188965,-0.15856823325157166,0.691274106502533,-0.3037329614162445,-0.5031375288963318,-0.4204034209251404,9.593623161315918,0.2915288507938385,-1.8034813404083252,-0.5552192330360413,-0.336345911026001,-0.137284055352211,0.35451972484588623,-0.6331688165664673,-0.43763312697410583,-0.5309333801269531
4111926,9.339498519897461,0.11906526237726212,3.0746397972106934,1.2456032037734985,-0.16385726630687714,-0.47621697187423706,0.6912682056427002,-0.3035609722137451,-0.50322425365448,-0.42043358087539673,9.590597152709961,0.28874656558036804,-1.8075867891311646,-0.7313578724861145,-0.17323151230812073,0.31067565083503723,0.35440611839294434,-0.6331958770751953,-0.4376125931739807,-0.5309940576553345
4112093,9.34302043914795,0.05962510034441948,3.1025607585906982,0.8000574707984924,-0.6891096234321594,0.10841215401887894,0.6912353038787842,-0.30351370573043823,-0.5033077001571655,-0.4204218089580536,9.584639549255371,0.2738308310508728,-1.7895342111587524,-0.6825271248817444,0.024863524362444878,0.741660475730896,0.35435518622398376,-0.6332221031188965,-0.4375607669353485,-0.5310394167900085
4112260,9.354421615600586,0.05411297082901001,3.0585713386535645,0.6700345873832703,-0.6619089841842651,0.24669510126113892,0.6912257075309753,-0.3034661114215851,-0.5033873319625854,-0.42037680745124817,9.56617546081543,0.26930510997772217,-1.7927716970443726,-0.7991291284561157,0.21543483436107635,1.0299186706542969,0.35432326793670654,-0.6332615613937378,-0.4374581575393677,-0.5310981273651123
4112426,9.318476676940918,0.07543294131755829,3.076611042022705,0.5139508247375488,-0.19101949036121368,0.2932974100112915,0.6912310719490051,-0.3034270703792572,-0.5033972263336182,-0.42038416862487793,9.596168518066406,0.24370989203453064,-1.8000500202178955,-0.7063086032867432,0.2478989213705063,1.0283050537109375,0.3542974591255188,-0.6332972049713135,-0.43735623359680176,-0.5311567783355713
4112593,9.291350364685059,0.12186650931835175,3.111443042755127,-0.13482525944709778,-0.46830257773399353,0.17287932336330414,0.6911405920982361,-0.30350860953330994,-0.5033726096153259,-0.42050352692604065,9.551423072814941,0.20253022015094757,-1.811959147453308,-0.34584829211235046,0.5263345241546631,0.9760679602622986,0.35431942343711853,-0.6332889795303345,-0.4372732937335968,-0.5312201976776123
4112760,9.318137168884277,0.056582752615213394,3.048180341720581,-0.25118371844291687,-0.4219563901424408,0.19877375662326813,0.6910635232925415,-0.3035847544670105,-0.5033444762229919,-0.42060917615890503,9.542085647583008,0.15723225474357605,-1.7819786071777344,0.41430461406707764,0.10171442478895187,1.0445691347122192,0.3544039726257324,-0.6332679390907288,-0.4372803568840027,-0.5311831831932068
4112926,9.328624725341797,0.0435866042971611,3.0539488792419434,0.09002223610877991,-0.18314360082149506,0.3843505382537842,0.6910422444343567,-0.3036111891269684,-0.5033135414123535,-0.4206621050834656,9.591094017028809,0.1450607031583786,-1.786939263343811,1.0679150819778442,-0.05821765959262848,1.0476168394088745,0.35454675555229187,-0.6332182884216309,-0.43735599517822266,-0.5310847163200378
4113093,9.303155899047852,0.029359271749854088,3.0500428676605225,0.2812594473361969,-0.47768962383270264,0.668408215045929,0.6910390853881836,-0.30364149808883667,-0.5033208131790161,-0.42063668370246887,9.593355178833008,0.19617970287799835,-1.7913745641708374,1.4387102127075195,0.213526651263237,0.6595717668533325,0.35468846559524536,-0.6331236362457275,-0.4374541938304901,-0.5310220718383789
4113260,9.338153839111328,0.03320126235485077,3.0417864322662354,0.37742239236831665,-0.38908255100250244,0.6888344287872314,0.6910399794578552,-0.3036670684814453,-0.5033189654350281,-0.42061877250671387,9.548261642456055,0.23488111793994904,-1.7771756649017334,1.317831039428711,-0.04328546300530434,0.45636069774627686,0.3547905683517456,-0.6330389976501465,-0.4375793933868408,-0.5309516787528992
4113426,9.334970474243164,0.07286880165338516,3.1097376346588135,0.23701351881027222,0.14160621166229248,0.49785324931144714,0.6910647749900818,-0.3036574721336365,-0.5032655596733093,-0.4206489324569702,9.6025390625,0.2221761792898178,-1.805433988571167,1.1228158473968506,-0.10800876468420029,0.6348043084144592,0.3548952043056488,-0.6329716444015503,-0.4376890957355499,-0.5308715105056763
4113593,9.316295623779297,0.06810551881790161,3.048541307449341,0.13192462921142578,-0.1674942523241043,0.3854391276836395,0.6910486817359924,-0.3036772608757019,-0.5032366514205933,-0.4206956624984741,9.537408828735352,0.23273493349552155,-1.81065034866333,0.899959921836853,-0.1606556624174118,0.5034753084182739,0.3549565374851227,-0.6329193711280823,-0.43778562545776367,-0.5308133363723755
4113760,9.35318374633789,0.001483993954025209,2.9562571048736572,0.4566167891025543,-0.5112166404724121,0.867777407169342,0.6910660862922668,-0.303703248500824,-0.5032514333724976,-0.4206307530403137,9.593673706054688,0.27928727865219116,-1.8191807270050049,0.2924138009548187,-0.6247449517250061,0.045007918030023575,0.35489755868911743,-0.6329050064086914,-0.43790140748023987,-0.5307743549346924
4113926,9.386405944824219,0.06588103622198105,3.117260694503784,0.6938159465789795,0.17454414069652557,0.5934398770332336,0.6911424994468689,-0.3036254346370697,-0.5032349824905396,-0.4205808937549591,9.612998962402344,0.2831605076789856,-1.8075510263442993,-0.4761529266834259,-0.16252540051937103,-0.01828746870160103,0.3547869324684143,-0.6328946352005005,-0.4379342496395111,-0.5308334827423096
4114093,9.334532737731934,0.12600982189178467,2.971133232116699,0.9664759635925293,-0.4031950831413269,0.057532526552677155,0.6911363005638123,-0.30353984236717224,-0.5033028721809387,-0.4205714166164398,9.594681739807129,0.25953608751296997,-1.815976619720459,-0.7659094333648682,-0.18457792699337006,0.03713201358914375,0.3546629846096039,-0.6328954100608826,-0.4379536807537079,-0.5308993458747864
4114260,9.348231315612793,0.11492512375116348,3.079965114593506,0.7747904658317566,0.13791798055171967,-0.04719139635562897,0.6911423206329346,-0.30344757437705994,-0.503301203250885,-0.42063048481941223,9.59896469116211,0.23125207424163818,-1.815680742263794,-0.8729704022407532,-0.04077541455626488,0.23659087717533112,0.35454633831977844,-0.6329097747802734,-0.4379298985004425,-0.5309796929359436
4114426,9.367717742919922,0.0634242370724678,3.056318998336792,0.7436326742172241,-0.5439624786376953,0.14986629784107208,0.6911244988441467,-0.30339550971984863,-0.5033684968948364,-0.4206165671348572,9.594916343688965,0.24006369709968567,-1.8255488872528076,-0.7774350047111511,0.17791220545768738,0.3700714707374573,0.3544502556324005,-0.6329213976860046,-0.43787533044815063,-0.531075119972229
4114593,9.35303020477295,0.07184600085020065,3.049778938293457,0.6600712537765503,-0.15303587913513184,0.05559876561164856,0.6911326050758362,-0.3033132553100586,-0.5034003853797913,-0.4206244647502899,9.578276634216309,0.23297898471355438,-1.7725040912628174,-0.6940656900405884,0.4006018340587616,0.4849700629711151,0.3544100224971771,-0.6328974366188049,-0.4378351867198944,-0.5311635732650757
4114760,9.32779598236084,0.09023486077785492,3.068089008331299,0.3825576603412628,-0.042414627969264984,0.05846738815307617,0.6911309361457825,-0.30325961112976074,-0.5033999085426331,-0.4206666052341461,9.594735145568848,0.22633816301822662,-1.7851425409317017,-0.5866460800170898,0.5120426416397095,0.2263970822095871,0.3543689548969269,-0.6328415274620056,-0.43782326579093933,-0.5312674641609192
4114926,9.33551025390625,0.10374577343463898,3.101426362991333,-0.20008641481399536,-0.3119114637374878,-0.12778174877166748,0.6910735964775085,-0.3032655715942383,-0.5034002065658569,-0.420756071805954,9.594745635986328,0.2212313413619995,-1.7797281742095947,-0.30512407422065735,0.6336005926132202,0.14994315803050995,0.35435861349105835,-0.6327542662620544,-0.43783727288246155,-0.5313667058944702
4115093,9.307551383972168,0.06292672455310822,3.09293270111084,-0.17542137205600739,-0.09501031041145325,-0.12563028931617737,0.6910289525985718,-0.30326107144355774,-0.5033767819404602,-0.42086055874824524,9.573160171508789,0.2218392938375473,-1.8033132553100586,-0.0757751613855362,0.566482424736023,0.19749310612678528,0.3543577492237091,-0.632672905921936,-0.4378546476364136,-0.5314498543739319
4115260,9.30856990814209,0.055355947464704514,3.0550355911254883,0.15738363564014435,-0.47975146770477295,-0.07777296006679535,0.6909749507904053,-0.30324888229370117,-0.5034109950065613,-0.4209170639514923,9.582079887390137,0.23344042897224426,-1.7766956090927124,0.0786886066198349,0.5398324131965637,0.14829112589359283,0.35435664653778076,-0.6325901746749878,-0.43787914514541626,-0.5315288305282593
4115426,9.337614059448242,0.08225955814123154,3.0615336894989014,0.3943330943584442,-0.36038345098495483,-0.027994677424430847,0.690954327583313,-0.30319657921791077,-0.5034530162811279,-0.42093825340270996,9.58285903930664,0.2726285755634308,-1.769536018371582,0.048209499567747116,0.3809184432029724,0.3149145245552063,0.3543659746646881,-0.6325230598449707,-0.43790653347969055,-0.5315800309181213
4115593,9.33277416229248,0.07759296894073486,3.0687649250030518,0.1802941858768463,-0.2436792552471161,-0.10238676518201828,0.6909183263778687,-0.3031648099422455,-0.5034667253494263,-0.42100396752357483,9.5949125289917,0.2984413504600525,-1.782664179801941,-0.2125597894191742,0.42817389965057373,0.31099575757980347,0.3543528616428375,-0.6324668526649475,-0.43790966272354126,-0.5316529870033264
4115760,9.324617385864258,0.07478207349777222,3.0619380474090576,0.09023994207382202,-0.22914402186870575,-0.12855014204978943,0.690881073474884,-0.30313509702682495,-0.5034770965576172,-0.4210740923881531,9.592568397521973,0.2741878032684326,-1.7587071657180786,-0.5457297563552856,0.4978148639202118,0.34333184361457825,0.3543100357055664,-0.632429301738739,-0.43787384033203125,-0.531755805015564
4115926,9.344300270080566,0.08437703549861908,3.0795435905456543,0.1235748678445816,-0.21720848977565765,-0.15689057111740112,0.6908227205276489,-0.30312544107437134,-0.5034740567207336,-0.42118024826049805,9.612238883972168,0.2690088450908661,-1.7603129148483276,-0.8009986877441406,0.46488961577415466,0.34352391958236694,0.3542565703392029,-0.6323941946029663,-0.437838077545166,-0.5318624973297119
4116093,9.341496467590332,0.08126215636730194,3.064941883087158,0.08972769230604172,-0.2580479681491852,-0.006595270708203316,0.6907941699028015,-0.30310291051864624,-0.5034840703010559,-0.42123153805732727,9.580686569213867,0.269894003868103,-1.7582162618637085,-0.8692821860313416,0.4233074486255646,0.4432213306427002,0.35419961810112,-0.6323747634887695,-0.4377864897251129,-0.531965970993042
4116260,9.327993392944336,0.08327556401491165,3.061011791229248,0.40768373012542725,-0.4278089106082916,-0.013651568442583084,0.6907650828361511,-0.30306026339530945,-0.5035296678543091,-0.4212552011013031,9.576560974121094,0.25262296199798584,-1.7524222135543823,-0.8192991018295288,0.19736507534980774,0.372952938079834,0.3541184961795807,-0.6323727965354919,-0.4377465546131134,-0.5320552587509155
