sampleTimeFine,D4:22:CD:00:A9:12_acc_x,D4:22:CD:00:A9:12_acc_y,D4:22:CD:00:A9:12_acc_z,D4:22:CD:00:A9:12_gyro_x,D4:22:CD:00:A9:12_gyro_y,D4:22:CD:00:A9:12_gyro_z,D4:22:CD:00:A9:12_quat_w,D4:22:CD:00:A9:12_quat_x,D4:22:CD:00:A9:12_quat_y,D4:22:CD:00:A9:12_quat_z,D4:22:CD:00:A1:93_acc_x,D4:22:CD:00:A1:93_acc_y,D4:22:CD:00:A1:93_acc_z,D4:22:CD:00:A1:93_gyro_x,D4:22:CD:00:A1:93_gyro_y,D4:22:CD:00:A1:93_gyro_z,D4:22:CD:00:A1:93_quat_w,D4:22:CD:00:A1:93_quat_x,D4:22:CD:00:A1:93_quat_y,D4:22:CD:00:A1:93_quat_z
1936516,-0.28149133920669556,-0.35107362270355225,-0.1637420952320099,-0.3039434552192688,0.29355722665786743,-0.2013484090566635,0.6209763288497925,-0.36499640345573425,-0.5419550538063049,-0.43295592069625854,0.1377001851797104,-0.16244542598724365,-0.3154395818710327,0.02465219795703888,-0.08684173226356506,-0.3629419505596161,0.3201195299625397,-0.6898362636566162,-0.44409096240997314,-0.47374314069747925
1936683,9.739119529724121,0.17114655673503876,1.4454368352890015,0.7316460013389587,0.9749282002449036,0.6647840142250061,0.6212995648384094,-0.3644925057888031,-0.5421491861343384,-0.4326735734939575,9.0927152633667,-0.2238353043794632,-3.335420608520508,0.9989911913871765,2.2211010456085205,0.6572410464286804,0.3207061290740967,-0.6892889738082886,-0.4443276822566986,-0.47392117977142334
1936850,9.745872497558594,0.16946552693843842,1.435103178024292,0.6911778450012207,0.9211928248405457,0.6098448038101196,0.6214364171028137,-0.36427661776542664,-0.5421234965324402,-0.43269115686416626,9.087628364562988,-0.1742485761642456,-3.3336827754974365,1.0317755937576294,2.047203779220581,0.8784580230712891,0.32145968079566956,-0.6888905167579651,-0.444441556930542,-0.4738832414150238
1937016,9.73241138458252,0.16776439547538757,1.4710183143615723,0.7240133881568909,0.9072338938713074,0.6315387487411499,0.6216219067573547,-0.36402076482772827,-0.5422191619873047,-0.4325201213359833,9.099266052246094,-0.18182606995105743,-3.312812089920044,0.6266723275184631,1.7327311038970947,0.5232610106468201,0.3216768205165863,-0.6886122226715088,-0.4445142447948456,-0.4740721583366394
1937850,9.69723892211914,0.17192384600639343,1.46871018409729,0.5299715399742126,0.924317479133606,0.48348450660705566,0.62237948179245,-0.3630945086479187,-0.5424007773399353,-0.4319813549518585,9.117659568786621,-0.17778104543685913,-3.304971218109131,0.4043029248714447,1.5887752771377563,0.4316956698894501,0.32189854979515076,-0.6882705092430115,-0.44466695189476013,-0.4742746651172638
1938016,9.733222961425781,0.1564279943704605,1.4699490070343018,0.5290495753288269,0.8009667992591858,0.4419151246547699,0.6225134134292603,-0.36294302344322205,-0.5424182415008545,-0.43189340829849243,9.1378173828125,-0.20729295909404755,-3.326664447784424,0.24987110495567322,1.5261776447296143,0.5238117575645447,0.3218930661678314,-0.6881515383720398,-0.4444633722305298,-0.47464168071746826
1938183,9.714810371398926,0.19061900675296783,1.4695565700531006,0.2119130641222,0.722476601600647,0.3377354145050049,0.6226540207862854,-0.36280521750450134,-0.5424187779426575,-0.4318057596683502,9.140560150146484,-0.20882754027843475,-3.3052046298980713,0.1832524836063385,1.4998477697372437,0.6921000480651855,0.32211628556251526,-0.687933623790741,-0.44447892904281616,-0.4747917056083679
1938350,9.692144393920898,0.1749301552772522,1.444712519645691,-0.033245284110307693,0.6204612851142883,0.24848802387714386,0.6227095723152161,-0.36275458335876465,-0.5423632264137268,-0.4318380653858185,9.133711814880371,-0.2011277973651886,-3.285520076751709,0.042049650102853775,1.4831866025924683,0.6778593063354492,0.32221800088882446,-0.6878674030303955,-0.44426384568214417,-0.4750198423862457
1938516,9.711651802062988,0.17240895330905914,1.4750031232833862,0.3744896650314331,0.5924921631813049,0.1355103999376297,0.622734546661377,-0.36271679401397705,-0.5423107743263245,-0.43189963698387146,9.126456260681152,-0.2098194658756256,-3.2909529209136963,-0.1286269724369049,1.4581246376037598,0.6086794137954712,0.3224879801273346,-0.6876379251480103,-0.4442964792251587,-0.47513827681541443
1938683,9.701825141906738,0.1951858103275299,1.5023789405822754,0.43502527475357056,0.5779953598976135,0.08486127108335495,0.6228044629096985,-0.36262059211730957,-0.5422917604446411,-0.43190351128578186,9.129549026489258,-0.2109355330467224,-3.2704992294311523,-0.23361341655254364,1.3840526342391968,0.4539146423339844,0.3226819932460785,-0.6874714493751526,-0.44425997138023376,-0.47528162598609924
1938850,9.71382999420166,0.16381533443927765,1.5095564126968384,0.3308456242084503,0.7345913648605347,0.05100129172205925,0.6228445768356323,-0.3625623881816864,-0.5422108769416809,-0.4319961667060852,9.14587688446045,-0.21822494268417358,-3.2694687843322754,-0.28022855520248413,1.2720483541488647,0.2210696041584015,0.3227730989456177,-0.6873783469200134,-0.4441249966621399,-0.47548022866249084
1939016,9.698298454284668,0.17540939152240753,1.5140552520751953,0.39934679865837097,0.6461891531944275,-0.009489504620432854,0.6229124069213867,-0.36246776580810547,-0.5421555042266846,-0.4320472776889801,9.163766860961914,-0.21177607774734497,-3.260054349899292,-0.2587778866291046,1.314923882484436,0.3240070343017578,0.3229173719882965,-0.6872593760490417,-0.4440236985683441,-0.47564905881881714
1939183,9.69653034210205,0.19357335567474365,1.5117700099945068,0.23931865394115448,0.5518704056739807,0.16075168550014496,0.6230091452598572,-0.36236947774887085,-0.5421067476272583,-0.4320513904094696,9.158454895019531,-0.20526471734046936,-3.2549924850463867,-0.27993395924568176,1.3880738019943237,0.32158663868904114,0.32299721240997314,-0.6871994733810425,-0.4438153803348541,-0.4758756458759308
1939350,9.690556526184082,0.17702226340770721,1.4998506307601929,0.32591521739959717,0.5286141037940979,0.1462164968252182,0.6230664253234863,-0.3623131811618805,-0.542029619216919,-0.43211254477500916,9.158268928527832,-0.21486879885196686,-3.2547740936279297,-0.3298531472682953,1.4976832866668701,0.28877678513526917,0.3231060802936554,-0.6871022582054138,-0.44364917278289795,-0.47609710693359375
1939516,9.703327178955078,0.1759386658668518,1.5059731006622314,0.41380512714385986,0.4583456516265869,0.13431939482688904,0.6231439709663391,-0.3622276484966278,-0.5419828295707703,-0.432131290435791,9.15667724609375,-0.20022080838680267,-3.260599136352539,-0.27359485626220703,1.6071264743804932,0.24482540786266327,0.32321977615356445,-0.6869987845420837,-0.4434809684753418,-0.47632601857185364
1939683,9.710984230041504,0.1761026233434677,1.509960412979126,0.40327832102775574,0.4746480882167816,0.17287930846214294,0.6231363415718079,-0.36225825548171997,-0.5418571829795837,-0.4322741627693176,9.14139175415039,-0.19199447333812714,-3.241807222366333,-0.34355592727661133,1.5555936098098755,0.11358591169118881,0.3232998251914978,-0.6869030594825745,-0.4433184266090393,-0.4765608012676239
1939850,9.701774597167969,0.17114298045635223,1.5212684869766235,0.3126862347126007,0.3630791902542114,0.20878830552101135,0.6232353448867798,-0.36216112971305847,-0.5418325662612915,-0.43224379420280457,9.137516975402832,-0.20026172697544098,-3.2343645095825195,-0.2807280123233795,1.3526771068572998,0.3155292868614197,0.32340753078460693,-0.6868074536323547,-0.4431922733783722,-0.47674286365509033
1940016,9.721454620361328,0.17237676680088043,1.5314393043518066,0.3229312598705292,0.383146733045578,0.3079606890678406,0.6232972145080566,-0.3621296286582947,-0.5417606830596924,-0.43227073550224304,9.146413803100586,-0.2028036266565323,-3.219576597213745,-0.2255198359489441,1.2186459302902222,0.30687215924263,0.3235112428665161,-0.6867172718048096,-0.44308245182037354,-0.47690460085868835
1940183,9.706194877624512,0.1572529822587967,1.498123288154602,0.2986888885498047,0.2520737946033478,0.4315035939216614,0.6233434081077576,-0.3621356785297394,-0.5416803359985352,-0.4322999119758606,9.142280578613281,-0.19598200917243958,-3.2289011478424072,-0.14996236562728882,1.1280792951583862,0.5577870011329651,0.32362329959869385,-0.686655580997467,-0.4429425597190857,-0.477047324180603
1940350,9.705704689025879,0.16824983060359955,1.5014599561691284,0.26869645714759827,0.22902238368988037,0.4188764989376068,0.6234389543533325,-0.36208078265190125,-0.5416478514671326,-0.43224889039993286,9.155734062194824,-0.1997620314359665,-3.2371506690979004,-0.0858793780207634,0.8159117698669434,0.5553025007247925,0.3237084448337555,-0.6866229772567749,-0.4428100883960724,-0.4771592617034912
1940516,9.711634635925293,0.16738790273666382,1.4940675497055054,0.4498806595802307,0.1465238481760025,0.5064079165458679,0.6234989166259766,-0.3620774447917938,-0.5415953993797302,-0.43223077058792114,9.134465217590332,-0.22019971907138824,-3.2470037937164307,0.08332452178001404,0.7923097014427185,0.680151641368866,0.32384225726127625,-0.6865687966346741,-0.44271987676620483,-0.4772301912307739
1940683,9.706055641174316,0.1720084249973297,1.4928165674209595,0.32627376914024353,0.030280614271759987,0.5726551413536072,0.6235570907592773,-0.3620859682559967,-0.5415540933609009,-0.432191401720047,9.136393547058105,-0.2099650800228119,-3.2332799434661865,0.2554418444633484,0.5640363693237305,0.7683233022689819,0.32396814227104187,-0.6865466237068176,-0.44262316823005676,-0.4772663712501526
1940850,9.723006248474121,0.1766682118177414,1.5014313459396362,0.4632633626461029,-0.03880324214696884,0.617848813533783,0.6236186623573303,-0.3620910346508026,-0.541528046131134,-0.4321310818195343,9.141195297241211,-0.20588620007038116,-3.2330386638641357,0.40420040488243103,0.35832804441452026,0.7337973713874817,0.32410645484924316,-0.6865177750587463,-0.4425727427005768,-0.47726061940193176
1941016,9.718125343322754,0.17820240557193756,1.4985703229904175,0.3944804072380066,-0.06998670101165771,0.5462612509727478,0.6236829161643982,-0.36208096146583557,-0.54151850938797,-0.43205878138542175,9.12558650970459,-0.2131301462650299,-3.225303888320923,0.5814274549484253,0.04563542827963829,0.7610877752304077,0.32423946261405945,-0.6865081787109375,-0.4425443112850189,-0.47721046209335327
1941183,9.731135368347168,0.1831161230802536,1.4937925338745117,0.4427475035190582,-0.12961305677890778,0.5011444687843323,0.6237510442733765,-0.3620544373989105,-0.5415301322937012,-0.43196797370910645,9.123611450195312,-0.20208270847797394,-3.2401015758514404,0.653296709060669,-0.25188809633255005,0.7082615494728088,0.3243395984172821,-0.6865288019180298,-0.4425179958343506,-0.4771372377872467
1941350,9.705021858215332,0.1867888867855072,1.4919471740722656,0.4906560480594635,-0.14632534980773926,0.45767977833747864,0.623808741569519,-0.36203062534332275,-0.5415448546409607,-0.4318861663341522,9.13190746307373,-0.2091154307126999,-3.2495083808898926,0.5892137289047241,-0.5528372526168823,0.549578070640564,0.3244325816631317,-0.6865344047546387,-0.4425663352012634,-0.4770210087299347
1941516,9.72271728515625,0.17825619876384735,1.518296480178833,0.49737945199012756,-0.14244505763053894,0.40057623386383057,0.6238418221473694,-0.36202681064605713,-0.5415477156639099,-0.43183794617652893,9.128089904785156,-0.18887917697429657,-3.2379019260406494,0.48108971118927,-0.5504680275917053,0.5314314365386963,0.3245358467102051,-0.6865231394767761,-0.44264549016952515,-0.47689366340637207
1941683,9.703123092651367,0.17709407210350037,1.5095669031143188,0.3736828863620758,-0.20289099216461182,0.28366705775260925,0.623807966709137,-0.3620891869068146,-0.5415140390396118,-0.4318767786026001,9.150016784667969,-0.18839094042778015,-3.2468104362487793,0.2889944911003113,-0.5859801173210144,0.47536522150039673,0.3245381712913513,-0.6865875124931335,-0.442615807056427,-0.476826936006546
1941850,9.68663215637207,0.1936798244714737,1.5186259746551514,0.2610638439655304,-0.24416585266590118,0.2593349814414978,0.6238114237785339,-0.3621019124984741,-0.5415194034576416,-0.43185460567474365,9.161892890930176,-0.18808704614639282,-3.2562224864959717,0.10083078593015671,-0.48607784509658813,0.5782131552696228,0.32450371980667114,-0.6866876482963562,-0.4425182640552521,-0.47679683566093445
1942016,9.715468406677246,0.21355322003364563,1.5197664499282837,0.08743535727262497,-0.38817328214645386,0.1087835431098938,0.6237813830375671,-0.36213064193725586,-0.5415323376655579,-0.43185755610466003,9.158623695373535,-0.18239711225032806,-3.2791390419006348,-0.16490736603736877,-0.4278858006000519,0.5072019100189209,0.32448214292526245,-0.6867522597312927,-0.44246986508369446,-0.47676321864128113
1942183,9.746443748474121,0.17748698592185974,1.4970252513885498,0.11242053657770157,-0.4500407576560974,0.20769979059696198,0.6237554550170898,-0.36216434836387634,-0.5415502190589905,-0.43184423446655273,9.156782150268555,-0.18077728152275085,-3.2542879581451416,-0.5557955503463745,-0.4369654357433319,0.45194247364997864,0.32438763976097107,-0.6868582367897034,-0.4423641860485077,-0.47677305340766907
1942350,9.678597450256348,0.16003528237342834,1.4773706197738647,0.07482108473777771,-0.2812274396419525,0.3275415897369385,0.623727023601532,-0.362227201461792,-0.5415276885032654,-0.4318610429763794,9.134817123413086,-0.2269022911787033,-3.249061346054077,-0.6429556012153625,-0.340469628572464,0.47704294323921204,0.3243122398853302,-0.6869429349899292,-0.44227805733680725,-0.47678226232528687
1942516,9.709277153015137,0.2003355622291565,1.5226846933364868,-0.03675422444939613,-0.42324984073638916,0.13137394189834595,0.6236439943313599,-0.3623259961605072,-0.5415014624595642,-0.43193092942237854,9.144508361816406,-0.1989699751138687,-3.260477066040039,-0.6778912544250488,-0.3447597324848175,0.7299298644065857,0.3242560923099518,-0.6870425343513489,-0.4421704411506653,-0.4767765998840332
1942683,9.711265563964844,0.1947423666715622,1.448224425315857,-0.4465574622154236,-0.3342457413673401,-0.07247113436460495,0.6235646605491638,-0.3624001145362854,-0.5414785146713257,-0.4320119619369507,9.160003662109375,-0.20814770460128784,-3.264294147491455,-0.8383293151855469,-0.5098592042922974,0.651990532875061,0.32418012619018555,-0.6871447563171387,-0.4420865476131439,-0.47675880789756775
1942850,9.775718688964844,0.17227265238761902,1.4789048433303833,-0.07784979790449142,0.10519775748252869,-0.0750708132982254,0.6235626935958862,-0.36238208413124084,-0.541462779045105,-0.43204960227012634,9.128311157226562,-0.21431592106819153,-3.3009438514709473,-0.9108005166053772,-0.4602089822292328,0.4726887345314026,0.32407429814338684,-0.6872478723526001,-0.441994845867157,-0.47676724195480347
1943016,9.734935760498047,0.1856376826763153,1.4964994192123413,0.3992571532726288,0.653232753276825,-0.1346459537744522,0.6236093640327454,-0.36230164766311646,-0.5414188504219055,-0.43210479617118835,9.146919250488281,-0.19376985728740692,-3.2810556888580322,-0.9444041848182678,-0.6480909585952759,0.17250792682170868,0.323921799659729,-0.6873568296432495,-0.4419267773628235,-0.47677668929100037
1943183,9.668551445007324,0.18560157716274261,1.5520739555358887,0.3830443024635315,0.44836947321891785,-0.0481390655040741,0.6235886216163635,-0.36231228709220886,-0.5413417220115662,-0.43222248554229736,9.195466995239258,-0.20806743204593658,-3.2597463130950928,-1.1127564907073975,-0.4082663953304291,-0.1685955971479416,0.3236943185329437,-0.6874810457229614,-0.4418001174926758,-0.47686946392059326
1943350,9.711387634277344,0.16768120229244232,1.5355697870254517,0.0985768735408783,0.01460564136505127,0.07845810055732727,0.6236125826835632,-0.3622787892818451,-0.5413490533828735,-0.4322068393230438,9.19930362701416,-0.21314802765846252,-3.257554054260254,-0.9759078025817871,-0.026739656925201416,0.04773566871881485,0.32360485196113586,-0.6875080466270447,-0.44176429510116577,-0.4769245386123657
1943516,9.691157341003418,0.15474964678287506,1.5142197608947754,0.32700371742248535,-0.07370053231716156,0.1510060727596283,0.6236231327056885,-0.36226585507392883,-0.5413540005683899,-0.43219631910324097,9.169878959655762,-0.18691886961460114,-3.25276517868042,-0.8681424260139465,0.31518346071243286,0.04170387610793114,0.32350975275039673,-0.6875414848327637,-0.4416638910770416,-0.47703391313552856
1943683,9.671119689941406,0.19186709821224213,1.5313677787780762,0.2181113362312317,-0.2686900198459625,0.17501796782016754,0.6236118674278259,-0.36228102445602417,-0.5413656830787659,-0.4321851432323456,9.130990028381348,-0.183848574757576,-3.2540957927703857,-0.7639628052711487,0.5800700187683105,0.2291504144668579,0.3234894573688507,-0.6875313520431519,-0.44158923625946045,-0.47713127732276917
1943850,9.715546607971191,0.1782846599817276,1.5186293125152588,0.30650076270103455,-0.242962047457695,0.33292028307914734,0.6236178874969482,-0.36229801177978516,-0.5413721799850464,-0.4321540594100952,9.139960289001465,-0.18293793499469757,-3.2462189197540283,-0.6700153946876526,0.5243752002716064,0.3494916558265686,0.32348254323005676,-0.6875286102294922,-0.44151175022125244,-0.4772116541862488
1944016,9.706302642822266,0.17836691439151764,1.4951443672180176,0.6234322786331177,0.0626678615808487,0.30292779207229614,0.6236535310745239,-0.36227652430534363,-0.5413645505905151,-0.43213021755218506,9.140095710754395,-0.1906583458185196,-3.246480941772461,-0.5794232487678528,0.45639902353286743,0.39093300700187683,0.32347753643989563,-0.6875338554382324,-0.44143199920654297,-0.4772814214229584
1944183,9.70877742767334,0.18102045357227325,1.5136762857437134,0.5149497389793396,0.029525037854909897,0.48059025406837463,0.6236819624900818,-0.3622937500476837,-0.541335940361023,-0.4321107864379883,9.150965690612793,-0.19912347197532654,-3.264798641204834,-0.30462461709976196,0.43338608741760254,0.5567880868911743,0.323482871055603,-0.687563419342041,-0.4413165748119354,-0.47734183073043823
1944350,9.735513687133789,0.18114563822746277,1.4965466260910034,0.5201106667518616,0.030523931607604027,0.5404215455055237,0.6237514615058899,-0.36226874589920044,-0.54133540391922,-0.43203186988830566,9.150262832641602,-0.2129559963941574,-3.25750994682312,-0.08270339667797089,0.2832828462123871,0.6614543795585632,0.32352009415626526,-0.6875885725021362,-0.44123104214668274,-0.4773593544960022
1944516,9.711274147033691,0.18466106057167053,1.5032843351364136,0.6029677987098694,0.03501896187663078,0.5783539414405823,0.6238086223602295,-0.3622632324695587,-0.5413222908973694,-0.431970477104187,9.1232328414917,-0.21597790718078613,-3.231689691543579,0.12288331985473633,0.21652334928512573,0.7770571708679199,0.323600172996521,-0.687599778175354,-0.4411771595478058,-0.4773387312889099
1944683,9.722230911254883,0.1884196400642395,1.4973150491714478,0.4727015495300293,-0.059472691267728806,0.4951382875442505,0.623826265335083,-0.3622937798500061,-0.5412976145744324,-0.4319504201412201,9.142431259155273,-0.20616120100021362,-3.2642548084259033,0.3190893530845642,-0.001946565113030374,0.6900508999824524,0.3236592710018158,-0.6876311302185059,-0.44112464785575867,-0.47730204463005066
1944850,9.728410720825195,0.18147821724414825,1.5072212219238281,0.4923721253871918,-0.11045476049184799,0.5158845782279968,0.6238442659378052,-0.3623242676258087,-0.5412802696228027,-0.43192043900489807,9.16051197052002,-0.19558992981910706,-3.260803699493408,0.42922401428222656,-0.07166433334350586,0.5738973021507263,0.3237496614456177,-0.6876247525215149,-0.4411420524120331,-0.47723388671875
1945016,9.711406707763672,0.18996411561965942,1.5115796327590942,0.6414380073547363,-0.22636504471302032,0.5886886715888977,0.6238785982131958,-0.36233794689178467,-0.5412902235984802,-0.43184694647789,9.150731086730957,-0.19281122088432312,-3.2956252098083496,0.5395891070365906,-0.18977729976177216,0.515180230140686,0.3238050639629364,-0.6876491904258728,-0.441129595041275,-0.4771726429462433
1945183,9.70270824432373,0.1716507077217102,1.478450059890747,0.6658084988594055,-0.7015189528465271,0.571784257888794,0.6239007115364075,-0.3623460829257965,-0.5413670539855957,-0.43171173334121704,9.142956733703613,-0.1803266704082489,-3.2331881523132324,0.6383004784584045,-0.21976979076862335,0.45747482776641846,0.3239004909992218,-0.6876338720321655,-0.44118475914001465,-0.47707876563072205
1945350,9.705855369567871,0.17444272339344025,1.4774891138076782,0.45128926634788513,-0.26597505807876587,0.6991305947303772,0.623948335647583,-0.3623633086681366,-0.5413804054260254,-0.4316116273403168,9.120453834533691,-0.20626592636108398,-3.2559173107147217,0.5156797170639038,-0.41303038597106934,0.5723350048065186,0.323939710855484,-0.6876810193061829,-0.44117265939712524,-0.4769955277442932
1945516,9.69217586517334,0.2088397741317749,1.5019354820251465,0.451801598072052,-0.38582974672317505,0.11965613812208176,0.6239194273948669,-0.3623807430267334,-0.5414102077484131,-0.431601345539093,9.121437072753906,-0.18136624991893768,-3.265601873397827,0.5976530909538269,-0.5576908588409424,0.823954164981842,0.3239710330963135,-0.6877729892730713,-0.4411129355430603,-0.4768967926502228
1945683,9.707778930664062,0.18721802532672882,1.485195279121399,0.7363715171813965,-0.18123546242713928,0.3416669964790344,0.6239433884620667,-0.3623664379119873,-0.5414348840713501,-0.4315480589866638,9.11992359161377,-0.1697581708431244,-3.2805821895599365,0.22564145922660828,-0.8210278153419495,0.4446556568145752,0.32393568754196167,-0.6878629326820374,-0.4410993456840515,-0.4768035113811493
1945850,9.693421363830566,0.17829573154449463,1.5385626554489136,0.46743813157081604,-0.22829878330230713,0.38901203870773315,0.6238906383514404,-0.36246031522750854,-0.5413932204246521,-0.4315977096557617,9.143608093261719,-0.16592584550380707,-3.2638661861419678,-0.06596551090478897,-0.8769275546073914,0.3918166756629944,0.3238700330257416,-0.687960684299469,-0.44108450412750244,-0.4767208695411682
1946016,9.710296630859375,0.18249742686748505,1.5164763927459717,0.601418137550354,-0.25658801198005676,0.4783875644207001,0.6239079833030701,-0.36247625946998596,-0.5414069294929504,-0.4315420091152191,9.171143531799316,-0.1986457109451294,-3.272472858428955,-0.1481950730085373,-0.9506024718284607,0.4676814675331116,0.3237929344177246,-0.6880749464035034,-0.44105565547943115,-0.4766349792480469
1946183,9.725099563598633,0.1952897608280182,1.5433942079544067,0.18350856006145477,-0.3846515119075775,0.35088756680488586,0.623900294303894,-0.3625090718269348,-0.541425347328186,-0.43150240182876587,9.16287612915039,-0.2019442617893219,-3.264958143234253,-0.1637163907289505,-0.7835822105407715,0.6799724102020264,0.3237442374229431,-0.6881875991821289,-0.4410035014152527,-0.4765537977218628
1946350,9.702032089233398,0.18826228380203247,1.4988313913345337,0.0064095789566636086,-0.3745857775211334,0.19340792298316956,0.6238637566566467,-0.3625577390193939,-0.5414308309555054,-0.431507408618927,9.161613464355469,-0.18466025590896606,-3.2844033241271973,-0.24248823523521423,-0.6117976903915405,0.7027419805526733,0.32372263073921204,-0.6882728338241577,-0.4409673511981964,-0.4764787554740906
1946516,9.698935508728027,0.1893029510974884,1.5247732400894165,0.2033328115940094,-0.43647879362106323,0.15095484256744385,0.6238304972648621,-0.3625883162021637,-0.5414572358131409,-0.431496798992157,9.149704933166504,-0.19124732911586761,-3.2674686908721924,-0.4314587116241455,-0.48530933260917664,0.6876689791679382,0.323686808347702,-0.6883589625358582,-0.44091132283210754,-0.47643059492111206
1946683,9.71410083770752,0.18966710567474365,1.5222731828689575,0.26108941435813904,-0.4312537908554077,0.03811809420585632,0.6237843632698059,-0.36261576414108276,-0.5414847135543823,-0.4315059185028076,9.13658618927002,-0.19520306587219238,-3.2727370262145996,-0.6226191520690918,-0.4878450930118561,0.4528389275074005,0.323642760515213,-0.6884135603904724,-0.4409056305885315,-0.4763869345188141
1946850,9.723575592041016,0.19901593029499054,1.5288751125335693,0.21616478264331818,-0.32827794551849365,0.01857561059296131,0.623734176158905,-0.3626497983932495,-0.5414936542510986,-0.431538462638855,9.14482307434082,-0.19969183206558228,-3.283945322036743,-0.6337093114852905,-0.43431445956230164,0.24597792327404022,0.3235473930835724,-0.6884880661964417,-0.4408605098724365,-0.47638580203056335
1947016,9.707085609436035,0.18494713306427002,1.5496456623077393,0.22817714512348175,-0.28910335898399353,0.026016101241111755,0.6237096786499023,-0.3626537322998047,-0.5415172576904297,-0.43154090642929077,9.155555725097656,-0.2015836536884308,-3.2500429153442383,-0.6455168128013611,-0.3430180549621582,0.24314771592617035,0.3235068917274475,-0.6885097026824951,-0.4408841133117676,-0.47636017203330994
1947183,9.713196754455566,0.19185636937618256,1.5313928127288818,0.09006065130233765,-0.29441800713539124,0.09166144579648972,0.6236516833305359,-0.36271339654922485,-0.5415031909942627,-0.4315922260284424,9.1567964553833,-0.18398870527744293,-3.2859623432159424,-0.7082935571670532,-0.3171236217021942,0.24736106395721436,0.32340574264526367,-0.6885848641395569,-0.4408195912837982,-0.47637978196144104
1947350,9.708942413330078,0.19116303324699402,1.5183002948760986,0.20941583812236786,-0.3652627170085907,0.09967822581529617,0.6236062049865723,-0.3627530634403229,-0.5415116548538208,-0.4316140115261078,9.1731538772583,-0.1822792887687683,-3.2707061767578125,-0.7045669555664062,-0.10188732296228409,0.35677850246429443,0.323314905166626,-0.6886622905731201,-0.44071826338768005,-0.4764232933521271
1947516,9.701292037963867,0.17194047570228577,1.5014921426773071,0.2856520116329193,-0.3984054923057556,0.12655875086784363,0.6235498189926147,-0.3628073036670685,-0.5415148138999939,-0.4316460192203522,9.149022102355957,-0.1778447926044464,-3.262269973754883,-0.6886357665061951,-0.002036209451034665,0.2068929821252823,0.3232143223285675,-0.6887287497520447,-0.4406181573867798,-0.4764880836009979
1947683,9.704878807067871,0.18325558304786682,1.5181715488433838,0.2234259694814682,-0.2527717351913452,0.21642088890075684,0.6235402822494507,-0.3628237843513489,-0.5415237545967102,-0.4316346049308777,9.144086837768555,-0.1808166205883026,-3.299598455429077,-0.6848962903022766,-0.01480413880199194,0.31650251150131226,0.32313767075538635,-0.6887869834899902,-0.4405325949192047,-0.4765350818634033
1947850,9.698784828186035,0.17758014798164368,1.4987348318099976,0.33260011672973633,-0.3728184401988983,0.2784164547920227,0.6235076785087585,-0.36287200450897217,-0.541527509689331,-0.4316365122795105,9.125097274780273,-0.17779847979545593,-3.2425291538238525,-0.6516383290290833,-0.18361742794513702,0.2257567197084427,0.3230729103088379,-0.6888254880905151,-0.44050440192222595,-0.4765493869781494
1948016,9.723103523254395,0.16861101984977722,1.4992069005966187,0.31569573283195496,-0.4054234027862549,0.30842170119285583,0.6234346032142639,-0.3629751205444336,-0.5414987206459045,-0.43169158697128296,9.131566047668457,-0.1942846179008484,-3.2734670639038086,-0.6242966651916504,-0.21829701960086823,0.4599592387676239,0.32305625081062317,-0.6888507008552551,-0.4405019283294678,-0.4765265882015228
1948183,9.708806037902832,0.1719408482313156,1.4889214038848877,0.3551776707172394,-0.32277122139930725,0.3981685936450958,0.6234170198440552,-0.3630248010158539,-0.5414949655532837,-0.4316798150539398,9.145645141601562,-0.19372998178005219,-3.2892491817474365,-0.4096238911151886,-0.4116729497909546,0.49022072553634644,0.32301080226898193,-0.6889181733131409,-0.4404624104499817,-0.4764964282512665
1948350,9.68955135345459,0.18161411583423615,1.4954125881195068,0.45769259333610535,-0.34216010570526123,0.4076709747314453,0.6233655214309692,-0.36311542987823486,-0.5414667129516602,-0.4317133128643036,9.150978088378906,-0.18897752463817596,-3.2675089836120605,-0.25289976596832275,-0.5092188119888306,0.575056254863739,0.3229493796825409,-0.6890191435813904,-0.44038504362106323,-0.4764634668827057
1948516,9.708552360534668,0.17681461572647095,1.5044034719467163,0.42866051197052,-0.30147427320480347,0.5025275945663452,0.623341977596283,-0.3631881773471832,-0.5414450764656067,-0.4317134916782379,9.13634967803955,-0.1943700760602951,-3.2743399143218994,-0.0694616362452507,-0.6257694363594055,0.555225670337677,0.3229716420173645,-0.6890496015548706,-0.4404353201389313,-0.4763578474521637
1948683,9.705365180969238,0.1905084103345871,1.504610300064087,0.4160078167915344,-0.41068682074546814,0.42835313081741333,0.6233282685279846,-0.3632330894470215,-0.5414563417434692,-0.4316811263561249,9.141634941101074,-0.20050263404846191,-3.277042865753174,0.10491601377725601,-0.6837565898895264,0.6505433320999146,0.32298651337623596,-0.6891075968742371,-0.4404506981372833,-0.47624972462654114
1948850,9.71153450012207,0.18128152191638947,1.4893473386764526,0.4471912980079651,-0.42079102993011475,0.5016311407089233,0.6233001351356506,-0.3633063733577728,-0.541450023651123,-0.4316679835319519,9.143074989318848,-0.18966028094291687,-3.2605555057525635,0.32198366522789,-0.7453168034553528,0.6386975049972534,0.3229633569717407,-0.6892099380493164,-0.44040507078170776,-0.47615954279899597
1949016,9.721561431884766,0.19399493932724,1.512245774269104,0.4728936553001404,-0.48661571741104126,0.3804830312728882,0.6232569813728333,-0.36337628960609436,-0.5414549112319946,-0.4316655099391937,9.136652946472168,-0.18517620861530304,-3.2736141681671143,0.39004939794540405,-0.9503592848777771,0.6184378862380981,0.3229700028896332,-0.6892865896224976,-0.4404306709766388,-0.47602012753486633
1949183,9.711870193481445,0.19938786327838898,1.50201416015625,0.5304070115089417,-0.3341560661792755,0.32813069224357605,0.6232131123542786,-0.3634425401687622,-0.5414418578147888,-0.43168938159942627,9.128870964050293,-0.17436841130256653,-3.288003921508789,0.3617089092731476,-0.9731159806251526,0.4889144003391266,0.32296550273895264,-0.6893559098243713,-0.44047147035598755,-0.4758850932121277
1949350,9.702475547790527,0.20330023765563965,1.5079971551895142,0.43962275981903076,-0.41589897871017456,0.3625669479370117,0.6231738924980164,-0.3635072112083435,-0.541440486907959,-0.4316931366920471,9.1371488571167,-0.1729932278394699,-3.2876758575439453,0.21626721322536469,-0.8689876198768616,0.4166993498802185,0.3229418396949768,-0.6894254088401794,-0.4404965043067932,-0.4757773280143738
1949516,9.69924259185791,0.19520369172096252,1.4977513551712036,0.5092764496803284,-0.4554066061973572,0.3299875855445862,0.6231512427330017,-0.3635425269603729,-0.5414640307426453,-0.43166664242744446,9.146707534790039,-0.18491502106189728,-3.3062567710876465,0.06734218448400497,-0.7938783168792725,0.45039287209510803,0.3229309916496277,-0.6894792318344116,-0.4405350387096405,-0.47567108273506165
1949683,9.686471939086914,0.21486926078796387,1.4973222017288208,0.48185810446739197,-0.42404383420944214,0.2908641993999481,0.6231234073638916,-0.36357951164245605,-0.5414822101593018,-0.4316529333591461,9.133358001708984,-0.16831418871879578,-3.2875967025756836,-0.07431524991989136,-0.6820150017738342,0.4251515865325928,0.32289913296699524,-0.6895415782928467,-0.44054359197616577,-0.4755944013595581
1949850,9.735208511352539,0.19885143637657166,1.5063557624816895,0.07300259917974472,-0.43649163842201233,0.2038578987121582,0.6230517029762268,-0.36366668343544006,-0.5414673686027527,-0.4317016303539276,9.139496803283691,-0.1480213701725006,-3.313634157180786,-0.3667866885662079,-0.719691276550293,0.4299924373626709,0.3228071331977844,-0.6896463632583618,-0.4404926896095276,-0.47555211186408997
1950017,9.715936660766602,0.1876865178346634,1.5108546018600464,0.13575370609760284,-0.35380101203918457,0.27028441429138184,0.6229668259620667,-0.36378201842308044,-0.541422426700592,-0.4317832589149475,9.139322280883789,-0.16230644285678864,-3.3069238662719727,-0.5831242799758911,-0.6590147018432617,0.3835821747779846,0.32273611426353455,-0.6897144317626953,-0.4404911696910858,-0.4755030572414398
1950183,9.677339553833008,0.18902067840099335,1.4939709901809692,0.3020697832107544,-0.5551424622535706,0.3290783762931824,0.6228692531585693,-0.3639112412929535,-0.5413950085639954,-0.4318496584892273,9.147704124450684,-0.18057428300380707,-3.304722309112549,-0.5917174220085144,-0.543975293636322,0.5339671969413757,0.3226450979709625,-0.6898181438446045,-0.44041579961776733,-0.4754839837551117
1950350,9.733451843261719,0.2303113043308258,1.4991744756698608,-0.005711631383746862,-0.5562565922737122,0.14881618320941925,0.6227819919586182,-0.3640061318874359,-0.541390061378479,-0.43190157413482666,9.120979309082031,-0.16823755204677582,-3.28776478767395,-0.7086265087127686,-0.571777880191803,0.761292576789856,0.32255202531814575,-0.6899474263191223,-0.44030526280403137,-0.4754618704319
1950517,9.695788383483887,0.19749604165554047,1.4552695751190186,-0.44833746552467346,-0.38408803939819336,0.08410569280385971,0.6226557493209839,-0.3641557991504669,-0.5413244962692261,-0.43203964829444885,9.121240615844727,-0.17995142936706543,-3.2974026203155518,-0.9145014882087708,-0.7140693068504333,0.5823623538017273,0.32242435216903687,-0.6900771260261536,-0.44021692872047424,-0.4754420816898346
1950683,9.787081718444824,0.20366503298282623,1.5231314897537231,-0.17967307567596436,-0.01819782145321369,-0.14975744485855103,0.6225852966308594,-0.3642047643661499,-0.5412788987159729,-0.432157039642334,9.13360595703125,-0.19890907406806946,-3.324883222579956,-0.86879563331604,-0.759877622127533,0.5861146450042725,0.3223007023334503,-0.6902057528495789,-0.4401370882987976,-0.47541311383247375
1950850,9.716094017028809,0.19296498596668243,1.5073928833007812,0.2556595802307129,0.27344757318496704,-0.05963917076587677,0.6225600242614746,-0.36421069502830505,-0.5412240624427795,-0.43225714564323425,9.139509201049805,-0.17048931121826172,-3.313844680786133,-0.9283323287963867,-0.8983142971992493,0.18448187410831451,0.3221113085746765,-0.690342366695404,-0.4400668144226074,-0.4754083454608917
1951017,9.678260803222656,0.19841870665550232,1.5523743629455566,0.4846370816230774,0.07907280325889587,0.09289084374904633,0.6225621104240417,-0.3641936480998993,-0.5412106513977051,-0.4322851002216339,9.167881965637207,-0.19411136209964752,-3.315247058868408,-0.8584863543510437,-0.7367619872093201,-0.06718210875988007,0.32192644476890564,-0.6904434561729431,-0.44002658128738403,-0.47542378306388855
1951183,9.715850830078125,0.1985546052455902,1.5092381238937378,0.09435077011585236,-0.34488779306411743,0.10518494993448257,0.6225181221961975,-0.3642306923866272,-0.5412155985832214,-0.4323112964630127,9.176750183105469,-0.19152478873729706,-3.300952196121216,-0.7605434656143188,-0.4580959379673004,-0.11984182149171829,0.32175517082214355,-0.6905271410942078,-0.439969927072525,-0.4754706919193268
1951350,9.682363510131836,0.19234630465507507,1.5035090446472168,0.23333807289600372,-0.3495621085166931,0.15562917292118073,0.6224756836891174,-0.36426976323127747,-0.5412197113037109,-0.43233412504196167,9.134512901306152,-0.17753735184669495,-3.3141214847564697,-0.5199249386787415,-0.07733754813671112,0.03211192041635513,0.32169896364212036,-0.6905307769775391,-0.4399785101413727,-0.4754956066608429
1951517,9.69765853881836,0.21753711998462677,1.5122171640396118,0.22445048391819,-0.5347931385040283,0.08849827200174332,0.6224035620689392,-0.3643289804458618,-0.5412347912788391,-0.43236926198005676,9.131688117980957,-0.15930931270122528,-3.297288179397583,-0.4733099043369293,0.18618512153625488,0.06287278234958649,0.3216177821159363,-0.6905606985092163,-0.4399045407772064,-0.4755755364894867
1951683,9.703781127929688,0.18800479173660278,1.508522868156433,0.4798474609851837,-0.3411995768547058,0.31485047936439514,0.6223952174186707,-0.36434406042099,-0.5412539839744568,-0.43234455585479736,9.12851619720459,-0.14088468253612518,-3.3127481937408447,-0.39744508266448975,0.19714733958244324,0.0784837156534195,0.32160279154777527,-0.6905338764190674,-0.4399174749851227,-0.47561246156692505
1951850,9.711494445800781,0.19869419932365417,1.501960277557373,0.46040746569633484,-0.1701323390007019,0.43370622396469116,0.6223999261856079,-0.3643680810928345,-0.5412440896034241,-0.43232980370521545,9.125204086303711,-0.16425520181655884,-3.2995948791503906,-0.22125530242919922,0.1562182456254959,0.16491375863552094,0.3215639293193817,-0.690548300743103,-0.439871221780777,-0.4756605327129364
1952017,9.703262329101562,0.19107317924499512,1.4902305603027344,0.39955171942710876,-0.2588675320148468,0.4623028039932251,0.6224101781845093,-0.36438751220703125,-0.5412488579750061,-0.43229275941848755,9.138915061950684,-0.13892492651939392,-3.340803384780884,-0.13704074919223785,0.1313098967075348,0.4789510667324066,0.3215738534927368,-0.6905611753463745,-0.43983104825019836,-0.47567248344421387
1952183,9.73050594329834,0.17148271203041077,1.49734365940094,0.4683346152305603,-0.03543516993522644,0.49785324931144714,0.6224085092544556,-0.36443373560905457,-0.541205883026123,-0.4323100745677948,9.143324851989746,-0.16601112484931946,-3.3068151473999023,0.08607788383960724,0.13586896657943726,0.6975042819976807,0.3216260075569153,-0.6905726194381714,-0.4397917687892914,-0.47565701603889465
1952350,9.714653015136719,0.1915167272090912,1.5163908004760742,0.5890600681304932,-0.12100719660520554,0.6717634797096252,0.62242591381073,-0.36447760462760925,-0.5411759614944458,-0.43228551745414734,9.126642227172852,-0.1727844625711441,-3.3219962120056152,0.28975003957748413,-0.004008387681096792,0.7480509281158447,0.32166144251823425,-0.6906163096427917,-0.43972253799438477,-0.4756337106227875
1952517,9.722938537597656,0.19461362063884735,1.5099211931228638,0.4006786644458771,-0.17478105425834656,0.6647327542304993,0.6224147081375122,-0.36455845832824707,-0.5411275029182434,-0.43229401111602783,9.134925842285156,-0.1709843873977661,-3.3046815395355225,0.4305943548679352,-0.11090299487113953,0.8508347272872925,0.3217293620109558,-0.690650463104248,-0.4396842420101166,-0.4755733013153076
1952683,9.725168228149414,0.19499671459197998,1.507845401763916,0.4697560966014862,-0.16150087118148804,0.7287389039993286,0.6224454045295715,-0.36459532380104065,-0.5411068201065063,-0.43224450945854187,9.123749732971191,-0.17824743688106537,-3.321962594985962,0.6871182918548584,-0.19673113524913788,0.8893817067146301,0.32179710268974304,-0.6907021999359131,-0.4396306574344635,-0.47550198435783386
1952850,9.704425811767578,0.19896282255649567,1.4918713569641113,0.6594181060791016,-0.28750255703926086,0.6453952193260193,0.6224170327186584,-0.3646840453147888,-0.5410680174827576,-0.4322591722011566,9.142561912536621,-0.171136274933815,-3.2996113300323486,0.7142549157142639,-0.15496963262557983,0.6786404252052307,0.3219042122364044,-0.6906906366348267,-0.4396700859069824,-0.47540977597236633
1953017,9.684406280517578,0.1865784376859665,1.470004916191101,0.5318924784660339,-0.7343672513961792,0.7552096247673035,0.6224051713943481,-0.36475592851638794,-0.5410996079444885,-0.43217596411705017,9.12380313873291,-0.15997815132141113,-3.3122990131378174,0.736704409122467,-0.08617392182350159,0.6136738061904907,0.321980744600296,-0.6906992197036743,-0.4396669268608093,-0.47534847259521484
1953183,9.708563804626465,0.18079394102096558,1.4960209131240845,0.38688623905181885,-0.4051544666290283,0.8430740237236023,0.6224026083946228,-0.36484503746032715,-0.5410757064819336,-0.4321345388889313,9.112337112426758,-0.1941409707069397,-3.312931776046753,0.7924249172210693,-0.22473865747451782,0.8307158946990967,0.32205823063850403,-0.6907382607460022,-0.4396371841430664,-0.47526681423187256
1953350,9.702536582946777,0.22772930562496185,1.4772061109542847,0.3638988137245178,-0.46545958518981934,0.15341363847255707,0.622349202632904,-0.3648874759674072,-0.5410909652709961,-0.4321565330028534,9.10062313079834,-0.1597927361726761,-3.315307378768921,0.7980981469154358,-0.4403335452079773,0.9123051762580872,0.3221558630466461,-0.6907708644866943,-0.43965110182762146,-0.47514021396636963
1953517,9.722825050354004,0.21586553752422333,1.4943232536315918,0.7796568870544434,-0.21902698278427124,0.3922264575958252,0.6223625540733337,-0.36488163471221924,-0.5411068797111511,-0.43212229013442993,9.099175453186035,-0.16166220605373383,-3.312065839767456,0.508392870426178,-0.6402661800384521,0.5003761053085327,0.3221673369407654,-0.6908184885978699,-0.4396739602088928,-0.4750420153141022
1953683,9.732447624206543,0.1965736746788025,1.486514687538147,0.4361138343811035,-0.43161237239837646,0.41398441791534424,0.6223435401916504,-0.3649197220802307,-0.5411206483840942,-0.43210017681121826,9.116616249084473,-0.16926001012325287,-3.31233549118042,0.35720112919807434,-0.766319215297699,0.21484573185443878,0.3221323490142822,-0.6908662915229797,-0.4397171437740326,-0.4749564230442047
1953850,9.72368335723877,0.18930287659168243,1.4981317520141602,0.6413227319717407,-0.3997502028942108,0.4622771739959717,0.6222760081291199,-0.36502254009246826,-0.5410866737365723,-0.43215328454971313,9.148481369018555,-0.17461904883384705,-3.3126373291015625,0.16021381318569183,-0.7014421224594116,0.2708350718021393,0.3221050500869751,-0.6909038424491882,-0.4397669732570648,-0.47487401962280273
1954017,9.710457801818848,0.21590279042720795,1.5015279054641724,0.08849827200174332,-0.4294224977493286,0.30080196261405945,0.6221969127655029,-0.36512625217437744,-0.5410547852516174,-0.43221938610076904,9.141311645507812,-0.18304817378520966,-3.3232228755950928,0.03760584443807602,-0.5948420763015747,0.534159243106842,0.3220653533935547,-0.6909794211387634,-0.4397410452365875,-0.47481510043144226
1954183,9.709321022033691,0.20958730578422546,1.505389928817749,0.07929051667451859,-0.4094446301460266,0.2708222568035126,0.6221494078636169,-0.3651858866214752,-0.5410498380661011,-0.4322436451911926,9.117958068847656,-0.15420587360858917,-3.336901903152466,-0.048023808747529984,-0.4632824659347534,0.6359056830406189,0.32204076647758484,-0.6910482048988342,-0.4397055506706238,-0.4747644364833832
1954350,9.708107948303223,0.20877182483673096,1.4934098720550537,0.35002952814102173,-0.47436001896858215,0.216395303606987,0.6221100687980652,-0.36521732807159424,-0.5410727262496948,-0.43224504590034485,9.133995056152344,-0.1460133194923401,-3.316803216934204,-0.407370001077652,-0.4503481090068817,0.48663488030433655,0.3219648599624634,-0.6911278963088989,-0.43965277075767517,-0.47474873065948486
1954517,9.70773983001709,0.2152876853942871,1.5006552934646606,0.33822205662727356,-0.3667738437652588,0.04543052241206169,0.622042179107666,-0.3652612864971161,-0.54107266664505,-0.4323057532310486,9.147154808044434,-0.16798876225948334,-3.3131773471832275,-0.4573019742965698,-0.3681185245513916,0.34742987155914307,0.3218798041343689,-0.6911944150924683,-0.43960821628570557,-0.47475093603134155
1954683,9.710390090942383,0.20142272114753723,1.5162546634674072,0.27088630199432373,-0.35711783170700073,0.10126620531082153,0.6219922304153442,-0.3652926981449127,-0.5410792827606201,-0.4323424994945526,9.15011215209961,-0.17900347709655762,-3.316946506500244,-0.536739706993103,-0.11929113417863846,0.22276005148887634,0.32181668281555176,-0.6912174820899963,-0.4395935535430908,-0.47477370500564575
1954850,9.705554962158203,0.2187276929616928,1.5242117643356323,0.26732614636421204,-0.4136962890625,0.1000111848115921,0.6219223141670227,-0.36534690856933594,-0.5410776138305664,-0.4323994517326355,9.154382705688477,-0.17098569869995117,-3.320948362350464,-0.49558016657829285,-0.04737069085240364,0.1583569198846817,0.32176271080970764,-0.6912250518798828,-0.4395916163921356,-0.4748010039329529
1955017,9.711265563964844,0.2074843943119049,1.5027258396148682,0.1882213056087494,-0.42770645022392273,0.11968173831701279,0.6218400597572327,-0.3654206395149231,-0.5410639047622681,-0.4324726164340973,9.1488037109375,-0.15882651507854462,-3.309415102005005,-0.43334129452705383,0.20289741456508636,0.2253725528717041,0.3217337429523468,-0.691217839717865,-0.43957361578941345,-0.47484779357910156
1955183,9.717121124267578,0.2074662446975708,1.4783254861831665,0.22810028493404388,-0.41496410965919495,0.16532357037067413,0.6217722296714783,-0.3654824197292328,-0.5410563349723816,-0.43252742290496826,9.142012596130371,-0.15211039781570435,-3.331655502319336,-0.49180227518081665,0.391432523727417,0.3723766505718231,0.3217213749885559,-0.6912088990211487,-0.439529150724411,-0.4749104082584381
1955350,9.711359024047852,0.21223002672195435,1.4951765537261963,0.2890200912952423,-0.3825000524520874,0.17483867704868317,0.6217051148414612,-0.3655441701412201,-0.5410445332527161,-0.43258658051490784,9.13801383972168,-0.16603218019008636,-3.3215742111206055,-0.6214920878410339,0.4473962187767029,0.2510620653629303,0.3216893970966339,-0.6911951303482056,-0.43948400020599365,-0.4749937355518341
1955517,9.709567070007324,0.20402978360652924,1.4854062795639038,0.15752451121807098,-0.3430052399635315,0.2584385275840759,0.6216412782669067,-0.36561891436576843,-0.5410181879997253,-0.4326480031013489,9.131058692932129,-0.14900267124176025,-3.344748020172119,-0.5856727361679077,0.49607306718826294,0.24263548851013184,0.32166561484336853,-0.6911736130714417,-0.439443439245224,-0.4750787019729614
1955683,9.715203285217285,0.20317864418029785,1.505383014678955,0.4158797860145569,-0.35040736198425293,0.3786517381668091,0.6216127872467041,-0.36566147208213806,-0.5410149097442627,-0.4326570928096771,9.127625465393066,-0.1546783745288849,-3.3137385845184326,-0.5644398331642151,0.31791120767593384,0.383761465549469,0.3216075599193573,-0.691203773021698,-0.4393492043018341,-0.47516128420829773
1955850,9.711652755737305,0.18403854966163635,1.4879207611083984,0.441991925239563,-0.3306983709335327,0.4691542387008667,0.6215832829475403,-0.36571943759918213,-0.5409982800483704,-0.43267133831977844,9.129002571105957,-0.1603642851114273,-3.3169643878936768,-0.3502921164035797,0.2705405652523041,0.6230353713035583,0.3215967118740082,-0.691230297088623,-0.4392671287059784,-0.4752059280872345
1956017,9.712221145629883,0.20261360704898834,1.4951157569885254,0.3463284969329834,-0.3586162030696869,0.4978020191192627,0.6215643286705017,-0.36576974391937256,-0.5409902334213257,-0.432666152715683,9.124954223632812,-0.17712955176830292,-3.2946882247924805,-0.23635397851467133,0.1471385657787323,0.7005521655082703,0.32162243127822876,-0.6912386417388916,-0.43923255801200867,-0.4752083122730255
1956183,9.70949935913086,0.20241691172122955,1.485352635383606,0.33558395504951477,-0.35387784242630005,0.6263777613639832,0.6215371489524841,-0.3658505976200104,-0.5409605503082275,-0.43267396092414856,9.122389793395996,-0.1698877215385437,-3.3070762157440186,0.11029468476772308,0.15402837097644806,0.6898460984230042,0.32166731357574463,-0.6912438273429871,-0.43919992446899414,-0.4752005338668823
1956350,9.719157218933105,0.1917930394411087,1.4950692653656006,0.4851621091365814,-0.417883962392807,0.6659494042396545,0.621535062789917,-0.3658997714519501,-0.540960967540741,-0.43263477087020874,9.115665435791016,-0.20284409821033478,-3.3277812004089355,0.4565911591053009,-0.03136274963617325,0.7401237487792969,0.32174795866012573,-0.6912397146224976,-0.4392092227935791,-0.4751433730125427
1956517,9.714038848876953,0.19404350221157074,1.4871093034744263,0.6035184264183044,-0.29633888602256775,0.5340567231178284,0.6215265989303589,-0.3659375309944153,-0.5409528017044067,-0.4326251745223999,9.112555503845215,-0.18160830438137054,-3.3246350288391113,0.7190316319465637,-0.14103633165359497,0.7295840978622437,0.32181817293167114,-0.6912572383880615,-0.43920019268989563,-0.47507861256599426
1956683,9.704792976379395,0.20694375038146973,1.5071806907653809,0.6840959787368774,-0.24711130559444427,0.633869469165802,0.621558666229248,-0.3659396469593048,-0.5409623384475708,-0.43256548047065735,9.113239288330078,-0.17777833342552185,-3.316199541091919,0.8552784323692322,-0.257958322763443,0.6875152587890625,0.3219073712825775,-0.6912587285041809,-0.43923425674438477,-0.4749844968318939
1956850,9.716251373291016,0.19757264852523804,1.470232605934143,0.5984599590301514,-0.26883089542388916,0.6808302998542786,0.6215692162513733,-0.36597704887390137,-0.5409502983093262,-0.43253377079963684,9.125823020935059,-0.173931285738945,-3.294461727142334,0.9748258590698242,-0.41975370049476624,0.5864604115486145,0.3219817578792572,-0.6912679076194763,-0.43928083777427673,-0.4748777151107788
1957017,9.692032814025879,0.20371998846530914,1.4882209300994873,0.6933678388595581,-0.28211110830307007,0.5334420800209045,0.621550440788269,-0.3660249412059784,-0.5409327745437622,-0.4325421154499054,9.117711067199707,-0.164675772190094,-3.3030548095703125,0.873028039932251,-0.4047190248966217,0.5907760262489319,0.32209280133247375,-0.6912376880645752,-0.4393875002861023,-0.47474756836891174
1957183,9.713729858398438,0.23469576239585876,1.4875448942184448,0.42127126455307007,-0.4262593388557434,0.41389477252960205,0.6215340495109558,-0.36605170369148254,-0.5409480929374695,-0.43252378702163696,9.12482738494873,-0.1489970088005066,-3.3107259273529053,0.8769339919090271,-0.412057101726532,0.5970128178596497,0.3221689462661743,-0.6912410259246826,-0.43944236636161804,-0.47464048862457275
1957350,9.754581451416016,0.2052602469921112,1.4830780029296875,0.3761160671710968,-0.41619354486465454,0.4701274633407593,0.6215184926986694,-0.36608681082725525,-0.5409562587738037,-0.4325062036514282,9.115103721618652,-0.1265949010848999,-3.31724214553833,0.5971152782440186,-0.5421823859214783,0.5321742296218872,0.32221391797065735,-0.6912519335746765,-0.4395066797733307,-0.4745345711708069
1957517,9.69393253326416,0.19033290445804596,1.48725163936615,0.4727783799171448,-0.23301152884960175,0.612111508846283,0.6215229034423828,-0.36612316966056824,-0.5409391522407532,-0.43249037861824036,9.110794067382812,-0.1411570906639099,-3.3203890323638916,0.17572231590747833,-0.6485647559165955,0.5383853316307068,0.32221925258636475,-0.6912805438041687,-0.43956151604652405,-0.47443825006484985
1957683,9.709856986999512,0.23550787568092346,1.5148422718048096,0.49864718317985535,-0.4405127763748169,0.3422688841819763,0.6214999556541443,-0.36614322662353516,-0.5409604907035828,-0.4324796199798584,9.113856315612793,-0.14605174958705902,-3.305034875869751,0.028602981939911842,-0.6616912484169006,0.7833964228630066,0.322162002325058,-0.6913920640945435,-0.4394882619380951,-0.4743824601173401
1957850,9.715285301208496,0.23296864330768585,1.463062047958374,-0.25412923097610474,-0.3349756896495819,0.25074195861816406,0.6214157342910767,-0.3662465512752533,-0.5409095287322998,-0.4325770437717438,9.119119644165039,-0.13703463971614838,-3.310633897781372,-0.2491731494665146,-0.7024922370910645,0.8216745853424072,0.3220938742160797,-0.6915051937103271,-0.4394201636314392,-0.4743269979953766
1958017,9.699393272399902,0.19755326211452484,1.4764372110366821,-0.24688079953193665,-0.359653502702713,0.2704508900642395,0.621347963809967,-0.3663301169872284,-0.5408753752708435,-0.4326462745666504,9.150179862976074,-0.15315645933151245,-3.3215768337249756,-0.5969295501708984,-0.5315275192260742,0.755337655544281,0.32200974225997925,-0.6916055083274841,-0.43934711813926697,-0.4743054211139679
1958183,9.76995849609375,0.21405388414859772,1.5090771913528442,0.2186235934495926,-0.04500151053071022,0.052819788455963135,0.6213344931602478,-0.36631131172180176,-0.540869414806366,-0.4326890707015991,9.126248359680176,-0.15921039879322052,-3.342027425765991,-0.812562882900238,-0.5557059645652771,0.5454672574996948,0.3218827247619629,-0.6917080879211426,-0.4392751157283783,-0.47430872917175293
1958350,9.683003425598145,0.21261988580226898,1.521268606185913,0.5558019280433655,0.06364115327596664,0.157934308052063,0.6213494539260864,-0.3662688732147217,-0.5408652424812317,-0.43270882964134216,9.143782615661621,-0.1635727733373642,-3.319601535797119,-0.9464917778968811,-0.416385680437088,0.06927595287561417,0.32173460721969604,-0.6917609572410583,-0.43926066160202026,-0.47434553503990173
1958517,9.696307182312012,0.22160683572292328,1.5375653505325317,0.3857848644256592,-0.19707690179347992,0.30018723011016846,0.6213369369506836,-0.36627742648124695,-0.5408603549003601,-0.432725727558136,9.152281761169434,-0.17037025094032288,-3.3261544704437256,-1.0422320365905762,-0.1292416900396347,-0.008426578715443611,0.3215952515602112,-0.691787838935852,-0.4392426311969757,-0.47441741824150085
1958683,9.715121269226074,0.19293639063835144,1.5042850971221924,0.35129737854003906,-0.5198481678962708,0.3278617560863495,0.6212970018386841,-0.36631378531455994,-0.5408786535263062,-0.4327293336391449,9.15078067779541,-0.17930720746517181,-3.312136650085449,-0.8562325239181519,0.19494464993476868,0.018460353836417198,0.321514368057251,-0.6917685270309448,-0.43924635648727417,-0.47449710965156555
1958850,9.670801162719727,0.20159438252449036,1.5207463502883911,0.459062784910202,-0.4399365782737732,0.4302613139152527,0.6212822198867798,-0.3663347661495209,-0.5408966541290283,-0.4327102601528168,9.124210357666016,-0.15841619670391083,-3.3371999263763428,-0.7180007696151733,0.432617723941803,0.21289914846420288,0.3214564919471741,-0.6917566061019897,-0.43920016288757324,-0.47459638118743896
1959017,9.707463264465332,0.19880644977092743,1.5025032758712769,0.33863189816474915,-0.6559668183326721,0.4855719208717346,0.6212521195411682,-0.36637818813323975,-0.540927529335022,-0.4326781630516052,9.110280990600586,-0.1525833010673523,-3.3411717414855957,-0.5199377536773682,0.5286909341812134,0.42848122119903564,0.32142847776412964,-0.6917524337768555,-0.43912574648857117,-0.47469016909599304
1959183,9.722968101501465,0.16878707706928253,1.49386727809906,0.7063021659851074,-0.41510501503944397,0.6799723505973816,0.6212604641914368,-0.36640381813049316,-0.5409384965896606,-0.43263059854507446,9.12709903717041,-0.1574726402759552,-3.3235747814178467,-0.28901374340057373,0.5200850963592529,0.6186427474021912,0.32142674922943115,-0.6917584538459778,-0.4390358626842499,-0.4747658371925354
1959350,9.727240562438965,0.19111961126327515,1.4926248788833618,0.8211751580238342,-0.37854284048080444,0.86485755443573,0.6212965846061707,-0.36642226576805115,-0.5409495234489441,-0.4325493574142456,9.141523361206055,-0.1544039100408554,-3.340970277786255,-0.0908866599202156,0.4830874800682068,0.889138400554657,0.32147589325904846,-0.6917609572410583,-0.43895629048347473,-0.47480252385139465
1959517,9.731718063354492,0.19125664234161377,1.4924596548080444,0.7456049919128418,-0.39467892050743103,0.9662455320358276,0.6213154792785645,-0.3664792478084564,-0.5409361124038696,-0.4324907064437866,9.14175796508789,-0.1636618822813034,-3.3149025440216064,0.3074996769428253,0.6297458410263062,1.1283738613128662,0.3215976655483246,-0.6917428970336914,-0.4388846457004547,-0.4748125970363617
1959683,9.732501983642578,0.2031679004430771,1.4778865575790405,0.7401878237724304,-0.37630176544189453,0.9056331515312195,0.6213135719299316,-0.36655351519584656,-0.54090815782547,-0.43246540427207947,9.127245903015137,-0.18463048338890076,-3.314920663833618,0.651695966720581,0.5554434061050415,1.1450221538543701,0.321735680103302,-0.6917283535003662,-0.43881720304489136,-0.47480276226997375
1959850,9.721607208251953,0.20516525208950043,1.474344253540039,0.5972304940223694,-0.31316643953323364,0.9970062375068665,0.6213514804840088,-0.3665972650051117,-0.5408922433853149,-0.43239375948905945,9.113471984863281,-0.19157636165618896,-3.3106420040130615,0.9794617295265198,0.3589684069156647,1.1321903467178345,0.3218841254711151,-0.6917195320129395,-0.43876945972442627,-0.47475919127464294
1960017,9.720919609069824,0.1983899623155594,1.476148247718811,0.6157485246658325,-0.39205363392829895,1.0331844091415405,0.62140953540802,-0.36661747097969055,-0.540902853012085,-0.432280033826828,9.116390228271484,-0.16741469502449036,-3.3263988494873047,1.1600054502487183,0.1354847550392151,0.9704458713531494,0.3220098614692688,-0.6917212009429932,-0.43873876333236694,-0.4746997654438019
1960183,9.705619812011719,0.1813010275363922,1.4853533506393433,0.7406488060951233,-0.48016124963760376,1.0639322996139526,0.6214632987976074,-0.3666415512561798,-0.5409224629402161,-0.4321577250957489,9.132712364196777,-0.16586178541183472,-3.3285839557647705,1.0919655561447144,-0.07153627276420593,0.8455329537391663,0.3221213221549988,-0.6917183995246887,-0.43874791264533997,-0.47461965680122375
1960350,9.693830490112305,0.18160304427146912,1.4496527910232544,0.7874560356140137,-0.9119144678115845,1.0574650764465332,0.621435284614563,-0.3667505979537964,-0.5409416556358337,-0.43208155035972595,9.138014793395996,-0.16425126791000366,-3.324395179748535,1.2118967771530151,0.04572506994009018,0.8121210932731628,0.322269469499588,-0.6916806101799011,-0.4387936592102051,-0.474531888961792
1960517,9.72765827178955,0.1604750007390976,1.4616262912750244,0.5365540385246277,-0.7262865900993347,1.2021256685256958,0.621432900428772,-0.36686259508132935,-0.5409337282180786,-0.43199995160102844,9.093392372131348,-0.17539247870445251,-3.320345878601074,0.9533880352973938,-0.0651843249797821,0.8900861740112305,0.3223969638347626,-0.6916604042053223,-0.43883028626441956,-0.4744407832622528
1960683,9.679597854614258,0.20275604724884033,1.4583754539489746,0.6304630041122437,-0.6147944331169128,0.7560804486274719,0.6214380860328674,-0.36689627170562744,-0.5409642457962036,-0.4319256544113159,9.074982643127441,-0.18066556751728058,-3.3093860149383545,0.8571738600730896,-0.2695865035057068,1.284854769706726,0.3225018382072449,-0.6917091012001038,-0.438790500164032,-0.4743354618549347
1960850,9.73355770111084,0.20668946206569672,1.4488683938980103,0.8837726712226868,-0.6224526762962341,0.5563398599624634,0.621450662612915,-0.36688199639320374,-0.5410286784172058,-0.43183863162994385,9.08509635925293,-0.146444171667099,-3.3246147632598877,0.7128846645355225,-0.5656948685646057,1.0038193464279175,0.3225603401660919,-0.6917605400085449,-0.4387930631637573,-0.4742181897163391
1961017,9.710577964782715,0.20792527496814728,1.5025829076766968,0.6770140528678894,-0.4845922589302063,0.9406327605247498,0.6214357018470764,-0.36697274446487427,-0.5410031676292419,-0.43181532621383667,9.115050315856934,-0.1555119901895523,-3.333811044692993,0.1486753225326538,-0.8556051254272461,0.7084024548530579,0.3225650191307068,-0.691799521446228,-0.4388641119003296,-0.4740924537181854
1961183,9.73369312286377,0.17547275125980377,1.4917713403701782,0.7429795265197754,-0.6113367080688477,0.9123050570487976,0.6214290857315063,-0.36704161763191223,-0.5410089492797852,-0.43175891041755676,9.142662048339844,-0.18567311763763428,-3.3269596099853516,0.0853223130106926,-0.8428114652633667,0.6088458895683289,0.32252249121665955,-0.6918659210205078,-0.43888983130455017,-0.4740005135536194
1961350,9.716499328613281,0.19923299551010132,1.5067455768585205,0.4013318419456482,-0.737581729888916,0.7991483211517334,0.6213927268981934,-0.36713317036628723,-0.5410152673721313,-0.4317253530025482,9.159839630126953,-0.20264390110969543,-3.321242570877075,0.09200721979141235,-0.5818692445755005,0.909346878528595,0.3224985599517822,-0.6919515132904053,-0.4388444423675537,-0.473934143781662
1961517,9.716930389404297,0.19706881046295166,1.4989957809448242,-0.05532342940568924,-0.6718466877937317,0.5475803017616272,0.6213105916976929,-0.367255300283432,-0.540990948677063,-0.4317701756954193,9.14799690246582,-0.18428131937980652,-3.30747127532959,0.1490595042705536,-0.33967557549476624,1.0412137508392334,0.32252004742622375,-0.6920109987258911,-0.43880191445350647,-0.47387176752090454
1961683,9.70473861694336,0.17995217442512512,1.4856646060943604,0.2923625707626343,-0.6629847884178162,0.6359570026397705,0.621255099773407,-0.3673498034477234,-0.5409842729568481,-0.43177807331085205,9.141472816467285,-0.17672543227672577,-3.3150761127471924,-0.12420876324176788,-0.21304641664028168,0.7977266907691956,0.3224770426750183,-0.6920855641365051,-0.4387167990207672,-0.47387105226516724
1961850,9.711499214172363,0.20040538907051086,1.4960812330245972,0.3895755410194397,-0.6577212810516357,0.49050235748291016,0.6212213635444641,-0.3673913776874542,-0.5410128235816956,-0.43175551295280457,9.12242603302002,-0.20250274240970612,-3.324488878250122,-0.1784052699804306,-0.06700281798839569,0.6593925356864929,0.32247453927993774,-0.6920992732048035,-0.4387058615684509,-0.47386300563812256
1962017,9.71762466430664,0.18483653664588928,1.491178274154663,0.27415192127227783,-0.5831882953643799,0.3660118281841278,0.6211608648300171,-0.3674520254135132,-0.5410178303718567,-0.4317847192287445,9.138418197631836,-0.19173835217952728,-3.3329358100891113,-0.1749475598335266,0.11354750394821167,0.5611422657966614,0.3224692940711975,-0.692101240158081,-0.4386850595474243,-0.47388288378715515
1962183,9.722391128540039,0.18741829693317413,1.4928090572357178,0.14993034303188324,-0.5271733999252319,0.29468050599098206,0.6210640668869019,-0.3675520122051239,-0.5409878492355347,-0.4318764805793762,9.14441967010498,-0.20994840562343597,-3.3048624992370605,-0.11295200139284134,0.2537257969379425,0.5580814480781555,0.32248619198799133,-0.6920832395553589,-0.438673734664917,-0.4739081561565399
1962350,9.702254295349121,0.18203967809677124,1.4756182432174683,0.16689875721931458,-0.5527860522270203,0.42247506976127625,0.6210074424743652,-0.3676195442676544,-0.5409831404685974,-0.4319061040878296,9.141898155212402,-0.195582777261734,-3.324585437774658,-0.10292462259531021,0.44785723090171814,0.5430852770805359,0.3224891424179077,-0.6920750141143799,-0.4386157691478729,-0.47397172451019287
1962517,9.712589263916016,0.18609510362148285,1.4774600267410278,0.21417981386184692,-0.5806015133857727,0.3703916668891907,0.6209723353385925,-0.3676491379737854,-0.5410081148147583,-0.4319002628326416,9.121825218200684,-0.18767936527729034,-3.31253719329834,-0.029083222150802612,0.5882020592689514,0.48827412724494934,0.3225214183330536,-0.6920337080955505,-0.4385882616043091,-0.4740355312824249
1962683,9.729111671447754,0.1825224608182907,1.4778212308883667,0.23712877929210663,-0.5245864987373352,0.3981301784515381,0.6209189891815186,-0.3677075505256653,-0.5410053730010986,-0.4319305121898651,9.132413864135742,-0.18826943635940552,-3.311689615249634,0.01135282777249813,0.5592852234840393,0.4422352612018585,0.3225153088569641,-0.6920247077941895,-0.4385128617286682,-0.4741225242614746
1962850,9.728253364562988,0.18132443726062775,1.4708940982818604,0.1630440503358841,-0.5232418775558472,0.44104427099227905,0.6208736896514893,-0.3677637279033661,-0.5410038232803345,-0.4319497346878052,9.114418029785156,-0.1647201031446457,-3.322868824005127,0.06005537137389183,0.44524475932121277,0.3323567807674408,0.322490930557251,-0.6920216083526611,-0.4384457767009735,-0.4742059111595154
1963017,9.722774505615234,0.18492209911346436,1.4516326189041138,0.33233118057250977,-0.4620274603366852,0.5930044054985046,0.6208468675613403,-0.367819219827652,-0.5409945845603943,-0.4319528341293335,9.124499320983887,-0.17967580258846283,-3.3284690380096436,-0.11421982944011688,0.35986483097076416,0.43106809258461,0.3224979043006897,-0.6919934153556824,-0.43843305110931396,-0.4742538630962372
1963183,9.72122859954834,0.16251768171787262,1.4659836292266846,0.3996029198169708,-0.587683379650116,0.6800491809844971,0.6208369135856628,-0.36786001920700073,-0.5410122871398926,-0.4319100081920624,9.124027252197266,-0.1940593123435974,-3.3225862979888916,0.0019273554207757115,0.36088934540748596,0.4678223431110382,0.32250192761421204,-0.6919772624969482,-0.43840041756629944,-0.47430482506752014
1963350,9.727095603942871,0.16474977135658264,1.4574766159057617,0.4223085641860962,-0.4602473974227905,0.6591747999191284,0.6208560466766357,-0.3678646981716156,-0.5410377979278564,-0.4318467676639557,9.12903118133545,-0.1884947270154953,-3.333740472793579,0.21029946208000183,0.1809857338666916,0.6257117986679077,0.3225579261779785,-0.691943883895874,-0.43842288851737976,-0.4742947518825531
1963517,9.7061185836792,0.17194606363773346,1.4385344982147217,0.39748990535736084,-0.531233012676239,0.7152026891708374,0.6208261251449585,-0.36793848872184753,-0.541024923324585,-0.43184277415275574,9.125043869018555,-0.19499340653419495,-3.318024158477783,0.39035677909851074,0.2168179154396057,0.7731258273124695,0.3226165771484375,-0.6919345259666443,-0.43840035796165466,-0.47428932785987854
1963683,9.711203575134277,0.1743653565645218,1.4671695232391357,0.5762152671813965,-0.5130095481872559,0.7719475030899048,0.6208184361457825,-0.3679894208908081,-0.5410256385803223,-0.43180960416793823,9.129847526550293,-0.18063953518867493,-3.3345401287078857,0.5172036290168762,0.19041122496128082,0.8258879780769348,0.3226762115955353,-0.6919376254081726,-0.43836119771003723,-0.4742804765701294
1963850,9.72038745880127,0.16955599188804626,1.4661763906478882,0.6522721648216248,-0.4847715497016907,0.8526275157928467,0.6208119988441467,-0.36805081367492676,-0.5410150289535522,-0.4317797124385834,9.132060050964355,-0.19763581454753876,-3.3090708255767822,0.5253227949142456,0.21205393970012665,0.9129197597503662,0.3227660059928894,-0.6919233202934265,-0.438346803188324,-0.4742536246776581
1964017,9.717930793762207,0.16816505789756775,1.4571683406829834,0.5431236624717712,-0.46264222264289856,0.8751282691955566,0.620836615562439,-0.36807912588119507,-0.5410242080688477,-0.43170881271362305,9.127344131469727,-0.19831582903862,-3.316324234008789,0.6522337794303894,0.2424817979335785,0.8141443729400635,0.32286906242370605,-0.6918891072273254,-0.43835851550102234,-0.4742226302623749
1964183,9.69277286529541,0.17785179615020752,1.4648863077163696,0.544468343257904,-0.4767547845840454,0.853255033493042,0.620849072933197,-0.3681187629699707,-0.541027307510376,-0.43165323138237,9.127880096435547,-0.2108556032180786,-3.3239693641662598,0.8246520757675171,0.2913060188293457,1.0464837551116943,0.3230336010456085,-0.69183349609375,-0.4383962154388428,-0.4741567075252533
1964350,9.73444652557373,0.17871738970279694,1.465722918510437,0.30148062109947205,-0.4814291000366211,0.5301764607429504,0.6208066344261169,-0.3681820034980774,-0.5410141348838806,-0.43167686462402344,9.112874984741211,-0.21428050100803375,-3.3179755210876465,0.8558163046836853,0.21654896438121796,0.989284098148346,0.3231407105922699,-0.6918269991874695,-0.43836653232574463,-0.47412070631980896
1964517,9.747797966003418,0.1843748539686203,1.4658881425857544,0.597934901714325,-0.43477562069892883,0.6834557056427002,0.6208376288414001,-0.36817076802253723,-0.5410462021827698,-0.43160173296928406,9.106379508972168,-0.17975524067878723,-3.3103208541870117,0.8296785950660706,0.13862232863903046,0.7764041423797607,0.32322958111763,-0.6918095946311951,-0.43836626410484314,-0.4740856885910034
1964683,9.69897747039795,0.1593727320432663,1.4461127519607544,0.7629958987236023,-0.2725447118282318,0.7160221934318542,0.6208474636077881,-0.36819395422935486,-0.5410327315330505,-0.43158480525016785,9.108710289001465,-0.20481880009174347,-3.295880079269409,0.7305318117141724,-0.13112421333789825,0.5948485732078552,0.32332247495651245,-0.6917619109153748,-0.4384576976299286,-0.47400736808776855
1964850,9.744030952453613,0.23310522735118866,1.485535979270935,0.634868323802948,-0.3497285842895508,0.4590500295162201,0.6208251118659973,-0.3682173490524292,-0.5410287976264954,-0.4316016733646393,9.133543014526367,-0.1841670423746109,-3.332357883453369,0.6269668936729431,-0.10197696089744568,0.632588803768158,0.32337355613708496,-0.6917533278465271,-0.4384823739528656,-0.47396227717399597
1965017,9.700658798217773,0.21677181124687195,1.4288378953933716,0.008138434961438179,-0.2877586781978607,0.41147440671920776,0.620776891708374,-0.3682810366153717,-0.540988564491272,-0.4316672682762146,9.140263557434082,-0.16474513709545135,-3.325164794921875,0.36466720700263977,0.01790967956185341,0.4633401334285736,0.32339808344841003,-0.6917333602905273,-0.43850812315940857,-0.4739508330821991
1965183,9.767309188842773,0.1997275948524475,1.4715843200683594,0.026246612891554832,-0.04292688146233559,0.2847043573856354,0.6207587718963623,-0.368294358253479,-0.5409501791000366,-0.4317300319671631,9.136348724365234,-0.16103656589984894,-3.3239309787750244,0.03531351312994957,0.1555010974407196,0.5394867062568665,0.3234063982963562,-0.6917210817337036,-0.43850213289260864,-0.4739685356616974
1965350,9.749472618103027,0.18146081268787384,1.4705257415771484,0.3886534869670868,0.42818671464920044,0.2063935399055481,0.6207678318023682,-0.3682696223258972,-0.5408750772476196,-0.43183210492134094,9.142241477966309,-0.15675587952136993,-3.3299636840820312,-0.3659670054912567,0.05100128427147865,0.33312514424324036,0.3233630359172821,-0.6917114853858948,-0.4385104477405548,-0.4740043580532074
1965517,9.679494857788086,0.18934911489486694,1.511269211769104,0.5819524526596069,0.3926490247249603,0.41525229811668396,0.6208456754684448,-0.3681844174861908,-0.5408466458320618,-0.4318285286426544,9.175675392150879,-0.16206656396389008,-3.3264734745025635,-0.6937967538833618,0.32495468854904175,0.10682414472103119,0.32326897978782654,-0.6917027831077576,-0.4384760558605194,-0.4741132855415344
1965683,9.702340126037598,0.17587429285049438,1.4988421201705933,0.3432677686214447,0.024761077016592026,0.5119529962539673,0.6208849549293518,-0.36815503239631653,-0.5408281683921814,-0.4318203330039978,9.177186012268066,-0.1855434775352478,-3.3015992641448975,-0.7516942620277405,0.8331234455108643,0.23020052909851074,0.3232470154762268,-0.6916335225105286,-0.4384591281414032,-0.47424477338790894
1965850,9.694361686706543,0.1792287826538086,1.4711837768554688,0.5564678907394409,-0.16702041029930115,0.5356832146644592,0.6208996176719666,-0.3681487739086151,-0.5408189296722412,-0.43181613087654114,9.14856243133545,-0.18696017563343048,-3.298283815383911,-0.7415516972541809,1.2731624841690063,0.35251399874687195,0.32322490215301514,-0.6915761828422546,-0.43835341930389404,-0.47444120049476624
1966017,9.68516731262207,0.1920924037694931,1.470003604888916,0.48052626848220825,-0.019580909982323647,0.5916982293128967,0.620911717414856,-0.36816179752349854,-0.5407764911651611,-0.43184083700180054,9.129934310913086,-0.1779438704252243,-3.306645631790161,-0.5798075199127197,1.5927194356918335,0.4004993736743927,0.323268324136734,-0.6914680600166321,-0.4382776916027069,-0.4746392071247101
1966183,9.71908950805664,0.17477285861968994,1.4775962829589844,0.38239118456840515,0.07288733869791031,0.6334468722343445,0.6209549307823181,-0.3681466281414032,-0.540740966796875,-0.43183574080467224,9.133620262145996,-0.18739290535449982,-3.2948102951049805,-0.5332435965538025,1.678125023841858,0.34588029980659485,0.3232925832271576,-0.6913713812828064,-0.4381695091724396,-0.4748634099960327
1966350,9.708389282226562,0.14927837252616882,1.467771053314209,0.782896876335144,0.25180482864379883,0.6899612545967102,0.6210289597511292,-0.3680991530418396,-0.5407039523124695,-0.431816428899765,9.145076751708984,-0.2012770175933838,-3.2799806594848633,-0.37662193179130554,1.8017699718475342,0.4963676631450653,0.32335564494132996,-0.6912634372711182,-0.43805867433547974,-0.47507956624031067
1966517,9.701254844665527,0.14880837500095367,1.4529364109039307,0.7136145830154419,0.2764442563056946,0.7498565316200256,0.6211078763008118,-0.36805686354637146,-0.5406597256660461,-0.4317941963672638,9.146429061889648,-0.20488041639328003,-3.2782576084136963,0.04075619950890541,1.8925796747207642,0.6566774249076843,0.3234891891479492,-0.6911287307739258,-0.43797409534454346,-0.47526252269744873
1966684,9.733120918273926,0.14535365998744965,1.4381449222564697,0.6354318261146545,0.2261793464422226,0.844085693359375,0.6211560964584351,-0.3680691123008728,-0.5405844449996948,-0.4318086504936218,9.148392677307129,-0.21600432693958282,-3.2771244049072266,0.29447561502456665,1.9769867658615112,0.8871407508850098,0.3236650824546814,-0.6909948587417603,-0.43787330389022827,-0.47543030977249146
1966850,9.718961715698242,0.17747336626052856,1.4472078084945679,0.7550303339958191,0.2556339502334595,0.7552992701530457,0.6212042570114136,-0.36806583404541016,-0.540516197681427,-0.43182775378227234,9.159428596496582,-0.22748963534832,-3.298708200454712,0.6730954051017761,1.8878417015075684,0.8704412579536438,0.32386514544487,-0.6908549070358276,-0.4377937614917755,-0.4755708575248718
1967017,9.719771385192871,0.18050646781921387,1.4727931022644043,0.7487937808036804,0.22697335481643677,0.9846354722976685,0.621263861656189,-0.36808300018310547,-0.5404377579689026,-0.4318254590034485,9.145981788635254,-0.20944422483444214,-3.249103307723999,1.1290526390075684,1.7115623950958252,0.7559396028518677,0.32410597801208496,-0.6906849145889282,-0.43778717517852783,-0.47565969824790955
1967184,9.753326416015625,0.15620286762714386,1.4729458093643188,0.841357946395874,0.13036224246025085,0.8805198073387146,0.6213748455047607,-0.3680116534233093,-0.5404335260391235,-0.43173184990882874,9.130971908569336,-0.208131805062294,-3.2592337131500244,1.2035212516784668,1.3964745998382568,0.6635288596153259,0.3243119418621063,-0.6905418634414673,-0.4377858638763428,-0.47572824358940125
1967350,9.690147399902344,0.16886907815933228,1.4570902585983276,0.8721829652786255,0.09036801010370255,0.9117288589477539,0.6214288473129272,-0.36801648139953613,-0.5403815507888794,-0.4317152202129364,9.147623062133789,-0.1996668130159378,-3.2656543254852295,1.3568005561828613,1.1889735460281372,0.7198256850242615,0.32449522614479065,-0.690436065196991,-0.43775609135627747,-0.4757841229438782
1967517,9.716405868530273,0.16535130143165588,1.4243452548980713,0.6605324149131775,-0.29920756816864014,1.0419566631317139,0.6214776635169983,-0.3680375814437866,-0.540370762348175,-0.43164026737213135,9.119494438171387,-0.1832839697599411,-3.2429308891296387,1.3435461521148682,1.1052711009979248,0.7445803284645081,0.3247271180152893,-0.6902881264686584,-0.4378080368041992,-0.47579285502433777
1967684,9.720093727111816,0.18139591813087463,1.4588682651519775,0.509238064289093,0.17465940117835999,0.9826247692108154,0.6215509176254272,-0.3680388927459717,-0.5403105020523071,-0.43160903453826904,9.143916130065918,-0.22509032487869263,-3.230748414993286,1.3350040912628174,0.8232882022857666,0.9871068596839905,0.3249530792236328,-0.6901787519454956,-0.4378430247306824,-0.4757651686668396
1967850,9.723160743713379,0.19067980349063873,1.4405392408370972,0.40674889087677,-0.057065095752477646,0.5814274549484253,0.6215589642524719,-0.36805322766304016,-0.5402716994285583,-0.43163371086120605,9.116935729980469,-0.1752006709575653,-3.2378108501434326,1.2809103727340698,0.5575436353683472,0.9687812328338623,0.3251240849494934,-0.690118134021759,-0.4378412365913391,-0.4757377505302429
1968017,9.704887390136719,0.19000598788261414,1.453096628189087,0.8600039482116699,0.33893921971321106,0.8274886608123779,0.6216485500335693,-0.36800697445869446,-0.5402223467826843,-0.4316060245037079,9.129352569580078,-0.17370828986167908,-3.250389575958252,0.85232013463974,0.24573463201522827,0.7355262041091919,0.32522520422935486,-0.6900753974914551,-0.4378628134727478,-0.47571077942848206
1968184,9.721456527709961,0.16028687357902527,1.4687556028366089,0.4463845193386078,0.0191262848675251,0.7936030626296997,0.6216843128204346,-0.368020623922348,-0.5401743054389954,-0.43160301446914673,9.173463821411133,-0.2006136178970337,-3.2285842895507812,0.6128286719322205,0.11188267916440964,0.597000002861023,0.32528626918792725,-0.6900420188903809,-0.4378918707370758,-0.47569072246551514
1968350,9.71773624420166,0.155550017952919,1.5016634464263916,0.5458770394325256,-0.11912466585636139,0.679063081741333,0.6217178702354431,-0.3680112957954407,-0.5401605367660522,-0.4315798580646515,9.172836303710938,-0.21949177980422974,-3.2688093185424805,0.5979092121124268,0.10311032086610794,0.8080870509147644,0.3253672122955322,-0.6900163292884827,-0.43791064620018005,-0.4756554067134857
1968517,9.71735668182373,0.18648847937583923,1.4934563636779785,-0.025920052081346512,-0.2874129116535187,0.45596370100975037,0.621682345867157,-0.36806121468544006,-0.5401276350021362,-0.43162986636161804,9.173211097717285,-0.2074737548828125,-3.246793031692505,0.3775632083415985,0.293515145778656,0.9355870485305786,0.3254406452178955,-0.690001904964447,-0.43788236379623413,-0.4756520390510559
1968684,9.71280288696289,0.15317603945732117,1.5141948461532593,0.030933737754821777,-0.31849390268325806,0.363463431596756,0.6216604709625244,-0.3680759370326996,-0.5401231050491333,-0.4316543638706207,9.143796920776367,-0.20386885106563568,-3.235713005065918,0.2514718770980835,0.32850202918052673,0.7133584022521973,0.3254854083061218,-0.6899785995483398,-0.4378630816936493,-0.4756729006767273
1968850,9.719090461730957,0.1498931497335434,1.4803566932678223,0.18738892674446106,-0.29852885007858276,0.2762777805328369,0.6216274499893188,-0.3680881857872009,-0.5401172637939453,-0.43169888854026794,9.140996932983398,-0.21427203714847565,-3.2451577186584473,0.09686082601547241,0.29049283266067505,0.5593749284744263,0.3255119323730469,-0.6899459362030029,-0.437865674495697,-0.4756997227668762
1969017,9.722233772277832,0.16034282743930817,1.4827814102172852,0.4047766923904419,-0.25167039036750793,0.3378891050815582,0.6216121912002563,-0.36808472871780396,-0.5401158332824707,-0.43172550201416016,9.140520095825195,-0.21131102740764618,-3.261547565460205,-0.015598133206367493,0.15747326612472534,0.34858238697052,0.3254939913749695,-0.6899236440658569,-0.4378727674484253,-0.4757378399372101
1969184,9.703115463256836,0.1634863168001175,1.481093406677246,0.35457584261894226,-0.1194448322057724,0.26634007692337036,0.6216130256652832,-0.3680550158023834,-0.5401148200035095,-0.4317507743835449,9.155375480651855,-0.21503016352653503,-3.2485687732696533,0.07927770167589188,0.23812763392925262,0.18422572314739227,0.32547810673713684,-0.6898815035820007,-0.43789801001548767,-0.4757865369319916
1969350,9.722206115722656,0.16510647535324097,1.5142943859100342,0.2879059612751007,-0.06345546245574951,0.3151322305202484,0.6216140389442444,-0.36803609132766724,-0.5400989055633545,-0.43178531527519226,9.188989639282227,-0.21250180900096893,-3.236299514770508,0.020996009930968285,0.4181593358516693,0.15126219391822815,0.325477659702301,-0.6898167729377747,-0.43793150782585144,-0.475849986076355
1969517,9.721973419189453,0.1556687206029892,1.5001260042190552,0.2960507869720459,-0.24476778507232666,0.10921896249055862,0.6215599179267883,-0.36804816126823425,-0.5400848388671875,-0.4318704605102539,9.180903434753418,-0.21138961613178253,-3.255095958709717,-0.05920375511050224,0.5749858021736145,0.19330544769763947,0.32547104358673096,-0.689757227897644,-0.4379318952560425,-0.47594040632247925
1969684,9.712374687194824,0.1621166318655014,1.4760617017745972,0.449073851108551,-0.3788374364376068,0.21197709441184998,0.6215361952781677,-0.36802932620048523,-0.5401104092597961,-0.43188902735710144,9.161066055297852,-0.18859486281871796,-3.2416603565216064,-0.19365762174129486,0.5912883877754211,0.21566534042358398,0.3254585862159729,-0.6896995306015015,-0.4379280209541321,-0.4760361611843109
1969850,9.71650505065918,0.17118947207927704,1.4778783321380615,0.3322158753871918,-0.3750339150428772,0.1987353414297104,0.6215177774429321,-0.3680039048194885,-0.54013991355896,-0.4319002032279968,9.15227222442627,-0.17575986683368683,-3.2523281574249268,-0.21537715196609497,0.6929451823234558,0.12869738042354584,0.3254525065422058,-0.6896226406097412,-0.4379386007785797,-0.4761419892311096
1970017,9.721501350402832,0.16182012856006622,1.4750529527664185,0.3150426149368286,-0.31566372513771057,0.3483903408050537,0.621486485004425,-0.3680213987827301,-0.5401315689086914,-0.4319409430027008,9.135228157043457,-0.18494713306427002,-3.2338497638702393,-0.3387663662433624,0.6331907510757446,0.30998414754867554,0.32541748881340027,-0.6895897388458252,-0.437888503074646,-0.4762595593929291
1970184,9.72148323059082,0.1621023267507553,1.4766803979873657,0.414804071187973,-0.2595846951007843,0.35220661759376526,0.6214767694473267,-0.3680115044116974,-0.5401346683502197,-0.4319593012332916,9.137502670288086,-0.20433732867240906,-3.2300949096679688,-0.3921048045158386,0.48714718222618103,0.411704957485199,0.3253940939903259,-0.6895580887794495,-0.43786054849624634,-0.4763469696044922
1970350,9.712438583374023,0.16346128284931183,1.4707975387573242,0.4363827407360077,-0.06613199412822723,0.4957530200481415,0.6214985251426697,-0.3679909110069275,-0.5401196479797363,-0.4319644570350647,9.151139259338379,-0.19900520145893097,-3.2382235527038574,-0.43029332160949707,0.35374337434768677,0.5224030017852783,0.3253600597381592,-0.689550518989563,-0.43781548738479614,-0.4764226973056793
1970517,9.706381797790527,0.15144550800323486,1.4728997945785522,0.3304102420806885,-0.22598083317279816,0.5913267731666565,0.6215177774429321,-0.36798471212387085,-0.5401159524917603,-0.43194639682769775,9.161287307739258,-0.20097233355045319,-3.2377734184265137,-0.30705782771110535,0.31883323192596436,0.5503208637237549,0.3253380358219147,-0.689540445804596,-0.43777915835380554,-0.47648563981056213
1970684,9.70288372039795,0.15842598676681519,1.4430997371673584,0.2759832441806793,-0.2571515440940857,0.6784996390342712,0.6215313673019409,-0.367999792098999,-0.540101945400238,-0.4319317042827606,9.163897514343262,-0.19977232813835144,-3.263599395751953,-0.23230716586112976,0.17627298831939697,0.8141188025474548,0.3253270089626312,-0.6895585656166077,-0.4377198815345764,-0.47652143239974976
1970850,9.709464073181152,0.18312671780586243,1.4616248607635498,0.2777249217033386,-0.2336902767419815,0.5882020592689514,0.6215317249298096,-0.3680180013179779,-0.5400824546813965,-0.4319399297237396,9.133662223815918,-0.20628297328948975,-3.233790874481201,-0.058883603662252426,0.22370773553848267,0.9469208121299744,0.3253256678581238,-0.6895915865898132,-0.4376278221607208,-0.4765591323375702
1971017,9.742386817932129,0.16567867994308472,1.4426738023757935,0.2560309171676636,-0.3513678014278412,0.5670843720436096,0.6215003728866577,-0.36806946992874146,-0.5400555729866028,-0.43197497725486755,9.128583908081055,-0.20013171434402466,-3.234046459197998,-0.013625956140458584,0.05448461323976517,0.8037329316139221,0.3253299295902252,-0.6896051168441772,-0.43759411573410034,-0.4765676259994507
1971184,9.722343444824219,0.11529246717691422,1.4582836627960205,0.3545246124267578,-0.029595477506518364,0.7694119811058044,0.6215412616729736,-0.36807015538215637,-0.5400214195251465,-0.43195807933807373,9.126580238342285,-0.24040094017982483,-3.2499821186065674,0.19246020913124084,-0.23087285459041595,0.8544203639030457,0.32533326745033264,-0.6896381974220276,-0.437572717666626,-0.47653716802597046
1971350,9.700687408447266,0.16259941458702087,1.4712159633636475,0.41252458095550537,-0.18474440276622772,0.6151722073554993,0.6215635538101196,-0.368063360452652,-0.5400131940841675,-0.43194201588630676,9.145005226135254,-0.22662901878356934,-3.2473676204681396,0.3970416486263275,-0.36746537685394287,0.9781169295310974,0.3253882825374603,-0.6896508932113647,-0.4376055896282196,-0.47645097970962524
1971517,9.714838981628418,0.1661577969789505,1.4414081573486328,0.06488336622714996,-0.03644686937332153,0.22218374907970428,0.6215420961380005,-0.36806315183639526,-0.5399799346923828,-0.4320146441459656,9.153091430664062,-0.2358756959438324,-3.2441694736480713,0.5550848841667175,-0.3888135850429535,0.848030149936676,0.32542183995246887,-0.6896733045578003,-0.4376242756843567,-0.47637850046157837
1971684,9.74417781829834,0.163564994931221,1.4643067121505737,0.13762344419956207,-0.11464244872331619,0.18065279722213745,0.6214834451675415,-0.368099182844162,-0.5399318337440491,-0.4321284592151642,9.144241333007812,-0.23301103711128235,-3.2529523372650146,0.5161535143852234,-0.4064479470252991,0.7459762692451477,0.3254747688770294,-0.6896641254425049,-0.4376973509788513,-0.47628843784332275
1971850,9.756415367126465,0.1695197969675064,1.4954659938812256,0.45625823736190796,0.35617661476135254,0.03314923867583275,0.621492326259613,-0.3680358827114105,-0.5398896932601929,-0.4322221875190735,9.16659927368164,-0.20363996922969818,-3.2576851844787598,0.40409794449806213,-0.5439496636390686,0.3593909740447998,0.32544824481010437,-0.6896743774414062,-0.4377601444721222,-0.47623398900032043
1972017,9.6988525390625,0.17696146667003632,1.5190620422363281,0.5959243178367615,0.5895595550537109,0.030178163200616837,0.6215503811836243,-0.3679146468639374,-0.5398567318916321,-0.4322830140590668,9.19426441192627,-0.20180538296699524,-3.2462663650512695,0.10925737023353577,-0.4380795955657959,0.02513246051967144,0.3253839910030365,-0.6896623373031616,-0.4378436803817749,-0.47621849179267883
1972184,9.71139144897461,0.16795657575130463,1.5400471687316895,0.19280599057674408,0.2857672870159149,0.05410042032599449,0.6215502023696899,-0.36786913871765137,-0.539811372756958,-0.43237873911857605,9.211118698120117,-0.2081531435251236,-3.22224497795105,-0.06062525883316994,0.06428146362304688,-0.08778752386569977,0.3253200054168701,-0.6896222233772278,-0.4378933310508728,-0.4762747287750244
1972350,9.72383975982666,0.16547144949436188,1.485578179359436,0.23715439438819885,0.12637946009635925,0.11619840562343597,0.6215664148330688,-0.3678053021430969,-0.5398001670837402,-0.4324236810207367,9.199142456054688,-0.1793074607849121,-3.231264114379883,-0.22251033782958984,0.5374633073806763,0.05965838208794594,0.32529449462890625,-0.6895538568496704,-0.4379146099090576,-0.47637152671813965
1972517,9.68928337097168,0.1721729189157486,1.5138978958129883,0.3344954550266266,0.11843952536582947,0.08781953901052475,0.6215494275093079,-0.36777713894844055,-0.5397645235061646,-0.43251651525497437,9.163716316223145,-0.17085452377796173,-3.2408206462860107,-0.48780661821365356,0.9642220735549927,0.1351005882024765,0.32528096437454224,-0.6894675493240356,-0.4378988742828369,-0.4765201210975647
1972684,9.708966255187988,0.16515661776065826,1.5003336668014526,0.10513373464345932,0.27886465191841125,0.20265407860279083,0.6215602159500122,-0.3677426278591156,-0.5397120714187622,-0.4325959384441376,9.147193908691406,-0.16801539063453674,-3.2179582118988037,-0.7176806330680847,1.166677713394165,0.13863514363765717,0.3252274990081787,-0.689404308795929,-0.4378146827220917,-0.4767255187034607
1972850,9.706480979919434,0.1500934213399887,1.503244400024414,0.4761337339878082,0.4029581844806671,0.2914917469024658,0.6216025948524475,-0.36767834424972534,-0.5396634936332703,-0.43265023827552795,9.166146278381348,-0.18609032034873962,-3.235170841217041,-0.7550496459007263,1.1969904899597168,0.3466486930847168,0.3251897394657135,-0.689350962638855,-0.4377101957798004,-0.47692441940307617
1973017,9.707003593444824,0.14760437607765198,1.5029761791229248,0.3861306309700012,0.4762745499610901,0.3270421326160431,0.621653139591217,-0.367614209651947,-0.539604902267456,-0.4327053725719452,9.165078163146973,-0.19969990849494934,-3.208535671234131,-0.741013765335083,1.3020342588424683,0.5487264394760132,0.32518211007118225,-0.6892948150634766,-0.4375939965248108,-0.47711727023124695
1973184,9.718607902526855,0.14117436110973358,1.4788904190063477,0.317975252866745,0.4181080758571625,0.465773344039917,0.6217097043991089,-0.36756351590156555,-0.5395448803901672,-0.4327419698238373,9.16364574432373,-0.23249298334121704,-3.22890043258667,-0.4547278583049774,1.3473625183105469,0.6915236711502075,0.3252272307872772,-0.6892209053039551,-0.43749764561653137,-0.477281779050827
1973350,9.732132911682129,0.1570667177438736,1.4817190170288086,0.5604891180992126,0.37569350004196167,0.4761209189891815,0.6217623949050903,-0.3675127923488617,-0.5394904017448425,-0.4327772855758667,9.168392181396484,-0.22525276243686676,-3.2317559719085693,-0.14640219509601593,1.220285177230835,0.8135170340538025,0.3252986669540405,-0.6891539096832275,-0.43740811944007874,-0.4774117171764374
1973517,9.74928092956543,0.15926997363567352,1.4742306470870972,0.43900802731513977,0.3043748736381531,0.4699481427669525,0.6218198537826538,-0.36745503544807434,-0.5394507050514221,-0.4327932894229889,9.14663314819336,-0.217970073223114,-3.2126381397247314,0.2706429958343506,0.9503272175788879,0.7547486424446106,0.32538047432899475,-0.6890907883644104,-0.43735235929489136,-0.47749826312065125
1973684,9.744725227355957,0.16810843348503113,1.4663132429122925,0.6123676300048828,0.3899725377559662,0.533314049243927,0.6218791604042053,-0.3674042522907257,-0.5393946170806885,-0.4328210651874542,9.149728775024414,-0.21335956454277039,-3.2302732467651367,0.4092845320701599,0.6230352520942688,0.5834892988204956,0.3254423439502716,-0.6890336871147156,-0.4373374283313751,-0.4775521755218506
1973850,9.704391479492188,0.15150099992752075,1.510714054107666,0.7768906950950623,0.2983686923980713,0.5453519225120544,0.6219367980957031,-0.3673502206802368,-0.5393533110618591,-0.4328356087207794,9.166327476501465,-0.20982401072978973,-3.2139878273010254,0.667959988117218,0.3945828676223755,0.6101905703544617,0.32553237676620483,-0.688969612121582,-0.437368780374527,-0.4775543510913849
1974017,9.718780517578125,0.16055288910865784,1.4371161460876465,0.5716690421104431,-0.298170268535614,0.7763657569885254,0.6219725608825684,-0.3673432767391205,-0.5393597483634949,-0.4327821135520935,9.149930000305176,-0.1891292780637741,-3.1994941234588623,0.822378933429718,0.309945672750473,0.6284780502319336,0.3256157338619232,-0.6889206767082214,-0.4373878538608551,-0.4775506556034088
1974184,9.707315444946289,0.15019738674163818,1.4800890684127808,0.4795529842376709,0.262498140335083,0.8116343021392822,0.6220409870147705,-0.3673229217529297,-0.5393005013465881,-0.4327746331691742,9.136944770812988,-0.20901206135749817,-3.2348837852478027,0.9726359248161316,0.0689045712351799,1.0623828172683716,0.3257477283477783,-0.6888920664787292,-0.43741273880004883,-0.47747907042503357
1974350,9.721182823181152,0.18689259886741638,1.4880634546279907,0.5256301760673523,-0.01913268491625786,0.314607173204422,0.6220764517784119,-0.36725446581840515,-0.5393123626708984,-0.43276700377464294,9.124591827392578,-0.1708804816007614,-3.231865882873535,0.9992858171463013,-0.24248823523521423,1.195197343826294,0.3258708417415619,-0.6888937950134277,-0.4374386668205261,-0.4773687720298767
1974517,9.72676944732666,0.1653914749622345,1.4777060747146606,0.7446444034576416,0.4893242418766022,0.7926169633865356,0.6221480965614319,-0.367229163646698,-0.5392259955406189,-0.4327930510044098,9.140802383422852,-0.17774945497512817,-3.219557046890259,0.7683618068695068,-0.3573228120803833,0.9292224049568176,0.3259299099445343,-0.6889100074768066,-0.4374605417251587,-0.47728514671325684
1974684,9.72221565246582,0.15614207088947296,1.5066428184509277,0.32152262330055237,0.24236659705638885,0.7748931050300598,0.6222178339958191,-0.3672039806842804,-0.5391733646392822,-0.4327799081802368,9.156335830688477,-0.1890874207019806,-3.1916966438293457,0.6106260418891907,-0.4179096519947052,0.9918709993362427,0.32597383856773376,-0.6889417767524719,-0.43746817111968994,-0.47720229625701904
1974850,9.721963882446289,0.16000211238861084,1.5276844501495361,0.7785556316375732,0.2811442017555237,0.8063965439796448,0.6222859025001526,-0.36717689037323,-0.5391165018081665,-0.4327758848667145,9.201363563537598,-0.2288045585155487,-3.2025604248046875,0.5961419939994812,-0.19315819442272186,1.273111343383789,0.32607272267341614,-0.6889567971229553,-0.43746793270111084,-0.477113276720047
1975017,9.72592830657959,0.17931103706359863,1.5487910509109497,-0.20444056391716003,0.19377927482128143,0.6318845152854919,0.6222854256629944,-0.36722853779792786,-0.53901606798172,-0.4328579902648926,9.183533668518066,-0.21114765107631683,-3.213124990463257,0.8156427145004272,0.08314522355794907,1.3640105724334717,0.3262062966823578,-0.6889578700065613,-0.4374440312385559,-0.4770421087741852
1975184,9.691179275512695,0.1403779834508896,1.569057583808899,-0.9551358819007874,0.20477993786334991,0.5088539123535156,0.6222637295722961,-0.36730489134788513,-0.5388967990875244,-0.4329726994037628,9.196929931640625,-0.23621858656406403,-3.2411351203918457,0.8483118414878845,0.4269444942474365,1.2442713975906372,0.3263562321662903,-0.688926100730896,-0.4374183118343353,-0.47700926661491394
1975350,9.69498348236084,0.12817507982254028,1.5575095415115356,-0.9748961925506592,0.10996173322200775,0.3949030339717865,0.6222410798072815,-0.3673616349697113,-0.5388034582138062,-0.4330731928348541,9.220085144042969,-0.2520615756511688,-3.2760403156280518,1.3395634889602661,1.0823094844818115,1.4270435571670532,0.32661351561546326,-0.6888333559036255,-0.4373832643032074,-0.4769991338253021
1975517,9.726024627685547,0.1181941106915474,1.519128680229187,-0.7069745063781738,0.6049143075942993,0.45583558082580566,0.6222540736198425,-0.3673948645591736,-0.5386596322059631,-0.43320518732070923,9.231888771057129,-0.2742021977901459,-3.291489601135254,2.300577163696289,1.7321803569793701,1.8588733673095703,0.32703521847724915,-0.6886804103851318,-0.4373358488082886,-0.4769744277000427
1975684,9.721861839294434,0.11504734307527542,1.51992928981781,-0.4298195540904999,1.062113881111145,0.732081413269043,0.6223376989364624,-0.36739277839660645,-0.5384792685508728,-0.4333111345767975,9.245079040527344,-0.2796753942966461,-3.2864160537719727,3.290163040161133,2.6397924423217773,2.1510891914367676,0.3276417553424835,-0.6884297728538513,-0.43729496002197266,-0.47695764899253845
1975850,9.71946907043457,0.13409990072250366,1.5265023708343506,-0.20397956669330597,1.2468454837799072,0.9207702279090881,0.6224459409713745,-0.3673911690711975,-0.5382735729217529,-0.4334125220775604,9.242372512817383,-0.28672876954078674,-3.2692902088165283,4.343177795410156,3.5271315574645996,2.3462705612182617,0.32842546701431274,-0.6880776882171631,-0.43726846575737,-0.4769512712955475
1976017,9.75465202331543,0.174689382314682,1.482810616493225,0.11900299787521362,1.6451741456985474,1.018162488937378,0.6226341128349304,-0.36731094121932983,-0.5380694270133972,-0.43346381187438965,9.231278419494629,-0.3053101599216461,-3.264834403991699,5.160363674163818,4.392802715301514,2.319044351577759,0.3293232023715973,-0.6876417994499207,-0.4372306764125824,-0.4769953191280365
1976184,9.711772918701172,0.16109009087085724,1.4819788932800293,0.6450238823890686,2.0020742416381836,1.0611021518707275,0.6228677034378052,-0.36718031764030457,-0.5378523468971252,-0.4335080683231354,9.222131729125977,-0.27296772599220276,-3.2315876483917236,5.870783805847168,5.222142219543457,2.0928075313568115,0.33034542202949524,-0.6870855689048767,-0.43724778294563293,-0.4770742654800415
1976350,9.730576515197754,0.18985557556152344,1.5001418590545654,1.081861138343811,2.2239186763763428,1.1422175168991089,0.6231436729431152,-0.3670065999031067,-0.5376358032226562,-0.4335273504257202,9.193713188171387,-0.2641001045703888,-3.244894504547119,6.0729827880859375,5.619753360748291,1.6963869333267212,0.3313716650009155,-0.686477541923523,-0.43727949261665344,-0.4772087037563324
1976517,9.752126693725586,0.20809948444366455,1.4732986688613892,0.9154682755470276,2.407958984375,1.1422175168991089,0.6234320998191833,-0.3668268918991089,-0.5373989343643188,-0.4335584044456482,9.189651489257812,-0.23416821658611298,-3.234998941421509,5.983364105224609,5.872474193572998,1.5251787900924683,0.3323892652988434,-0.6858470439910889,-0.43730562925338745,-0.4773835837841034
1976684,9.752196311950684,0.20124250650405884,1.4914652109146118,1.0144741535186768,2.779611825942993,1.184158205986023,0.6237647533416748,-0.3666084408760071,-0.537139356136322,-0.433586448431015,9.179031372070312,-0.1938648223876953,-3.20416522026062,5.541404724121094,5.916886806488037,1.2068384885787964,0.33335158228874207,-0.6852061748504639,-0.4373430907726288,-0.4775985777378082
1976850,9.720938682556152,0.1882084459066391,1.4840282201766968,1.3044227361679077,3.039836883544922,1.2741613388061523,0.624104380607605,-0.3663967251777649,-0.5368399620056152,-0.4336475431919098,9.194122314453125,-0.16786698997020721,-3.173811197280884,4.795051097869873,6.061573028564453,1.248203158378601,0.3342673182487488,-0.6845792531967163,-0.43734046816825867,-0.47786009311676025
1977017,9.733227729797363,0.18035505712032318,1.5225188732147217,1.3640109300613403,3.1090424060821533,1.3621026277542114,0.6244826316833496,-0.366150826215744,-0.5365559458732605,-0.4336623549461365,9.205731391906738,-0.18804669380187988,-3.1567435264587402,3.8047988414764404,6.0460381507873535,1.2840479612350464,0.3350662887096405,-0.684018075466156,-0.4372410178184509,-0.4781947135925293
1977184,9.716559410095215,0.17374779284000397,1.5254281759262085,1.285264492034912,3.0946991443634033,1.4474183320999146,0.6248498558998108,-0.3659326136112213,-0.5362542271614075,-0.4336906671524048,9.203344345092773,-0.19492755830287933,-3.1241455078125,2.8060061931610107,6.152420997619629,1.3378732204437256,0.335770845413208,-0.6835048198699951,-0.4370555579662323,-0.47860395908355713
1977350,9.714780807495117,0.15742717683315277,1.5280166864395142,1.1546013355255127,3.1644556522369385,1.3731545209884644,0.6252250075340271,-0.3656980097293854,-0.5359548330307007,-0.4337178170681,9.209535598754883,-0.2299937605857849,-3.1139960289001465,1.8294832706451416,6.222548484802246,1.6679952144622803,0.3364122807979584,-0.6830484867095947,-0.436775803565979,-0.4790599048137665
1977517,9.729256629943848,0.16794708371162415,1.5333316326141357,0.983393132686615,3.0340867042541504,1.1939679384231567,0.6255452632904053,-0.36550286412239075,-0.5356452465057373,-0.43380287289619446,9.211042404174805,-0.258834570646286,-3.1053216457366943,1.1637324094772339,6.2136101722717285,1.7439370155334473,0.3369903862476349,-0.6826306581497192,-0.4364411234855652,-0.4795542061328888
1977684,9.742804527282715,0.12603679299354553,1.5635030269622803,0.7939105033874512,3.3978898525238037,1.248651146888733,0.6259053349494934,-0.3652835190296173,-0.5353038907051086,-0.43388980627059937,9.194912910461426,-0.2839997112751007,-3.082994222640991,0.5913909673690796,6.145479679107666,1.7044422626495361,0.3374907076358795,-0.6822527647018433,-0.4360562860965729,-0.48008963465690613
1977850,9.666300773620605,0.10527306795120239,1.5659891366958618,0.8724647164344788,3.7066898345947266,1.1574444770812988,0.6262836456298828,-0.36503517627716064,-0.5349408388137817,-0.43400076031684875,9.221322059631348,-0.3399774730205536,-3.0729401111602783,0.2478092908859253,5.930551052093506,1.6731946468353271,0.3379462957382202,-0.6818999648094177,-0.43566828966140747,-0.48062223196029663
1978017,9.691286087036133,0.14873817563056946,1.6165894269943237,0.4981094300746918,3.6323227882385254,0.770180344581604,0.6266356706619263,-0.3647661507129669,-0.5346022844314575,-0.4341358244419098,9.23896598815918,-0.34832215309143066,-3.0396134853363037,0.024466535076498985,6.014342784881592,1.687307357788086,0.33839306235313416,-0.6815474033355713,-0.4352681338787079,-0.4811703562736511
1978184,9.717018127441406,0.1281462162733078,1.5844600200653076,0.0006467207567766309,3.7903666496276855,0.4340905249118805,0.6269186735153198,-0.36454692482948303,-0.5342066884040833,-0.4343980550765991,9.258650779724121,-0.37386006116867065,-3.0342764854431152,-0.06978180259466171,6.333655834197998,1.47408127784729,0.3388259708881378,-0.6811703443527222,-0.43485453724861145,-0.48177340626716614
1978350,9.757378578186035,0.1137685552239418,1.67180597782135,0.24280202388763428,4.593426704406738,0.33151161670684814,0.6272755861282349,-0.3642403781414032,-0.5337633490562439,-0.4346849024295807,9.248223304748535,-0.3716146945953369,-3.0190839767456055,-0.19515597820281982,6.566603660583496,1.0815412998199463,0.3392309248447418,-0.6807601451873779,-0.43445536494255066,-0.48242804408073425
1978517,9.698978424072266,0.11611319333314896,1.6895267963409424,0.6809583902359009,4.989872455596924,0.08967645466327667,0.6276840567588806,-0.3638341426849365,-0.5333351492881775,-0.4349611699581146,9.303977012634277,-0.34213492274284363,-2.99933123588562,-0.38746899366378784,6.793968200683594,0.610305905342102,0.33960258960723877,-0.680308997631073,-0.43408435583114624,-0.4831361770629883
1978684,9.648606300354004,0.10367992520332336,1.7598743438720703,0.5060109496116638,5.17067289352417,0.22698615491390228,0.6280994415283203,-0.3634502589702606,-0.5328662395477295,-0.43525704741477966,9.337247848510742,-0.34491199254989624,-2.987149953842163,-0.6780067086219788,7.577703952789307,0.186518132686615,0.33995720744132996,-0.6797958016395569,-0.43368563055992126,-0.48396652936935425
1978850,9.672426223754883,0.09387509524822235,1.7427055835723877,0.3643854856491089,5.009504795074463,0.2788006067276001,0.6285106539726257,-0.36307838559150696,-0.5324100852012634,-0.4355319142341614,9.3512601852417,-0.34901267290115356,-2.9503355026245117,-0.6718341112136841,8.610652923583984,0.32295703887939453,0.34038475155830383,-0.6792188882827759,-0.43321967124938965,-0.48489251732826233
1979017,9.673577308654785,0.09626511484384537,1.7656677961349487,0.637673020362854,5.446713447570801,0.14648544788360596,0.628976047039032,-0.3626265227794647,-0.5319495797157288,-0.43579918146133423,9.305315017700195,-0.32241883873939514,-2.943101406097412,-0.8454626202583313,9.360784530639648,0.6212937831878662,0.34087327122688293,-0.678607702255249,-0.43268710374832153,-0.4858797490596771
1979184,9.647809028625488,0.09371785819530487,1.7695924043655396,0.7357568740844727,6.074468612670898,0.22003231942653656,0.6294695138931274,-0.3621671199798584,-0.5314077734947205,-0.43612948060035706,9.255473136901855,-0.33674830198287964,-2.9287774562835693,-0.9174983501434326,9.724588394165039,0.8797517418861389,0.3413918614387512,-0.6779914498329163,-0.4321013391017914,-0.48689594864845276
1979350,9.696198463439941,0.08640100061893463,1.8210467100143433,0.7881606817245483,6.927309036254883,0.29521849751472473,0.6300492882728577,-0.36163899302482605,-0.53079754114151,-0.4364735782146454,9.239563941955566,-0.34308356046676636,-2.918513059616089,-0.9870754480361938,9.919194221496582,1.3812998533248901,0.3419495224952698,-0.6773962378501892,-0.4314493238925934,-0.4879103899002075
1979517,9.647929191589355,0.0916961058974266,1.865790843963623,1.5310442447662354,8.666090965270996,1.0908387899398804,0.6308437585830688,-0.3610032796859741,-0.530025064945221,-0.4367908537387848,9.100489616394043,-0.36036309599876404,-2.930687189102173,-0.517287015914917,9.177513122558594,2.325115203857422,0.3425837755203247,-0.676880955696106,-0.4307865500450134,-0.4887654185295105
1979684,9.649820327758789,0.07305426150560379,1.8262048959732056,0.9795771837234497,8.425882339477539,0.5229026079177856,0.631539523601532,-0.36040592193603516,-0.529255747795105,-0.4372113049030304,9.103662490844727,-0.3559151291847229,-2.9007678031921387,0.049515753984451294,7.270850658416748,3.482078790664673,0.3432409167289734,-0.6765421032905579,-0.4301501214504242,-0.4893338978290558
1979850,9.728676795959473,0.1141454428434372,1.8771448135375977,-0.08157648146152496,9.271088600158691,-0.028353270143270493,0.6322121024131775,-0.35980528593063354,-0.5283719301223755,-0.4378027617931366,9.189395904541016,-0.3820633590221405,-2.905646324157715,0.5242729187011719,6.206439018249512,4.190040588378906,0.3439149558544159,-0.6763073801994324,-0.429516077041626,-0.4897414743900299
1980017,9.594026565551758,0.10511728376150131,1.970736026763916,-1.0069763660430908,9.936751365661621,-0.2378140091896057,0.6328554749488831,-0.35925033688545227,-0.5273634791374207,-0.4385443329811096,8.95889663696289,-0.38430896401405334,-2.926356315612793,1.0647904872894287,4.258284568786621,4.766427993774414,0.3445528745651245,-0.6762254238128662,-0.4289523959159851,-0.48990052938461304
1980184,9.610673904418945,0.12968529760837555,1.782423496246338,-1.4294580221176147,8.17664623260498,-0.7696875333786011,0.6333463788032532,-0.35876014828681946,-0.526547908782959,-0.4392162263393402,8.984326362609863,-0.3998901844024658,-2.887608528137207,1.4770783185958862,1.1681506633758545,5.112826824188232,0.3450784683227539,-0.6763551235198975,-0.42855632305145264,-0.48969802260398865
1980350,9.768256187438965,0.17442716658115387,1.74093759059906,-1.2644096612930298,9.58466625213623,-1.0264036655426025,0.6339319348335266,-0.35814958810806274,-0.5256224274635315,-0.43997761607170105,9.337396621704102,-0.46297287940979004,-2.8566160202026367,2.0234739780426025,0.6631191968917847,4.884233474731445,0.3455941677093506,-0.676489531993866,-0.4282298982143402,-0.4894343316555023
1980517,9.628682136535645,0.17390964925289154,1.8999688625335693,-3.0082767009735107,10.474465370178223,-1.1734590530395508,0.6344767808914185,-0.35763877630233765,-0.5245052576065063,-0.4409399926662445,9.292498588562012,-0.4420827031135559,-2.8096561431884766,2.748774528503418,0.980780839920044,5.535782814025879,0.34625640511512756,-0.676599383354187,-0.42788493633270264,-0.4891159236431122
1980684,9.60269546508789,0.11541931331157684,1.7864943742752075,-2.3894734382629395,7.0380964279174805,-0.8866221904754639,0.6348180770874023,-0.3573024868965149,-0.5237361788749695,-0.4416349530220032,9.62194538116455,-0.3792358338832855,-2.7757863998413086,2.9879071712493896,1.5764809846878052,6.397867202758789,0.3470451235771179,-0.6767053008079529,-0.42744696140289307,-0.4887933135032654
1980850,9.720273971557617,0.12866410613059998,1.8087211847305298,-2.40594220161438,7.455608367919922,-0.8969696760177612,0.6352006196975708,-0.3569262623786926,-0.5229372978210449,-0.4423352777957916,9.911392211914062,-0.3373943865299225,-2.6761538982391357,2.8744304180145264,5.42755651473999,6.891718864440918,0.34809187054634094,-0.6765759587287903,-0.4267518222332001,-0.4888353943824768
1981017,9.700384140014648,0.15839414298534393,1.9152069091796875,-1.2041429281234741,7.481015682220459,-0.3684387505054474,0.6356626749038696,-0.3564971387386322,-0.5221719741821289,-0.4429210424423218,9.85489559173584,-0.23437172174453735,-2.645401954650879,1.635352373123169,9.936022758483887,7.597441673278809,0.3493569791316986,-0.676222562789917,-0.4256824851036072,-0.4893540143966675
1981184,9.568012237548828,0.17130140960216522,2.0058693885803223,-0.5236901044845581,7.129480838775635,0.0866541713476181,0.6361809372901917,-0.3560417890548706,-0.5214736461639404,-0.4433659017086029,9.706717491149902,-0.26841601729393005,-2.6188547611236572,0.03309803456068039,13.39255142211914,7.2048258781433105,0.35064390301704407,-0.6756802797317505,-0.4243544042110443,-0.4903351068496704
1981350,9.564300537109375,0.17144416272640228,2.081857919692993,-0.3891850411891937,6.335513114929199,0.5042436718940735,0.636645495891571,-0.3556849956512451,-0.5208148956298828,-0.4437597393989563,9.649654388427734,-0.3245907127857208,-2.585996150970459,-1.5590592622756958,16.287214279174805,6.462813854217529,0.35189175605773926,-0.6749656200408936,-0.4228299856185913,-0.49174031615257263
1981517,9.632384300231934,0.20592591166496277,2.0373666286468506,-0.6070722341537476,6.0411200523376465,0.6829946637153625,0.6371119022369385,-0.3553536534309387,-0.5201781392097473,-0.44410261511802673,9.595680236816406,-0.3803958296775818,-2.571427345275879,-2.6850087642669678,18.683677673339844,5.6833696365356445,0.3531223237514496,-0.6740813851356506,-0.42118024826049805,-0.4934837818145752
1981684,9.600160598754883,0.21220004558563232,2.0435030460357666,-0.907701313495636,6.982772350311279,0.5599000453948975,0.6376119256019592,-0.35499507188796997,-0.5194299817085266,-0.4445469379425049,9.564726829528809,-0.4870755672454834,-2.5243282318115234,-3.524454116821289,20.586286544799805,4.7529754638671875,0.35431531071662903,-0.6730414032936096,-0.41945815086364746,-0.49551069736480713
1981850,9.571990966796875,0.21381238102912903,2.0565526485443115,-0.8360372185707092,7.3737382888793945,0.3720565736293793,0.6381226778030396,-0.3545996844768524,-0.5186525583267212,-0.44503724575042725,9.56962776184082,-0.5419720411300659,-2.4556288719177246,-3.719726085662842,22.235313415527344,4.070563316345215,0.3555383086204529,-0.671842634677887,-0.4177011549472809,-0.49774059653282166
1982017,9.609397888183594,0.2128123641014099,2.056694507598877,-1.248824119567871,7.28256893157959,0.2199810892343521,0.6386052370071411,-0.35422518849372864,-0.5178722143173218,-0.4455517828464508,9.616901397705078,-0.5425011515617371,-2.3703837394714355,-3.8661935329437256,23.92251968383789,3.246845006942749,0.356784850358963,-0.670471727848053,-0.4159207344055176,-0.5001825094223022
1982184,9.609942436218262,0.19709502160549164,2.1175646781921387,-1.6935248374938965,8.120399475097656,-0.0959964171051979,0.6390901207923889,-0.35382959246635437,-0.516989529132843,-0.44619545340538025,9.533954620361328,-0.5467429161071777,-2.3196518421173096,-4.140225410461426,25.265750885009766,2.116849660873413,0.35799846053123474,-0.6689404249191284,-0.4141537547111511,-0.5028247833251953
1982350,9.577432632446289,0.18075495958328247,2.200864791870117,-1.4093260765075684,8.240739822387695,-0.0775296539068222,0.6396234035491943,-0.35337868332862854,-0.516128420829773,-0.4467851221561432,9.529915809631348,-0.5490431785583496,-2.231508493423462,-4.249272346496582,25.6986083984375,0.8426149487495422,0.35913074016571045,-0.6672958731651306,-0.4124756157398224,-0.5055743455886841
1982517,9.567584991455078,0.1715441197156906,2.2416553497314453,-1.0630425214767456,8.271130561828613,-0.01564936339855194,0.6401742696762085,-0.3529008626937866,-0.51528000831604,-0.447352796792984,9.601133346557617,-0.585892915725708,-2.1842596530914307,-4.287423133850098,26.43919563293457,-0.39327123761177063,0.36020803451538086,-0.6655144691467285,-0.4108697772026062,-0.5084553360939026
1982684,9.531567573547363,0.16249904036521912,2.262118101119995,-1.0459716320037842,8.055316925048828,-0.22417518496513367,0.6407074332237244,-0.35240817070007324,-0.5144704580307007,-0.44790950417518616,9.630544662475586,-0.638519823551178,-2.111788511276245,-3.9290244579315186,27.613313674926758,-1.4801619052886963,0.36130475997924805,-0.6635517477989197,-0.40932759642601013,-0.5114773511886597
1982850,9.539803504943848,0.1539960503578186,2.284743309020996,-0.9874465465545654,7.949420928955078,-0.415540486574173,0.6412186026573181,-0.35190549492836,-0.5136806964874268,-0.4484791159629822,9.661362648010254,-0.6257526874542236,-2.0699470043182373,-3.2956981658935547,28.834753036499023,-2.5731618404388428,0.36244821548461914,-0.6613883972167969,-0.4078659117221832,-0.5146281123161316
1983017,9.538599014282227,0.13490626215934753,2.3076603412628174,-0.297030508518219,7.997393608093262,-0.18695992231369019,0.6417607069015503,-0.35137295722961426,-0.5129036903381348,-0.4490101933479309,9.604474067687988,-0.5965046286582947,-1.9813826084136963,-2.5037648677825928,30.154104232788086,-3.0044565200805664,0.3637079894542694,-0.6590464115142822,-0.40642791986465454,-0.5178714990615845
1983184,9.516294479370117,0.1004561185836792,2.2910091876983643,-0.2631833255290985,7.698736667633057,-0.29177993535995483,0.6422840356826782,-0.35083967447280884,-0.5121673941612244,-0.44951921701431274,9.504070281982422,-0.5363041162490845,-1.8929959535598755,-1.874138355255127,30.184350967407227,-2.8792994022369385,0.3650328814983368,-0.656663179397583,-0.40501564741134644,-0.5210633873939514
1983351,9.593840599060059,0.09491121768951416,2.2501707077026367,0.30682098865509033,7.789905071258545,-0.318762868642807,0.6428361535072327,-0.3502494990825653,-0.5114569664001465,-0.4499988555908203,9.547774314880371,-0.4883609414100647,-1.820873498916626,-1.7200136184692383,29.79342269897461,-2.729233980178833,0.3663540780544281,-0.6542975306510925,-0.40361350774765015,-0.5241906046867371
1983517,9.606382369995117,0.11596791446208954,2.2932345867156982,0.31459444761276245,8.443503379821777,-0.09206485748291016,0.6434476971626282,-0.34963667392730713,-0.5106707215309143,-0.45049405097961426,9.56942081451416,-0.48872631788253784,-1.7393405437469482,-1.5256251096725464,29.662792205810547,-2.5857765674591064,0.36769038438796997,-0.6519272923469543,-0.402211993932724,-0.5272760987281799
1983684,9.505082130432129,0.08219942450523376,2.2820465564727783,0.04665994271636009,8.089163780212402,-0.21118955314159393,0.6440337300300598,-0.34904414415359497,-0.5099191665649414,-0.45096731185913086,9.526076316833496,-0.4843451678752899,-1.6912033557891846,-1.403887391090393,28.916292190551758,-2.277334213256836,0.36901167035102844,-0.6496139764785767,-0.400823175907135,-0.5302574038505554
1983851,9.58541202545166,0.10925884544849396,2.288238286972046,0.8451615571975708,7.712080001831055,-0.009335829876363277,0.6446393728256226,-0.3484194874763489,-0.5092417001724243,-0.4513499140739441,9.485471725463867,-0.49886277318000793,-1.6006217002868652,-1.040224313735962,27.70057487487793,-2.1967689990997314,0.37029653787612915,-0.6473684906959534,-0.3995133340358734,-0.5330888628959656
1984017,9.57402229309082,0.10496252775192261,2.310487747192383,1.0226705074310303,8.04714584350586,0.03355904296040535,0.6452775597572327,-0.34776225686073303,-0.5085397362709045,-0.45173633098602295,9.469698905944824,-0.4997449517250061,-1.5369795560836792,-0.7134690880775452,26.164352416992188,-1.9563027620315552,0.3715360760688782,-0.6452286243438721,-0.3982827663421631,-0.5357351303100586
1984184,9.562521934509277,0.11230651289224625,2.3213372230529785,0.34880027174949646,8.146998405456543,-0.05711633712053299,0.6458527445793152,-0.34717923402786255,-0.5077706575393677,-0.4522276222705841,9.47367000579834,-0.4863436818122864,-1.476506233215332,-0.17196403443813324,24.465167999267578,-1.5648623704910278,0.3727535307407379,-0.6432057619094849,-0.3971439003944397,-0.5381614565849304
1984351,9.592642784118652,0.1095057800412178,2.3620657920837402,0.33155012130737305,8.631092071533203,-0.10981449484825134,0.646472156047821,-0.3465503752231598,-0.5069652199745178,-0.45272839069366455,9.513750076293945,-0.4925816059112549,-1.42557954788208,0.32307279109954834,22.938819885253906,-1.3269195556640625,0.37394365668296814,-0.6412820816040039,-0.39609965682029724,-0.5403966903686523
1984517,9.540546417236328,0.09755582362413406,2.3902640342712402,0.6337288022041321,9.241352081298828,0.021521076560020447,0.6471575498580933,-0.3458636701107025,-0.5061140060424805,-0.4532264173030853,9.411385536193848,-0.4921044707298279,-1.3745903968811035,0.7952051162719727,21.07002067565918,-0.9439062476158142,0.37509655952453613,-0.6394952535629272,-0.39515432715415955,-0.5424034595489502
1984684,9.53473949432373,0.13353098928928375,2.409245252609253,1.1424356698989868,8.989644050598145,-0.15479038655757904,0.647851288318634,-0.34512263536453247,-0.5053350925445557,-0.4536689519882202,9.451946258544922,-0.45538148283958435,-1.308924674987793,1.1058744192123413,18.75817108154297,-0.5519031286239624,0.3761734366416931,-0.6378914713859558,-0.39431989192962646,-0.5441508293151855
1984851,9.564178466796875,0.14105156064033508,2.4298181533813477,1.1342524290084839,9.639976501464844,-0.23061680793762207,0.6485652327537537,-0.3443481922149658,-0.5044867992401123,-0.454181432723999,9.596574783325195,-0.4317499101161957,-1.2596591711044312,1.424419641494751,17.184160232543945,-0.370411217212677,0.37720128893852234,-0.6364009380340576,-0.3935772478580475,-0.5457196831703186
1985017,9.511195182800293,0.15007257461547852,2.5272037982940674,0.7875716090202332,10.071256637573242,-0.2759641110897064,0.6493004560470581,-0.3435661494731903,-0.5035820007324219,-0.4547269344329834,9.68068790435791,-0.4129786193370819,-1.1990960836410522,1.4802170991897583,16.712411880493164,-0.34463199973106384,0.37820708751678467,-0.6349427700042725,-0.3928603231906891,-0.5472366809844971
1985184,9.479021072387695,0.1749633401632309,2.5648560523986816,0.9919224381446838,9.871757507324219,-0.2538987696170807,0.6500263214111328,-0.34278395771980286,-0.5027039647102356,-0.4552514851093292,9.720023155212402,-0.39624640345573425,-1.176294207572937,1.5462979078292847,16.83698081970215,-0.3143705725669861,0.3792261779308319,-0.6334689259529114,-0.39213666319847107,-0.5487562417984009
1985351,9.514781951904297,0.1909240484237671,2.6047444343566895,0.4372537136077881,10.13819408416748,-0.5117290616035461,0.6507142186164856,-0.34202250838279724,-0.5017713904380798,-0.4558698236942291,9.779278755187988,-0.3834613561630249,-1.1427597999572754,1.646392583847046,17.48198699951172,-0.19843462109565735,0.3802981674671173,-0.6319409012794495,-0.3913726210594177,-0.550319492816925
1985517,9.518499374389648,0.1625281125307083,2.644042491912842,0.18637730181217194,11.010616302490234,-0.23047596216201782,0.6514922380447388,-0.3412318527698517,-0.5007351040840149,-0.45649027824401855,9.81352710723877,-0.3825188875198364,-1.1049972772598267,1.537641167640686,18.591083526611328,-0.19058434665203094,0.3814210295677185,-0.6303262710571289,-0.3905353248119354,-0.5519863367080688
1985684,9.440670013427734,0.16412030160427094,2.6836092472076416,0.47358548641204834,11.755664825439453,-0.2898334562778473,0.6523345708847046,-0.3403591513633728,-0.4996487498283386,-0.4571286737918854,9.839247703552246,-0.38745853304862976,-1.0763205289840698,1.3423699140548706,20.008893966674805,-0.11842048913240433,0.38260915875434875,-0.6286079287528992,-0.38959434628486633,-0.5537856221199036
1985851,9.47134017944336,0.19795720279216766,2.706510066986084,0.7331318855285645,12.226605415344238,-0.38333266973495483,0.6532232761383057,-0.3394184410572052,-0.4985409080982208,-0.45776811242103577,9.834114074707031,-0.389721542596817,-1.0298467874526978,1.2969331741333008,21.8030948638916,-0.11551345139741898,0.3838912546634674,-0.6267421841621399,-0.38854625821113586,-0.5557458400726318
1986017,9.521069526672363,0.2163025587797165,2.6610255241394043,0.04619893059134483,13.120566368103027,-0.27889683842658997,0.6541460156440735,-0.33848923444747925,-0.49729570746421814,-0.4584924280643463,9.911062240600586,-0.3814314901828766,-1.0271145105361938,1.190730333328247,23.534626007080078,0.15711498260498047,0.38527923822402954,-0.6247512698173523,-0.3873642385005951,-0.5578482747077942
1986184,9.539473533630371,0.21120701730251312,2.764460563659668,-0.34185296297073364,15.277955055236816,-0.704272985458374,0.655190110206604,-0.3374110162258148,-0.49584540724754333,-0.45936641097068787,9.907766342163086,-0.37899211049079895,-0.9500982165336609,1.1481879949569702,25.565404891967773,0.32632574439048767,0.38678619265556335,-0.6225999593734741,-0.3860451579093933,-0.5601205229759216
1986351,9.447196960449219,0.18869821727275848,2.8183820247650146,0.15997065603733063,15.638737678527832,-0.8059682846069336,0.656261146068573,-0.336260586977005,-0.4943903684616089,-0.46024850010871887,9.938057899475098,-0.355356901884079,-0.8781970143318176,1.0236974954605103,27.620389938354492,0.01564299687743187,0.38836580514907837,-0.6202619075775146,-0.3846231698989868,-0.5625943541526794
1986517,9.40060806274414,0.2172597497701645,2.900299549102783,0.13807179033756256,15.7496919631958,-0.5900275707244873,0.6573323011398315,-0.33513087034225464,-0.4929012954235077,-0.46113988757133484,9.965890884399414,-0.3567635416984558,-0.7983382940292358,0.5799054503440857,30.065956115722656,-0.3583356440067291,0.3900044560432434,-0.6177172064781189,-0.38305431604385376,-0.5653244256973267
1986684,9.390044212341309,0.20807547867298126,2.9543654918670654,0.023890268057584763,15.736093521118164,-0.41436266899108887,0.6584362387657166,-0.33400505781173706,-0.4914076626300812,-0.46197500824928284,9.936177253723145,-0.34293973445892334,-0.6572970747947693,0.5316255688667297,32.56255340576172,-0.32441166043281555,0.39177215099334717,-0.6149592399597168,-0.38132932782173157,-0.5682672262191772
1986851,9.371159553527832,0.2182871699333191,2.9863381385803223,0.13551047444343567,15.499695777893066,-0.472080796957016,0.6594830751419067,-0.33290061354637146,-0.4899284541606903,-0.4628494083881378,9.932901382446289,-0.2814299762248993,-0.548905074596405,0.016885241493582726,34.639251708984375,-0.38689422607421875,0.39359426498413086,-0.6120410561561584,-0.3794406056404114,-0.5714141130447388
