sampleTimeFine,D4:22:CD:00:A9:12_acc_x,D4:22:CD:00:A9:12_acc_y,D4:22:CD:00:A9:12_acc_z,D4:22:CD:00:A9:12_gyro_x,D4:22:CD:00:A9:12_gyro_y,D4:22:CD:00:A9:12_gyro_z,D4:22:CD:00:A9:12_quat_w,D4:22:CD:00:A9:12_quat_x,D4:22:CD:00:A9:12_quat_y,D4:22:CD:00:A9:12_quat_z,D4:22:CD:00:A1:93_acc_x,D4:22:CD:00:A1:93_acc_y,D4:22:CD:00:A1:93_acc_z,D4:22:CD:00:A1:93_gyro_x,D4:22:CD:00:A1:93_gyro_y,D4:22:CD:00:A1:93_gyro_z,D4:22:CD:00:A1:93_quat_w,D4:22:CD:00:A1:93_quat_x,D4:22:CD:00:A1:93_quat_y,D4:22:CD:00:A1:93_quat_z
2916736,-0.8877008557319641,0.8154119253158569,0.11427610367536545,-0.6918035745620728,0.16902771592140198,-0.5251277685165405,0.6983849406242371,-0.2838982939720154,-0.4963805675506592,-0.4304259419441223,0.09639210999011993,-0.6631472706794739,0.23102767765522003,-0.01802874729037285,-0.5717918276786804,-0.608167290687561,0.4010104835033417,-0.573266327381134,-0.405717134475708,-0.5881752371788025
2916903,9.200345993041992,0.3926379680633545,3.4422178268432617,0.9767082929611206,-0.885200560092926,0.24339106678962708,0.6986771821975708,-0.2832069396972656,-0.4964747726917267,-0.4302985966205597,9.850362777709961,0.18666161596775055,0.13532277941703796,0.02788582816720009,-0.7724149823188782,1.2236402034759521,0.40105441212654114,-0.5732961893081665,-0.4057876467704773,-0.5880674719810486
2917070,9.20952033996582,0.33938106894493103,3.4404141902923584,0.6839422583580017,-0.41650092601776123,0.4258687198162079,0.6986733675003052,-0.28234466910362244,-0.4965881407260895,-0.43074044585227966,9.800905227661133,0.16158676147460938,0.1321430802345276,-0.2812146246433258,-0.7175269722938538,1.1932125091552734,0.4007754325866699,-0.573522686958313,-0.4055590331554413,-0.5881944298744202
2917236,9.198657989501953,0.33674928545951843,3.4116499423980713,1.2489584684371948,-0.84173583984375,0.8908033967018127,0.6988732814788818,-0.2817201018333435,-0.496715784072876,-0.43067795038223267,9.806288719177246,0.14714249968528748,0.10641254484653473,-0.6297522783279419,-0.7319725751876831,0.8584160804748535,0.4006880819797516,-0.5737188458442688,-0.4053821861743927,-0.588184654712677
2917736,9.186660766601562,0.3664794862270355,3.455641984939575,0.302389919757843,-0.6794920563697815,0.3969903886318207,0.6989901065826416,-0.2812608778476715,-0.49687519669532776,-0.4306045472621918,9.796225547790527,0.13074886798858643,0.10510502755641937,-0.7752195000648499,-0.7810592651367188,0.6210630536079407,0.40058958530426025,-0.5740176439285278,-0.4052196443080902,-0.5880722999572754
2917903,9.19185733795166,0.359965980052948,3.4242520332336426,0.08575772494077682,-0.8864042162895203,0.21033790707588196,0.6989279389381409,-0.28124919533729553,-0.49687543511390686,-0.43071284890174866,9.83471393585205,0.11704777926206589,0.08617904037237167,-0.7165536880493164,-0.7702891826629639,0.35058021545410156,0.4003719985485077,-0.5744176506996155,-0.4049307405948639,-0.588028609752655
2918070,9.206045150756836,0.34667423367500305,3.4108400344848633,0.2408682256937027,-0.665084958076477,0.15328560769557953,0.6988272666931152,-0.28128042817115784,-0.496861070394516,-0.43087220191955566,9.834810256958008,0.13226819038391113,0.08635395020246506,-0.736941397190094,-0.6345546841621399,0.0872560665011406,0.4001990556716919,-0.5747810006141663,-0.40470707416534424,-0.5879454016685486
2918236,9.227022171020508,0.3502254784107208,3.40627384185791,0.3283740282058716,-0.37795382738113403,0.08319646120071411,0.6988603472709656,-0.2811727821826935,-0.4969295263290405,-0.430809885263443,9.83243179321289,0.12946602702140808,0.07611001282930374,-0.793878436088562,-0.4499639570713043,-0.2623765170574188,0.4000638425350189,-0.5750325918197632,-0.4045974314212799,-0.5878669619560242
2918403,9.194951057434082,0.3563690483570099,3.4216113090515137,0.315721333026886,-0.3624196946620941,0.12069343030452728,0.6987525820732117,-0.2812456488609314,-0.49692684412002563,-0.43094030022621155,9.838350296020508,0.1395646035671234,0.08819101750850677,-0.7828778624534607,-0.3650450110435486,-0.36134397983551025,0.4000979959964752,-0.5751286745071411,-0.4046887755393982,-0.5876867771148682
2918570,9.22892951965332,0.3691937327384949,3.4236531257629395,0.729468822479248,-0.4893818199634552,0.05103970319032669,0.6987430453300476,-0.2811758518218994,-0.49702468514442444,-0.43088850378990173,9.876750946044922,0.16050390899181366,0.08078257739543915,-0.6823991537094116,0.1420416235923767,-0.3951526880264282,0.4000733494758606,-0.5752040147781372,-0.4046865403652191,-0.587631344795227
2918736,9.234182357788086,0.38213205337524414,3.4240431785583496,0.4475242793560028,-0.30125656723976135,0.08060956746339798,0.6986775994300842,-0.28119105100631714,-0.4970523416996002,-0.43095290660858154,9.854453086853027,0.17823655903339386,0.09794000536203384,-0.6863179802894592,0.5964109897613525,-0.33310601115226746,0.3999709188938141,-0.5752829909324646,-0.4045816957950592,-0.5876960158348083
2918903,9.191145896911621,0.3736349940299988,3.434807538986206,0.19637899100780487,-0.13769389688968658,-0.08260096609592438,0.6986232995986938,-0.28117936849594116,-0.49707555770874023,-0.4310217797756195,9.825347900390625,0.18089182674884796,0.08156223595142365,-0.8848291635513306,0.9628903269767761,-0.17119529843330383,0.4000322222709656,-0.5752147436141968,-0.40459099411964417,-0.5877145528793335
2919070,9.186907768249512,0.36063188314437866,3.4524991512298584,0.28937867283821106,-0.14787492156028748,-0.10429491847753525,0.6985350251197815,-0.28120025992393494,-0.4970738887786865,-0.43115293979644775,9.784918785095215,0.18595288693904877,0.0941389724612236,-0.7840688228607178,0.899025022983551,-0.03862395137548447,0.39996451139450073,-0.5752328038215637,-0.4044826626777649,-0.5878176689147949
2919236,9.19079875946045,0.3479256331920624,3.446626901626587,0.5031935572624207,-0.27789780497550964,-0.08213992416858673,0.6984928846359253,-0.2811657190322876,-0.49711084365844727,-0.43120110034942627,9.805545806884766,0.17111194133758545,0.10594219714403152,-0.8449885249137878,0.8562646508216858,0.23034143447875977,0.3999292552471161,-0.5752449035644531,-0.4043768346309662,-0.5879025459289551
2919403,9.215367317199707,0.37090635299682617,3.4480860233306885,0.6422576308250427,-0.08735211193561554,0.06723973900079727,0.6985489726066589,-0.2810470759868622,-0.4971644878387451,-0.4311255216598511,9.8461332321167,0.1879749894142151,0.1282295286655426,-0.8985062837600708,0.8529348969459534,0.45195528864860535,0.399935245513916,-0.5752482414245605,-0.4042684733867645,-0.5879697799682617
2919570,9.206748962402344,0.35997745394706726,3.4356443881988525,0.4606507420539856,0.18121623992919922,0.23245444893836975,0.6985073685646057,-0.28108206391334534,-0.49709227681159973,-0.43125370144844055,9.863113403320312,0.1697087287902832,0.1196451187133789,-0.8168914914131165,1.1630662679672241,0.6076933741569519,0.39993008971214294,-0.5752516984939575,-0.4040837585926056,-0.5880967974662781
2919736,9.196220397949219,0.3425935208797455,3.430104970932007,0.2893018424510956,0.3793560862541199,0.18163885176181793,0.6985714435577393,-0.28100526332855225,-0.4970566928386688,-0.431240975856781,9.845635414123535,0.13406401872634888,0.12728534638881683,-0.7257742285728455,1.4307316541671753,0.8095853924751282,0.3999975621700287,-0.5752151012420654,-0.4038985073566437,-0.5882139801979065
2919903,9.186929702758789,0.35109058022499084,3.4237892627716064,0.4297490417957306,0.08168530464172363,0.2659430503845215,0.69855797290802,-0.2810232639312744,-0.4970109164714813,-0.4313035011291504,9.808699607849121,0.14319860935211182,0.13383516669273376,-0.41133999824523926,1.4021353721618652,0.9080022573471069,0.4001152217388153,-0.5751633644104004,-0.403732031583786,-0.5882987380027771
2920070,9.211212158203125,0.33810895681381226,3.453861713409424,0.6624916791915894,0.1805887520313263,0.34465089440345764,0.6986051201820374,-0.28097593784332275,-0.4969924986362457,-0.43127942085266113,9.816118240356445,0.14651213586330414,0.13965420424938202,-0.20678412914276123,1.3062283992767334,0.9437959790229797,0.4001672565937042,-0.5751673579216003,-0.4034968614578247,-0.5884208679199219
2920236,9.21578311920166,0.3563965857028961,3.4382073879241943,0.6997837424278259,0.30137819051742554,0.413869172334671,0.6986737847328186,-0.2809201776981354,-0.49696123600006104,-0.43124067783355713,9.831436157226562,0.1340245008468628,0.1766083538532257,-0.026291433721780777,1.278272271156311,0.7642125487327576,0.40035349130630493,-0.5750598907470703,-0.40342026948928833,-0.5884518027305603
2920403,9.204127311706543,0.3669149577617645,3.4672651290893555,0.46809127926826477,0.4168018400669098,0.4022409915924072,0.6987344622612,-0.28088757395744324,-0.4969019293785095,-0.4312319755554199,9.823698997497559,0.15743820369243622,0.1771581918001175,0.15516813099384308,1.2732393741607666,0.603198230266571,0.40045344829559326,-0.5749927163124084,-0.4032748341560364,-0.5885489583015442
2920570,9.185795783996582,0.35666945576667786,3.444263219833374,0.3898060619831085,0.20501044392585754,0.25662001967430115,0.6987847089767456,-0.2808453440666199,-0.496874064207077,-0.43121010065078735,9.788472175598145,0.15852464735507965,0.15672847628593445,0.20337125658988953,1.1095229387283325,0.5485023856163025,0.4004882872104645,-0.5749677419662476,-0.4030901789665222,-0.5886761546134949
2920736,9.194515228271484,0.36444413661956787,3.4593260288238525,0.4698585271835327,0.32372531294822693,0.3822631239891052,0.6988263726234436,-0.28082987666130066,-0.4968154728412628,-0.4312199354171753,9.775623321533203,0.15319250524044037,0.15194213390350342,0.25631269812583923,0.7284444570541382,0.7416477799415588,0.4006020426750183,-0.574927031993866,-0.4029952883720398,-0.5887035131454468
2920903,9.189282417297363,0.3633390963077545,3.479395866394043,0.5433414578437805,0.32691410183906555,0.44684556126594543,0.6988694071769714,-0.2808181345462799,-0.49675413966178894,-0.4312286674976349,9.785357475280762,0.16794729232788086,0.1716107279062271,0.2331075817346573,0.32048529386520386,0.9230751991271973,0.40067270398139954,-0.5749552845954895,-0.40287601947784424,-0.5887094736099243
2921070,9.181797981262207,0.3449609577655792,3.4362523555755615,0.6101521253585815,0.16013699769973755,0.49663659930229187,0.6989046931266785,-0.2808155417442322,-0.4967082142829895,-0.43122613430023193,9.851040840148926,0.14795514941215515,0.18921437859535217,0.20612460374832153,0.3837999403476715,0.9231137633323669,0.40074896812438965,-0.5749741196632385,-0.4027562737464905,-0.5887211561203003
2921236,9.181869506835938,0.3573131859302521,3.4085583686828613,0.40973278880119324,0.21984021365642548,0.4878386855125427,0.6989700198173523,-0.2807907462120056,-0.4966675937175751,-0.43118318915367126,9.781970024108887,0.14828842878341675,0.1659005880355835,0.2506778836250305,0.6112790703773499,0.9077844619750977,0.40078383684158325,-0.5750080943107605,-0.4025695025920868,-0.5887918472290039
2921403,9.229958534240723,0.35856127738952637,3.4476139545440674,0.18063995242118835,0.23103293776512146,0.4038417935371399,0.6990067362785339,-0.28079891204833984,-0.4966099262237549,-0.43118470907211304,9.84517765045166,0.13697654008865356,0.1532995104789734,0.27685409784317017,0.3318701684474945,0.7758663296699524,0.4008517265319824,-0.5750168561935425,-0.40246960520744324,-0.5888053774833679
2921570,9.188825607299805,0.36044982075691223,3.4736886024475098,0.45513126254081726,0.40686410665512085,0.4669130742549896,0.6990616917610168,-0.2807835638523102,-0.49654483795166016,-0.4311804175376892,9.849695205688477,0.1323319524526596,0.1675567775964737,0.2498326599597931,0.6540522575378418,0.7553889155387878,0.40094679594039917,-0.5749914050102234,-0.40236273407936096,-0.5888385772705078
2921736,9.154542922973633,0.3440296947956085,3.365248441696167,0.8893561363220215,0.13985173404216766,0.5243752598762512,0.6991360783576965,-0.28072506189346313,-0.49654167890548706,-0.43110162019729614,9.807068824768066,0.19818982481956482,0.15933792293071747,-0.03419295325875282,0.41138482093811035,0.27676448225975037,0.40096619725227356,-0.5749742388725281,-0.4022877812385559,-0.5888933539390564
2921903,9.170758247375488,0.3942553400993347,3.516855478286743,0.961186945438385,0.41064196825027466,0.47122883796691895,0.6991683840751648,-0.2807092070579529,-0.49648353457450867,-0.4311267137527466,9.82425308227539,0.19971686601638794,0.1611689329147339,-0.503942608833313,0.2920423746109009,-0.5149816870689392,0.40086090564727783,-0.5749519467353821,-0.40224218368530273,-0.5890179872512817
2922070,9.173604011535645,0.44738009572029114,3.495486259460449,0.7682337760925293,-0.74139803647995,-0.2553074061870575,0.6990894675254822,-0.28070077300071716,-0.49657347798347473,-0.43115630745887756,9.799372673034668,0.20554609596729279,0.19024397432804108,-0.8335908651351929,0.08223596960306168,-0.5275959968566895,0.4006931781768799,-0.5749775767326355,-0.4021664559841156,-0.5891587138175964
2922236,9.254554748535156,0.4314906895160675,3.429042339324951,0.2663016617298126,-0.43715760111808777,-0.3765963315963745,0.6990424394607544,-0.28066587448120117,-0.4966317117214203,-0.4311881959438324,9.83004379272461,0.19907885789871216,0.16527517139911652,-0.9439815878868103,0.25711947679519653,-0.19742268323898315,0.4006277620792389,-0.5749607086181641,-0.4021179974079132,-0.5892526507377625
2922403,9.23175048828125,0.3298225402832031,3.4805407524108887,0.538833498954773,0.4239349961280823,0.1703948825597763,0.699107825756073,-0.28057870268821716,-0.49660658836364746,-0.4311680495738983,9.830353736877441,0.20693908631801605,0.17876222729682922,-1.1405335664749146,0.5513838529586792,0.30986884236335754,0.4005621075630188,-0.574988603591919,-0.40195316076278687,-0.589382529258728
2922570,9.140539169311523,0.3627990782260895,3.508087635040283,0.2894939184188843,0.3969135582447052,0.5481181740760803,0.6991492509841919,-0.2805902063846588,-0.496527761220932,-0.431184321641922,9.8355073928833,0.2046143263578415,0.19870984554290771,-1.3172484636306763,0.8697624802589417,0.5035392642021179,0.4004775285720825,-0.575035572052002,-0.4017028212547302,-0.589564859867096
2922736,9.140301704406738,0.39080068469047546,3.5113492012023926,0.06598471850156784,-0.08974689245223999,0.45865297317504883,0.6992356777191162,-0.2805402874946594,-0.49654579162597656,-0.4310556650161743,9.824261665344238,0.19114141166210175,0.1918240338563919,-1.6180051565170288,1.0083781480789185,0.6921254396438599,0.40043094754219055,-0.575070858001709,-0.4014420509338379,-0.5897397398948669
2922903,9.153177261352539,0.37431803345680237,3.4828896522521973,-0.39629244804382324,-0.19615484774112701,0.3104323148727417,0.6992469429969788,-0.2805781662464142,-0.4965236485004425,-0.43103837966918945,9.78292179107666,0.14373549818992615,0.2187218815088272,-1.4904029369354248,0.9899500012397766,0.8041682839393616,0.40036943554878235,-0.5751292705535889,-0.40115126967430115,-0.5899224281311035
2923070,9.144240379333496,0.3820676803588867,3.493607521057129,-0.1900206208229065,-0.15516170859336853,0.18478921055793762,0.6992418169975281,-0.28060632944107056,-0.49650153517723083,-0.4310535788536072,9.777122497558594,0.08289492875337601,0.223432719707489,-1.102754831314087,0.6906912922859192,0.8421775698661804,0.4004552960395813,-0.5751062035560608,-0.40103021264076233,-0.5899688601493835
2923236,9.162665367126465,0.35165560245513916,3.4757373332977295,-0.12134015560150146,-0.18932905793190002,0.12196125835180283,0.6992197632789612,-0.28064051270484924,-0.496479868888855,-0.431092232465744,9.829387664794922,0.10134818404912949,0.20604203641414642,-0.6088778376579285,0.6175156831741333,0.7849459648132324,0.4004870355129242,-0.57511967420578,-0.4008694887161255,-0.5900433659553528
2923403,9.159299850463867,0.3229207992553711,3.4656167030334473,0.10573562234640121,0.017333392053842545,0.33669811487197876,0.6991937756538391,-0.2807030975818634,-0.49641481041908264,-0.43116843700408936,9.862822532653809,0.10839779675006866,0.21137338876724243,-0.07345723360776901,0.7820389866828918,0.5201106667518616,0.4005369544029236,-0.5750842690467834,-0.4007501006126404,-0.5901251435279846
2923570,9.161077499389648,0.3380947411060333,3.5165560245513916,0.5694407224655151,-0.022987399250268936,0.4075172543525696,0.6992180347442627,-0.28069421648979187,-0.4963985085487366,-0.43115371465682983,9.830121994018555,0.12978044152259827,0.21138040721416473,0.3130064010620117,0.821392834186554,0.2783139944076538,0.4006102681159973,-0.5750043988227844,-0.40068796277046204,-0.59019535779953
2923736,9.173393249511719,0.3905039429664612,3.536879777908325,0.26680105924606323,0.17143218219280243,0.04140932857990265,0.6992645859718323,-0.28062883019447327,-0.49638432264328003,-0.4311370849609375,9.778650283813477,0.13206852972507477,0.2001761496067047,0.5615264177322388,0.7050343155860901,0.1905776709318161,0.4007329046726227,-0.5748868584632874,-0.4007016122341156,-0.5902174115180969
2923903,9.169356346130371,0.3341536521911621,3.3952834606170654,0.30009758472442627,-0.17116966843605042,0.4001151919364929,0.6992807984352112,-0.2806406319141388,-0.4963718354701996,-0.43111762404441833,9.750621795654297,0.16583196818828583,0.19766417145729065,0.5634217262268066,0.23482361435890198,-0.01678912341594696,0.4007442593574524,-0.5748433470726013,-0.4006950557231903,-0.5902564525604248
2924070,9.232576370239258,0.35537290573120117,3.545511245727539,0.6860424876213074,0.11840111762285233,0.5762408971786499,0.6993199586868286,-0.2806372344493866,-0.49633339047431946,-0.4311005175113678,9.820572853088379,0.17843486368656158,0.17742279171943665,0.5880868434906006,-0.30644312500953674,-0.1521906554698944,0.4007226526737213,-0.5748312473297119,-0.40074265003204346,-0.590250551700592
2924236,9.138769149780273,0.38318321108818054,3.460949420928955,0.6357135772705078,-0.21049796044826508,0.2519713044166565,0.6993404626846313,-0.2806052565574646,-0.49635472893714905,-0.4310634136199951,9.840005874633789,0.18422116339206696,0.17491945624351501,0.3574572205543518,-0.2698553800582886,0.03175334259867668,0.40070873498916626,-0.5748337507247925,-0.40076398849487305,-0.5902431011199951
2924403,9.194064140319824,0.38373062014579773,3.4744713306427,0.6555505990982056,-0.47304093837738037,0.017384616658091545,0.6993017196655273,-0.28060030937194824,-0.4963974058628082,-0.4310804009437561,9.80926513671875,0.17129327356815338,0.18454280495643616,0.17606809735298157,-0.24522879719734192,0.3995772898197174,0.4006555676460266,-0.5749046206474304,-0.40068432688713074,-0.5902643203735352
2924570,9.19965934753418,0.3432021141052246,3.438457489013672,0.8391936421394348,-0.29892581701278687,0.38657885789871216,0.6993226408958435,-0.280572772026062,-0.4964306354522705,-0.4310261011123657,9.8043212890625,0.20579640567302704,0.19963106513023376,0.010840574279427528,-0.1612703800201416,0.7759559154510498,0.400700181722641,-0.574949324131012,-0.4006277322769165,-0.5902289152145386
2924736,9.205892562866211,0.34567171335220337,3.467350721359253,0.7295200824737549,-0.4090988337993622,0.5050888657569885,0.6993387937545776,-0.28057244420051575,-0.49646463990211487,-0.4309610426425934,9.809150695800781,0.20219343900680542,0.1810004860162735,-0.18014688789844513,-0.21069006621837616,0.8561365008354187,0.4007132053375244,-0.5750261545181274,-0.4005338251590729,-0.5902088284492493
2924903,9.192586898803711,0.3594159781932831,3.477961778640747,0.3600184917449951,-0.4248378276824951,0.4357680380344391,0.6992989778518677,-0.2806468904018402,-0.49645742774009705,-0.43098554015159607,9.806207656860352,0.19922730326652527,0.188593789935112,-0.48670530319213867,-0.3984183073043823,0.8015045523643494,0.4006880223751068,-0.5751308798789978,-0.4004344642162323,-0.5901913046836853
2925070,9.142556190490723,0.38635197281837463,3.4574413299560547,0.37743517756462097,-0.25360414385795593,0.4043668806552887,0.6992900967597961,-0.2806839346885681,-0.4964481592178345,-0.43098634481430054,9.820191383361816,0.17827434837818146,0.1884564906358719,-0.6922728419303894,-0.4057435691356659,0.718890905380249,0.4006798565387726,-0.5752144455909729,-0.4003671407699585,-0.590161144733429
2925236,9.159804344177246,0.38271141052246094,3.478262186050415,0.19553372263908386,-0.6634969711303711,0.3428707718849182,0.69920414686203,-0.2808017134666443,-0.4964488446712494,-0.43104827404022217,9.828595161437988,0.15851986408233643,0.18890100717544556,-0.6966654062271118,-0.36329054832458496,0.6553201079368591,0.40061154961586,-0.575329065322876,-0.4002479016780853,-0.5901767015457153
2925403,9.179713249206543,0.36691170930862427,3.4616005420684814,0.03490370884537697,-0.8090667724609375,0.2076229453086853,0.6991156935691833,-0.2809082269668579,-0.4964749813079834,-0.43109220266342163,9.824249267578125,0.15449190139770508,0.18349558115005493,-0.6162030696868896,-0.31639364361763,0.43930259346961975,0.4005221426486969,-0.5754308104515076,-0.40013933181762695,-0.5902117490768433
2925570,9.193170547485352,0.349914014339447,3.4592366218566895,0.2551473081111908,-0.5555010437965393,0.3192046880722046,0.6990483403205872,-0.2809995114803314,-0.49647656083106995,-0.43114012479782104,9.815655708312988,0.16265690326690674,0.1827046424150467,-0.5493667125701904,-0.33503973484039307,0.2611919045448303,0.40038907527923584,-0.5755425691604614,-0.4000204801559448,-0.5902737379074097
2925736,9.184966087341309,0.3796333074569702,3.461184024810791,0.5982037782669067,-0.5212951898574829,0.3287709653377533,0.6990474462509155,-0.28099799156188965,-0.4965282380580902,-0.431083083152771,9.796895027160645,0.1774294078350067,0.17998336255550385,-0.4735659956932068,-0.42551660537719727,-0.013792438432574272,0.40030133724212646,-0.5755957961082458,-0.40000298619270325,-0.5902931094169617
2925903,9.201803207397461,0.3874748945236206,3.470651865005493,0.48038536310195923,-0.5490209460258484,0.3152090311050415,0.6990330219268799,-0.281015545129776,-0.4965726435184479,-0.4310437738895416,9.792374610900879,0.17815949022769928,0.18286220729351044,-0.512317955493927,-0.6250138282775879,-0.15293341875076294,0.400137335062027,-0.575693666934967,-0.3999580442905426,-0.5903393030166626
2926070,9.189386367797852,0.4067363739013672,3.4595119953155518,0.4651458263397217,-0.5617120862007141,0.2760600447654724,0.6990146636962891,-0.2810320258140564,-0.49661967158317566,-0.43100863695144653,9.82590389251709,0.201528400182724,0.16595572233200073,-0.531822144985199,-0.6880468130111694,-0.13348059356212616,0.3999986946582794,-0.5757794380187988,-0.39994239807128906,-0.590360164642334
2926236,9.187487602233887,0.3988615572452545,3.439249277114868,0.2911331355571747,-0.4887799322605133,0.24486380815505981,0.6989823579788208,-0.28106987476348877,-0.4966440200805664,-0.4310082793235779,9.84074592590332,0.19534480571746826,0.169669508934021,-0.6493331789970398,-0.5845586061477661,-0.15740282833576202,0.3998139202594757,-0.5758885145187378,-0.3998749852180481,-0.5904247164726257
2926403,9.19100284576416,0.38114145398139954,3.428842544555664,0.37546297907829285,-0.42225098609924316,0.18735049664974213,0.6989896893501282,-0.2810497283935547,-0.4966931641101837,-0.4309529662132263,9.835299491882324,0.18953867256641388,0.18169647455215454,-0.5435400009155273,-0.4140421152114868,0.07976435124874115,0.39979612827301025,-0.5759037733078003,-0.39991259574890137,-0.5903964638710022
2926570,9.179780960083008,0.3791244626045227,3.44319748878479,0.515385091304779,-0.42998597025871277,0.24509432911872864,0.698935866355896,-0.28110024333000183,-0.49670496582984924,-0.4309937059879303,9.827561378479004,0.20012830197811127,0.18542248010635376,-0.47729259729385376,-0.26310643553733826,0.44195351004600525,0.39976567029953003,-0.575962245464325,-0.39986076951026917,-0.5903951525688171
2926737,9.19046688079834,0.38065865635871887,3.4776506423950195,0.4775807559490204,-0.36183059215545654,0.2428916096687317,0.6989166140556335,-0.28111374378204346,-0.4967285692691803,-0.4309889078140259,9.8168363571167,0.19517859816551208,0.1589769870042801,-0.2965053915977478,-0.17718864977359772,0.6433460712432861,0.39974871277809143,-0.5760302543640137,-0.3997800350189209,-0.5903949737548828
2926903,9.193663597106934,0.37370651960372925,3.4544875621795654,0.26818421483039856,-0.3230273723602295,0.36575576663017273,0.6989083886146545,-0.28114426136016846,-0.49673599004745483,-0.4309738278388977,9.834880828857422,0.1919529289007187,0.17007726430892944,-0.14154857397079468,-0.20547787845134735,0.7982645630836487,0.39973801374435425,-0.5761128067970276,-0.3996843993663788,-0.5903862714767456
2927070,9.193720817565918,0.35616162419319153,3.4419565200805664,0.37615448236465454,-0.5040194392204285,0.3362242579460144,0.6988867521286011,-0.2811763882637024,-0.4967680871486664,-0.43095099925994873,9.836776733398438,0.17856179177761078,0.1514204889535904,0.02327554300427437,0.11907985061407089,0.8944147229194641,0.3998166024684906,-0.5761306881904602,-0.3996238708496094,-0.5903565287590027
2927237,9.192021369934082,0.3570769429206848,3.466407299041748,0.2828986346721649,-0.13111139833927155,0.43551191687583923,0.6988729238510132,-0.28122684359550476,-0.49673861265182495,-0.43097445368766785,9.847379684448242,0.1613776832818985,0.19325338304042816,0.27529168128967285,0.28213024139404297,1.0173556804656982,0.39993390440940857,-0.5761287808418274,-0.39956358075141907,-0.5903198719024658
2927403,9.17917251586914,0.3615545630455017,3.4676730632781982,0.38473474979400635,-0.09672635793685913,0.5391920804977417,0.698914647102356,-0.2812235653400421,-0.4967353045940399,-0.43091264367103577,9.865594863891602,0.1614885777235031,0.16501712799072266,0.5638443827629089,0.6026219725608826,1.1518735885620117,0.40008416771888733,-0.5761048197746277,-0.3994770646095276,-0.5903000235557556
2927570,9.181035995483398,0.37105295062065125,3.466510772705078,0.48578962683677673,-0.29870808124542236,0.5444939136505127,0.6989439725875854,-0.28122591972351074,-0.4967568516731262,-0.4308387041091919,9.82614803314209,0.16743633151054382,0.17429588735103607,0.67856365442276,0.7275223731994629,1.2249977588653564,0.40025442838668823,-0.5760701298713684,-0.39938414096832275,-0.5902814865112305
2927737,9.202081680297852,0.36253833770751953,3.456183671951294,0.5799547433853149,-0.15811999142169952,0.7299171090126038,0.6990073919296265,-0.28121331334114075,-0.49676793813705444,-0.4307311773300171,9.802785873413086,0.17164024710655212,0.18540173768997192,0.7150745987892151,0.4709470868110657,1.1160926818847656,0.40035367012023926,-0.5760824084281921,-0.3992701470851898,-0.5902791023254395
2927903,9.17956256866455,0.3575848937034607,3.484407424926758,0.7475770711898804,-0.2641693949699402,0.7932189106941223,0.6990137100219727,-0.2812647819519043,-0.49675828218460083,-0.4306985139846802,9.81760311126709,0.18224690854549408,0.202727809548378,0.6805486083030701,0.38263455033302307,1.0537768602371216,0.40045037865638733,-0.5760932564735413,-0.39917439222335815,-0.5902676582336426
2928070,9.185742378234863,0.3672826588153839,3.4727094173431396,0.5325968861579895,-0.4508090913295746,0.6856710910797119,0.6990113258361816,-0.2813185155391693,-0.49677136540412903,-0.43065211176872253,9.810590744018555,0.18983040750026703,0.20147381722927094,0.5220956802368164,0.2683121860027313,1.0104401111602783,0.4005540907382965,-0.5760994553565979,-0.3991055488586426,-0.5902377963066101
2928237,9.194845199584961,0.38485413789749146,3.454936981201172,0.3999999165534973,-0.3828970193862915,0.6788325309753418,0.6989834308624268,-0.28140947222709656,-0.49675318598747253,-0.43065914511680603,9.796380996704102,0.19316284358501434,0.1816689819097519,0.27490749955177307,0.16351786255836487,0.8466085195541382,0.4006046950817108,-0.5761272311210632,-0.39902395009994507,-0.5902315378189087
2928403,9.19800853729248,0.3846282362937927,3.4528675079345703,0.36036425828933716,-0.26002010703086853,0.598690390586853,0.6990078091621399,-0.2814328074455261,-0.49675634503364563,-0.43060073256492615,9.804893493652344,0.207144632935524,0.21313481032848358,0.016885172575712204,0.13536952435970306,0.7318509221076965,0.4006415903568268,-0.5761522650718689,-0.39895138144493103,-0.59023118019104
2928570,9.181158065795898,0.3687892258167267,3.4603774547576904,0.42737987637519836,-0.3253709375858307,0.6254301071166992,0.6989844441413879,-0.28150951862335205,-0.4967386722564697,-0.43060892820358276,9.805760383605957,0.1818823218345642,0.16582515835762024,-0.20044498145580292,0.12472743541002274,0.7576684355735779,0.40068238973617554,-0.5761775970458984,-0.39887937903404236,-0.5902274250984192
2928737,9.179884910583496,0.3765352964401245,3.460491895675659,0.4740334451198578,-0.2171444594860077,0.6365588307380676,0.6989878416061401,-0.28155648708343506,-0.49672308564186096,-0.4305904507637024,9.817185401916504,0.1814296841621399,0.19982513785362244,-0.3781202435493469,0.046800803393125534,0.9617248177528381,0.4006827175617218,-0.5762575268745422,-0.39874282479286194,-0.5902414321899414
2928903,9.183201789855957,0.37138423323631287,3.4711897373199463,0.4959834814071655,-0.28973084688186646,0.6830714344978333,0.6989818215370178,-0.2816181778907776,-0.4967091679573059,-0.43057599663734436,9.81900405883789,0.158610537648201,0.18779230117797852,-0.4443034827709198,-0.06627286970615387,1.00538170337677,0.40065497159957886,-0.5763663649559021,-0.3985846936702728,-0.5902607440948486
2929070,9.164834022521973,0.36354881525039673,3.434523344039917,0.49206477403640747,-0.36367470026016235,0.8977058529853821,0.6989837288856506,-0.2817001938819885,-0.49669355154037476,-0.43053728342056274,9.849325180053711,0.13497424125671387,0.17375071346759796,-0.3568745255470276,0.060785334557294846,1.087905764579773,0.4006626307964325,-0.5764546990394592,-0.39843329787254333,-0.5902714729309082
2929237,9.197090148925781,0.35252490639686584,3.439767837524414,0.14800938963890076,-0.4276424050331116,0.7000910639762878,0.6989262104034424,-0.281839519739151,-0.49665263295173645,-0.4305868148803711,9.765178680419922,0.11233827471733093,0.1670067459344864,-0.15754368901252747,0.19470131397247314,1.0740236043930054,0.4006929397583008,-0.576519787311554,-0.3982917070388794,-0.5902828574180603
2929403,9.215568542480469,0.3516889810562134,3.4588310718536377,0.14879056811332703,-0.384408175945282,0.7461683750152588,0.6988880038261414,-0.2819640338420868,-0.4966143071651459,-0.43061134219169617,9.856698036193848,0.11226125806570053,0.1722046136856079,0.01802493818104267,-0.20136703550815582,1.0010915994644165,0.40066543221473694,-0.5766340494155884,-0.39815184473991394,-0.5902842879295349
2929570,9.180253028869629,0.3450789749622345,3.4463086128234863,0.2398437261581421,-0.22608332335948944,0.5814658999443054,0.6988538503646851,-0.28205835819244385,-0.4965718686580658,-0.430653840303421,9.840717315673828,0.12051818519830704,0.1327631175518036,0.325210839509964,0.15504007041454315,0.6613646745681763,0.40068674087524414,-0.5766593217849731,-0.39807671308517456,-0.5902959108352661
2929737,9.170855522155762,0.32382166385650635,3.3650529384613037,0.5484510660171509,-0.02862219139933586,0.7699881792068481,0.6988821625709534,-0.2820955514907837,-0.49653637409210205,-0.43062472343444824,9.834022521972656,0.1625886857509613,0.19159530103206635,0.40532734990119934,-0.012895993888378143,0.18332931399345398,0.4006917178630829,-0.5766484141349792,-0.39808574318885803,-0.5902969241142273
2929903,9.17482852935791,0.3590320944786072,3.5014028549194336,1.1748096942901611,0.12830042839050293,0.709939181804657,0.6989502310752869,-0.2820476293563843,-0.49653172492980957,-0.43055105209350586,9.866487503051758,0.1612476110458374,0.19895870983600616,0.22401505708694458,0.09365923702716827,-0.48201820254325867,0.4006159007549286,-0.5766100883483887,-0.39811500906944275,-0.5903663039207458
2930070,9.192989349365234,0.40899229049682617,3.504006862640381,0.986108124256134,-0.9747938513755798,0.13727766275405884,0.6988903284072876,-0.28205201029777527,-0.4966469705104828,-0.43051236867904663,9.840126991271973,0.16465234756469727,0.2274894267320633,0.18922021985054016,0.41534188389778137,-0.47097912430763245,0.4005919098854065,-0.5765226483345032,-0.3981563448905945,-0.590440034866333
2930237,9.28003978729248,0.41277647018432617,3.4152824878692627,0.3508235812187195,-0.7813026309013367,-0.17393584549427032,0.6987655162811279,-0.282123863697052,-0.49669361114501953,-0.4306141436100006,9.850102424621582,0.1774963140487671,0.19910353422164917,0.22420717775821686,0.899473249912262,-0.08226799219846725,0.4006524682044983,-0.5763999819755554,-0.39815962314605713,-0.5905163884162903
2930403,9.2431640625,0.3092718720436096,3.4700543880462646,0.8440216183662415,0.35636869072914124,0.6914852857589722,0.6988513469696045,-0.2820735275745392,-0.49665671586990356,-0.43055012822151184,9.836602210998535,0.19701936841011047,0.21361739933490753,0.304733544588089,1.0966782569885254,0.42668840289115906,0.40073564648628235,-0.5763110518455505,-0.39807790517807007,-0.5906018018722534
2930570,9.126505851745605,0.343994140625,3.5272269248962402,0.8827610015869141,0.09473497420549393,0.9609821438789368,0.6989495754241943,-0.2820412218570709,-0.4966456890106201,-0.4304247498512268,9.8337984085083,0.21874839067459106,0.26185300946235657,0.05506090447306633,1.3236068487167358,0.5769068598747253,0.40077316761016846,-0.576259195804596,-0.39790013432502747,-0.5907467603683472
2930737,9.14686107635498,0.3647453486919403,3.54853892326355,0.6131359934806824,-0.644966185092926,0.8154891729354858,0.6989319324493408,-0.28212106227874756,-0.49666979908943176,-0.43037334084510803,9.80251693725586,0.1927361786365509,0.23184432089328766,-0.174102321267128,1.2636730670928955,0.8593636155128479,0.4008282423019409,-0.5762303471565247,-0.39769867062568665,-0.5908733606338501
2930903,9.154166221618652,0.35931795835494995,3.4855148792266846,0.23464435338974,-0.5998879075050354,0.759871244430542,0.69891357421875,-0.2822151780128479,-0.49667632579803467,-0.4303339123725891,9.75906753540039,0.14294713735580444,0.24625305831432343,-0.12052056938409805,1.0653154850006104,1.2239989042282104,0.4009109437465668,-0.5762333869934082,-0.3974866271018982,-0.5909568667411804
2931070,9.132513999938965,0.35580822825431824,3.484113931655884,0.2561205327510834,-0.5536568760871887,0.6726342439651489,0.6987675428390503,-0.28244349360466003,-0.4965994954109192,-0.4305098354816437,9.766803741455078,0.1347752809524536,0.23148110508918762,0.10523615777492523,0.585960865020752,1.4164142608642578,0.40104350447654724,-0.5762470960617065,-0.3973465859889984,-0.5909476280212402
2931237,9.144636154174805,0.3245314657688141,3.463256359100342,0.19705769419670105,-0.7633992433547974,0.7200562357902527,0.6987097263336182,-0.28257572650909424,-0.49660518765449524,-0.4305102527141571,9.809732437133789,0.12347585707902908,0.24740104377269745,0.3669339418411255,0.21990422904491425,1.4516189098358154,0.40118804574012756,-0.5762734413146973,-0.3972552716732025,-0.5908852219581604
2931403,9.174964904785156,0.32265451550483704,3.427243947982788,0.06289838254451752,-0.7848499417304993,0.7657108306884766,0.6986584663391113,-0.2827140986919403,-0.4966091811656952,-0.4304979741573334,9.820026397705078,0.12024855613708496,0.2389027625322342,0.5037185549736023,0.1895531862974167,1.0942193269729614,0.40128248929977417,-0.5762931704521179,-0.39717864990234375,-0.5908535122871399
2931570,9.192296028137207,0.3331122100353241,3.4737532138824463,0.20860902965068817,-0.5619041919708252,0.7005776762962341,0.6986492872238159,-0.2827911972999573,-0.4966183602809906,-0.4304516613483429,9.806532859802246,0.13121353089809418,0.21417513489723206,0.5676094889640808,-0.03143959119915962,0.9428227543830872,0.40130919218063354,-0.57635098695755,-0.39708662033081055,-0.5908408761024475
2931737,9.171784400939941,0.37366360425949097,3.491326093673706,-0.018979009240865707,-0.41306883096694946,0.4644286334514618,0.6985931396484375,-0.2829045355319977,-0.4965848922729492,-0.43050694465637207,9.801334381103516,0.13701124489307404,0.2254263162612915,0.7649168372154236,-0.317827969789505,0.9368420839309692,0.40137049555778503,-0.5763977766036987,-0.3970631957054138,-0.5907691717147827
2931903,9.159902572631836,0.3074868321418762,3.385498285293579,0.017538296058773994,-0.71889728307724,0.6263009905815125,0.6985593438148499,-0.2830067574977875,-0.4965992867946625,-0.43047812581062317,9.772310256958008,0.16964875161647797,0.20593175292015076,0.6584704518318176,-0.6375640630722046,0.7752387523651123,0.40143078565597534,-0.5764418840408325,-0.3971022367477417,-0.5906589031219482
2932070,9.235249519348145,0.33301132917404175,3.4403927326202393,0.746552586555481,-0.5928828120231628,1.1133520603179932,0.6985707879066467,-0.2830902338027954,-0.49661096930503845,-0.43039119243621826,9.831729888916016,0.17068637907505035,0.1948765218257904,0.5077909827232361,-0.9508714079856873,0.3687780499458313,0.4014320373535156,-0.5764932632446289,-0.39718806743621826,-0.5905501842498779
2932237,9.173811912536621,0.36775901913642883,3.4339985847473145,0.4449373781681061,-0.6464261412620544,0.6151465773582458,0.6984989643096924,-0.2832130491733551,-0.4966059923171997,-0.4304325580596924,9.821624755859375,0.16421397030353546,0.19909250736236572,0.26174259185791016,-1.0258910655975342,0.5554946660995483,0.4013715088367462,-0.5766110420227051,-0.3971909284591675,-0.5904743075370789
2932403,9.196524620056152,0.4105057418346405,3.4491584300994873,0.218239426612854,-0.9806718230247498,0.3057708144187927,0.6984421610832214,-0.2832787036895752,-0.4966786205768585,-0.4303978979587555,9.834794998168945,0.17840717732906342,0.20682641863822937,-0.0009476697887293994,-0.9566214680671692,0.8892536759376526,0.4013207256793976,-0.5767576694488525,-0.3971391022205353,-0.5904005765914917
2932570,9.217752456665039,0.3400627076625824,3.451343297958374,-0.05154555290937424,-0.8077093362808228,0.5962443947792053,0.6983551383018494,-0.28343841433525085,-0.49667224287986755,-0.43044114112854004,9.821036338806152,0.1585443764925003,0.1961788684129715,-0.2955833375453949,-0.9469398856163025,1.0413035154342651,0.40128275752067566,-0.5769127607345581,-0.39707285165786743,-0.5903194546699524
2932737,9.207744598388672,0.3148760497570038,3.441248893737793,-0.0745713859796524,-0.7662680149078369,0.7927835583686829,0.6983071565628052,-0.2835834324359894,-0.49666839838027954,-0.43042799830436707,9.821956634521484,0.16646067798137665,0.18885600566864014,-0.4233779013156891,-0.7195760011672974,1.0845376253128052,0.40125367045402527,-0.5770559906959534,-0.39698219299316406,-0.5902602672576904
2932903,9.19311237335205,0.32702314853668213,3.454233169555664,0.022494353353977203,-1.0449085235595703,0.6613903045654297,0.698240339756012,-0.28372058272361755,-0.49670761823654175,-0.4304007589817047,9.788878440856934,0.14367911219596863,0.17500382661819458,-0.612745463848114,-0.6331844329833984,0.9633001089096069,0.4011838436126709,-0.5772082209587097,-0.39686229825019836,-0.590239405632019
2933070,9.19825553894043,0.3411228060722351,3.435488224029541,-0.0578334741294384,-0.9999709725379944,0.41992658376693726,0.6981453895568848,-0.283860445022583,-0.4967382848262787,-0.43042701482772827,9.818986892700195,0.1311480551958084,0.17836692929267883,-0.6493971943855286,-0.8239221572875977,0.7491394281387329,0.4011177718639374,-0.57734215259552,-0.39680448174476624,-0.5901921391487122
2933237,9.156527519226074,0.35910624265670776,3.4532735347747803,-0.2783460319042206,-0.9406777024269104,0.2967551648616791,0.6980409026145935,-0.2840064465999603,-0.4967562258243561,-0.4304794371128082,9.821174621582031,0.10892405360937119,0.16860947012901306,-0.6043059825897217,-0.8077860474586487,0.5467734336853027,0.4010378122329712,-0.5774610042572021,-0.39676588773727417,-0.5901561379432678
2933403,9.169393539428711,0.32286280393600464,3.4446282386779785,-0.3814627528190613,-1.1546974182128906,0.3712368607521057,0.6979535222053528,-0.28414401412010193,-0.4968075454235077,-0.4304712414741516,9.827776908874512,0.12884747982025146,0.16622290015220642,-0.4766395688056946,-0.6817204356193542,0.2572091221809387,0.40094512701034546,-0.5775488615036011,-0.3967497944831848,-0.5901440382003784
2933570,9.199421882629395,0.3172477185726166,3.4140713214874268,0.07692135125398636,-1.0968639850616455,0.3176807463169098,0.6978207230567932,-0.2843030095100403,-0.49684014916419983,-0.4305439293384552,9.843954086303711,0.1403983235359192,0.1562659591436386,-0.38224390149116516,-0.5402358770370483,-0.1444428265094757,0.40081292390823364,-0.5776098370552063,-0.3967472016811371,-0.5901758670806885
2933737,9.212321281433105,0.3379216194152832,3.416058301925659,0.38333889842033386,-0.9279353022575378,0.3079991340637207,0.6977684497833252,-0.28435492515563965,-0.49691230058670044,-0.43051114678382874,9.850520133972168,0.15299730002880096,0.1563410609960556,-0.4204324185848236,-0.3091580867767334,-0.3551456332206726,0.40064606070518494,-0.577658474445343,-0.39672011137008667,-0.5902597904205322
2933903,9.20468807220459,0.36731386184692383,3.449171543121338,0.2537129819393158,-1.071199893951416,0.19351033866405487,0.697615921497345,-0.28450989723205566,-0.49694424867630005,-0.43061891198158264,9.82339859008789,0.16392995417118073,0.1338505744934082,-0.49403053522109985,-0.27937051653862,-0.40640950202941895,0.40051165223121643,-0.5776780247688293,-0.39673081040382385,-0.5903246998786926
2934070,9.215723991394043,0.3679333031177521,3.429903984069824,0.22345158457756042,-0.9700425863265991,0.11048677563667297,0.6974915862083435,-0.2846234142780304,-0.49698567390441895,-0.43069759011268616,9.83890438079834,0.1688685119152069,0.16660119593143463,-0.5256109833717346,0.010712510906159878,-0.5609309077262878,0.40037328004837036,-0.5776684284210205,-0.3967314064502716,-0.590427577495575
2934237,9.210784912109375,0.35075637698173523,3.4525766372680664,0.2618706226348877,-0.9173187613487244,0.1270325779914856,0.69744473695755,-0.284648060798645,-0.49707090854644775,-0.43065857887268066,9.841085433959961,0.19810262322425842,0.16017180681228638,-0.7768331170082092,0.32241907715797424,-0.552350640296936,0.40024271607398987,-0.5776398181915283,-0.39670252799987793,-0.5905635356903076
2934403,9.20684814453125,0.34766045212745667,3.442303419113159,0.3264274299144745,-0.9170499444007874,0.11685153096914291,0.697368860244751,-0.28470155596733093,-0.4971393048763275,-0.4306672513484955,9.820928573608398,0.21189387142658234,0.16882933676242828,-0.8464100360870361,0.45347920060157776,-0.40150466561317444,0.4000123143196106,-0.5776882767677307,-0.3965364396572113,-0.5907835960388184
2934570,9.224282264709473,0.3744114935398102,3.4210174083709717,0.5537785887718201,-0.913938045501709,0.23682144284248352,0.6973017454147339,-0.28474974632263184,-0.4972110092639923,-0.43066126108169556,9.824307441711426,0.19225189089775085,0.16986438632011414,-0.9388718605041504,0.5052680969238281,-0.05998493731021881,0.3998889625072479,-0.5777014493942261,-0.39641299843788147,-0.5909371376037598
2934737,9.206050872802734,0.35378220677375793,3.422783136367798,0.613110363483429,-0.6748049855232239,0.26603269577026367,0.697247326374054,-0.28478869795799255,-0.49725526571273804,-0.43067240715026855,9.80317211151123,0.18728923797607422,0.17640666663646698,-0.9111974239349365,0.6786660552024841,0.14739467203617096,0.39979878067970276,-0.5777074098587036,-0.39626848697662354,-0.5910891890525818
2934903,9.186860084533691,0.35232654213905334,3.43172025680542,0.5277177095413208,-0.6286380887031555,0.28519099950790405,0.6972060799598694,-0.2848203480243683,-0.4972967803478241,-0.4306703209877014,9.798452377319336,0.18049240112304688,0.1861627995967865,-0.8181721568107605,0.45719313621520996,0.34435635805130005,0.3997005820274353,-0.5777510404586792,-0.3961097300052643,-0.5912192463874817
2935070,9.191580772399902,0.3579387366771698,3.3988592624664307,0.19403541088104248,-0.6714625358581543,0.26418858766555786,0.697084903717041,-0.2849583327770233,-0.49728119373321533,-0.4307933747768402,9.825153350830078,0.18382321298122406,0.19432884454727173,-0.6054585576057434,0.3829546570777893,0.4467815160751343,0.3996230363845825,-0.5777952075004578,-0.3959641754627228,-0.591326117515564
2935237,9.225341796875,0.3529576361179352,3.3833210468292236,0.2796458601951599,-0.5108708739280701,0.3092285096645355,0.6970430016517639,-0.2850095331668854,-0.49729374051094055,-0.43081289529800415,9.837160110473633,0.1673484891653061,0.1875087320804596,-0.3929116129875183,0.5493603348731995,0.5563782453536987,0.39961934089660645,-0.5777937769889832,-0.3958550691604614,-0.5914031267166138
2935403,9.190953254699707,0.350428968667984,3.4339492321014404,0.24764281511306763,-0.35850098729133606,0.26685234904289246,0.6969614624977112,-0.2851049602031708,-0.4972599148750305,-0.4309205710887909,9.819522857666016,0.15718981623649597,0.19804643094539642,-0.12121210247278214,0.5498085618019104,0.7369862198829651,0.3996797502040863,-0.57776939868927,-0.39578014612197876,-0.5914363265037537
2935570,9.18104362487793,0.3290364742279053,3.4321327209472656,0.4951767027378082,-0.40192726254463196,0.4340391755104065,0.6969846487045288,-0.28508898615837097,-0.49729689955711365,-0.43085095286369324,9.804458618164062,0.1572958081960678,0.2130313664674759,0.16857637465000153,0.45287734270095825,0.7628293633460999,0.39971891045570374,-0.5777655839920044,-0.3956926465034485,-0.5914720296859741
2935737,9.203554153442383,0.3397558927536011,3.4184672832489014,0.5207637548446655,-0.47473129630088806,0.5121451020240784,0.6970009207725525,-0.2850891351699829,-0.4973343312740326,-0.43078115582466125,9.825471878051758,0.15574747323989868,0.19606883823871613,0.4354863166809082,0.25080594420433044,0.7421726584434509,0.39971020817756653,-0.5777997970581055,-0.3955862522125244,-0.5915156006813049
2935903,9.214025497436523,0.35372620820999146,3.4325907230377197,0.489413857460022,-0.5121002793312073,0.4998254179954529,0.6970117688179016,-0.28509482741355896,-0.4973733425140381,-0.4307149052619934,9.84714126586914,0.15936510264873505,0.19650965929031372,0.547055184841156,0.23365823924541473,0.6507098078727722,0.3997986614704132,-0.5777592658996582,-0.39559343457221985,-0.591490626335144
2936070,9.21205997467041,0.35670194029808044,3.4067020416259766,0.38924261927604675,-0.39885374903678894,0.467886358499527,0.6969490051269531,-0.28518882393836975,-0.4973449409008026,-0.4307871162891388,9.846160888671875,0.18215054273605347,0.2165357768535614,0.5542780160903931,0.3114568293094635,0.5370662808418274,0.3998924493789673,-0.5776979923248291,-0.39561671018600464,-0.5914715528488159
2936237,9.194854736328125,0.360091894865036,3.4170124530792236,0.38473477959632874,-0.3585265874862671,0.4417998194694519,0.696954071521759,-0.28520095348358154,-0.4973580837249756,-0.4307556450366974,9.832162857055664,0.1922423541545868,0.210409477353096,0.47431519627571106,0.3641037046909332,0.38842299580574036,0.39992856979370117,-0.5776548981666565,-0.39560288190841675,-0.5914984345436096
2936403,9.197673797607422,0.3532021641731262,3.4429686069488525,0.4749426543712616,-0.458889901638031,0.5235556364059448,0.6969127655029297,-0.2852715253829956,-0.49735140800476074,-0.4307834804058075,9.796829223632812,0.17939703166484833,0.21358929574489594,0.38388949632644653,0.38306987285614014,0.5765354037284851,0.3999793529510498,-0.5776222944259644,-0.39557015895843506,-0.5915178656578064
2936570,9.199220657348633,0.3662486672401428,3.431513786315918,0.49949243664741516,-0.517274022102356,0.5637291073799133,0.6969095468521118,-0.2853007912635803,-0.4973762333393097,-0.430740624666214,9.81234359741211,0.20538873970508575,0.2099054902791977,0.29261869192123413,0.13538230955600739,0.7646863460540771,0.40006381273269653,-0.5776003003120422,-0.39556756615638733,-0.5914839506149292
2936737,9.21366024017334,0.37601158022880554,3.4296066761016846,0.4909633994102478,-0.41927987337112427,0.647495448589325,0.6968955397605896,-0.2853569984436035,-0.4973715543746948,-0.43073147535324097,9.804497718811035,0.18358460068702698,0.21448303759098053,0.08752500265836716,0.15078836679458618,0.8186652064323425,0.4000905156135559,-0.5776217579841614,-0.3954978883266449,-0.5914915204048157
2936903,9.19782829284668,0.35310158133506775,3.396043539047241,0.5814530253410339,-0.5197200775146484,0.6374168395996094,0.6969078183174133,-0.2853738069534302,-0.4974035322666168,-0.4306636452674866,9.772371292114258,0.17986343801021576,0.1914634108543396,-0.03133714199066162,0.031228285282850266,0.8408585786819458,0.4001147449016571,-0.577652633190155,-0.39543604850769043,-0.5914862751960754
2937070,9.202242851257324,0.350811630487442,3.4277589321136475,0.3392850458621979,-0.2967871427536011,0.6532070636749268,0.6968953013420105,-0.2854386568069458,-0.49737584590911865,-0.4306727349758148,9.780893325805664,0.17085784673690796,0.17898160219192505,0.021725969389081,-0.046679139137268066,0.8908032774925232,0.4001331031322479,-0.5776961445808411,-0.3953701853752136,-0.5914753675460815
2937237,9.20889949798584,0.3598385155200958,3.402897834777832,0.42034924030303955,-0.40355372428894043,0.6359313130378723,0.6969007849693298,-0.2854732573032379,-0.4973803758621216,-0.43063563108444214,9.848428726196289,0.14299066364765167,0.16949452459812164,-0.04493748024106026,-0.15057705342769623,1.0037935972213745,0.40015819668769836,-0.5777528285980225,-0.39530453085899353,-0.5914469361305237
2937403,9.210235595703125,0.34171733260154724,3.382126569747925,0.566623330116272,-0.2439737766981125,0.49950525164604187,0.6969560980796814,-0.2854255139827728,-0.4974111020565033,-0.4305424392223358,9.850076675415039,0.163153737783432,0.1651957631111145,-0.006877009756863117,-0.016712285578250885,0.7854838371276855,0.4001825749874115,-0.5777783393859863,-0.39526045322418213,-0.5914350748062134
2937570,9.169105529785156,0.3266289532184601,3.353957414627075,0.6455488204956055,0.3197041153907776,0.7203506827354431,0.6970537304878235,-0.28536829352378845,-0.4973700940608978,-0.4304696321487427,9.841163635253906,0.17686133086681366,0.18467853963375092,-0.1645359843969345,-0.014483981765806675,0.42116880416870117,0.4001504182815552,-0.5777994990348816,-0.39522239565849304,-0.5914615988731384
2937737,9.178892135620117,0.35823118686676025,3.3524746894836426,1.1133136749267578,0.12074467539787292,0.6304885745048523,0.6971266269683838,-0.2852976322174072,-0.49736618995666504,-0.4304029941558838,9.883081436157227,0.17617827653884888,0.19729220867156982,-0.4549328088760376,0.29273396730422974,-0.2087050974369049,0.400041788816452,-0.5777844786643982,-0.39518025517463684,-0.5915776491165161
2937903,9.258342742919922,0.392978698015213,3.499511957168579,0.48073112964630127,-0.3324016034603119,0.009009266272187233,0.6971014738082886,-0.28527408838272095,-0.4973949193954468,-0.43042615056037903,9.824715614318848,0.16901448369026184,0.18479683995246887,-0.6479628682136536,0.4858792722225189,-0.25535860657691956,0.3999321460723877,-0.5777555704116821,-0.39512303471565247,-0.5917184352874756
2938070,9.283973693847656,0.4132271707057953,3.3942105770111084,0.35041379928588867,0.1281723529100418,-0.4459299147129059,0.6970584988594055,-0.28522124886512756,-0.49737557768821716,-0.4305528998374939,9.829107284545898,0.17266561090946198,0.1894015520811081,-0.5840847492218018,0.6199233531951904,-0.20438933372497559,0.3998267948627472,-0.5777225494384766,-0.3950471580028534,-0.59187251329422
2938237,9.233872413635254,0.3572482764720917,3.4276788234710693,0.5589139461517334,0.98347008228302,-0.05893482267856598,0.697093665599823,-0.28514015674591064,-0.49725601077079773,-0.43068766593933105,9.83396053314209,0.18998707830905914,0.256928414106369,-0.44229286909103394,0.9301443696022034,-0.04040403291583061,0.3997672200202942,-0.5776621103286743,-0.3949544131755829,-0.5920335650444031
2938403,9.145811080932617,0.33971890807151794,3.4902186393737793,0.9311561584472656,1.1559460163116455,0.3881284296512604,0.6972193121910095,-0.28500211238861084,-0.49714723229408264,-0.430701345205307,9.790434837341309,0.19550302624702454,0.22941221296787262,-0.5266355276107788,1.3379241228103638,0.15684576332569122,0.3997074067592621,-0.5776040554046631,-0.3947818875312805,-0.5922456383705139
2938570,9.14691162109375,0.35975760221481323,3.4717533588409424,0.8906495571136475,0.49895456433296204,0.2506778836250305,0.6972981095314026,-0.28488674759864807,-0.49711447954177856,-0.4306880831718445,9.776656150817871,0.17217883467674255,0.27040719985961914,-0.5568712949752808,1.252928376197815,0.13164286315441132,0.39968734979629517,-0.577520489692688,-0.3946629762649536,-0.5924200415611267
2938737,9.16506576538086,0.3544502556324005,3.45664381980896,1.0381660461425781,0.5943748354911804,0.292080819606781,0.6973544359207153,-0.2847975790500641,-0.4970530569553375,-0.4307267665863037,9.802916526794434,0.1624312400817871,0.24369321763515472,-0.6019240617752075,1.2981860637664795,0.3370310962200165,0.3996751010417938,-0.5774521827697754,-0.3945121169090271,-0.5925953388214111
2938903,9.146355628967285,0.35431239008903503,3.4351930618286133,0.8259007334709167,0.8581215739250183,0.2127327024936676,0.6974331736564636,-0.28468766808509827,-0.49696579575538635,-0.4307725727558136,9.796355247497559,0.138466015458107,0.23956653475761414,-0.24049043655395508,1.180418848991394,0.4445275664329529,0.39975181221961975,-0.5773419141769409,-0.39444541931152344,-0.592695415019989
2939070,9.141961097717285,0.35221806168556213,3.446110248565674,0.7321838736534119,0.8296273946762085,0.11441832780838013,0.6974913477897644,-0.2845914363861084,-0.4968737065792084,-0.43084827065467834,9.850567817687988,0.15110835433006287,0.2546572983264923,0.05887719988822937,1.127144455909729,0.618399441242218,0.3998357057571411,-0.5772480964660645,-0.3943638801574707,-0.5927842855453491
2939237,9.1621732711792,0.3254919648170471,3.4686689376831055,0.8539466261863708,0.9844689965248108,0.09253228455781937,0.6975838541984558,-0.2844484746456146,-0.49678730964660645,-0.4308925271034241,9.841631889343262,0.16871050000190735,0.2598983645439148,0.3598456382751465,1.352120041847229,0.320991188287735,0.3999291956424713,-0.5771020650863647,-0.3943175673484802,-0.5928943753242493
2939403,9.159087181091309,0.34722164273262024,3.466378927230835,1.068965196609497,1.0568631887435913,0.2836030423641205,0.6976898312568665,-0.2843075096607208,-0.49668997526168823,-0.43092599511146545,9.831398963928223,0.16647754609584808,0.2523539364337921,0.3185003399848938,1.1895115375518799,0.23285147547721863,0.3999549150466919,-0.5769975185394287,-0.39423877000808716,-0.5930310487747192
2939570,9.175034523010254,0.38066911697387695,3.5311203002929688,0.9636586904525757,0.9685507416725159,0.008906816132366657,0.6977327466011047,-0.2842037081718445,-0.49658235907554626,-0.43104904890060425,9.847823143005371,0.16570886969566345,0.2683846652507782,0.431324303150177,1.0750482082366943,0.25487834215164185,0.4000222682952881,-0.5768730640411377,-0.3942108452320099,-0.5931251645088196
2939737,9.182848930358887,0.35236167907714844,3.435607671737671,0.6137763261795044,0.8457505106925964,0.12372855842113495,0.6978006958961487,-0.2841035723686218,-0.49648699164390564,-0.4311150908470154,9.773826599121094,0.1955273449420929,0.2517927885055542,0.4919239580631256,0.7263184785842896,0.46033063530921936,0.4000483751296997,-0.5768153667449951,-0.39414873719215393,-0.5932049751281738
2939903,9.230090141296387,0.30730104446411133,3.4146833419799805,1.2556688785552979,0.8385918140411377,0.630847156047821,0.6979326605796814,-0.2839677333831787,-0.4964158535003662,-0.43107274174690247,9.790715217590332,0.22896309196949005,0.2546903192996979,0.3231618106365204,0.09606683254241943,0.20175763964653015,0.4000239074230194,-0.5767919421195984,-0.3941527307033539,-0.5932415723800659
2940070,9.16486644744873,0.35738134384155273,3.5036938190460205,0.8421775698661804,0.6537448763847351,0.3678559958934784,0.6980022192001343,-0.28388455510139465,-0.4963380992412567,-0.4311043918132782,9.81855583190918,0.2078634798526764,0.27201706171035767,0.1205141693353653,-0.23764744400978088,0.279633104801178,0.40002623200416565,-0.5767757892608643,-0.3942079544067383,-0.5932190418243408
2940237,9.204968452453613,0.4103662967681885,3.4482967853546143,1.128758192062378,-0.19612924754619598,0.11128076910972595,0.6979888677597046,-0.2838270366191864,-0.49636295437812805,-0.431135356426239,9.802709579467773,0.19062258303165436,0.25874218344688416,-0.009771243669092655,-0.4637691080570221,0.6347402930259705,0.4000142514705658,-0.5768201351165771,-0.39421555399894714,-0.5931790471076965
2940403,9.2269868850708,0.35945889353752136,3.4494378566741943,0.6583680510520935,0.2537385821342468,0.05661046877503395,0.6980303525924683,-0.2837317883968353,-0.496345579624176,-0.43115079402923584,9.797159194946289,0.1872245967388153,0.25023990869522095,-0.06444155424833298,-0.7738748788833618,0.9713040590286255,0.39999884366989136,-0.576919674873352,-0.3941991627216339,-0.5931035280227661
2940570,9.187271118164062,0.35350561141967773,3.4509191513061523,0.6061052680015564,0.24471013247966766,0.5733466148376465,0.69809889793396,-0.2836824059486389,-0.49630290269851685,-0.4311213493347168,9.797330856323242,0.1877615600824356,0.2474212497472763,-0.18812526762485504,-0.9341719150543213,1.0655715465545654,0.3999565839767456,-0.5770551562309265,-0.3941592574119568,-0.5930267572402954
2940737,9.153585433959961,0.34764328598976135,3.474936008453369,0.27618172764778137,-0.2947509288787842,0.5473561882972717,0.698074221611023,-0.2837439477443695,-0.4962689280509949,-0.4311601519584656,9.793180465698242,0.1922447830438614,0.21432390809059143,-0.40529537200927734,-1.0073474645614624,1.0261151790618896,0.3998642563819885,-0.5772224068641663,-0.3940853774547577,-0.5929752588272095
2940903,9.17155933380127,0.35744550824165344,3.44746732711792,0.2956409752368927,-0.40301579236984253,0.42840439081192017,0.6980746388435364,-0.2837553024291992,-0.49627822637557983,-0.43114110827445984,9.793599128723145,0.18482449650764465,0.19316500425338745,-0.5388655662536621,-0.9919798970222473,0.7413788437843323,0.3997727930545807,-0.5773559212684631,-0.3940587043762207,-0.5929246544837952
2941070,9.195026397705078,0.39129072427749634,3.4694931507110596,0.01682114042341709,-0.23993977904319763,0.32403266429901123,0.6980195641517639,-0.2838342785835266,-0.4962247312068939,-0.4312398135662079,9.832490921020508,0.16056008636951447,0.21970070898532867,-0.59892737865448,-0.9996637105941772,0.5849236249923706,0.3996703326702118,-0.5774791836738586,-0.3940492272377014,-0.5928800106048584
2941237,9.1668062210083,0.37182536721229553,3.450678825378418,-0.16772478818893433,-0.3631112575531006,0.25276535749435425,0.6979721188545227,-0.28390073776245117,-0.496194452047348,-0.43130776286125183,9.862166404724121,0.16803759336471558,0.20039412379264832,-0.6313914656639099,-0.8283914923667908,0.3221629559993744,0.39952975511550903,-0.5775888562202454,-0.3940277695655823,-0.5928823351860046
2941403,9.187365531921387,0.35643327236175537,3.429633140563965,0.07987961173057556,-0.43416085839271545,0.22589759528636932,0.6979013085365295,-0.2839755415916443,-0.49616989493370056,-0.43140146136283875,9.86723518371582,0.15987077355384827,0.20103292167186737,-0.6479116082191467,-0.3708334267139435,0.2592453360557556,0.39945119619369507,-0.5776281952857971,-0.39402568340301514,-0.5928981304168701
2941570,9.185331344604492,0.3678451180458069,3.4561290740966797,0.4127421975135803,-0.42009949684143066,0.22364367544651031,0.697921872138977,-0.2839261293411255,-0.4962165355682373,-0.43134716153144836,9.834870338439941,0.183892160654068,0.19580808281898499,-0.7019928097724915,-0.27679643034935,-0.04123644903302193,0.3992729187011719,-0.57769376039505,-0.39396700263023376,-0.5929933190345764
2941737,9.206677436828613,0.3994659185409546,3.4805116653442383,0.41418930888175964,-0.47911110520362854,0.160598024725914,0.6978915333747864,-0.28392520546913147,-0.496242880821228,-0.43136632442474365,9.790210723876953,0.21682514250278473,0.17327794432640076,-0.8304789066314697,-0.197269007563591,-0.36919423937797546,0.39908742904663086,-0.5777229070663452,-0.3939477205276489,-0.5931026339530945
2941903,9.207871437072754,0.4109705984592438,3.4568800926208496,0.33514857292175293,-0.47120964527130127,0.015169120393693447,0.6978438496589661,-0.2839270234107971,-0.4962659180164337,-0.4314158260822296,9.806859970092773,0.2213992476463318,0.19277280569076538,-1.0047093629837036,-0.37836363911628723,-0.6227472424507141,0.3988736569881439,-0.5777505040168762,-0.3939645290374756,-0.5932083129882812
2942070,9.17700481414795,0.3980998396873474,3.488825798034668,-0.026880526915192604,-0.47237497568130493,-0.01864604279398918,0.6977689862251282,-0.28397446870803833,-0.49626097083091736,-0.43151140213012695,9.849224090576172,0.22754597663879395,0.19297124445438385,-1.129789113998413,-0.1102626770734787,-0.5305286645889282,0.39867836236953735,-0.5777632594108582,-0.39395397901535034,-0.5933342576026917
2942237,9.196869850158691,0.38509663939476013,3.4418201446533203,0.10631190985441208,-0.6056634187698364,-0.17050373554229736,0.6977032423019409,-0.2839784026145935,-0.4962996244430542,-0.4315706491470337,9.835794448852539,0.20972011983394623,0.1818302720785141,-1.209572672843933,0.05079638957977295,-0.4804302155971527,0.39845821261405945,-0.5777894258499146,-0.39389362931251526,-0.5934967398643494
2942403,9.204678535461426,0.3915625214576721,3.4211037158966064,0.20270530879497528,-0.26593664288520813,0.1617121547460556,0.6976979374885559,-0.28396186232566833,-0.49630385637283325,-0.4315851032733917,9.843496322631836,0.21817637979984283,0.20142731070518494,-1.1796953678131104,0.31519627571105957,-0.18296432495117188,0.39826640486717224,-0.5778168439865112,-0.3937823474407196,-0.5936725735664368
2942570,9.18144702911377,0.3727878928184509,3.4359915256500244,0.36330974102020264,-0.22065342962741852,0.05170563980937004,0.6976983547210693,-0.2839154005050659,-0.49631986021995544,-0.4315967857837677,9.832012176513672,0.20988336205482483,0.21109788119792938,-1.0699833631515503,0.5846163034439087,-0.07012757658958435,0.398097425699234,-0.5778284668922424,-0.3936450481414795,-0.5938655734062195
2942737,9.199060440063477,0.3747829496860504,3.4477641582489014,0.34922274947166443,-0.19637255370616913,0.0842977985739708,0.6976575255393982,-0.2839222550392151,-0.49630147218704224,-0.4316794276237488,9.816693305969238,0.19594576954841614,0.21941445767879486,-0.6734859347343445,0.6492627263069153,0.2430965155363083,0.39803168177604675,-0.5778036117553711,-0.39355066418647766,-0.5939964652061462
2942903,9.173425674438477,0.3750082552433014,3.452413320541382,0.3201138973236084,-0.18300272524356842,0.25581324100494385,0.6976302266120911,-0.2839395999908447,-0.4962749481201172,-0.4317426383495331,9.802789688110352,0.19812165200710297,0.2187088429927826,-0.5262129306793213,0.4791048467159271,0.47724783420562744,0.39798691868782043,-0.5777989625930786,-0.3934580385684967,-0.5940923094749451
2943070,9.196439743041992,0.36527368426322937,3.452159881591797,0.22713981568813324,-0.069973886013031,0.2741006910800934,0.6976237297058105,-0.2839423418045044,-0.4962407946586609,-0.4317905306816101,9.828232765197754,0.1992771029472351,0.21315641701221466,-0.22553260624408722,0.35271885991096497,0.5248746275901794,0.3980403244495392,-0.5777410268783569,-0.3934686779975891,-0.5941057205200195
2943237,9.184450149536133,0.35763487219810486,3.451934576034546,0.2786853611469269,-0.06180344149470329,0.3615168333053589,0.697648286819458,-0.28391918540000916,-0.49622049927711487,-0.4317893087863922,9.863348960876465,0.16097106039524078,0.22671367228031158,0.05675133690237999,0.4901822507381439,0.6999245882034302,0.39806634187698364,-0.57771235704422,-0.39341047406196594,-0.5941547155380249
2943404,9.195691108703613,0.3570092022418976,3.437500476837158,0.5753573179244995,0.010904607363045216,0.5489890575408936,0.6976822018623352,-0.2838974893093109,-0.49619048833847046,-0.43178319931030273,9.83407211303711,0.19051259756088257,0.21733048558235168,0.46488967537879944,0.716035008430481,0.7676830291748047,0.3981354832649231,-0.5776508450508118,-0.3933594226837158,-0.5942020416259766
2943570,9.19200611114502,0.36087143421173096,3.457218647003174,0.584962010383606,0.06570297479629517,0.6424368619918823,0.697701096534729,-0.28390756249427795,-0.4961346387863159,-0.43181025981903076,9.803238868713379,0.19431564211845398,0.2426791489124298,0.645523190498352,0.6202691197395325,0.7639051079750061,0.3982139825820923,-0.5775865912437439,-0.3933303952217102,-0.5942311882972717
2943737,9.205158233642578,0.3542085289955139,3.4520223140716553,0.6228688359260559,-0.040019840002059937,0.6397603750228882,0.6977517008781433,-0.2838764488697052,-0.49611714482307434,-0.43176907300949097,9.797521591186523,0.20129814743995667,0.21770238876342773,0.8273478150367737,0.46415975689888,0.7987512946128845,0.39829251170158386,-0.5775328278541565,-0.39331474900245667,-0.5942410826683044
2943904,9.218465805053711,0.38458213210105896,3.462454080581665,0.49145016074180603,-0.04346475750207901,0.6854663491249084,0.6977554559707642,-0.2839128077030182,-0.4960605800151825,-0.43180423974990845,9.786070823669434,0.20235669612884521,0.22506916522979736,0.9292351007461548,0.2963453233242035,0.8375544548034668,0.39840570092201233,-0.5774686336517334,-0.3933463394641876,-0.5942067503929138
2944070,9.192220687866211,0.3622800409793854,3.427436113357544,0.5409721732139587,-0.04735787957906723,0.7774029970169067,0.6977987885475159,-0.2839134931564331,-0.4960252046585083,-0.4317743480205536,9.799789428710938,0.20472478866577148,0.2371172457933426,0.9786036610603333,0.05429252237081528,0.7917462587356567,0.3984934389591217,-0.577427089214325,-0.3933892846107483,-0.5941598415374756
2944237,9.201472282409668,0.36202922463417053,3.443171739578247,0.6662567257881165,-0.11542361974716187,0.8190621137619019,0.6978004574775696,-0.2839604318141937,-0.495973140001297,-0.43180051445961,9.843667984008789,0.21664486825466156,0.22752436995506287,0.8834524750709534,0.10778465121984482,0.941145122051239,0.3986542224884033,-0.5773522853851318,-0.39347177743911743,-0.5940700769424438
2944404,9.187912940979004,0.3807496428489685,3.4458847045898438,0.6001503467559814,-0.030235793441534042,0.7841264605522156,0.6978532075881958,-0.28394815325737,-0.49594318866729736,-0.4317578673362732,9.820038795471191,0.21341370046138763,0.20872892439365387,0.6969664096832275,0.36354026198387146,1.0077508687973022,0.3987063765525818,-0.577342689037323,-0.39340969920158386,-0.5940853953361511
2944570,9.180633544921875,0.3653658330440521,3.4492299556732178,0.5617826581001282,0.04899069666862488,0.7920151948928833,0.6979068517684937,-0.28393930196762085,-0.49590006470680237,-0.4317265748977661,9.804628372192383,0.22492937743663788,0.22928878664970398,0.5312137603759766,0.29964935779571533,1.12898850440979,0.39876964688301086,-0.5773431658744812,-0.3933451473712921,-0.5940852761268616
2944737,9.179965019226074,0.36723679304122925,3.447293281555176,0.4772734045982361,0.17199568450450897,0.7774926424026489,0.6979302763938904,-0.2839699387550354,-0.49581679701805115,-0.4317642152309418,9.840888023376465,0.20390745997428894,0.2067200392484665,0.22632023692131042,0.21868765354156494,1.1471736431121826,0.3987843096256256,-0.5773816704750061,-0.39323922991752625,-0.5941081643104553
2944904,9.17324447631836,0.3672548532485962,3.442718267440796,0.369764119386673,0.049912746995687485,0.7914643287658691,0.6979515552520752,-0.2840082049369812,-0.49574530124664307,-0.431786447763443,9.799156188964844,0.20826050639152527,0.20919525623321533,0.31426140666007996,0.6364179253578186,1.197758674621582,0.39891761541366577,-0.5773279666900635,-0.393192857503891,-0.5941014885902405
2945070,9.204275131225586,0.3656458258628845,3.4694783687591553,0.4250619411468506,-0.05593813955783844,0.7131920456886292,0.6979627013206482,-0.2840418219566345,-0.4956912100315094,-0.4318084120750427,9.8274564743042,0.1691989004611969,0.22334137558937073,0.11154970526695251,0.42308974266052246,1.0375896692276,0.3989933729171753,-0.5773044228553772,-0.3931417465209961,-0.5941073298454285
2945237,9.229132652282715,0.3569841682910919,3.4627270698547363,0.38278815150260925,0.1034688875079155,0.6772701740264893,0.6980019211769104,-0.2840431332588196,-0.495633602142334,-0.4318104386329651,9.883914947509766,0.15378932654857635,0.238455131649971,0.20561233162879944,0.7054057121276855,0.8017991185188293,0.3990362882614136,-0.5772607326507568,-0.393067866563797,-0.5941699147224426
2945404,9.175326347351074,0.33347088098526,3.427013635635376,0.4148424565792084,0.27540695667266846,0.8286411762237549,0.6980606317520142,-0.2840457260608673,-0.49555152654647827,-0.43180814385414124,9.815321922302246,0.19892209768295288,0.2535957992076874,0.17066383361816406,0.8377722501754761,0.44930440187454224,0.39912155270576477,-0.5771437883377075,-0.393078088760376,-0.594219446182251
2945570,9.174878120422363,0.3554428517818451,3.4086039066314697,0.9868125319480896,0.5008884072303772,0.8346218466758728,0.69814532995224,-0.28399232029914856,-0.49547329545021057,-0.4317958950996399,9.811331748962402,0.21924296021461487,0.2556666433811188,-0.08749298006296158,0.6198337078094482,-0.13267377018928528,0.3990360200405121,-0.5770821571350098,-0.393045574426651,-0.5943582653999329
2945737,9.199825286865234,0.43705153465270996,3.5340287685394287,0.9837262034416199,-0.2972353994846344,0.32305940985679626,0.6981296539306641,-0.2839646339416504,-0.49549028277397156,-0.4318201243877411,9.824600219726562,0.22287867963314056,0.2635275721549988,-0.4424338638782501,0.6023147702217102,-0.4104948043823242,0.39890164136886597,-0.5770218372344971,-0.393013596534729,-0.5945281982421875
2945904,9.241992950439453,0.4450021982192993,3.4290754795074463,0.43277135491371155,-0.3881988823413849,-0.1646384298801422,0.6980870366096497,-0.2839244306087494,-0.49552398920059204,-0.4318768382072449,9.803704261779785,0.20502395927906036,0.2774493098258972,-0.5023418664932251,0.5823751091957092,-0.15868347883224487,0.3988136649131775,-0.576961100101471,-0.3929862380027771,-0.5946642160415649
2946070,9.238312721252441,0.34264713525772095,3.443859100341797,0.6319997310638428,0.4138436019420624,0.16869163513183594,0.6981062293052673,-0.28386586904525757,-0.4954589307308197,-0.43195897340774536,9.824346542358398,0.21098482608795166,0.27405956387519836,-0.4669835567474365,0.677910566329956,0.18444347381591797,0.3987571597099304,-0.5769132971763611,-0.39292168617248535,-0.5947908759117126
2946237,9.14809799194336,0.36172810196876526,3.5096607208251953,0.6334213018417358,0.6286957263946533,0.7616512179374695,0.6981594562530518,-0.2838580310344696,-0.49533531069755554,-0.43201974034309387,9.838691711425781,0.21695032715797424,0.2927950620651245,-0.44822219014167786,1.1090234518051147,0.4828057587146759,0.39877116680145264,-0.576832115650177,-0.39282676577568054,-0.5949230790138245
2946404,9.142633438110352,0.3786737620830536,3.511528253555298,0.4199522137641907,-0.06122715771198273,0.6651170253753662,0.6981713175773621,-0.28388142585754395,-0.49528729915618896,-0.4320402443408966,9.79448413848877,0.23611865937709808,0.29535242915153503,-0.6450814604759216,1.1347641944885254,0.6688692569732666,0.3987586498260498,-0.576787531375885,-0.392672061920166,-0.595076858997345
2946570,9.162553787231445,0.35927650332450867,3.488114595413208,0.27990198135375977,-0.018018532544374466,0.6642076969146729,0.6982120275497437,-0.28387972712516785,-0.49524667859077454,-0.43202200531959534,9.77800178527832,0.18586979806423187,0.3049890100955963,-0.6985607743263245,1.0114774703979492,0.82015061378479,0.39876827597618103,-0.5767515301704407,-0.39252734184265137,-0.5952007174491882
2946737,9.145856857299805,0.36684733629226685,3.497637987136841,0.20101487636566162,-0.13815489411354065,0.5581199526786804,0.6982210874557495,-0.2839010953903198,-0.49520865082740784,-0.4320370554924011,9.764034271240234,0.1639319807291031,0.27102306485176086,-0.3957674503326416,0.6523106694221497,1.09479558467865,0.39880794286727905,-0.5767436623573303,-0.3924078345298767,-0.5952605605125427
2946904,9.148141860961914,0.35150542855262756,3.490049362182617,0.19450922310352325,-0.11620481312274933,0.4212968647480011,0.6982156038284302,-0.28391969203948975,-0.49516865611076355,-0.43207961320877075,9.793790817260742,0.15613533556461334,0.3015863001346588,-0.09256430715322495,0.2580159604549408,1.3446091413497925,0.398875892162323,-0.576763927936554,-0.3923202157020569,-0.5952531695365906
2947070,9.162808418273926,0.33746880292892456,3.4883506298065186,0.21453839540481567,0.007075508125126362,0.5517039895057678,0.6982433199882507,-0.2839202582836151,-0.4951218068599701,-0.43208786845207214,9.867207527160645,0.16696734726428986,0.3055573105812073,0.1823176145553589,0.07455217093229294,1.2643133401870728,0.39895230531692505,-0.5767776370048523,-0.39227616786956787,-0.595217764377594
2947237,9.180414199829102,0.3256184160709381,3.481117010116577,0.5895594954490662,0.021252136677503586,0.6477643251419067,0.6982830762863159,-0.28390124440193176,-0.49508580565452576,-0.4320775270462036,9.850624084472656,0.16098284721374512,0.2965560555458069,0.42082303762435913,0.34640535712242126,0.8702490329742432,0.39902743697166443,-0.5767329335212708,-0.3922675848007202,-0.5952162742614746
2947404,9.183815002441406,0.35456663370132446,3.532259225845337,0.48101288080215454,0.2302517592906952,0.4137667417526245,0.6983500123023987,-0.2838275730609894,-0.495051771402359,-0.4320567548274994,9.837427139282227,0.15476635098457336,0.2811301350593567,0.5450830459594727,0.36229801177978516,0.8779841065406799,0.39912328124046326,-0.5766743421554565,-0.392276406288147,-0.5952029228210449
2947570,9.154619216918945,0.3638899326324463,3.4886505603790283,0.23464436829090118,-0.051955368369817734,0.3807392120361328,0.6983805894851685,-0.2837984561920166,-0.49502936005592346,-0.4320521354675293,9.776544570922852,0.1656603366136551,0.29515540599823,0.8268226981163025,0.15565477311611176,0.7567847967147827,0.3992280662059784,-0.5766054391860962,-0.3923390507698059,-0.5951581001281738
2947737,9.220015525817871,0.30298829078674316,3.3881161212921143,0.4347820281982422,-0.3399829864501953,0.7256525754928589,0.6983785033226013,-0.283839613199234,-0.4950066804885864,-0.4320543706417084,9.776665687561035,0.2068830132484436,0.27662113308906555,0.8826457262039185,-0.4514878988265991,0.4296594560146332,0.3992876410484314,-0.5765589475631714,-0.3924815356731415,-0.595069408416748
2947904,9.183332443237305,0.36702799797058105,3.563265323638916,0.7212855815887451,0.24911551177501678,0.9019063115119934,0.6984465718269348,-0.28382188081741333,-0.4949386715888977,-0.4320339858531952,9.833277702331543,0.2053588479757309,0.2858690023422241,0.6470856666564941,-0.6058940291404724,0.19479097425937653,0.39928147196769714,-0.5765363574028015,-0.3926166892051697,-0.5950061082839966
2948070,9.1243896484375,0.3868720233440399,3.420319080352783,0.8632568120956421,-0.6924648880958557,0.44788283109664917,0.6984372138977051,-0.2838013768196106,-0.49500182271003723,-0.43199023604393005,9.828007698059082,0.20475244522094727,0.26185688376426697,0.40892595052719116,-0.4756406247615814,0.34721216559410095,0.3992747962474823,-0.5765253305435181,-0.39271026849746704,-0.594959557056427
2948237,9.201828002929688,0.39354729652404785,3.4623050689697266,0.47144651412963867,-0.524945080280304,0.2099536657333374,0.6983739137649536,-0.2838323712348938,-0.4950105547904968,-0.4320620894432068,9.816675186157227,0.2041156142950058,0.26463577151298523,0.3421984612941742,-0.4997806251049042,0.5462676286697388,0.3992481529712677,-0.5765501856803894,-0.3927552103996277,-0.5949236154556274
2948404,9.215673446655273,0.35703566670417786,3.465080499649048,0.7334516644477844,-0.42880779504776,0.6459842324256897,0.6983839273452759,-0.28382956981658936,-0.49502691626548767,-0.4320290684700012,9.822750091552734,0.21759897470474243,0.27326762676239014,0.11308646947145462,-0.49390244483947754,0.7709230184555054,0.3992212414741516,-0.576600968837738,-0.39276084303855896,-0.5948888063430786
2948570,9.183534622192383,0.35873687267303467,3.471156120300293,0.41531631350517273,-0.42641299962997437,0.6496212482452393,0.6983896493911743,-0.2838493585586548,-0.49502861499786377,-0.4320049583911896,9.821849822998047,0.22375980019569397,0.23594602942466736,-0.2569466233253479,-0.45151349902153015,0.8671500086784363,0.3992103636264801,-0.5766518115997314,-0.39275845885276794,-0.5948483347892761
2948737,9.166094779968262,0.3670046925544739,3.473198175430298,0.3259408175945282,-0.5449998378753662,0.4746353328227997,0.6983699202537537,-0.2838755249977112,-0.4950425326824188,-0.43200358748435974,9.809954643249512,0.20104816555976868,0.2530118227005005,-0.4528965651988983,-0.47861167788505554,0.7191213369369507,0.3991374671459198,-0.5767271518707275,-0.39272481203079224,-0.5948464870452881
2948904,9.181000709533691,0.37731489539146423,3.4613752365112305,0.143783301115036,-0.5690118074417114,0.3299492299556732,0.6983474493026733,-0.2838931381702423,-0.495063841342926,-0.43200385570526123,9.840489387512207,0.16791558265686035,0.2260436862707138,-0.5216667056083679,-0.553669810295105,0.5345051288604736,0.39907222986221313,-0.5767812132835388,-0.3927367925643921,-0.5948299169540405
2949070,9.17870044708252,0.36598190665245056,3.463914394378662,-0.10141347348690033,-0.5883364677429199,0.24162378907203674,0.6982769966125488,-0.2839655876159668,-0.4950549900531769,-0.43208029866218567,9.839638710021973,0.1570834517478943,0.23754335939884186,-0.598133385181427,-0.5263665914535522,0.4616113007068634,0.3989771902561188,-0.5768446326255798,-0.39272990822792053,-0.5948367118835449
2949237,9.182337760925293,0.3641866445541382,3.4350900650024414,0.09168706834316254,-0.6900702118873596,0.24716894328594208,0.6982437968254089,-0.2839834690093994,-0.49509257078170776,-0.4320790767669678,9.837870597839355,0.1590089052915573,0.22090590000152588,-0.39142608642578125,-0.4453023672103882,0.363027960062027,0.39890986680984497,-0.5768744349479675,-0.39275816082954407,-0.5948344469070435
2949404,9.18333625793457,0.35658684372901917,3.459998369216919,0.41329291462898254,-0.5524914860725403,0.29743385314941406,0.6982211470603943,-0.2839815616607666,-0.49512410163879395,-0.4320807456970215,9.819546699523926,0.18316590785980225,0.23138797283172607,-0.32296332716941833,-0.32419273257255554,0.16951124370098114,0.3988298177719116,-0.5768841505050659,-0.3927936255931854,-0.5948551297187805
2949570,9.205657005310059,0.37240439653396606,3.4553382396698,0.3646159768104553,-0.6719363331794739,0.18969404697418213,0.6981506943702698,-0.28401899337768555,-0.495149165391922,-0.43214142322540283,9.830560684204102,0.20451614260673523,0.23424872756004333,-0.4972577393054962,-0.3397780656814575,-0.10610059648752213,0.39871469140052795,-0.5768872499465942,-0.3928421437740326,-0.5948973298072815
2949737,9.211217880249023,0.37463968992233276,3.4771780967712402,0.17043332755565643,-0.47028762102127075,0.010264289565384388,0.6981213092803955,-0.28399813175201416,-0.49517935514450073,-0.4321681559085846,9.817955017089844,0.22547629475593567,0.23457059264183044,-0.5411450862884521,-0.1731034219264984,-0.3045862019062042,0.3985693156719208,-0.5768783688545227,-0.39287707209587097,-0.5949802994728088
2949904,9.193123817443848,0.3645695745944977,3.4550671577453613,0.18010208010673523,-0.5260592103004456,0.03410971164703369,0.6980952024459839,-0.28397512435913086,-0.4952183663845062,-0.4321804642677307,9.833014488220215,0.21730826795101166,0.2316383272409439,-0.6998670101165771,-0.06051000580191612,-0.2681778073310852,0.39840954542160034,-0.5768774151802063,-0.3928793966770172,-0.5950868129730225
2950070,9.200322151184082,0.3667007088661194,3.4632599353790283,0.15812639892101288,-0.42291688919067383,-0.08254972100257874,0.6980460286140442,-0.28396493196487427,-0.49523577094078064,-0.4322468936443329,9.83596134185791,0.2172975093126297,0.23229612410068512,-0.684857964515686,0.15911249816417694,-0.05053385719656944,0.39828962087631226,-0.5768640637397766,-0.39285948872566223,-0.5951931476593018
2950237,9.192408561706543,0.36955809593200684,3.4741530418395996,0.31832098960876465,-0.33450183272361755,0.07423200458288193,0.6980538964271545,-0.2839047312736511,-0.49527058005332947,-0.4322338104248047,9.819181442260742,0.21246938407421112,0.2353285849094391,-0.6543660163879395,0.24752752482891083,0.15714031457901,0.3982107937335968,-0.5768433213233948,-0.3928343951702118,-0.5952823162078857
2950404,9.192208290100098,0.3730735182762146,3.4507861137390137,0.2918631434440613,-0.2305143028497696,0.13390961289405823,0.6980593204498291,-0.283858984708786,-0.49528247117996216,-0.432241290807724,9.83641529083252,0.21488356590270996,0.22289784252643585,-0.5556547045707703,0.36515387892723083,0.38802602887153625,0.3981657028198242,-0.576820433139801,-0.39279118180274963,-0.5953631401062012
2950570,9.195913314819336,0.37005189061164856,3.459211587905884,0.3579310476779938,-0.11241415143013,0.10029292851686478,0.6980272531509399,-0.2838500142097473,-0.49525707960128784,-0.43232813477516174,9.835180282592773,0.20501625537872314,0.2440241575241089,-0.37307456135749817,0.6080647110939026,0.6108052134513855,0.3981543183326721,-0.5767878890037537,-0.3927178680896759,-0.5954508781433105
2950737,9.175057411193848,0.3615436851978302,3.442547082901001,0.18927143514156342,-0.052941448986530304,0.15725557506084442,0.6980112791061401,-0.2838408052921295,-0.4952230453491211,-0.43239882588386536,9.820937156677246,0.18813741207122803,0.23624670505523682,-0.24499830603599548,0.6542572379112244,0.7156893014907837,0.398174911737442,-0.5767433643341064,-0.39265358448028564,-0.5955224633216858
2950904,9.183958053588867,0.3678669035434723,3.4668147563934326,0.24074016511440277,-0.11325936019420624,0.10550510883331299,0.6980082392692566,-0.283805787563324,-0.4952125549316406,-0.43243885040283203,9.848723411560059,0.18831965327262878,0.24511298537254333,0.05024571344256401,0.7353854775428772,0.7985206842422485,0.39823365211486816,-0.5766788125038147,-0.39260461926460266,-0.5955780148506165
2951070,9.204556465148926,0.3635786771774292,3.4542551040649414,0.3159262537956238,0.04969504103064537,0.33219027519226074,0.6980405449867249,-0.2837620973587036,-0.49518486857414246,-0.43244704604148865,9.819382667541504,0.19369415938854218,0.2581884264945984,0.320523738861084,0.8378362059593201,0.8534343242645264,0.3983721137046814,-0.5765633583068848,-0.3926122784614563,-0.5955921411514282
2951237,9.189400672912598,0.3474285304546356,3.483948230743408,0.44848474860191345,0.14085063338279724,0.4318877160549164,0.6980933547019958,-0.2837033271789551,-0.4951540231704712,-0.432435542345047,9.83587646484375,0.20341062545776367,0.24416771531105042,0.5614367723464966,0.8572505712509155,0.7679904103279114,0.3984774649143219,-0.5764570832252502,-0.39260292053222656,-0.5956306457519531
2951404,9.184884071350098,0.36075347661972046,3.4635210037231445,0.5629863739013672,0.040999531745910645,0.5052297115325928,0.6981255412101746,-0.28367069363594055,-0.49512234330177307,-0.43244144320487976,9.801877975463867,0.21017298102378845,0.2596563994884491,0.7244104146957397,0.7922200560569763,0.8691349029541016,0.39859604835510254,-0.5763559937477112,-0.392598420381546,-0.5956522226333618
2951570,9.188492774963379,0.370419979095459,3.4693822860717773,0.5227487683296204,0.12322910130023956,0.5786485075950623,0.698162853717804,-0.28364652395248413,-0.49507424235343933,-0.4324522614479065,9.797406196594238,0.21143928170204163,0.26300328969955444,0.7479356527328491,0.6379930973052979,0.7715505361557007,0.3986889123916626,-0.5762676000595093,-0.39260393381118774,-0.5956719517707825
2951737,9.192090034484863,0.36270251870155334,3.4663355350494385,0.48622506856918335,0.10147110372781754,0.5538682341575623,0.6981848478317261,-0.2836373746395111,-0.49502018094062805,-0.43248450756073,9.828271865844727,0.23380418121814728,0.27114027738571167,0.6350732445716858,0.5638315081596375,0.8192029595375061,0.39878949522972107,-0.5761838555335999,-0.39261624217033386,-0.5956775546073914
2951904,9.1868257522583,0.3703734874725342,3.4644651412963867,0.5165121555328369,0.05865948647260666,0.6158509850502014,0.6982341408729553,-0.28360360860824585,-0.4949864447116852,-0.4324657618999481,9.832679748535156,0.2240878790616989,0.27719584107398987,0.5259888172149658,0.6325504779815674,0.8524098992347717,0.39885979890823364,-0.5761195421218872,-0.3925871253013611,-0.5957119464874268
2952070,9.194189071655273,0.38453882932662964,3.469511032104492,0.4604586958885193,0.11697959899902344,0.5105827450752258,0.6982532739639282,-0.2835930287837982,-0.49493101239204407,-0.43250522017478943,9.80907917022705,0.22476480901241302,0.285011887550354,0.25133100152015686,0.5161022543907166,0.7920790910720825,0.3989357054233551,-0.576052188873291,-0.3925836384296417,-0.5957283973693848
2952237,9.176727294921875,0.37918588519096375,3.4637033939361572,0.6653602719306946,0.08245367556810379,0.6980164647102356,0.698314905166626,-0.28354915976524353,-0.49490058422088623,-0.43246936798095703,9.805668830871582,0.20923125743865967,0.2865881323814392,0.03366148844361305,0.39533835649490356,0.7476922273635864,0.39894604682922363,-0.5760278105735779,-0.3925388753414154,-0.5957744717597961
2952404,9.178717613220215,0.37937283515930176,3.488814353942871,0.565048098564148,-0.003982774447649717,0.7127693295478821,0.6983417868614197,-0.28355053067207336,-0.49485546350479126,-0.43247663974761963,9.804768562316895,0.20823535323143005,0.26687443256378174,-0.042619530111551285,0.2782883644104004,0.6942641735076904,0.39895638823509216,-0.5760037899017334,-0.3925151824951172,-0.595806360244751
2952570,9.187355041503906,0.38535064458847046,3.492570638656616,0.2579006850719452,0.019382411614060402,0.5714641809463501,0.6983814239501953,-0.28353458642959595,-0.4948156774044037,-0.43246859312057495,9.803849220275879,0.19399015605449677,0.2694148123264313,-0.14079298079013824,0.30313268303871155,0.9141235947608948,0.3990088105201721,-0.5759767889976501,-0.3924914300441742,-0.595812976360321
2952737,9.175922393798828,0.38251471519470215,3.4847850799560547,0.13565126061439514,0.17003630101680756,0.5609244704246521,0.6983882784843445,-0.2835637032985687,-0.4947284460067749,-0.432538241147995,9.822181701660156,0.18805478513240814,0.29482951760292053,-0.16139841079711914,0.2134242206811905,0.9717010259628296,0.3990394175052643,-0.5759748220443726,-0.3924475908279419,-0.5958232879638672
2952904,9.16352653503418,0.35788536071777344,3.476212978363037,0.283731073141098,0.2232210636138916,0.6972865462303162,0.6984260678291321,-0.2835695445537567,-0.4946478307247162,-0.43256545066833496,9.833108901977539,0.18976233899593353,0.2532958984375,-0.12916485965251923,0.2321855127811432,0.8843104243278503,0.39907339215278625,-0.5759596824645996,-0.3924195468425751,-0.5958337783813477
2953070,9.162751197814941,0.3741213381290436,3.456615447998047,0.3932638168334961,0.04559700936079025,0.6184121966362,0.6984429955482483,-0.28357866406440735,-0.49459031224250793,-0.4325980246067047,9.793192863464355,0.18315444886684418,0.2904897630214691,-0.030901720747351646,0.3087802827358246,0.8748721480369568,0.3990943431854248,-0.5759470462799072,-0.39237385988235474,-0.5958619713783264
2953237,9.18819522857666,0.3723582923412323,3.496121644973755,0.14012067019939423,-0.14033196866512299,0.5245161056518555,0.6984446048736572,-0.28360211849212646,-0.49454912543296814,-0.4326271116733551,9.82359790802002,0.14910995960235596,0.28202685713768005,0.1683330535888672,0.08436182886362076,0.655921995639801,0.3991180956363678,-0.5759189128875732,-0.39239275455474854,-0.5958607196807861
2953404,9.200268745422363,0.35933372378349304,3.484173536300659,0.10700345039367676,-0.1043461337685585,0.31672024726867676,0.6984419822692871,-0.28360283374786377,-0.4945157766342163,-0.43266892433166504,9.877992630004883,0.140444815158844,0.28833529353141785,0.3262481391429901,0.35412755608558655,0.468526691198349,0.39914247393608093,-0.5758545994758606,-0.39241498708724976,-0.5958919525146484
2953570,9.166230201721191,0.33213678002357483,3.4567623138427734,0.12065501511096954,0.12741675972938538,0.4303637742996216,0.6984593272209167,-0.28360071778297424,-0.4944521188735962,-0.4327150285243988,9.80338191986084,0.17943263053894043,0.284962922334671,0.495381623506546,0.3359297513961792,0.13859671354293823,0.3991316556930542,-0.5757756233215332,-0.39246228337287903,-0.595944344997406
2953737,9.176761627197266,0.3420575261116028,3.4258148670196533,1.0329538583755493,0.30784547328948975,0.6505177617073059,0.6985360980033875,-0.2835161089897156,-0.4944153428077698,-0.43268877267837524,9.846471786499023,0.23906588554382324,0.3043102025985718,0.29862484335899353,-0.01978580839931965,-0.5188235640525818,0.39905500411987305,-0.5756843090057373,-0.3925933539867401,-0.5959975719451904
2953904,9.165290832519531,0.41841909289360046,3.5713443756103516,1.145508885383606,-0.4213929772377014,0.1013302430510521,0.6985515356063843,-0.2834022343158722,-0.4944966435432434,-0.43264535069465637,9.807297706604004,0.23172035813331604,0.3129503130912781,-0.11089017987251282,0.05403639376163483,-0.7431908845901489,0.3989481031894684,-0.5755850076675415,-0.39272183179855347,-0.5960806012153625
2954070,9.22215461730957,0.4466058909893036,3.44541597366333,0.5923256874084473,-0.7670619487762451,-0.3958442807197571,0.6984816789627075,-0.28333780169487,-0.4945940375328064,-0.43268921971321106,9.793436050415039,0.23475296795368195,0.29854536056518555,-0.2719172239303589,-0.08676300942897797,-0.4470312297344208,0.3988346457481384,-0.575530469417572,-0.39280980825424194,-0.5961510539054871
2954237,9.241098403930664,0.3644620180130005,3.458331823348999,0.6611598134040833,0.054471805691719055,-0.20367218554019928,0.6984849572181702,-0.2832278609275818,-0.49460500478744507,-0.43274325132369995,9.834073066711426,0.2426385134458542,0.32225561141967773,-0.32868775725364685,0.0023371586576104164,0.09309575706720352,0.3987501859664917,-0.5755133032798767,-0.3928264379501343,-0.5962132215499878
2954404,9.156694412231445,0.3559941351413727,3.508174180984497,0.8322078585624695,0.5108068585395813,0.6052024960517883,0.6985962390899658,-0.2831113934516907,-0.49455803632736206,-0.4326935112476349,9.839977264404297,0.2564748525619507,0.3039025068283081,-0.45740431547164917,0.34506064653396606,0.5380523204803467,0.39871230721473694,-0.5754995942115784,-0.39277392625808716,-0.5962863564491272
2954570,9.128008842468262,0.3901080787181854,3.538167953491211,0.6361874938011169,-0.30003997683525085,0.6484944224357605,0.6986047625541687,-0.2831130921840668,-0.4945536255836487,-0.4326837360858917,9.821136474609375,0.24828854203224182,0.32107308506965637,-0.629995584487915,0.5363619327545166,0.9826120734214783,0.39869940280914307,-0.5755102634429932,-0.3926498293876648,-0.5963664054870605
2954737,9.166556358337402,0.3684137165546417,3.501149892807007,0.29579466581344604,-0.23667414486408234,0.6029677391052246,0.6986225843429565,-0.28311780095100403,-0.4945368468761444,-0.4326710104942322,9.81688117980957,0.2088242918252945,0.2905663251876831,-0.583674967288971,0.6479820013046265,1.1476088762283325,0.3987259864807129,-0.5755086541175842,-0.39252275228500366,-0.5964338779449463
2954904,9.140358924865723,0.37043413519859314,3.516012668609619,0.019433634355664253,-0.1717715561389923,0.5204564332962036,0.6986245512962341,-0.2831447124481201,-0.4944969415664673,-0.4326957166194916,9.769501686096191,0.14602002501487732,0.3004835546016693,-0.2989257872104645,0.4862506687641144,1.3131951093673706,0.39877569675445557,-0.5755173563957214,-0.3924110233783722,-0.5964658856391907
2955070,9.14993667602539,0.37193962931632996,3.5102765560150146,0.12832602858543396,-0.3747650384902954,0.3682657778263092,0.6986045241355896,-0.2831653952598572,-0.49448880553245544,-0.4327240288257599,9.780439376831055,0.13588553667068481,0.29350826144218445,0.21321934461593628,0.08748658001422882,1.431397795677185,0.3988386392593384,-0.5755482912063599,-0.39234113693237305,-0.5964397192001343
2955237,9.157161712646484,0.3373650908470154,3.4859187602996826,0.11481533199548721,-0.23179493844509125,0.5454544425010681,0.6986300349235535,-0.2831629812717438,-0.49447399377822876,-0.43270111083984375,9.858503341674805,0.15461675822734833,0.3277042806148529,0.7828713655471802,-0.03873920813202858,1.4035439491271973,0.39895951747894287,-0.5755437612533569,-0.39234769344329834,-0.5963589549064636
2955404,9.17538833618164,0.3269833028316498,3.4861860275268555,0.6649376749992371,-0.21956485509872437,0.7226558923721313,0.6986597776412964,-0.2831510901451111,-0.49446535110473633,-0.4326706528663635,9.835077285766602,0.16342152655124664,0.3107185959815979,1.0391777753829956,0.184878870844841,0.9453327655792236,0.3990621268749237,-0.5754868388175964,-0.3923899531364441,-0.5963174700737
2955570,9.16512393951416,0.3752695322036743,3.500793218612671,0.6100369095802307,-0.011679391376674175,0.6338311433792114,0.698701798915863,-0.2831194996833801,-0.49443912506103516,-0.4326533377170563,9.816142082214355,0.17302408814430237,0.3132825791835785,1.1849778890609741,-0.16092458367347717,0.7818596363067627,0.3991680443286896,-0.5754269361495972,-0.39250072836875916,-0.5962315201759338
2955737,9.160079002380371,0.38878023624420166,3.559964179992676,0.38719356060028076,-0.2011621594429016,0.5466582179069519,0.6987054944038391,-0.28312793374061584,-0.49441489577293396,-0.4326697885990143,9.80377197265625,0.18161290884017944,0.2968781888484955,1.3144117593765259,-0.23221752047538757,0.8118906021118164,0.3992646038532257,-0.5753787159919739,-0.3926076889038086,-0.5961430668830872
2955904,9.188886642456055,0.3178507685661316,3.4251585006713867,0.2745489180088043,-0.6181240677833557,0.7975090146064758,0.698702871799469,-0.28317779302597046,-0.49442344903945923,-0.4326316714286804,9.794804573059082,0.23924873769283295,0.2878495752811432,1.259741187095642,-0.5089883804321289,0.6520288586616516,0.39934366941452026,-0.575337827205658,-0.39275482296943665,-0.5960326790809631
2956070,9.211837768554688,0.35506755113601685,3.520214796066284,0.8619505763053894,-0.11547484993934631,1.0562613010406494,0.698769211769104,-0.2831636667251587,-0.4944024980068207,-0.432557612657547,9.829193115234375,0.24318502843379974,0.26735377311706543,0.8237491846084595,-0.7345337867736816,0.6268900036811829,0.39936861395835876,-0.5753421783447266,-0.39287662506103516,-0.5959314703941345
2956237,9.133576393127441,0.38720840215682983,3.4520955085754395,0.8387839794158936,-0.5356384515762329,0.5208022594451904,0.6987622380256653,-0.2831493616104126,-0.4944392442703247,-0.43253621459007263,9.82030200958252,0.2333451807498932,0.24765154719352722,0.3948133885860443,-0.6988552808761597,0.7696808576583862,0.39934465289115906,-0.5753927826881409,-0.39292365312576294,-0.595867395401001
2956404,9.192302703857422,0.400081604719162,3.442652940750122,0.6885398030281067,-0.5668987035751343,0.3768588602542877,0.6987143754959106,-0.28316792845726013,-0.4944608807563782,-0.43257656693458557,9.839838027954102,0.2200898826122284,0.24221907556056976,-0.06564535200595856,-0.62370765209198,0.9664631485939026,0.39933282136917114,-0.5754569172859192,-0.39293667674064636,-0.5958049297332764
2956570,9.200671195983887,0.3610233962535858,3.4639265537261963,0.7143830060958862,-0.35551705956459045,0.6859656572341919,0.6987424492835999,-0.2831476628780365,-0.49447619915008545,-0.43252721428871155,9.851632118225098,0.21920959651470184,0.21255116164684296,-0.3841392397880554,-0.26445111632347107,0.9971343278884888,0.3993196189403534,-0.5755087733268738,-0.39290106296539307,-0.5957871079444885
2956737,9.188288688659668,0.3551676571369171,3.456834316253662,0.42065656185150146,-0.3021273612976074,0.8247480988502502,0.6987619996070862,-0.28317350149154663,-0.4944564700126648,-0.43250128626823425,9.844468116760254,0.18406476080417633,0.21750696003437042,-0.7415900826454163,0.20644475519657135,0.8252604007720947,0.3992810547351837,-0.575535237789154,-0.392815500497818,-0.5958438515663147
2956904,9.187623023986816,0.35790324211120605,3.498145818710327,0.26436787843704224,-0.13835982978343964,0.56947922706604,0.6987706422805786,-0.2831869125366211,-0.4944206774234772,-0.4325193762779236,9.844926834106445,0.1763058453798294,0.19058887660503387,-0.89931321144104,0.6991178393363953,0.48226797580718994,0.3992461860179901,-0.5754972696304321,-0.3927333652973175,-0.5959580540657043
2957070,9.185832023620605,0.3634749948978424,3.480003833770752,0.06141284480690956,-0.10763736814260483,0.5181000828742981,0.6987813115119934,-0.2832026481628418,-0.4943785071372986,-0.4325399696826935,9.837393760681152,0.12111039459705353,0.19384530186653137,-0.9408185482025146,1.1929563283920288,-0.019760197028517723,0.39917072653770447,-0.5754041075706482,-0.39264148473739624,-0.5961591005325317
2957237,9.182891845703125,0.371092289686203,3.475208044052124,-0.05697544291615486,-0.013664375059306622,0.2629207372665405,0.6987749338150024,-0.2832088768482208,-0.4943282902240753,-0.4326034486293793,9.862056732177734,0.10598303377628326,0.15851432085037231,-0.8347817659378052,1.8405731916427612,-0.3208374083042145,0.3990984857082367,-0.5752420425415039,-0.3925316631793976,-0.5964362025260925
2957404,9.19969654083252,0.35889387130737305,3.450392723083496,-0.004251707810908556,0.2415405511856079,0.1440201997756958,0.6987553834915161,-0.28321489691734314,-0.4942433536052704,-0.4327283203601837,9.881977081298828,0.10599179565906525,0.144914448261261,-0.5914868712425232,2.780956268310547,-0.6579902172088623,0.3990752100944519,-0.5749629735946655,-0.3924204707145691,-0.5967939496040344
2957570,9.199790000915527,0.3348724842071533,3.4840734004974365,0.2574523985385895,0.7061484456062317,0.0754229873418808,0.6988082528114319,-0.2831234633922577,-0.4941518306732178,-0.4328073561191559,9.923234939575195,0.14079004526138306,0.12401393055915833,-0.42935848236083984,3.966158628463745,-1.139252781867981,0.39910122752189636,-0.5745384097099304,-0.39230382442474365,-0.5972617268562317
2957737,9.217706680297852,0.38060280680656433,3.4775209426879883,0.14209285378456116,0.9925113320350647,-0.31533077359199524,0.6988341212272644,-0.2830180525779724,-0.49402835965156555,-0.43297556042671204,9.916358947753906,0.1520092636346817,0.07907520234584808,-0.4450206756591797,5.387548923492432,-1.6592931747436523,0.39918413758277893,-0.5739487409591675,-0.3921666443347931,-0.5978634357452393
2957904,9.223685264587402,0.37834984064102173,3.5022220611572266,-0.27401745319366455,1.7870428562164307,-0.667031466960907,0.6988904476165771,-0.282865971326828,-0.4938203692436218,-0.4332212805747986,9.936622619628906,0.19813266396522522,0.018909670412540436,-0.922607958316803,7.146527290344238,-2.472458600997925,0.3992607593536377,-0.5731849670410156,-0.3919573724269867,-0.5986813902854919
2958070,9.217476844787598,0.3969922363758087,3.5073626041412354,-0.6608844995498657,2.2756307125091553,-1.037839412689209,0.6989395618438721,-0.282698392868042,-0.4935518503189087,-0.4335571229457855,9.937395095825195,0.18595275282859802,-0.02566220983862877,-1.5008150339126587,9.436752319335938,-3.244220495223999,0.3993085026741028,-0.5722373127937317,-0.39159199595451355,-0.5997940897941589
2958237,9.21657943725586,0.39870885014533997,3.5553665161132812,-0.8484975099563599,3.1226682662963867,-1.3621217012405396,0.6989771723747253,-0.2825220227241516,-0.4931706488132477,-0.4340449869632721,9.9683198928833,0.20779341459274292,-0.0008217133581638336,-2.101484775543213,12.105151176452637,-4.097727298736572,0.39939823746681213,-0.5710330605506897,-0.39110448956489563,-0.6011987924575806
2958404,9.212852478027344,0.3991764783859253,3.606567621231079,-1.5179110765457153,4.289403438568115,-1.697033405303955,0.6990970373153687,-0.2822628617286682,-0.49267253279685974,-0.43458616733551025,10.05638313293457,0.2212706208229065,0.04619655758142471,-2.605095624923706,15.278648376464844,-4.594768524169922,0.39957770705223083,-0.5695526599884033,-0.3904264271259308,-0.6029219031333923
2958570,9.245429039001465,0.4095498323440552,3.571908950805664,-2.0764734745025635,6.293086051940918,-1.9669660329818726,0.6993213295936584,-0.281912237405777,-0.4919466972351074,-0.43527424335479736,10.103829383850098,0.2545807361602783,0.09585420042276382,-3.1003313064575195,18.468629837036133,-4.983443737030029,0.3998471796512604,-0.5678043365478516,-0.3895392417907715,-0.6049627065658569
2958737,9.174795150756836,0.4107424318790436,3.491684913635254,-0.697421133518219,7.462472438812256,-1.7930428981781006,0.699708104133606,-0.28134605288505554,-0.4911890923976898,-0.435874342918396,10.070353507995605,0.2615220844745636,0.15526631474494934,-3.6943955421447754,21.834516525268555,-5.453581809997559,0.4002158045768738,-0.5657615065574646,-0.3884429633617401,-0.6073331236839294
2958904,9.244325637817383,0.36053648591041565,3.4669382572174072,0.08886967599391937,8.146818161010742,-1.9342458248138428,0.7001392841339111,-0.28067493438720703,-0.490400493144989,-0.4365021884441376,9.962681770324707,0.2638241648674011,0.21703770756721497,-3.9808499813079834,24.394878387451172,-5.5941081047058105,0.40069258213043213,-0.5634927153587341,-0.3871842622756958,-0.6099262833595276
2959070,9.26445484161377,0.3679142892360687,3.432926654815674,-0.0412108488380909,9.985953330993652,-2.2714760303497314,0.7006736993789673,-0.27987587451934814,-0.4894298017024994,-0.4372464418411255,9.890847206115723,0.24885331094264984,0.24449966847896576,-4.101859092712402,26.199203491210938,-5.920097351074219,0.4011971652507782,-0.5610612034797668,-0.3858093023300171,-0.6127009987831116
2959237,9.228414535522461,0.34534552693367004,3.473468780517578,-0.06898783147335052,11.021475791931152,-2.5357353687286377,0.7012907862663269,-0.27896273136138916,-0.4883805513381958,-0.43801334500312805,9.941627502441406,0.22531422972679138,0.3338823616504669,-4.229564666748047,27.88755226135254,-5.855566501617432,0.4017831087112427,-0.5584834218025208,-0.38431236147880554,-0.6156059503555298
2959404,9.204964637756348,0.3599792718887329,3.557166576385498,-0.3172774314880371,12.368525505065918,-2.551077365875244,0.7019859552383423,-0.2779920995235443,-0.48717525601387024,-0.438858300447464,10.058984756469727,0.26045161485671997,0.4059159755706787,-3.9482357501983643,30.458587646484375,-5.482454776763916,0.40251216292381287,-0.5556974411010742,-0.3826160132884979,-0.618699848651886
2959570,9.24300479888916,0.38040539622306824,3.604597568511963,-1.1418534517288208,14.068253517150879,-2.904649019241333,0.7027353048324585,-0.27697980403900146,-0.4857516586780548,-0.43987590074539185,9.986501693725586,0.3470593988895416,0.4954151213169098,-4.053995132446289,33.41643524169922,-5.678180694580078,0.40340909361839294,-0.5526061654090881,-0.38077855110168457,-0.6220090389251709
2959737,9.054668426513672,0.3699786365032196,3.574788808822632,-1.3164937496185303,15.92791748046875,-2.9515585899353027,0.7036008834838867,-0.2758629620075226,-0.48412615060806274,-0.44098466634750366,9.99683666229248,0.34561827778816223,0.5695326924324036,-4.4449381828308105,35.93142318725586,-6.124754428863525,0.4043467938899994,-0.5492799878120422,-0.3787745237350464,-0.6255598664283752
2959904,9.203301429748535,0.41617152094841003,3.6372084617614746,-0.8886590600013733,14.963396072387695,-3.2675561904907227,0.7043488621711731,-0.2747863233089447,-0.4826114773750305,-0.4421214759349823,10.078129768371582,0.3166506886482239,0.6889926791191101,-4.556998252868652,38.872840881347656,-6.431140899658203,0.4053828716278076,-0.5456666350364685,-0.376592755317688,-0.6293572783470154
2960071,9.320629119873047,0.3815356492996216,3.701106071472168,-1.29518461227417,17.729610443115234,-3.257375717163086,0.705306351184845,-0.27353447675704956,-0.480806440114975,-0.4433364272117615,10.101472854614258,0.36930811405181885,0.8542670011520386,-4.426799297332764,42.42971420288086,-6.4556074142456055,0.40662625432014465,-0.541687548160553,-0.37422168254852295,-0.6333940029144287
2960237,9.20466423034668,0.38740479946136475,3.81136417388916,-1.8611363172531128,19.226497650146484,-4.019739151000977,0.7062831521034241,-0.2721978425979614,-0.47883379459381104,-0.4447365403175354,9.80526351928711,0.4178484380245209,1.0039583444595337,-4.285574436187744,44.83926010131836,-6.0959577560424805,0.40798458456993103,-0.5374993681907654,-0.3716461956501007,-0.6375910043716431
2960404,9.073662757873535,0.40546977519989014,3.795480489730835,-1.1847299337387085,20.351016998291016,-3.9013068675994873,0.7073615193367004,-0.27073001861572266,-0.4767782390117645,-0.4461250305175781,9.739372253417969,0.43482932448387146,1.1409021615982056,-4.31274938583374,45.458763122558594,-5.682437419891357,0.4094359576702118,-0.5332308411598206,-0.3690183162689209,-0.6417574882507324
2960571,9.011438369750977,0.39225417375564575,3.8400235176086426,0.49875035881996155,19.20461082458496,-3.2006821632385254,0.7084871530532837,-0.2691882848739624,-0.47493067383766174,-0.4472408890724182,9.709437370300293,0.4562050700187683,1.2982677221298218,-4.367063045501709,46.68122100830078,-5.396958351135254,0.4109535813331604,-0.5288475751876831,-0.3662668466567993,-0.6459768414497375
2960737,9.070484161376953,0.42147424817085266,3.910977363586426,0.677604079246521,19.85930061340332,-3.376206636428833,0.7096474766731262,-0.2675723433494568,-0.47303006052970886,-0.4483838379383087,9.793654441833496,0.4492931365966797,1.4350978136062622,-4.13821268081665,47.82304000854492,-4.946812152862549,0.4125899374485016,-0.5243355631828308,-0.3634263575077057,-0.6502023935317993
2960904,9.13634967803955,0.42006948590278625,3.992713689804077,-0.046845704317092896,20.704832077026367,-4.1474833488464355,0.7107691168785095,-0.26593291759490967,-0.47101426124572754,-0.44970282912254333,9.808237075805664,0.46841859817504883,1.6063929796218872,-3.9342222213745117,49.79322814941406,-4.238465785980225,0.41439536213874817,-0.5196347832679749,-0.3604177236557007,-0.6544886231422424
2961071,9.062276840209961,0.4614206850528717,3.9820492267608643,-0.6847953200340271,23.191762924194336,-4.544367790222168,0.7120192646980286,-0.26414838433265686,-0.46872109174728394,-0.4511706233024597,9.60733413696289,0.47026675939559937,1.7683361768722534,-3.4218502044677734,51.117042541503906,-3.878861904144287,0.4163157343864441,-0.5147706270217896,-0.3573293387889862,-0.6587931513786316
2961237,8.929588317871094,0.4282592833042145,4.04302453994751,0.7776862382888794,23.6770076751709,-4.205139636993408,0.7133955955505371,-0.26217976212501526,-0.46646711230278015,-0.45247891545295715,9.594499588012695,0.48045340180397034,1.9612716436386108,-2.914470672607422,51.39582443237305,-3.3305015563964844,0.4183498024940491,-0.5098327398300171,-0.354235976934433,-0.6630014777183533
2961404,8.906006813049316,0.45928317308425903,4.098441123962402,0.6260331869125366,23.66826057434082,-3.971461296081543,0.7147351503372192,-0.2602773904800415,-0.46416914463043213,-0.45382434129714966,9.603448867797852,0.5122131705284119,2.121711492538452,-2.371105909347534,52.79841613769531,-2.9457197189331055,0.42051002383232117,-0.5047175288200378,-0.35106149315834045,-0.6672238111495972
2961571,8.961596488952637,0.4613860845565796,4.207281589508057,0.5533572435379028,24.843767166137695,-4.048186302185059,0.7161551713943481,-0.2582775950431824,-0.4617525339126587,-0.4551915228366852,9.485196113586426,0.5193825364112854,2.3228330612182617,-1.811361312866211,53.40993881225586,-2.6025326251983643,0.42275094985961914,-0.4994965195655823,-0.34785833954811096,-0.6714012622833252
2961737,8.883380889892578,0.44950345158576965,4.34246826171875,0.7578367590904236,26.08525848388672,-4.24705696105957,0.717688262462616,-0.2561188042163849,-0.45924198627471924,-0.45653438568115234,9.378999710083008,0.5138538479804993,2.4883711338043213,-1.032778263092041,53.01462173461914,-2.1896512508392334,0.4250439405441284,-0.4942574203014374,-0.3447052240371704,-0.6754447817802429
2961904,8.820389747619629,0.47705793380737305,4.325337886810303,1.1683967113494873,26.931793212890625,-4.3636603355407715,0.7191946506500244,-0.2539215087890625,-0.4566288888454437,-0.4580099582672119,9.227327346801758,0.5512099266052246,2.6586689949035645,-0.3421376347541809,51.6790657043457,-1.7558565139770508,0.42733827233314514,-0.48910006880760193,-0.3416517674922943,-0.6792917847633362
2962071,8.845786094665527,0.5021374821662903,4.349252223968506,2.8002381324768066,28.571250915527344,-4.117099761962891,0.7208924889564514,-0.2514425814151764,-0.45394372940063477,-0.4593755304813385,9.297703742980957,0.5938000082969666,2.8677990436553955,-0.03128618374466896,49.8979377746582,-1.646411418914795,0.4295543134212494,-0.48407799005508423,-0.3387136161327362,-0.6829530596733093
2962237,8.747062683105469,0.5767330527305603,4.556687831878662,3.30961275100708,29.644277572631836,-3.638615608215332,0.7226969003677368,-0.2488657385110855,-0.4511552155017853,-0.4606885612010956,9.294984817504883,0.6035339832305908,3.0521552562713623,0.2958100140094757,49.49830627441406,-1.3610962629318237,0.4317801296710968,-0.479063481092453,-0.33579546213150024,-0.6865170001983643
2962404,8.736519813537598,0.6100082993507385,4.622985363006592,2.991657018661499,30.54669952392578,-4.003983497619629,0.7245309948921204,-0.24621598422527313,-0.4482637941837311,-0.46205201745033264,9.144682884216309,0.6000648736953735,3.223132610321045,0.6969978213310242,48.53447723388672,-0.9542986750602722,0.4340061843395233,-0.4741151034832001,-0.3329327702522278,-0.6899344325065613
2962571,8.585679054260254,0.6057420372962952,4.720218658447266,2.0617973804473877,31.283349990844727,-3.7947134971618652,0.7263556718826294,-0.2436438947916031,-0.44520461559295654,-0.4635060429573059,8.999876976013184,0.6066965460777283,3.339400291442871,1.2641438245773315,46.825660705566406,-0.4974665343761444,0.4362142086029053,-0.46930089592933655,-0.3301873803138733,-0.6931451559066772
2962737,8.542484283447266,0.5761675834655762,4.805789947509766,2.3522844314575195,30.10616683959961,-3.071664333343506,0.7281763553619385,-0.241136834025383,-0.4422683119773865,-0.4647698402404785,8.949254989624023,0.655401349067688,3.4768521785736084,1.495734453201294,44.55892562866211,0.0575457327067852,0.4383666515350342,-0.4647056758403778,-0.32755666971206665,-0.6961249709129333
2962904,8.53272533416748,0.6186056733131409,4.882279872894287,1.8116111755371094,30.19081687927246,-2.543323516845703,0.7299787998199463,-0.23873519897460938,-0.4392457604408264,-0.46604692935943604,9.015395164489746,0.6227312684059143,3.6431353092193604,1.7264668941497803,42.66807556152344,0.3961349427700043,0.4404619634151459,-0.4602836072444916,-0.32503390312194824,-0.6989173889160156
2963071,8.383895874023438,0.6558746695518494,4.95081901550293,0.8216387629508972,30.762622833251953,-2.5459232330322266,0.7317840456962585,-0.23638148605823517,-0.4360937774181366,-0.4673737585544586,9.160246849060059,0.6136094927787781,3.7671406269073486,1.9354931116104126,42.0457763671875,0.5696107149124146,0.44254329800605774,-0.4559010863304138,-0.3225480914115906,-0.7016213536262512
2963237,8.268471717834473,0.654897928237915,5.092394828796387,0.6316688656806946,30.203100204467773,-2.4707753658294678,0.733515202999115,-0.23410239815711975,-0.4329688549041748,-0.46871060132980347,9.044878005981445,0.6180285811424255,3.8795413970947266,2.2582921981811523,42.092369079589844,0.613933801651001,0.44463691115379333,-0.45147740840911865,-0.32007715106010437,-0.7042847275733948
2963404,8.244080543518066,0.6594957709312439,5.120647430419922,0.9171103239059448,29.09596824645996,-2.406525135040283,0.7351883053779602,-0.23185858130455017,-0.42997512221336365,-0.4699587821960449,8.996788024902344,0.6202135682106018,4.001396179199219,2.3605895042419434,41.252464294433594,0.5809827446937561,0.4466789960861206,-0.44711413979530334,-0.31766125559806824,-0.7068650126457214
2963571,8.267468452453613,0.6577463150024414,5.178913593292236,0.5176405310630798,28.32874298095703,-2.3632776737213135,0.736781656742096,-0.22971579432487488,-0.4270226061344147,-0.47120609879493713,8.975578308105469,0.6529853343963623,4.092568397521973,2.3344385623931885,41.042823791503906,0.4366030693054199,0.4486795663833618,-0.4427506923675537,-0.3152541518211365,-0.7094175815582275
2963737,8.259993553161621,0.6922982335090637,5.29478120803833,0.6059533357620239,28.759870529174805,-1.8342076539993286,0.7384262681007385,-0.2275632917881012,-0.42400455474853516,-0.47240006923675537,8.884642601013184,0.6325308680534363,4.180349349975586,2.147003412246704,40.67345428466797,0.3040308952331543,0.45062217116355896,-0.4384151101112366,-0.312849223613739,-0.7119391560554504
2963904,8.102252960205078,0.6885063648223877,5.408258438110352,1.0531524419784546,28.191547393798828,-1.4632320404052734,0.7400740385055542,-0.22541314363479614,-0.4210619330406189,-0.47348323464393616,8.844075202941895,0.6584554314613342,4.269561290740967,1.9694291353225708,39.96987533569336,-0.09107927232980728,0.4524655342102051,-0.43413016200065613,-0.3104863464832306,-0.7144259214401245
2964071,8.081170082092285,0.7455300092697144,5.561767101287842,0.46226561069488525,27.30977439880371,-1.7001882791519165,0.7416173219680786,-0.22337014973163605,-0.4181729257106781,-0.47459542751312256,8.819003105163574,0.6951776146888733,4.397024631500244,1.6502288579940796,39.467674255371094,-0.15491926670074463,0.4542447626590729,-0.429900199174881,-0.30811700224876404,-0.716876208782196
2964237,8.058732032775879,0.7005626559257507,5.437389373779297,0.19105201959609985,26.409339904785156,-1.5813448429107666,0.7430916428565979,-0.22142361104488373,-0.4153502881526947,-0.47567906975746155,8.776562690734863,0.7132464647293091,4.445071220397949,1.0521432161331177,38.98817443847656,-0.344838410615921,0.45593103766441345,-0.42573654651641846,-0.30571895837783813,-0.7193131446838379
2964404,8.062660217285156,0.7544728517532349,5.598718166351318,0.8606081604957581,27.577259063720703,-0.863777756690979,0.7447023391723633,-0.21935878694057465,-0.412420392036438,-0.476665198802948,8.709416389465332,0.7087064981460571,4.559378623962402,0.6049814224243164,38.200130462646484,-0.5418906807899475,0.4575197696685791,-0.421661913394928,-0.3033292591571808,-0.7217121124267578
2964571,7.938252925872803,0.7644104361534119,5.58795166015625,0.31307119131088257,26.88312339782715,-1.2123544216156006,0.746217668056488,-0.21737678349018097,-0.409531831741333,-0.47769272327423096,8.743608474731445,0.6730479001998901,4.70009708404541,0.28672921657562256,37.611263275146484,-0.3205445408821106,0.4590727388858795,-0.41766655445098877,-0.300922691822052,-0.7240527868270874
2964737,7.991559028625488,0.7748351693153381,5.716625213623047,0.20726488530635834,26.849315643310547,-1.3757511377334595,0.747704029083252,-0.21539567410945892,-0.40663787722587585,-0.4787369966506958,8.643035888671875,0.6830120086669922,4.842714309692383,0.2285751849412918,36.878902435302734,-0.037228234112262726,0.46060696244239807,-0.4137517511844635,-0.2985328733921051,-0.7263119220733643
2964904,7.9059906005859375,0.7372506856918335,5.746762752532959,0.4617149233818054,26.908905029296875,-1.007926344871521,0.7492110729217529,-0.21340449154376984,-0.4037352204322815,-0.47972825169563293,8.522984504699707,0.6747642159461975,4.8945488929748535,0.12417732179164886,35.53157424926758,0.24773354828357697,0.46209418773651123,-0.4099862575531006,-0.29619669914245605,-0.7284558415412903
2965071,7.844787120819092,0.7325809597969055,5.746192455291748,0.15159551799297333,25.531660079956055,-0.9465707540512085,0.7506269812583923,-0.2115389108657837,-0.4009551405906677,-0.48067185282707214,8.487624168395996,0.6869835257530212,4.958859920501709,0.00420690281316638,34.110984802246094,0.11710814386606216,0.4634878635406494,-0.4063623249530792,-0.2939434051513672,-0.7305108904838562
2965237,7.899490833282471,0.7595180869102478,5.78563928604126,-0.044950392097234726,25.522016525268555,-0.8959726095199585,0.7520237565040588,-0.20969939231872559,-0.39815300703048706,-0.4816228449344635,8.441268920898438,0.6615918874740601,5.044463634490967,-0.23107866942882538,33.023292541503906,-0.2684861421585083,0.46476948261260986,-0.40284278988838196,-0.2917540669441223,-0.7325208783149719
2965404,7.7863640785217285,0.7326345443725586,5.9104790687561035,-0.744473397731781,26.279123306274414,-1.1001065969467163,0.7534201741218567,-0.20786677300930023,-0.3952206075191498,-0.48264896869659424,8.462569236755371,0.6552291512489319,5.1095476150512695,-0.3238481283187866,31.9453182220459,-0.4115463197231293,0.46597474813461304,-0.3994285762310028,-0.28962939977645874,-0.7344653010368347
2965571,7.6423020362854,0.7250290513038635,6.043780326843262,-0.6711437702178955,24.97549057006836,-1.166763424873352,0.7547319531440735,-0.2061084806919098,-0.39243361353874207,-0.48362693190574646,8.471369743347168,0.6342668533325195,5.211785316467285,-0.42506977915763855,31.34678077697754,-0.3274978995323181,0.46714845299720764,-0.3960797190666199,-0.2875233292579651,-0.7363584041595459
2965737,7.660080432891846,0.7620485424995422,6.055905342102051,-0.4640389382839203,23.401748657226562,-1.173742651939392,0.7559496760368347,-0.20443519949913025,-0.3898281455039978,-0.4845415949821472,8.448914527893066,0.6490586996078491,5.300220966339111,-0.36663421988487244,31.090625762939453,-0.22148656845092773,0.4683168828487396,-0.3927501440048218,-0.2854287028312683,-0.7382122278213501
2965904,7.699373722076416,0.7309409379959106,6.036139965057373,-0.10962256044149399,23.24151611328125,-1.0519540309906006,0.7571688890457153,-0.20273827016353607,-0.38725683093070984,-0.4854118824005127,8.327811241149902,0.6499108672142029,5.348936557769775,-0.45154061913490295,30.690269470214844,-0.4085879623889923,0.4694347381591797,-0.389453262090683,-0.28335705399513245,-0.7400447130203247
2966071,7.574965000152588,0.722443699836731,6.122339248657227,-0.028506984934210777,23.198467254638672,-0.7363408207893372,0.758403480052948,-0.2010497748851776,-0.3846827745437622,-0.48623308539390564,8.27745532989502,0.6764082312583923,5.3875837326049805,-0.6421251893043518,29.644363403320312,-0.7892321348190308,0.4704490303993225,-0.38625824451446533,-0.2813521921634674,-0.7418379187583923
2966237,7.526069164276123,0.7300822138786316,6.199103355407715,-0.2576513886451721,21.79612922668457,-1.1309818029403687,0.7595089077949524,-0.19946667551994324,-0.3822515606880188,-0.4870762825012207,8.326741218566895,0.67984539270401,5.474752426147461,-0.8566064834594727,29.03952980041504,-0.8524700403213501,0.4714113473892212,-0.38313302397727966,-0.2793639004230499,-0.7435969114303589
2966404,7.556214809417725,0.7689393758773804,6.2719502449035645,-0.4557274580001831,21.21608543395996,-1.2541403770446777,0.7605664134025574,-0.19793325662612915,-0.3798717260360718,-0.48791247606277466,8.333125114440918,0.6966920495033264,5.5348124504089355,-1.2242908477783203,29.20231056213379,-0.9086132645606995,0.4723455011844635,-0.38000601530075073,-0.277322918176651,-0.7453705668449402
2966571,7.482428073883057,0.7535799145698547,6.287045478820801,-0.8340147733688354,21.242828369140625,-1.1811058521270752,0.7616143822669983,-0.19644050300121307,-0.3774566948413849,-0.4887546896934509,8.171974182128906,0.6786943078041077,5.572373867034912,-1.5519421100616455,29.324010848999023,-1.0170577764511108,0.4732462465763092,-0.3768768310546875,-0.2752391993999481,-0.7471581697463989
2966737,7.4971489906311035,0.722851037979126,6.309256076812744,-0.34217336773872375,20.597515106201172,-1.0722004175186157,0.7626371383666992,-0.1949460506439209,-0.3751398026943207,-0.4895416498184204,8.148187637329102,0.6570903062820435,5.598546504974365,-1.8159072399139404,28.83968162536621,-1.0819091796875,0.4740978479385376,-0.3738088011741638,-0.2731587588787079,-0.7489210367202759
2966904,7.455759525299072,0.7396187782287598,6.415273189544678,-0.3947819471359253,21.09510612487793,-0.9516797065734863,0.7636909484863281,-0.19342416524887085,-0.37275803089141846,-0.49032095074653625,8.18636703491211,0.6636272072792053,5.694845676422119,-2.067962408065796,28.893125534057617,-1.1732827425003052,0.47491970658302307,-0.37074196338653564,-0.2710473835468292,-0.7506898045539856
