sampleTimeFine,D4:22:CD:00:A9:12_acc_x,D4:22:CD:00:A9:12_acc_y,D4:22:CD:00:A9:12_acc_z,D4:22:CD:00:A9:12_gyro_x,D4:22:CD:00:A9:12_gyro_y,D4:22:CD:00:A9:12_gyro_z,D4:22:CD:00:A9:12_quat_w,D4:22:CD:00:A9:12_quat_x,D4:22:CD:00:A9:12_quat_y,D4:22:CD:00:A9:12_quat_z,D4:22:CD:00:A1:93_acc_x,D4:22:CD:00:A1:93_acc_y,D4:22:CD:00:A1:93_acc_z,D4:22:CD:00:A1:93_gyro_x,D4:22:CD:00:A1:93_gyro_y,D4:22:CD:00:A1:93_gyro_z,D4:22:CD:00:A1:93_quat_w,D4:22:CD:00:A1:93_quat_x,D4:22:CD:00:A1:93_quat_y,D4:22:CD:00:A1:93_quat_z
3028995,0.11407473683357239,-0.7911518812179565,0.02674819529056549,-0.44963958859443665,0.2945479154586792,-0.5358204245567322,0.692470908164978,-0.33296412229537964,-0.4868868291378021,-0.41540345549583435,-0.2076292484998703,0.7502992749214172,-0.2681441605091095,-0.005026505794376135,-0.1199856847524643,-0.6457715630531311,0.3470614552497864,-0.6368903517723083,-0.3673943877220154,-0.5821858048439026
3029162,9.336225509643555,-0.5821707844734192,2.964275360107422,0.4034833014011383,-0.2071811407804489,-0.2071555256843567,0.6923184990882874,-0.3333917260169983,-0.48686161637306213,-0.41534438729286194,9.817214965820312,-0.15664146840572357,-0.7845154404640198,-1.481886863708496,-0.025753572583198547,-1.859789490699768,0.3465847671031952,-0.6369541883468628,-0.3673122227191925,-0.5824517607688904
3029329,9.328594207763672,-0.5663100481033325,2.9372494220733643,-0.08246008306741714,0.33709514141082764,-0.3310697078704834,0.6922427415847778,-0.33369919657707214,-0.4868246018886566,-0.4152670204639435,9.84304428100586,-0.16496995091438293,-0.8114782571792603,-1.089577078819275,0.3196401000022888,-1.8787940740585327,0.34641173481941223,-0.636914849281311,-0.36711955070495605,-0.5827193260192871
3029495,9.40056324005127,-0.5661165118217468,2.963430404663086,0.3011349141597748,1.114709496498108,-0.25330957770347595,0.6922348141670227,-0.33375707268714905,-0.486955851316452,-0.4150799512863159,9.79435920715332,-0.10863126814365387,-0.817360520362854,-0.7906128168106079,0.9233570694923401,-1.9459890127182007,0.3463752269744873,-0.6368911266326904,-0.3670123517513275,-0.5828344821929932
3029995,9.365850448608398,-0.5682793259620667,2.9809682369232178,1.320417881011963,1.484697699546814,-0.3235523998737335,0.6922701001167297,-0.33378034830093384,-0.4869160056114197,-0.4150488078594208,9.832009315490723,-0.06553830951452255,-0.7837862372398376,-0.9130287766456604,1.4409641027450562,-2.103135585784912,0.3461019992828369,-0.6368008255958557,-0.36705607175827026,-0.583067774772644
3030162,9.359935760498047,-0.5310190320014954,2.989531993865967,1.7299073934555054,1.2893434762954712,-0.28811728954315186,0.6923781037330627,-0.3336033821105957,-0.48693567514419556,-0.4149879813194275,9.819210052490234,-0.0379989854991436,-0.7901948690414429,-0.9732568264007568,2.0845086574554443,-1.9234367609024048,0.34587907791137695,-0.6364668607711792,-0.3672506511211395,-0.5834422707557678
3030329,9.301191329956055,-0.5447079539299011,3.035640001296997,0.6687284111976624,0.9616608619689941,-0.33470675349235535,0.6923943161964417,-0.33349665999412537,-0.48691311478614807,-0.4150732755661011,9.804940223693848,-0.05702458322048187,-0.7558015584945679,-0.9977554082870483,2.502751350402832,-1.817950963973999,0.3455371558666229,-0.6361221671104431,-0.36736783385276794,-0.583946704864502
3030495,9.342048645019531,-0.5745425224304199,2.9851784706115723,-0.04515518993139267,0.553355872631073,-0.3314155042171478,0.6924004554748535,-0.3334239721298218,-0.48684045672416687,-0.41520652174949646,9.746830940246582,-0.055745385587215424,-0.7429149746894836,-0.9295105338096619,2.4919300079345703,-1.4783138036727905,0.34519562125205994,-0.6358272433280945,-0.3673267066478729,-0.5844956040382385
3030662,9.335321426391602,-0.5652302503585815,3.024942398071289,-0.009809663519263268,0.4927947521209717,-0.09549695253372192,0.6923735737800598,-0.33344054222106934,-0.4867260456085205,-0.4153720736503601,9.743338584899902,-0.03623395785689354,-0.7369838356971741,-0.8661958575248718,2.0498545169830322,-0.8666440844535828,0.3450523614883423,-0.6355252861976624,-0.36735621094703674,-0.5848897099494934
3030829,9.298360824584961,-0.5335236191749573,3.0179219245910645,0.3460467755794525,0.5314955711364746,0.1003185361623764,0.692372739315033,-0.33344897627830505,-0.48658838868141174,-0.41552796959877014,9.736966133117676,-0.01670330949127674,-0.7027840614318848,-0.8494579195976257,1.6609258651733398,-0.15302306413650513,0.3449399471282959,-0.6353148221969604,-0.36729809641838074,-0.5852212309837341
3030995,9.292058944702148,-0.5544658899307251,2.9912006855010986,-0.22548137605190277,0.2012965828180313,0.10640155524015427,0.6924397349357605,-0.33338406682014465,-0.48654109239578247,-0.4155239462852478,9.728116989135742,-0.00948634184896946,-0.6824877262115479,-1.0964924097061157,1.3193293809890747,0.39823266863822937,0.34483274817466736,-0.6351717114448547,-0.36715802550315857,-0.5855274796485901
3031162,9.347694396972656,-0.5566402673721313,2.9734232425689697,-0.28910332918167114,0.52127605676651,0.09374887496232986,0.6924978494644165,-0.33334022760391235,-0.4864424765110016,-0.41557782888412476,9.783743858337402,-0.028658879920840263,-0.6977354884147644,-1.0270051956176758,1.1683681011199951,0.6042356491088867,0.34481629729270935,-0.6350005269050598,-0.36706897616386414,-0.5857784748077393
3031329,9.331193923950195,-0.5392771363258362,2.9943480491638184,-0.2915237545967102,0.9956745505332947,0.21003054082393646,0.6925609707832336,-0.33331671357154846,-0.48628413677215576,-0.41567671298980713,9.781518936157227,-0.05840058997273445,-0.7103157639503479,-1.0486094951629639,1.3420093059539795,0.8241462111473083,0.3447985351085663,-0.6348621249198914,-0.3668919503688812,-0.5860497951507568
3031495,9.292296409606934,-0.5684921145439148,3.0290720462799072,-0.46647125482559204,0.8704667687416077,0.32800260186195374,0.6926358342170715,-0.33329516649246216,-0.4861505329608917,-0.41572538018226624,9.768048286437988,-0.10026651620864868,-0.6839215755462646,-0.736096203327179,1.1887173652648926,0.7925401329994202,0.3448948562145233,-0.6346890330314636,-0.3668234050273895,-0.5862235426902771
3031662,9.301050186157227,-0.5543371438980103,3.0614981651306152,-0.26719167828559875,0.5934398174285889,0.24803976714611053,0.6926769614219666,-0.3332955241203308,-0.4860312342643738,-0.4157959818840027,9.8004789352417,-0.09980840981006622,-0.6544684767723083,-0.32438480854034424,0.964695930480957,0.874756932258606,0.3449391722679138,-0.6346042156219482,-0.36664828658103943,-0.5863987803459167
3031829,9.307941436767578,-0.5589218735694885,3.0531904697418213,-0.25566595792770386,0.566328763961792,0.30518171191215515,0.6927839517593384,-0.33322873711586,-0.4859488308429718,-0.4157678186893463,9.814212799072266,-0.08767601102590561,-0.6520331501960754,0.0017352603608742356,1.1654866933822632,0.6512349247932434,0.3450421690940857,-0.6344696879386902,-0.36650896072387695,-0.5865708589553833
3031995,9.32569694519043,-0.5438624620437622,3.0490851402282715,0.07756166160106659,0.49552255868911743,0.1992732137441635,0.6928274035453796,-0.333207368850708,-0.48583704233169556,-0.41584300994873047,9.767274856567383,-0.0655772015452385,-0.639190137386322,0.1546814888715744,1.0273958444595337,0.47522440552711487,0.34515678882598877,-0.6343281269073486,-0.3664048910140991,-0.5867215394973755
3032162,9.320136070251465,-0.5412589907646179,3.0583367347717285,0.04404744133353233,0.462840735912323,0.0785989761352539,0.6929834485054016,-0.33303579688072205,-0.48583269119262695,-0.41572558879852295,9.755903244018555,-0.04701835662126541,-0.6279792785644531,0.08984295278787613,0.9248170256614685,0.3495813310146332,0.3452885150909424,-0.6341704726219177,-0.36634719371795654,-0.5868505835533142
3032329,9.311989784240723,-0.5505356788635254,3.057110071182251,0.2078278362751007,0.3354302942752838,0.13676540553569794,0.6930431723594666,-0.33297282457351685,-0.485769122838974,-0.415750652551651,9.761700630187988,-0.029478834941983223,-0.6284077167510986,-0.16607274115085602,0.5939264893531799,0.4310168921947479,0.3453335165977478,-0.6340897083282471,-0.3662205934524536,-0.586990237236023
3032495,9.29461669921875,-0.5412196516990662,3.051466703414917,0.33229273557662964,0.3747842013835907,-0.008874799124896526,0.6930673122406006,-0.332926869392395,-0.48568692803382874,-0.4158433675765991,9.757960319519043,-0.0029503710102289915,-0.6251103281974792,-0.4444059133529663,0.32783615589141846,0.2555955648422241,0.3454194962978363,-0.633974015712738,-0.3662094473838806,-0.5870715975761414
3032662,9.277711868286133,-0.5299652814865112,3.0727381706237793,0.5378859043121338,0.030024485662579536,-0.04816467687487602,0.6931140422821045,-0.33283111453056335,-0.48568663001060486,-0.4158424139022827,9.69283676147461,0.017971694469451904,-0.5851222276687622,-0.9733467102050781,-0.10593413561582565,0.18322685360908508,0.34533432126045227,-0.6339707970619202,-0.36609306931495667,-0.5871976613998413
3032829,9.300825119018555,-0.5212357640266418,3.053086757659912,0.40368813276290894,-0.059972137212753296,-0.005980565212666988,0.6931387186050415,-0.33276936411857605,-0.48567435145378113,-0.41586509346961975,9.750587463378906,0.009474631398916245,-0.6284457445144653,-1.5347771644592285,-0.6731658577919006,0.26550763845443726,0.34515872597694397,-0.6340500116348267,-0.3659423291683197,-0.5873093008995056
3032995,9.309479713439941,-0.5260956287384033,3.053358554840088,0.16050837934017181,0.30691054463386536,0.01506667211651802,0.6931692361831665,-0.3327196538448334,-0.48560577630996704,-0.4159340560436249,9.77958869934082,-0.028386488556861877,-0.6091004014015198,-1.8866955041885376,-0.8294545412063599,0.3856312334537506,0.3449592888355255,-0.6341605186462402,-0.3657756447792053,-0.587411105632782
3033162,9.291776657104492,-0.5511298179626465,3.046889305114746,0.45450374484062195,0.3682657778263092,0.12151303887367249,0.6932198405265808,-0.3326480984687805,-0.48554322123527527,-0.4159800708293915,9.797242164611816,-0.060235876590013504,-0.6399964094161987,-1.98399817943573,-0.8980324268341064,0.4016519784927368,0.344757616519928,-0.6342791318893433,-0.3656102418899536,-0.587504506111145
3033329,9.284767150878906,-0.5526849627494812,3.0594096183776855,0.636148989200592,0.27691808342933655,0.3286941349506378,0.6932732462882996,-0.3325943648815155,-0.48548245429992676,-0.41600504517555237,9.780948638916016,-0.0780622586607933,-0.6562671065330505,-1.701208233833313,-0.8669130206108093,0.47592875361442566,0.34456518292427063,-0.634407103061676,-0.36542949080467224,-0.5875915884971619
3033495,9.280117988586426,-0.5303765535354614,3.0755274295806885,0.4769020080566406,0.12191005051136017,0.2375001460313797,0.6933097243309021,-0.33255305886268616,-0.4854375422000885,-0.4160294830799103,9.79352855682373,-0.09299278259277344,-0.6605713963508606,-1.2150664329528809,-0.9035264849662781,0.4411851465702057,0.3444856107234955,-0.63447505235672,-0.3653692901134491,-0.5876023769378662
3033662,9.307787895202637,-0.5344927906990051,3.0886993408203125,0.43156754970550537,-0.04598759859800339,0.3961195647716522,0.693381667137146,-0.3324909806251526,-0.48543083667755127,-0.41596725583076477,9.801471710205078,-0.10781890153884888,-0.6637386083602905,-0.7167585492134094,-0.7965933680534363,0.4630967974662781,0.3444012999534607,-0.6345545649528503,-0.3652758002281189,-0.5876240730285645
3033829,9.298433303833008,-0.5364957451820374,3.0670502185821533,0.39322540163993835,-0.6202243566513062,0.5574155449867249,0.6933504939079285,-0.33256107568740845,-0.4854152202606201,-0.415981262922287,9.778963088989258,-0.12174484133720398,-0.6592311859130859,-0.16600871086120605,-0.8022153973579407,0.4193374812602997,0.3444097936153412,-0.6345841884613037,-0.36527711153030396,-0.5875861644744873
3033995,9.331631660461426,-0.5550662279129028,3.048891305923462,0.49679034948349,-0.5870558619499207,0.5704525113105774,0.6933683156967163,-0.33257201313972473,-0.4854359030723572,-0.4159187078475952,9.774733543395996,-0.10215054452419281,-0.6924310922622681,0.5234531760215759,-0.9028220772743225,0.604376494884491,0.3444550633430481,-0.6346285343170166,-0.36527806520462036,-0.5875111222267151
3034162,9.332562446594238,-0.559904158115387,3.050776243209839,0.4982374310493469,-0.47759997844696045,0.6880019307136536,0.6934113502502441,-0.3325735628604889,-0.4854509234428406,-0.4158281981945038,9.737117767333984,-0.09185075014829636,-0.69817054271698,1.0701946020126343,-0.9796985387802124,0.6841472387313843,0.34457099437713623,-0.6346516013145447,-0.3653402328491211,-0.5873796343803406
3034329,9.300960540771484,-0.5566950440406799,3.042285442352295,0.5454928278923035,-0.508540153503418,0.6295152902603149,0.6933910250663757,-0.33263909816741943,-0.48542889952659607,-0.4158351421356201,9.733488082885742,-0.04429107531905174,-0.7132412791252136,1.174412488937378,-1.2347240447998047,0.9122152924537659,0.34468474984169006,-0.6347189545631409,-0.36538490653038025,-0.587212324142456
3034495,9.30755615234375,-0.5421596169471741,3.0370466709136963,0.5542908310890198,-0.3917974531650543,0.8935694098472595,0.6934468150138855,-0.3326564133167267,-0.4854257106781006,-0.4157319664955139,9.777315139770508,-0.06895248591899872,-0.7559806108474731,1.2784515619277954,-1.527772068977356,1.2165584564208984,0.34483206272125244,-0.6348151564598083,-0.3654464781284332,-0.586983323097229
3034662,9.321231842041016,-0.57438725233078,3.0060808658599854,0.13229601085186005,-0.1348636895418167,1.03560471534729,0.693505585193634,-0.33271434903144836,-0.48536431789398193,-0.4156593382358551,9.789546966552734,-0.03242793306708336,-0.7584295272827148,1.4152618646621704,-1.4247448444366455,1.404645323753357,0.3450298011302948,-0.6348990201950073,-0.36552053689956665,-0.5867302417755127
3034829,9.341779708862305,-0.538870096206665,3.0328776836395264,0.16236531734466553,-0.15201136469841003,0.7666584849357605,0.6935175061225891,-0.3327885568141937,-0.4852983355522156,-0.41565707325935364,9.855165481567383,-0.016361305490136147,-0.7483742237091064,0.9806654453277588,-1.2250169515609741,1.0811567306518555,0.34514161944389343,-0.6349892020225525,-0.36555472016334534,-0.5865456461906433
3034995,9.347902297973633,-0.5223694443702698,3.0377414226531982,0.3021466135978699,-0.2737869322299957,0.6409513354301453,0.6935892701148987,-0.3327653408050537,-0.48531797528266907,-0.4155329167842865,9.826240539550781,-0.02018548920750618,-0.7537680268287659,0.5599256157875061,-0.5973137617111206,1.04692542552948,0.3452378809452057,-0.6350488066673279,-0.36552491784095764,-0.5864430665969849
3035162,9.323747634887695,-0.567037045955658,3.0732107162475586,-0.05661687254905701,-0.03676702827215195,0.8930443525314331,0.6936231255531311,-0.3328412175178528,-0.4852413237094879,-0.415505051612854,9.818896293640137,-0.05537790805101395,-0.7303974032402039,0.2504858374595642,-0.34871694445610046,1.2367029190063477,0.3453388214111328,-0.6351102590560913,-0.3654496669769287,-0.5863641500473022
3035329,9.322433471679688,-0.5696408748626709,3.0545668601989746,-0.036357227712869644,-0.14142052829265594,1.0508443117141724,0.6936737298965454,-0.33291786909103394,-0.4851788282394409,-0.4154324233531952,9.822031021118164,-0.07209282368421555,-0.7368438839912415,0.1332564651966095,0.06234771013259888,1.1996155977249146,0.3455052673816681,-0.6351051926612854,-0.36541202664375305,-0.5862948298454285
3035495,9.316726684570312,-0.5380744934082031,3.0491812229156494,0.4566296339035034,-0.4882549047470093,1.0319933891296387,0.6937187314033508,-0.3329697847366333,-0.4851791262626648,-0.41531550884246826,9.792874336242676,-0.060940660536289215,-0.7185375690460205,-0.06811697036027908,0.34946608543395996,1.1780112981796265,0.3456096947193146,-0.6351215243339539,-0.3652845025062561,-0.5862951278686523
3035662,9.328086853027344,-0.5193191170692444,3.062143087387085,0.28230953216552734,-0.4316379427909851,0.9890535473823547,0.6937201023101807,-0.33307433128356934,-0.4851375222206116,-0.41527777910232544,9.788636207580566,-0.0688014104962349,-0.711696982383728,-0.09100192785263062,0.5595414638519287,1.0656996965408325,0.3457173705101013,-0.6351130604743958,-0.36516037583351135,-0.5863180756568909
3035829,9.323229789733887,-0.5403255820274353,3.0695159435272217,-0.054247695952653885,-0.3734331429004669,0.6910241842269897,0.6937065720558167,-0.33316895365715027,-0.48509788513183594,-0.4152708947658539,9.765215873718262,-0.07956242561340332,-0.7126369476318359,-0.32237422466278076,0.615479588508606,0.9719314575195312,0.3457871079444885,-0.6351142525672913,-0.365010529756546,-0.5863690376281738
3035995,9.324318885803223,-0.5737220644950867,3.0620665550231934,0.2260897010564804,-0.48532217741012573,0.6869261860847473,0.693709135055542,-0.33322855830192566,-0.48509564995765686,-0.41522130370140076,9.745525360107422,-0.10175211727619171,-0.719909131526947,-0.21718287467956543,0.544570803642273,0.9015989899635315,0.3457954525947571,-0.6351513862609863,-0.3648136258125305,-0.5864464640617371
3036162,9.32590389251709,-0.5834364891052246,3.0215210914611816,0.23753856122493744,-0.2516319751739502,0.7800923585891724,0.69374018907547,-0.3332737684249878,-0.48507028818130493,-0.4151627719402313,9.735965728759766,-0.1180543452501297,-0.720721960067749,0.010776543989777565,0.2654435932636261,1.0234386920928955,0.34585991501808167,-0.6351842284202576,-0.36468103528022766,-0.5864551663398743
3036329,9.295199394226074,-0.579319179058075,3.0251824855804443,0.18560881912708282,-0.2670508027076721,0.860349714756012,0.6937331557273865,-0.3333774507045746,-0.48500916361808777,-0.41516250371932983,9.767312049865723,-0.09192969650030136,-0.6787712574005127,0.2571963369846344,0.0660359337925911,0.9172226786613464,0.34600916504859924,-0.6351672410964966,-0.36467650532722473,-0.586388349533081
3036495,9.304469108581543,-0.546237051486969,3.021423101425171,0.12518846988677979,-0.1846035271883011,0.42869892716407776,0.6937347650527954,-0.33341535925865173,-0.4849832057952881,-0.4151597321033478,9.733236312866211,-0.09034017473459244,-0.6838150024414062,0.13045187294483185,-0.13440264761447906,0.8976033926010132,0.34605634212493896,-0.6352214813232422,-0.3645876348018646,-0.5863571763038635
3036662,9.307734489440918,-0.5680673718452454,3.0104289054870605,0.25673526525497437,-0.42935848236083984,0.7174820899963379,0.6936923861503601,-0.33353355526924133,-0.48493692278862,-0.4151897132396698,9.803797721862793,-0.12101738154888153,-0.711772620677948,0.27926167845726013,-0.4150409996509552,1.1319212913513184,0.3461640477180481,-0.6352788805961609,-0.3645486533641815,-0.5862556099891663
3036829,9.343706130981445,-0.6179763674736023,2.999645233154297,0.16491375863552094,-0.22180595993995667,0.8986663818359375,0.6937218308448792,-0.33360207080841064,-0.48489758372306824,-0.41513147950172424,9.767776489257812,-0.08750427514314651,-0.705345630645752,0.6034160256385803,-0.3006290793418884,1.1351102590560913,0.3463006019592285,-0.6353161334991455,-0.3645222783088684,-0.5861509442329407
3036995,9.319125175476074,-0.5586622953414917,3.0399670600891113,0.6133921146392822,-0.17753441631793976,0.7086585760116577,0.6937824487686157,-0.3335900604724884,-0.4849053621292114,-0.41503071784973145,9.774155616760254,-0.09323511272668839,-0.7186892628669739,0.5407161116600037,-0.5133553743362427,0.9232416749000549,0.34639617800712585,-0.6353672742843628,-0.36451491713523865,-0.5860435962677002
3037162,9.347853660583496,-0.5570662617683411,3.0072450637817383,0.6361618041992188,-0.2015335112810135,0.5304582118988037,0.6938183903694153,-0.3335797190666199,-0.484915554523468,-0.41496697068214417,9.756558418273926,-0.10805812478065491,-0.7274601459503174,0.49727699160575867,-0.376698762178421,0.654871940612793,0.34646371006965637,-0.6354001760482788,-0.3645133972167969,-0.5859687924385071
3037329,9.322797775268555,-0.6015158891677856,3.037100076675415,0.8459298014640808,-0.11652497947216034,0.7253836393356323,0.6938577890396118,-0.3335849642753601,-0.48490262031555176,-0.4149121046066284,9.799934387207031,-0.11710222065448761,-0.7355028390884399,0.6793448328971863,-0.43313634395599365,0.7936158776283264,0.34654954075813293,-0.6354414820671082,-0.3645097613334656,-0.5858756899833679
3037495,9.332751274108887,-0.5979558229446411,3.0364677906036377,0.6960699558258057,-0.30146148800849915,0.6582912802696228,0.6938697695732117,-0.33361607789993286,-0.48490002751350403,-0.414870023727417,9.812488555908203,-0.1040969118475914,-0.7237759232521057,0.774764895439148,-0.05972881242632866,0.8240053653717041,0.34666207432746887,-0.6354514360427856,-0.3644877076148987,-0.5858120322227478
3037662,9.31846809387207,-0.5795941948890686,3.0835278034210205,0.8901629447937012,-0.5223838090896606,0.7302500009536743,0.6939214468002319,-0.333598256111145,-0.48496124148368835,-0.4147263467311859,9.782999038696289,-0.09808323532342911,-0.7183523178100586,0.8113398551940918,0.2857288718223572,0.88511723279953,0.34683725237846375,-0.6354113817214966,-0.36448490619659424,-0.5857535004615784
3037829,9.326276779174805,-0.5812517404556274,3.043247938156128,0.48795396089553833,-0.39410263299942017,0.6342537999153137,0.6938470005989075,-0.3337351381778717,-0.4849003851413727,-0.41481178998947144,9.777620315551758,-0.0769391655921936,-0.7310905456542969,0.6049783825874329,0.30916449427604675,0.9597653746604919,0.3469812572002411,-0.6353960633277893,-0.364435613155365,-0.5857155919075012
3037995,9.32066822052002,-0.5630919337272644,3.061816692352295,0.28674057126045227,-0.40144065022468567,0.5744224190711975,0.6938530206680298,-0.3337784707546234,-0.4849070608615875,-0.4147590696811676,9.74648380279541,-0.08270814269781113,-0.720736026763916,0.2985096275806427,0.4207334518432617,0.7794008255004883,0.34713178873062134,-0.6353491544723511,-0.36442092061042786,-0.5856863260269165
3038162,9.321799278259277,-0.5746250152587891,3.0559442043304443,0.34232011437416077,-0.08345897495746613,0.6247384548187256,0.6938796639442444,-0.3338091969490051,-0.4848763346672058,-0.41472575068473816,9.770220756530762,-0.09244917333126068,-0.7425357103347778,0.18790116906166077,0.45021364092826843,0.7242183685302734,0.34719181060791016,-0.6353502869606018,-0.36431798338890076,-0.5857136249542236
3038329,9.313573837280273,-0.5627520084381104,3.0340256690979004,0.4594213664531708,-0.03911059349775314,0.6133792996406555,0.6938891410827637,-0.3338542580604553,-0.4848281741142273,-0.4147299826145172,9.76820182800293,-0.1082732230424881,-0.7007536888122559,0.08273541182279587,0.5189837217330933,0.6634520888328552,0.3472456634044647,-0.6353445053100586,-0.3642149269580841,-0.585752010345459
3038495,9.319445610046387,-0.5722181797027588,3.050490617752075,0.5332500338554382,-0.0561046227812767,0.6353806257247925,0.6939130425453186,-0.33388152718544006,-0.4847943186759949,-0.4147077202796936,9.772566795349121,-0.10116900503635406,-0.7522543668746948,-0.03001808188855648,0.5691846013069153,0.7578220963478088,0.3472347855567932,-0.6353856325149536,-0.3640204668045044,-0.585834801197052
3038662,9.308381080627441,-0.5663996934890747,3.046731948852539,0.34016862511634827,0.35465267300605774,0.3593909740447998,0.693976104259491,-0.3338415026664734,-0.48475000262260437,-0.41468605399131775,9.783596992492676,-0.09126104414463043,-0.7266278862953186,-0.11126156151294708,0.7170851230621338,0.6850180625915527,0.347320020198822,-0.6353513598442078,-0.36393022537231445,-0.5858774185180664
3038829,9.330301284790039,-0.5677364468574524,3.016190767288208,0.7941281199455261,0.3998846709728241,0.47010186314582825,0.6940334439277649,-0.33380454778671265,-0.4846929609775543,-0.4146865904331207,9.799972534179688,-0.09330158680677414,-0.7244107127189636,-0.2510300576686859,0.7352316975593567,0.5213016271591187,0.34740862250328064,-0.6352956891059875,-0.36387506127357483,-0.5859195590019226
3038995,9.319774627685547,-0.5655485987663269,3.0609867572784424,0.4257790744304657,0.4463076591491699,0.4472297132015228,0.6940876245498657,-0.33378493785858154,-0.4846215844154358,-0.414695143699646,9.781980514526367,-0.09898717701435089,-0.7041424512863159,-0.27094393968582153,0.9079766273498535,0.3862587511539459,0.3474521040916443,-0.6352444291114807,-0.3637785315513611,-0.5860092639923096
3039162,9.312508583068848,-0.550635814666748,3.0579755306243896,0.22167149186134338,0.1135731041431427,0.3579694628715515,0.6940520405769348,-0.3338589668273926,-0.4845346510410309,-0.41479653120040894,9.78681755065918,-0.10028249025344849,-0.7158279418945312,-0.3122188150882721,0.9019960761070251,0.4516351521015167,0.3474898338317871,-0.6352035403251648,-0.36366528272628784,-0.5861014723777771
3039329,9.33068561553955,-0.5714743733406067,3.0346014499664307,0.36188820004463196,0.04471336677670479,0.45346641540527344,0.6940723061561584,-0.33387306332588196,-0.4844974875450134,-0.41479456424713135,9.803865432739258,-0.1014176681637764,-0.6846936345100403,-0.3490370512008667,0.9167105555534363,0.3972209692001343,0.3475162386894226,-0.635162889957428,-0.3635493516921997,-0.5862017869949341
3039495,9.340394973754883,-0.5731122493743896,3.038306474685669,0.23675738275051117,0.15956071019172668,0.38369742035865784,0.6941074728965759,-0.3338679373264313,-0.484458863735199,-0.41478514671325684,9.749295234680176,-0.083952397108078,-0.6821669340133667,-0.3476284146308899,0.9711503386497498,0.6228048801422119,0.347567617893219,-0.6351275444030762,-0.3634130358695984,-0.5862941741943359
3039662,9.30091381072998,-0.5774001479148865,3.059051990509033,0.29554489254951477,0.15733881294727325,0.36988574266433716,0.6941170692443848,-0.3338877558708191,-0.4844030737876892,-0.41481828689575195,9.76555061340332,-0.1011015996336937,-0.6592808961868286,-0.36120307445526123,0.882888913154602,0.576292097568512,0.3476569652557373,-0.6350678205490112,-0.3633367121219635,-0.586353063583374
3039829,9.311936378479004,-0.5645294189453125,3.03666090965271,0.24818064272403717,0.003617793321609497,0.3204340636730194,0.6940867900848389,-0.33394601941108704,-0.48434293270111084,-0.41489243507385254,9.747374534606934,-0.1120384931564331,-0.6860949397087097,-0.3569898009300232,0.5737051963806152,0.6742222309112549,0.3476737439632416,-0.6350793242454529,-0.3631967306137085,-0.586417555809021
3039995,9.315014839172363,-0.587645947933197,3.071486473083496,0.22927846014499664,0.0002497238165233284,0.3431525230407715,0.6940747499465942,-0.3339864909648895,-0.48429596424102783,-0.41493478417396545,9.766776084899902,-0.10656382143497467,-0.6615232229232788,-0.20190490782260895,0.3164512813091278,0.6356879472732544,0.3477286100387573,-0.635077714920044,-0.36313071846961975,-0.5864275693893433
3040162,9.313238143920898,-0.5800358057022095,3.0745155811309814,0.11463602632284164,0.017128491774201393,0.38963955640792847,0.6940351724624634,-0.3340711295604706,-0.48421671986579895,-0.4150250554084778,9.780237197875977,-0.13148283958435059,-0.6679282188415527,-0.08028300851583481,0.1770285815000534,0.5297666788101196,0.34775638580322266,-0.6350895762443542,-0.3630679249763489,-0.5864371061325073
3040329,9.311922073364258,-0.5810481905937195,3.058189868927002,0.24542729556560516,0.1508011668920517,0.38484999537467957,0.6940522193908691,-0.33408641815185547,-0.484164834022522,-0.4150448143482208,9.779305458068848,-0.11984224617481232,-0.6685539484024048,0.10085640102624893,0.1397877037525177,0.4936015009880066,0.34781569242477417,-0.6350814700126648,-0.3630467653274536,-0.5864237546920776
3040495,9.30909252166748,-0.5867053866386414,3.04396390914917,0.1752741038799286,0.19635336101055145,0.4438488483428955,0.6940369009971619,-0.33415183424949646,-0.48407238721847534,-0.41512569785118103,9.7826509475708,-0.12375107407569885,-0.7010188698768616,0.18248407542705536,0.21274548768997192,0.3666393756866455,0.3478477895259857,-0.6350733041763306,-0.3630102574825287,-0.5864360928535461
3040662,9.288162231445312,-0.5991969704627991,3.0759670734405518,0.2372824251651764,-0.1546238660812378,0.4549519717693329,0.6940385699272156,-0.33418864011764526,-0.48404935002326965,-0.4151201844215393,9.759859085083008,-0.10483293980360031,-0.6794328689575195,0.31979382038116455,0.1753893792629242,0.3728504776954651,0.34793341159820557,-0.6350358724594116,-0.36303266882896423,-0.5864120125770569
3040829,9.316163063049316,-0.5773429274559021,3.0530688762664795,0.507509171962738,-0.29490455985069275,0.43838053941726685,0.6940227746963501,-0.33422887325286865,-0.4840409457683563,-0.41512393951416016,9.784370422363281,-0.10296989977359772,-0.6728637218475342,0.3151194155216217,0.16689874231815338,0.3469560146331787,0.3479398787021637,-0.6350448131561279,-0.3629753887653351,-0.5864339470863342
3040996,9.309871673583984,-0.5724425315856934,3.0807647705078125,0.7502151131629944,-0.2242775857448578,0.45766690373420715,0.6940127611160278,-0.33425572514533997,-0.48402950167655945,-0.41513240337371826,9.792485237121582,-0.0921589657664299,-0.6720411777496338,0.3216378390789032,0.09885860979557037,0.33936184644699097,0.3479994237422943,-0.6350234746932983,-0.3629845976829529,-0.5864159464836121
3041162,9.293309211730957,-0.5815495848655701,3.0757620334625244,0.8773695230484009,-0.31566375494003296,0.39494144916534424,0.6939660906791687,-0.3343087434768677,-0.48401138186454773,-0.41518884897232056,9.78408432006836,-0.07827959954738617,-0.6903367638587952,0.2237333506345749,0.2759704291820526,0.5269492864608765,0.34804174304008484,-0.6350222229957581,-0.36292335391044617,-0.586430013179779
3041329,9.290870666503906,-0.5693723559379578,3.0621066093444824,0.7626886367797852,-0.507297933101654,0.34518879652023315,0.6939046382904053,-0.334372878074646,-0.48401352763175964,-0.4152373969554901,9.781770706176758,-0.08249237388372421,-0.6606041789054871,0.01926715113222599,0.32638904452323914,0.5294978022575378,0.3480789065361023,-0.6350200772285461,-0.36285459995269775,-0.5864529013633728
3041496,9.302019119262695,-0.5637997984886169,3.0755953788757324,-0.01495781634002924,-0.731204092502594,0.17521007359027863,0.6938210129737854,-0.33446818590164185,-0.48403313755989075,-0.4152774214744568,9.786505699157715,-0.10447174310684204,-0.6502045392990112,-0.011359231546521187,0.3389904201030731,0.5865499973297119,0.34810397028923035,-0.6350300312042236,-0.3627619445323944,-0.5864847302436829
3041662,9.341150283813477,-0.5852684378623962,3.1073131561279297,-0.4258367121219635,-0.7636938095092773,0.01866525411605835,0.693722128868103,-0.33457669615745544,-0.48405176401138306,-0.4153335988521576,9.77941608428955,-0.08863658457994461,-0.6723520755767822,-0.19792211055755615,0.48316434025764465,0.33800438046455383,0.3480616807937622,-0.6350460052490234,-0.36262938380241394,-0.586574375629425
3041829,9.312590599060059,-0.560938835144043,3.079704523086548,-0.0637500137090683,-0.7575981020927429,-0.11574380099773407,0.6936172842979431,-0.3346572816371918,-0.4840846657752991,-0.4154054522514343,9.745172500610352,-0.07163530588150024,-0.6610797643661499,-0.4903167188167572,0.4394434690475464,0.03614592179656029,0.3480228781700134,-0.6350281238555908,-0.3625662326812744,-0.5866557359695435
3041996,9.297894477844238,-0.5426967740058899,3.046144962310791,0.15858744084835052,-0.5448076725006104,-0.12674444913864136,0.6935292482376099,-0.33471113443374634,-0.48410314321517944,-0.41548752784729004,9.768686294555664,-0.10546461492776871,-0.6664412617683411,-0.8083367943763733,0.2124253213405609,0.2794153094291687,0.3479378819465637,-0.635073721408844,-0.3624378740787506,-0.5867361426353455
3042162,9.281434059143066,-0.5817126631736755,3.070650339126587,0.4703836143016815,-0.5389039516448975,0.05463828891515732,0.6934609413146973,-0.33475345373153687,-0.4841258227825165,-0.4155411124229431,9.775300025939941,-0.1026277244091034,-0.6571452021598816,-0.8261888027191162,0.15606456995010376,0.14984069764614105,0.34779009222984314,-0.635146975517273,-0.36227211356163025,-0.5868469476699829
3042329,9.31712818145752,-0.5752654075622559,3.0760884284973145,0.7343737483024597,-0.3579118549823761,-0.15028250217437744,0.6934266090393066,-0.3347194492816925,-0.4841724932193756,-0.4155712425708771,9.806550979614258,-0.08053065091371536,-0.6740415096282959,-1.0452669858932495,0.255582720041275,-0.34846076369285583,0.34763941168785095,-0.6351625919342041,-0.36218810081481934,-0.58697110414505
3042496,9.332387924194336,-0.5133177042007446,3.0553603172302246,0.6568568348884583,-0.4337638318538666,-0.5044420957565308,0.6933640837669373,-0.33467012643814087,-0.4842410087585449,-0.4156354069709778,9.807330131530762,-0.071950763463974,-0.6585428714752197,-1.2415755987167358,0.3455216884613037,-0.49107223749160767,0.34744611382484436,-0.6351830363273621,-0.3620782494544983,-0.5871312022209167
3042662,9.317919731140137,-0.568316638469696,3.0683393478393555,0.5274871587753296,-0.17496033012866974,-0.3654676079750061,0.6933287978172302,-0.33461910486221313,-0.4842749834060669,-0.41569578647613525,9.773107528686523,-0.07970498502254486,-0.6562877893447876,-1.104880690574646,0.46737417578697205,-0.3274199962615967,0.3473150134086609,-0.6351762413978577,-0.36199113726615906,-0.5872699022293091
3042829,9.303821563720703,-0.5805290937423706,3.088352918624878,0.4845474362373352,-0.43404558300971985,-0.27705255150794983,0.6932691931724548,-0.33460503816604614,-0.4843204617500305,-0.4157535433769226,9.758397102355957,-0.07726792991161346,-0.6566239595413208,-1.1263182163238525,0.3651026487350464,-0.2908065617084503,0.3471517860889435,-0.6351976990699768,-0.36187437176704407,-0.5874150395393372
3042996,9.310598373413086,-0.5245795249938965,3.094771146774292,0.42399901151657104,-0.5062221884727478,-0.250108003616333,0.6932137608528137,-0.3345910906791687,-0.48437613248825073,-0.41579222679138184,9.759855270385742,-0.05261923372745514,-0.6170133948326111,-1.0476874113082886,0.28803399205207825,-0.15409879386425018,0.347049355506897,-0.6352004408836365,-0.36180579662323,-0.5875148177146912
3043162,9.277443885803223,-0.5107321739196777,3.106781005859375,0.3863227069377899,-0.34787166118621826,-0.2113431841135025,0.6931797862052917,-0.33456215262413025,-0.48441940546035767,-0.41582196950912476,9.781805992126465,-0.03202293440699577,-0.6312828660011292,-1.1442346572875977,0.17871902883052826,-0.24508795142173767,0.3468993306159973,-0.6352272629737854,-0.3617161810398102,-0.5876297354698181
3043329,9.295341491699219,-0.5225447416305542,3.0701239109039307,0.20347367227077484,-0.2794986069202423,-0.38693103194236755,0.6930878162384033,-0.3345847725868225,-0.4844178855419159,-0.41595882177352905,9.769306182861328,-0.06108596920967102,-0.6254292130470276,-1.0649375915527344,0.2042420506477356,-0.2890777289867401,0.3467380702495575,-0.6352542042732239,-0.36161983013153076,-0.5877549052238464
3043496,9.30331039428711,-0.5621082782745361,3.06573224067688,0.2326849400997162,-0.42663073539733887,-0.24618923664093018,0.6930203437805176,-0.3345937132835388,-0.48444610834121704,-0.41603103280067444,9.760444641113281,-0.08030352741479874,-0.6209544539451599,-0.9434694051742554,0.1942659169435501,-0.05155836045742035,0.34660398960113525,-0.635290265083313,-0.3615085780620575,-0.5878634452819824
3043662,9.28990650177002,-0.5601088404655457,3.06406307220459,0.4962012469768524,-0.4962588846683502,0.06927595287561417,0.6929562091827393,-0.33463001251220703,-0.484462708234787,-0.41608935594558716,9.754585266113281,-0.09961560368537903,-0.6425617337226868,-0.4065759778022766,-0.28889843821525574,0.4097582995891571,0.3465281128883362,-0.6353676915168762,-0.3614191710948944,-0.587879478931427
3043829,9.300556182861328,-0.5619509220123291,3.0568811893463135,0.4165073037147522,-0.5886951088905334,0.27663639187812805,0.692913293838501,-0.33467233180999756,-0.48448866605758667,-0.416096568107605,9.727644920349121,-0.08324337750673294,-0.636607825756073,0.13659892976284027,-0.5522609949111938,0.5887655019760132,0.34651827812194824,-0.6354406476020813,-0.3613884747028351,-0.5878252983093262
3043996,9.308828353881836,-0.5519196391105652,3.071758270263672,0.14124763011932373,-0.5295681953430176,0.19050085544586182,0.6928518414497375,-0.3347375988960266,-0.4844926595687866,-0.4161418080329895,9.771537780761719,-0.06154904142022133,-0.6521947979927063,0.3985784351825714,-0.9670458436012268,0.5865116715431213,0.34649786353111267,-0.6355432271957397,-0.36138758063316345,-0.5877269506454468
3044162,9.324030876159668,-0.5467913746833801,3.0441248416900635,0.4945620596408844,-0.2727368175983429,0.37384936213493347,0.6928390860557556,-0.3347617983818054,-0.48448485136032104,-0.41615283489227295,9.770809173583984,-0.07431056350469589,-0.6786441802978516,0.5062286257743835,-0.9694918990135193,0.6855303049087524,0.3465144634246826,-0.6356340050697327,-0.36140769720077515,-0.5876067876815796
3044329,9.332398414611816,-0.545600414276123,3.0125133991241455,0.6988232731819153,-0.4038226306438446,0.6791783571243286,0.6928326487541199,-0.3348095118999481,-0.48447760939598083,-0.4161335527896881,9.808419227600098,-0.08485419303178787,-0.6843310594558716,0.8470056056976318,-1.0015335083007812,0.9030206203460693,0.34658893942832947,-0.6357156038284302,-0.3614494204521179,-0.58744877576828
3044496,9.344438552856445,-0.5800263285636902,3.067450761795044,0.9900780916213989,-0.23223035037517548,0.6732362508773804,0.6928839087486267,-0.3347795605659485,-0.4844972491264343,-0.41604918241500854,9.780755996704102,-0.05325881019234657,-0.6954225301742554,1.095922589302063,-0.887774646282196,0.8564181923866272,0.34669962525367737,-0.6357654929161072,-0.3615238070487976,-0.5872837901115417
3044662,9.322744369506836,-0.5271767377853394,3.0241405963897705,0.7440553307533264,-0.5129327178001404,0.5980501174926758,0.6928963661193848,-0.3347892463207245,-0.48453161120414734,-0.4159807860851288,9.786236763000488,-0.03146633133292198,-0.7150924205780029,0.9627366065979004,-0.8568089008331299,0.7164320349693298,0.3467511832714081,-0.6358337998390198,-0.36155980825424194,-0.5871570706367493
3044829,9.346694946289062,-0.5081288814544678,3.0446691513061523,0.870210587978363,-0.2749907672405243,0.5653170943260193,0.6928603053092957,-0.33484983444213867,-0.48449578881263733,-0.41603386402130127,9.780872344970703,-0.01457789447158575,-0.7178409099578857,0.6306422352790833,-0.7090107798576355,0.6601481437683105,0.3467898368835449,-0.635893702507019,-0.36158302426338196,-0.5870552062988281
3044996,9.338249206542969,-0.5339705348014832,3.027287483215332,0.8136194348335266,-0.5680896639823914,0.5698121190071106,0.6928349733352661,-0.33489394187927246,-0.48451361060142517,-0.41601985692977905,9.801154136657715,-0.025384478271007538,-0.7075379490852356,0.4247545897960663,-0.4258238971233368,0.5864347219467163,0.346813827753067,-0.6359376311302185,-0.3615786135196686,-0.5869960784912109
3045162,9.329798698425293,-0.5263234972953796,3.0219242572784424,0.657151460647583,-0.6064447164535522,0.6392097473144531,0.6927879452705383,-0.3349784314632416,-0.48451054096221924,-0.41603338718414307,9.78382682800293,-0.0015413453802466393,-0.7079567313194275,0.1344858705997467,-0.218591570854187,0.7344376444816589,0.34686756134033203,-0.6359656453132629,-0.361562579870224,-0.5869439244270325
3045329,9.338112831115723,-0.5188566446304321,3.0500082969665527,0.5666617155075073,-0.48574480414390564,0.7168290019035339,0.692771852016449,-0.33504411578178406,-0.4845044016838074,-0.41601452231407166,9.771843910217285,0.011636112816631794,-0.7030057907104492,-0.42405664920806885,-0.03758663311600685,0.8573274612426758,0.34684810042381287,-0.636037290096283,-0.3614353835582733,-0.5869561433792114
3045496,9.333182334899902,-0.5205309987068176,3.0515129566192627,0.34433072805404663,-0.4515134394168854,0.60164874792099,0.6927740573883057,-0.3350822627544403,-0.48451435565948486,-0.41596856713294983,9.783595085144043,-0.011444787494838238,-0.7051697373390198,-0.8103217482566833,0.1034688949584961,1.0805933475494385,0.3468588590621948,-0.6361028552055359,-0.36129236221313477,-0.5869666934013367
3045662,9.324979782104492,-0.5163202881813049,3.058422327041626,0.30907484889030457,-0.5270581841468811,0.6277096271514893,0.6927448511123657,-0.33515968918800354,-0.4845079779624939,-0.41596221923828125,9.777889251708984,-0.04228939861059189,-0.7178457975387573,-1.240371823310852,0.24625970423221588,1.0647519826889038,0.34680038690567017,-0.636198103427887,-0.3610701560974121,-0.5870349407196045
3045829,9.321019172668457,-0.5263493061065674,3.0372798442840576,0.3593141734600067,-0.4137091040611267,0.7301604151725769,0.6927012801170349,-0.33526811003685,-0.48446324467658997,-0.4159995913505554,9.771954536437988,-0.08071126788854599,-0.7178633213043213,-1.1986104249954224,0.24734823405742645,1.0807855129241943,0.34673750400543213,-0.6362972259521484,-0.3608410656452179,-0.5871055722236633
3045996,9.330748558044434,-0.5462757349014282,3.041309356689453,0.36852192878723145,-0.23636680841445923,0.7535833120346069,0.6927139759063721,-0.3353172242641449,-0.4844340980052948,-0.4159730076789856,9.809779167175293,-0.12124796956777573,-0.7038556933403015,-0.9372456073760986,0.2680817246437073,1.0565814971923828,0.34673288464546204,-0.6363585591316223,-0.3606741726398468,-0.5871442556381226
3046162,9.31234359741211,-0.5274619460105896,3.0716614723205566,0.3538714349269867,-0.203070268034935,0.5856279134750366,0.692703902721405,-0.33536988496780396,-0.48439761996269226,-0.415989488363266,9.810258865356445,-0.12201274931430817,-0.6919628977775574,-0.33959877490997314,0.5190348625183105,0.9956487417221069,0.3467431366443634,-0.6363946795463562,-0.3604991137981415,-0.5872066020965576
3046329,9.321853637695312,-0.5468522906303406,3.0815610885620117,0.30894675850868225,-0.2659238278865814,0.5597079396247864,0.6926926970481873,-0.3354204297065735,-0.484371542930603,-0.4159977436065674,9.806642532348633,-0.10913357138633728,-0.687404453754425,0.11129357665777206,0.7106307148933411,0.6858375668525696,0.3468499481678009,-0.6363319754600525,-0.3604588210582733,-0.5872359871864319
3046496,9.346845626831055,-0.5547091364860535,3.0818605422973633,-0.1287166178226471,-0.43823325634002686,0.39674708247184753,0.6926339268684387,-0.3355186879634857,-0.4843405485153198,-0.4160526394844055,9.759532928466797,-0.09353896975517273,-0.6716886162757874,0.2496533989906311,0.6578686833381653,0.5335062146186829,0.3469228446483612,-0.6362774968147278,-0.36041420698165894,-0.5872794985771179
3046662,9.313334465026855,-0.5518516898155212,3.075749158859253,0.32955214381217957,-0.5569097399711609,0.43460261821746826,0.6926059722900391,-0.3355635106563568,-0.4843587279319763,-0.41604188084602356,9.737419128417969,-0.05715494602918625,-0.6766756176948547,0.27256396412849426,0.283206045627594,0.4294930100440979,0.3469482958316803,-0.636260986328125,-0.3603774607181549,-0.5873048901557922
3046829,9.335265159606934,-0.5545760989189148,3.034266948699951,0.7199665904045105,-0.3645583391189575,0.6180920600891113,0.6926251649856567,-0.33556604385375977,-0.48437464237213135,-0.41598936915397644,9.77028751373291,-0.0643395483493805,-0.663000226020813,0.24437715113162994,0.0014022951945662498,0.5018488168716431,0.34698957204818726,-0.636256754398346,-0.36037614941596985,-0.5872859358787537
3046996,9.3319673538208,-0.5400149822235107,3.0504889488220215,0.6850948333740234,-0.0610990896821022,0.724269449710846,0.6926357746124268,-0.3356013298034668,-0.4843246340751648,-0.4160012900829315,9.774178504943848,-0.04335436224937439,-0.6706604361534119,0.2239254117012024,0.07438568025827408,0.7989689111709595,0.3470994234085083,-0.6362372636795044,-0.3603876233100891,-0.5872350931167603
3047162,9.314985275268555,-0.5355530381202698,3.042484760284424,0.5938112735748291,-0.07818277180194855,0.7023963332176208,0.6926689147949219,-0.33561059832572937,-0.48429593443870544,-0.4159720838069916,9.793127059936523,-0.04526552930474281,-0.6620084047317505,0.10053624212741852,0.09340310841798782,0.9747104644775391,0.34715983271598816,-0.6362637281417847,-0.36031389236450195,-0.5872160196304321
3047329,9.30868911743164,-0.545471727848053,3.0708534717559814,0.17500518262386322,0.03622275963425636,0.6448701620101929,0.6926661729812622,-0.3356737494468689,-0.48421719670295715,-0.4160172939300537,9.79837703704834,-0.054534390568733215,-0.6396381258964539,-0.07267602533102036,0.23588652908802032,1.05979585647583,0.3471948206424713,-0.6363049149513245,-0.360185444355011,-0.5872294306755066
3047496,9.283954620361328,-0.5416166186332703,3.069605588912964,0.16030347347259521,-0.2616209089756012,0.6296945214271545,0.6926367878913879,-0.3357597589492798,-0.4841647446155548,-0.4160580635070801,9.789780616760254,-0.09097018092870712,-0.661088228225708,-0.10707388818264008,0.2978052496910095,1.0136544704437256,0.3472583293914795,-0.6363198161125183,-0.36009103059768677,-0.5872336626052856
3047662,9.303618431091309,-0.5491408109664917,3.076775312423706,0.15392592549324036,-0.35471031069755554,0.7419037818908691,0.6925998330116272,-0.33586829900741577,-0.48410940170288086,-0.41609635949134827,9.755249977111816,-0.09200751781463623,-0.6657889485359192,-0.003470520954579115,0.3110470175743103,1.099213719367981,0.3473059833049774,-0.6363525986671448,-0.3599611818790436,-0.5872495770454407
3047829,9.313363075256348,-0.5503881573677063,3.082929849624634,0.3587890565395355,-0.25231069326400757,0.8441497087478638,0.6926190257072449,-0.3359188437461853,-0.48407724499702454,-0.4160609841346741,9.763813018798828,-0.10684198141098022,-0.6784687638282776,0.18779870867729187,0.15714031457901,1.139143943786621,0.34737780690193176,-0.6363837718963623,-0.35986456274986267,-0.5872325301170349
3047996,9.309415817260742,-0.563163161277771,3.0972557067871094,0.4112054705619812,-0.23395919799804688,1.0125404596328735,0.6926645040512085,-0.33596017956733704,-0.4840478301048279,-0.4159860908985138,9.785506248474121,-0.1102852001786232,-0.6697462201118469,0.41065484285354614,0.11545563489198685,1.0590530633926392,0.3474609851837158,-0.6364030241966248,-0.35979658365249634,-0.5872040390968323
3048162,9.295985221862793,-0.5591186285018921,3.059037923812866,0.23102013766765594,-0.13155962526798248,0.705930769443512,0.6926577687263489,-0.33602917194366455,-0.4839854836463928,-0.4160141050815582,9.776885986328125,-0.10406133532524109,-0.644487738609314,0.42786648869514465,0.2351565808057785,0.9405303001403809,0.3475683629512787,-0.6363887786865234,-0.35976412892341614,-0.5871758460998535
3048329,9.321502685546875,-0.5582668781280518,3.0452029705047607,0.4162255823612213,0.03519824892282486,0.7979444265365601,0.6927043199539185,-0.3360443711280823,-0.4839346408843994,-0.41598352789878845,9.786727905273438,-0.09538200497627258,-0.657663881778717,0.4490226209163666,0.34036070108413696,0.9551551342010498,0.3476819694042206,-0.6363662481307983,-0.3597244322299957,-0.5871573090553284
3048496,9.318655967712402,-0.5674946904182434,3.075286865234375,0.6065279245376587,-0.13089369237422943,0.9448460936546326,0.6927322745323181,-0.33608952164649963,-0.4838846027851105,-0.4159586429595947,9.810032844543457,-0.09745419770479202,-0.6436534523963928,0.50101637840271,0.35553625226020813,0.9693446159362793,0.3478184640407562,-0.6363303661346436,-0.35970526933670044,-0.5871270895004272
3048662,9.312077522277832,-0.5747392177581787,3.0746450424194336,0.6413099765777588,-0.21038267016410828,0.8826072216033936,0.692756712436676,-0.3361267149448395,-0.4838506579399109,-0.41592732071876526,9.83033275604248,-0.09656181931495667,-0.6581544876098633,0.32425037026405334,0.6583680510520935,0.9817795157432556,0.34791383147239685,-0.6363028883934021,-0.35960981249809265,-0.5871587991714478
3048829,9.311802864074707,-0.5743976831436157,3.071970224380493,0.7723316550254822,-0.29778599739074707,0.7994555234909058,0.6927812695503235,-0.3361443281173706,-0.48384109139442444,-0.4158833622932434,9.785117149353027,-0.10971127450466156,-0.65748530626297,0.4334245026111603,1.0051255226135254,1.0044596195220947,0.348075807094574,-0.6362189054489136,-0.35954445600509644,-0.5871939063072205
3048996,9.303365707397461,-0.551063060760498,3.090625286102295,0.5352094173431396,-0.5879395008087158,0.7593717575073242,0.6927319169044495,-0.33624640107154846,-0.483815997838974,-0.4159122407436371,9.742890357971191,-0.09540464729070663,-0.6494569182395935,0.3619202971458435,0.7803549766540527,0.9810304045677185,0.3481764793395996,-0.6361808180809021,-0.3594425320625305,-0.5872378945350647
3049162,9.30571460723877,-0.5867874026298523,3.0791778564453125,0.5052424669265747,-0.6833467483520508,0.7502022981643677,0.6927301287651062,-0.3362906277179718,-0.483844518661499,-0.4158463478088379,9.731257438659668,-0.09191937744617462,-0.6530738472938538,0.2520866096019745,0.4344746470451355,1.0916709899902344,0.34831762313842773,-0.6361473798751831,-0.3594035506248474,-0.5872142314910889
3049329,9.296255111694336,-0.59025639295578,3.0452892780303955,0.447793185710907,-0.769956111907959,0.7286364436149597,0.6926841139793396,-0.3363838195800781,-0.48385125398635864,-0.4158397912979126,9.743770599365234,-0.09833072870969772,-0.6517747640609741,0.21640808880329132,0.04949013888835907,0.9743006825447083,0.34834858775138855,-0.6361880898475647,-0.3593096435070038,-0.587209165096283
3049496,9.316862106323242,-0.5617727041244507,3.0323541164398193,0.5536120533943176,-0.44770994782447815,0.8320092558860779,0.6927136778831482,-0.3364059329032898,-0.4838602840900421,-0.4157623052597046,9.801597595214844,-0.1049109622836113,-0.6324108242988586,0.21008175611495972,-0.06545325368642807,1.006226897239685,0.34843385219573975,-0.6362053155899048,-0.35928189754486084,-0.5871568918228149
3049662,9.322968482971191,-0.5514118075370789,3.059481143951416,0.4835613965988159,-0.3438761234283447,0.5706189274787903,0.6927117705345154,-0.3364327549934387,-0.4838515520095825,-0.4157537519931793,9.78267765045166,-0.09572789818048477,-0.6391647458076477,0.07938016206026077,0.04998958855867386,0.8124411702156067,0.3485080599784851,-0.6362015008926392,-0.3592682480812073,-0.5871253609657288
3049829,9.319907188415527,-0.551898181438446,3.0615196228027344,0.4739565849304199,-0.3046758770942688,0.3211512565612793,0.6926960349082947,-0.3364414572715759,-0.48384976387023926,-0.4157749116420746,9.745338439941406,-0.11880873143672943,-0.6869787573814392,-0.040058258920907974,-0.13223835825920105,0.6549743413925171,0.34848353266716003,-0.6362495422363281,-0.35919854044914246,-0.5871305465698242
3049996,9.304767608642578,-0.5679304599761963,3.033400058746338,0.1913076490163803,-0.23730163276195526,0.4425426125526428,0.6926790475845337,-0.33648213744163513,-0.48381850123405457,-0.41580671072006226,9.788326263427734,-0.12535321712493896,-0.7012870907783508,-0.05596374347805977,-0.20558033883571625,0.7518287301063538,0.34848809242248535,-0.636293888092041,-0.3591512441635132,-0.5871087312698364
3050162,9.311006546020508,-0.6025800704956055,3.038177251815796,0.2676078677177429,-0.10438454896211624,0.3398228883743286,0.6926659345626831,-0.33650314807891846,-0.48378100991249084,-0.4158552587032318,9.734925270080566,-0.09009534865617752,-0.6665907502174377,-0.00750452047213912,-0.30666086077690125,0.23438824713230133,0.34845808148384094,-0.6363108158111572,-0.35917338728904724,-0.5870945453643799
3050329,9.3319673538208,-0.5136498212814331,3.058994770050049,0.8521537780761719,-0.32943058013916016,-0.06463364511728287,0.6926376819610596,-0.33645424246788025,-0.48381850123405457,-0.41589832305908203,9.800698280334473,-0.08264221996068954,-0.6833118200302124,-0.563633143901825,-0.5617121458053589,-0.29229214787483215,0.34829530119895935,-0.6363634467124939,-0.35918599367141724,-0.5871263742446899
3050496,9.356976509094238,-0.5385494232177734,3.0421788692474365,0.8931339979171753,0.12517568469047546,-0.10421806573867798,0.6926206350326538,-0.33639413118362427,-0.48379814624786377,-0.41599905490875244,9.844069480895996,-0.09337722510099411,-0.6870736479759216,-0.872534990310669,-0.216837078332901,-0.2870286703109741,0.34811070561408997,-0.6364090442657471,-0.3591427505016327,-0.5872129797935486
3050662,9.330877304077148,-0.5873940587043762,3.078035593032837,0.9344600439071655,0.425586998462677,0.09856406599283218,0.6926582455635071,-0.3363029658794403,-0.48375603556632996,-0.41605910658836365,9.827911376953125,-0.08406567573547363,-0.6792983412742615,-1.0071297883987427,0.2970368564128876,-0.14407141506671906,0.34795281291007996,-0.6364244818687439,-0.3590497672557831,-0.587346613407135
3050829,9.312641143798828,-0.5632414817810059,3.0509400367736816,0.8863722085952759,-0.02740558795630932,0.05495844781398773,0.6926863193511963,-0.33620864152908325,-0.4837809205055237,-0.4160594344139099,9.843934059143066,-0.07528329640626907,-0.6768947839736938,-0.9893289804458618,0.8144262433052063,-0.11899659782648087,0.34784528613090515,-0.6363842487335205,-0.3589518070220947,-0.58751380443573
3050996,9.32445240020752,-0.5389699935913086,3.0713608264923096,0.7183017134666443,0.09578509628772736,-0.12007232755422592,0.6926830410957336,-0.33613646030426025,-0.4837743043899536,-0.41613098978996277,9.789285659790039,-0.06334766000509262,-0.665597140789032,-1.0238547325134277,1.321391224861145,-0.07070385664701462,0.3477785289287567,-0.6362962126731873,-0.35883668065071106,-0.5877190232276917
3051162,9.323493957519531,-0.5353797078132629,3.0889739990234375,0.6726086735725403,0.1646576225757599,-0.13061194121837616,0.6926489472389221,-0.33610135316848755,-0.48373186588287354,-0.41626524925231934,9.75158977508545,-0.07547401636838913,-0.6843574047088623,-1.1300324201583862,1.4178870916366577,-0.01385647151619196,0.34771987795829773,-0.6362026333808899,-0.358712375164032,-0.5879307389259338
3051329,9.31163215637207,-0.5743424892425537,3.074908971786499,0.26644250750541687,0.12873582541942596,-0.23517578840255737,0.6926023960113525,-0.33608269691467285,-0.483686625957489,-0.41641056537628174,9.733086585998535,-0.07262951135635376,-0.6570062041282654,-1.096595048904419,1.2169041633605957,0.13266737759113312,0.34765350818634033,-0.6361395716667175,-0.3585744798183441,-0.5881223082542419
3051496,9.313194274902344,-0.5806426405906677,3.0587775707244873,0.8314842581748962,0.3270293176174164,-0.011679391376674175,0.692625105381012,-0.3359941840171814,-0.4836558401584625,-0.41648000478744507,9.75929069519043,-0.10059162229299545,-0.6852425336837769,-0.8291215300559998,1.095474362373352,0.39442920684814453,0.3476071357727051,-0.6360987424850464,-0.3584200143814087,-0.5882881879806519
3051662,9.315711975097656,-0.579331636428833,3.00546932220459,1.4704570770263672,0.5725142359733582,0.518561065196991,0.6927306652069092,-0.33586108684539795,-0.48361483216285706,-0.4164593815803528,9.781558990478516,-0.1214362382888794,-0.6951972842216492,-0.27556702494621277,1.2330913543701172,0.7805789709091187,0.3476775586605072,-0.6360229253768921,-0.3582986295223236,-0.5884023904800415
3051829,9.331880569458008,-0.5599523782730103,3.039017677307129,1.1520782709121704,1.143600583076477,0.37820351123809814,0.6928812265396118,-0.3356819748878479,-0.48352760076522827,-0.41645464301109314,9.853965759277344,-0.09443393349647522,-0.7006173133850098,0.059594348073005676,1.634941816329956,0.9273526072502136,0.34779077768325806,-0.6359163522720337,-0.3581492602825165,-0.5885417461395264
3051996,9.33859634399414,-0.5446247458457947,3.0604636669158936,1.0840638875961304,1.5683872699737549,0.3599032461643219,0.6930006146430969,-0.33554807305336,-0.4833486080169678,-0.4165715277194977,9.857492446899414,-0.08552026748657227,-0.6793912053108215,0.23470835387706757,2.3760323524475098,0.9579725861549377,0.34795480966567993,-0.6357426047325134,-0.35796841979026794,-0.5887423753738403
3052162,9.309113502502441,-0.5435419082641602,3.1040022373199463,1.5929499864578247,1.5247176885604858,0.5636267066001892,0.6931682229042053,-0.3353630602359772,-0.4832065999507904,-0.41660651564598083,9.835655212402344,-0.10235302895307541,-0.683008074760437,0.5102625489234924,2.7365310192108154,1.1601848602294922,0.34820544719696045,-0.6355195045471191,-0.35780268907546997,-0.5889360308647156
3052329,9.342065811157227,-0.5799931883811951,3.047726631164551,1.4366353750228882,1.3498597145080566,0.6451774835586548,0.6933296322822571,-0.3351993262767792,-0.48307570815086365,-0.41662153601646423,9.823620796203613,-0.0843297466635704,-0.6721726655960083,0.7379467487335205,3.3179526329040527,1.2932556867599487,0.34854382276535034,-0.6352265477180481,-0.35764265060424805,-0.5891489386558533
3052496,9.31912612915039,-0.5509157180786133,3.1088428497314453,2.1270132064819336,1.6121338605880737,0.7331059575080872,0.6935282945632935,-0.33497947454452515,-0.482939749956131,-0.4166252613067627,9.832883834838867,-0.06694439053535461,-0.6835487484931946,0.7066992521286011,3.6029064655303955,1.1507594585418701,0.3488497734069824,-0.6349217891693115,-0.3574454188346863,-0.589415967464447
3052662,9.330907821655273,-0.5151932239532471,3.0638668537139893,2.303727865219116,1.5820646286010742,0.7466550469398499,0.6937968730926514,-0.33467113971710205,-0.482867568731308,-0.41650956869125366,9.848873138427734,-0.06729626655578613,-0.6810845136642456,0.6554354429244995,4.173647403717041,1.1474168300628662,0.3491928279399872,-0.6345626711845398,-0.3572300374507904,-0.5897299647331238
3052829,9.349027633666992,-0.517181396484375,3.076107978820801,2.503225088119507,2.2738120555877686,0.8592740297317505,0.6941037178039551,-0.3343393802642822,-0.4827108085155487,-0.4164464771747589,9.867414474487305,-0.04957028850913048,-0.687267005443573,0.45677050948143005,4.9191436767578125,1.1095356941223145,0.3495301604270935,-0.6341604590415955,-0.356940358877182,-0.5901381373405457
3052996,9.334237098693848,-0.5438243746757507,3.0721099376678467,2.5173120498657227,2.3233988285064697,0.9466646313667297,0.6943979859352112,-0.3340337872505188,-0.4825284481048584,-0.4164125621318817,9.877286911010742,-0.056935280561447144,-0.6852219104766846,0.2826938331127167,5.853507995605469,1.3262578248977661,0.3499019742012024,-0.6337064504623413,-0.35655269026756287,-0.5906394720077515
3053162,9.320274353027344,-0.5164194107055664,3.080397844314575,2.6825015544891357,2.616266965866089,1.0673389434814453,0.6947277188301086,-0.3337019681930542,-0.48232075572013855,-0.41636916995048523,9.851239204406738,-0.06281428784132004,-0.6792125105857849,0.1639789342880249,6.6984968185424805,1.552789330482483,0.3503325283527374,-0.6331930756568909,-0.35610005259513855,-0.5912076830863953
3053329,9.328619956970215,-0.5211770534515381,3.12443470954895,2.589707136154175,2.9425220489501953,1.1005842685699463,0.6950768232345581,-0.33336228132247925,-0.4820726811885834,-0.4163458049297333,9.871380805969238,-0.0621066652238369,-0.6729936599731445,0.01821703463792801,7.775537014007568,1.9463157653808594,0.35084232687950134,-0.6326117515563965,-0.3555490970611572,-0.5918589234352112
3053496,9.300311088562012,-0.5113576650619507,3.145010471343994,2.244062900543213,3.3021748065948486,1.1009042263031006,0.6954512000083923,-0.33301568031311035,-0.4817810356616974,-0.4163358509540558,9.919346809387207,-0.07749645411968231,-0.6518912315368652,-0.01253741979598999,9.103620529174805,1.9102534055709839,0.35140860080718994,-0.6319180727005005,-0.35492661595344543,-0.5926371812820435
3053662,9.306798934936523,-0.5292207598686218,3.1429316997528076,1.7678204774856567,3.618555784225464,1.0076099634170532,0.6957584619522095,-0.33276012539863586,-0.48138463497161865,-0.4164850413799286,9.922223091125488,-0.11557146161794662,-0.6385835409164429,0.0832989439368248,10.717350959777832,2.0351667404174805,0.3520994186401367,-0.631072461605072,-0.35424312949180603,-0.5935364365577698
3053829,9.32470417022705,-0.5292607545852661,3.1317741870880127,1.9029276371002197,3.9482553005218506,1.0425714254379272,0.6961765885353088,-0.33238133788108826,-0.48102498054504395,-0.41650456190109253,9.92633056640625,-0.13186684250831604,-0.6416594982147217,0.3765004873275757,12.221675872802734,2.03605055809021,0.3528805375099182,-0.6300879716873169,-0.35349470376968384,-0.5945637822151184
3053996,9.308134078979492,-0.5393829941749573,3.205939531326294,1.886087417602539,4.467911720275879,1.057413935661316,0.6965851783752441,-0.3320252597332001,-0.4805747866630554,-0.41662469506263733,9.947659492492676,-0.13938988745212555,-0.6293631792068481,0.676041305065155,13.76553726196289,2.263005495071411,0.35374075174331665,-0.6289898157119751,-0.35262539982795715,-0.5957304239273071
3054162,9.304522514343262,-0.5475146174430847,3.2179059982299805,1.8441336154937744,5.029201507568359,0.892929196357727,0.6970361471176147,-0.3316098153591156,-0.4800848066806793,-0.4167664349079132,9.954214096069336,-0.12961235642433167,-0.6144732236862183,0.9354215264320374,15.54808235168457,2.4895119667053223,0.3547905385494232,-0.6277015805244446,-0.3517247140407562,-0.596996009349823
3054329,9.304213523864746,-0.5440945625305176,3.2294719219207764,1.6658052206039429,5.405553817749023,0.8487985134124756,0.6974901556968689,-0.33119890093803406,-0.479538232088089,-0.41696280241012573,9.980452537536621,-0.11058569699525833,-0.6120476722717285,1.1857092380523682,17.74034309387207,2.623095750808716,0.35594072937965393,-0.626237690448761,-0.3506755530834198,-0.5984641909599304
3054496,9.301304817199707,-0.5281885862350464,3.2628002166748047,1.7120360136032104,5.791626930236816,0.7307239770889282,0.6979363560676575,-0.33078470826148987,-0.4789373576641083,-0.41723573207855225,10.000961303710938,-0.10210312157869339,-0.6118135452270508,1.146368384361267,20.12457275390625,2.806175947189331,0.3572250008583069,-0.6245710253715515,-0.349486768245697,-0.6001336574554443
3054662,9.305896759033203,-0.5245981812477112,3.2880473136901855,1.7173125743865967,6.497334003448486,0.5662007331848145,0.6984561085700989,-0.33027493953704834,-0.478300005197525,-0.4175005555152893,10.123581886291504,-0.0725109651684761,-0.5513315796852112,1.1042745113372803,23.100194931030273,3.241671323776245,0.3587000072002411,-0.6226580739021301,-0.3481094241142273,-0.6020393371582031
3054829,9.298609733581543,-0.5364027619361877,3.3098392486572266,1.6624629497528076,7.378258228302002,0.535183846950531,0.6990636587142944,-0.32967832684516907,-0.4775955379009247,-0.41776177287101746,10.4706449508667,-0.08363374322652817,-0.43491047620773315,1.056161880493164,27.512218475341797,3.7761101722717285,0.36041542887687683,-0.6203908324241638,-0.3464282155036926,-0.604320764541626
3054996,9.195502281188965,-0.5317062735557556,3.262017250061035,2.2499032020568848,6.724429607391357,0.5401655435562134,0.6996062397956848,-0.32911455631256104,-0.4769550561904907,-0.4180293381214142,10.427008628845215,-0.10653412342071533,-0.3722994327545166,1.1511867046356201,33.721195220947266,4.487023830413818,0.3624573349952698,-0.6176214814186096,-0.3443148732185364,-0.6071375608444214
3055162,9.271378517150879,-0.5208080410957336,3.2721505165100098,2.932673931121826,5.229800224304199,0.5279994606971741,0.7001060247421265,-0.3285372853279114,-0.4765315055847168,-0.41812998056411743,10.07431411743164,-0.1420864760875702,-0.2859475314617157,1.510062336921692,38.12162399291992,5.333315849304199,0.36484599113464355,-0.6144540309906006,-0.3419490456581116,-0.6102497577667236
3055329,9.333389282226562,-0.528328537940979,3.339829206466675,2.6104788780212402,4.634433269500732,0.4436056315898895,0.7005382180213928,-0.3280283510684967,-0.4761488735675812,-0.41824156045913696,9.92138957977295,-0.1817564070224762,-0.2146444171667099,1.7684969902038574,40.60366439819336,5.9321608543396,0.3674246370792389,-0.6110612154006958,-0.339415580034256,-0.6135148406028748
3055496,9.257691383361816,-0.5580341815948486,3.3866312503814697,-0.13701514899730682,6.080589771270752,0.24487663805484772,0.7009329199790955,-0.3276903033256531,-0.4754655361175537,-0.41862231492996216,9.83437728881836,-0.1981772780418396,-0.16412055492401123,2.112196922302246,42.443790435791016,6.31675386428833,0.3701672852039337,-0.6074732542037964,-0.33679044246673584,-0.6168668866157532
3055662,9.270662307739258,-0.547512412071228,3.280076026916504,0.0649346113204956,7.068395614624023,0.0487089604139328,0.7014075517654419,-0.32724130153656006,-0.4747133255004883,-0.41903218626976013,9.821002006530762,-0.2181568592786789,-0.08515604585409164,2.642282009124756,44.03763198852539,6.375205039978027,0.3730160593986511,-0.6036984920501709,-0.3341031074523926,-0.6203083992004395
3055829,9.130857467651367,-0.5450555086135864,3.222630739212036,-0.8918217420578003,10.62620735168457,0.3726969361305237,0.702089250087738,-0.32670730352401733,-0.47351518273353577,-0.4196624159812927,9.940073013305664,-0.2345006912946701,0.09700015187263489,2.9058783054351807,45.7414436340332,6.4196343421936035,0.37598830461502075,-0.5997177958488464,-0.33136051893234253,-0.62383633852005
3055996,9.470597267150879,-0.5481926202774048,3.2823896408081055,-0.16429273784160614,11.428858757019043,0.5602076053619385,0.7028335332870483,-0.3261021673679352,-0.4722420871257782,-0.4203212261199951,10.190311431884766,-0.2922787070274353,0.2363964319229126,3.3857970237731934,48.900413513183594,6.736171722412109,0.3791640102863312,-0.5954127311706543,-0.3284471333026886,-0.6275674700737
3056162,9.317513465881348,-0.5272912383079529,3.2300217151641846,-0.46516522765159607,12.706536293029785,1.1797535419464111,0.7037279605865479,-0.32544559240341187,-0.4708222448825836,-0.4209262728691101,10.01033878326416,-0.32206305861473083,0.4193534851074219,3.910245895385742,52.515811920166016,6.948108673095703,0.3825555741786957,-0.590728223323822,-0.3253479301929474,-0.6315380334854126
3056329,9.358235359191895,-0.5538190007209778,3.2889788150787354,-0.8306843638420105,12.359715461730957,0.8913030624389648,0.7045402526855469,-0.3248485326766968,-0.4694138765335083,-0.42160049080848694,9.78672981262207,-0.31799569725990295,0.5680512189865112,4.41756534576416,54.248809814453125,7.407418727874756,0.38609084486961365,-0.5858439207077026,-0.32214123010635376,-0.6355674266815186
3056496,9.355978965759277,-0.5806488990783691,3.374785900115967,-0.6604494452476501,13.967747688293457,0.8220208883285522,0.7054371237754822,-0.3241576552391052,-0.4678348898887634,-0.42238709330558777,9.701441764831543,-0.29866746068000793,0.6837453246116638,4.822226047515869,54.907127380371094,7.414848327636719,0.389666885137558,-0.5808407068252563,-0.3189154863357544,-0.6395910382270813
3056662,9.252729415893555,-0.6045215129852295,3.410513162612915,0.6808308362960815,14.676990509033203,0.9206041693687439,0.706463634967804,-0.32327383756637573,-0.4662717580795288,-0.4230768084526062,9.627839088439941,-0.19879335165023804,0.8024260401725769,4.885721683502197,55.55815505981445,6.684290885925293,0.39318421483039856,-0.5757035613059998,-0.3157016634941101,-0.643664538860321
3056829,9.346891403198242,-0.6770578622817993,3.3929126262664795,1.7994022369384766,15.862923622131348,1.2201194763183594,0.7076619267463684,-0.32219550013542175,-0.4646577835083008,-0.423672080039978,9.561366081237793,-0.01912197284400463,0.9497454762458801,3.1292858123779297,56.079586029052734,4.607193470001221,0.3963565230369568,-0.5704861283302307,-0.3124494254589081,-0.6479371786117554
3056996,9.342379570007324,-0.6238626837730408,3.4500961303710938,2.7032384872436523,19.778953552246094,1.969766616821289,0.7092076539993286,-0.32083237171173096,-0.4626590609550476,-0.42430880665779114,9.762454986572266,-0.035303033888339996,1.0761091709136963,-0.2373044192790985,57.0875358581543,2.704789876937866,0.39908701181411743,-0.5652440190315247,-0.30896252393722534,-0.652511477470398
3057162,9.181343078613281,-0.4839930236339569,3.549880266189575,3.1646783351898193,21.1916561126709,2.6659343242645264,0.7108755111694336,-0.31940972805023193,-0.4604860842227936,-0.42495420575141907,10.089399337768555,-0.15931732952594757,1.3193033933639526,-3.2597057819366455,60.1240119934082,2.518265962600708,0.4016564190387726,-0.5598412156105042,-0.3050096929073334,-0.657433807849884
3057329,9.063273429870605,-0.43899503350257874,3.5387909412384033,3.5504703521728516,21.995447158813477,2.2812819480895996,0.7125860452651978,-0.317864328622818,-0.4582708477973938,-0.42564231157302856,9.98200511932373,-0.32170188426971436,1.4592530727386475,-4.85178279876709,64.64276123046875,3.3801512718200684,0.4043443202972412,-0.5540931224822998,-0.3005489408969879,-0.6626890301704407
3057496,9.137055397033691,-0.4832223653793335,3.459803581237793,2.436277389526367,21.471435546875,1.293962001800537,0.714171826839447,-0.3163670301437378,-0.4561046361923218,-0.42642638087272644,9.525530815124512,-0.4489628076553345,1.6538344621658325,-5.16118049621582,66.25965118408203,4.634889125823975,0.40716150403022766,-0.5482143759727478,-0.29583778977394104,-0.6679525971412659
3057663,9.363374710083008,-0.5348000526428223,3.69442081451416,2.663245439529419,23.06764030456543,0.46147122979164124,0.7157889604568481,-0.3147127628326416,-0.4538055658340454,-0.42739057540893555,9.35480785369873,-0.49392884969711304,1.7858331203460693,-4.390877723693848,65.68670654296875,5.370687484741211,0.4100493788719177,-0.5423288941383362,-0.2911510169506073,-0.6730306148529053
3057829,9.087223052978516,-0.5085932612419128,3.8608405590057373,3.808073043823242,25.972755432128906,-0.2379169464111328,0.7175555229187012,-0.31274867057800293,-0.4512753188610077,-0.4285477101802826,9.303098678588867,-0.530611515045166,2.0137789249420166,-3.5321855545043945,65.08522033691406,5.238971710205078,0.4129297435283661,-0.5363987684249878,-0.2865697145462036,-0.6779701113700867
3057996,9.02392292022705,-0.4568403661251068,3.970857858657837,2.4991202354431152,26.279184341430664,-0.7824185490608215,0.719261646270752,-0.31083640456199646,-0.4486677348613739,-0.4298151731491089,9.491902351379395,-0.4904138445854187,2.2271358966827393,-2.1243622303009033,65.1441650390625,4.929872035980225,0.4158554673194885,-0.5303195118904114,-0.28212326765060425,-0.682811975479126
3058163,8.993395805358887,-0.5348008871078491,3.9253089427948,1.0282951593399048,28.512704849243164,-1.0961753129959106,0.7210116386413574,-0.30891498923301697,-0.44573962688446045,-0.4313117563724518,9.55704402923584,-0.47975587844848633,2.4389803409576416,-1.3671122789382935,66.92578887939453,5.0855913162231445,0.4188900887966156,-0.5239772200584412,-0.27760788798332214,-0.6876868009567261
3058329,9.077336311340332,-0.5711156725883484,4.02407693862915,-0.11014774441719055,29.805866241455078,-0.40082719922065735,0.7228177189826965,-0.30707430839538574,-0.44256389141082764,-0.4328712522983551,9.55487060546875,-0.550722062587738,2.7010653018951416,0.03778577595949173,68.90196228027344,5.447996139526367,0.42210716009140015,-0.5173174738883972,-0.27305981516838074,-0.6925653219223022
3058496,9.019268035888672,-0.570826530456543,4.066315650939941,0.36694803833961487,31.940217971801758,-0.4355711042881012,0.7247495651245117,-0.3050552308559418,-0.43917691707611084,-0.43451473116874695,9.429563522338867,-0.5138619542121887,2.934886932373047,1.8650670051574707,71.00694274902344,5.653509616851807,0.425523042678833,-0.5102901458740234,-0.2685241103172302,-0.6974446177482605
3058663,8.986541748046875,-0.5143923759460449,4.122783660888672,-0.3983558416366577,33.25109100341797,-0.5654537677764893,0.7267442941665649,-0.3029840886592865,-0.4356248378753662,-0.4362046718597412,9.041540145874023,-0.49896296858787537,3.1395938396453857,3.17177414894104,71.6177749633789,5.973547458648682,0.42904719710350037,-0.5030792951583862,-0.2640318274497986,-0.7022230625152588
3058829,9.01457405090332,-0.5599341988563538,4.318798065185547,-0.134761780500412,35.01100158691406,-1.0440421104431152,0.7287883758544922,-0.30075374245643616,-0.4319021701812744,-0.43803563714027405,8.800057411193848,-0.48323553800582886,3.3230221271514893,4.166267395019531,70.28417205810547,6.052765369415283,0.4325561225414276,-0.49589255452156067,-0.25969138741493225,-0.7067857980728149
3058996,8.816625595092773,-0.5565376281738281,4.443650722503662,-0.08885090053081512,37.361412048339844,-1.0397272109985352,0.730959415435791,-0.29836493730545044,-0.42791908979415894,-0.439956933259964,8.7933931350708,-0.48264262080192566,3.5507469177246094,4.615325927734375,68.56704711914062,5.783258438110352,0.43596169352531433,-0.48879367113113403,-0.25549885630607605,-0.711152970790863
3059163,8.724957466125488,-0.4782966077327728,4.569843769073486,-1.1073325872421265,39.364967346191406,-0.5490623712539673,0.7332292199134827,-0.2959650754928589,-0.4236316680908203,-0.44194576144218445,9.219796180725098,-0.4948400855064392,3.8835439682006836,4.4793195724487305,68.29423522949219,5.391185760498047,0.4392646849155426,-0.4816686511039734,-0.25131282210350037,-0.7154605984687805
3059329,8.555567741394043,-0.5041199922561646,4.555325984954834,-2.6064915657043457,40.71424102783203,-0.29115408658981323,0.7355006337165833,-0.2936508357524872,-0.4190731346607208,-0.44405606389045715,9.114087104797363,-0.5528197288513184,4.119281768798828,4.8358473777771,71.16687774658203,4.557189464569092,0.4425663650035858,-0.4741421937942505,-0.24701403081417084,-0.7199364304542542
3059496,8.679675102233887,-0.5805807113647461,4.589005470275879,-1.6026972532272339,38.04616165161133,-0.6635388135910034,0.7375907301902771,-0.29137879610061646,-0.41485995054244995,-0.44603773951530457,8.615036964416504,-0.46318304538726807,4.258022785186768,4.889660835266113,70.9451675415039,3.811180353164673,0.44573959708213806,-0.46655821800231934,-0.2427607923746109,-0.7243666052818298
3059663,8.664052963256836,-0.5376790165901184,4.829657077789307,1.1453999280929565,39.677772521972656,-0.7860709428787231,0.7399123907089233,-0.2886529266834259,-0.4106690585613251,-0.447839617729187,8.267751693725586,-0.4506984055042267,4.387247562408447,4.126241683959961,68.24569702148438,2.930877447128296,0.44862860441207886,-0.45922836661338806,-0.23863756656646729,-0.728624701499939
3059829,8.422422409057617,-0.5195846557617188,4.9439897537231445,2.2445881366729736,40.642940521240234,-1.0174063444137573,0.7422950267791748,-0.2857223451137543,-0.4064415693283081,-0.44962891936302185,8.13391399383545,-0.40239405632019043,4.548779487609863,3.352060079574585,64.64888763427734,2.0060415267944336,0.4512025713920593,-0.45225393772125244,-0.23470669984817505,-0.7326632142066956
3059996,8.254813194274902,-0.5006958842277527,5.067838668823242,2.335937976837158,42.5285758972168,-0.8897524476051331,0.7447732090950012,-0.2826559841632843,-0.4019955098628998,-0.4514623284339905,8.53359603881836,-0.3805995583534241,4.876613616943359,2.1661086082458496,62.10729217529297,1.107021689414978,0.4534791111946106,-0.4455575942993164,-0.23085594177246094,-0.7365738749504089
3060163,8.108031272888184,-0.4387252628803253,5.128032207489014,3.1646552085876465,42.93284606933594,-0.5844600200653076,0.7472801208496094,-0.27949392795562744,-0.39752092957496643,-0.4532471299171448,9.037459373474121,-0.3659067153930664,5.219201564788818,0.9577814340591431,63.8897819519043,0.013760619796812534,0.4555828273296356,-0.4386745095252991,-0.22681055963039398,-0.7406523823738098
3060329,8.290635108947754,-0.4338975250720978,5.120419979095459,3.206543207168579,40.71287155151367,-1.006597876548767,0.7496170997619629,-0.2764289677143097,-0.3932984471321106,-0.45494788885116577,8.582810401916504,-0.33469051122665405,5.484278678894043,0.14721772074699402,67.1825942993164,-1.2506624460220337,0.45756658911705017,-0.4314083755016327,-0.22252170741558075,-0.744985818862915
3060496,8.446130752563477,-0.5567036271095276,5.330942630767822,3.4724535942077637,38.717281341552734,-1.4669240713119507,0.7517963647842407,-0.2734294533729553,-0.3893185257911682,-0.4565848410129547,7.966081142425537,-0.34865888953208923,5.7015204429626465,-0.9441111087799072,65.47356414794922,-1.6807048320770264,0.45933857560157776,-0.42434364557266235,-0.2182355523109436,-0.7492090463638306
3060663,8.165964126586914,-0.41306638717651367,5.604057788848877,4.126488208770752,36.75005340576172,-1.416696548461914,0.7538714408874512,-0.2704828083515167,-0.3855847418308258,-0.4580845534801483,7.654203414916992,-0.3940512239933014,5.848338603973389,-1.7116485834121704,61.30250549316406,-1.5191795825958252,0.4609110951423645,-0.41774943470954895,-0.21411530673503876,-0.7531276941299438
3060829,7.952270030975342,-0.4750765264034271,5.6483941078186035,2.980172634124756,35.55731964111328,-1.447738766670227,0.7558155655860901,-0.26772749423980713,-0.3818974494934082,-0.45958593487739563,7.441756725311279,-0.448895126581192,5.958340167999268,-1.9288880825042725,55.670616149902344,-0.7751256823539734,0.46234530210494995,-0.41177478432655334,-0.21028666198253632,-0.7566096186637878
3060996,7.785434246063232,-0.5130385756492615,5.667759418487549,3.3964314460754395,35.80833053588867,-0.7679872512817383,0.7578083872795105,-0.2649436891078949,-0.37816911935806274,-0.4609983563423157,7.552073955535889,-0.6078232526779175,6.085405349731445,-1.4519966840744019,50.10350036621094,0.8849585652351379,0.46379533410072327,-0.4064022898674011,-0.2067708969116211,-0.7595900893211365
3061163,7.618669509887695,-0.3806600570678711,5.817531585693359,2.8743152618408203,36.156341552734375,-0.05323624238371849,0.7598330974578857,-0.2622215747833252,-0.37433061003685,-0.46235305070877075,8.102886199951172,-0.7530713081359863,6.394051551818848,0.23811675608158112,47.144229888916016,3.658079147338867,0.46554186940193176,-0.40130218863487244,-0.20346462726593018,-0.762121856212616
3061329,7.563609600067139,-0.44877785444259644,5.9439544677734375,0.6910910606384277,33.87871170043945,-0.041364677250385284,0.7616328597068787,-0.2598848342895508,-0.37058573961257935,-0.4637258052825928,8.132433891296387,-0.8551899194717407,6.541097640991211,3.68524432182312,48.422725677490234,6.998505592346191,0.46787717938423157,-0.39590439200401306,-0.20024651288986206,-0.7643641233444214
3061496,7.848288536071777,-0.5702345371246338,5.945818901062012,-0.519785463809967,27.907894134521484,-1.316457748413086,0.7629610300064087,-0.2580113410949707,-0.3674575984477997,-0.46507611870765686,7.539289951324463,-0.7430628538131714,6.721048355102539,7.674966812133789,46.660072326660156,9.863409996032715,0.4706882834434509,-0.3904934823513031,-0.19741405546665192,-0.7661560773849487
3061663,7.753859996795654,-0.6026982069015503,6.102999687194824,1.231877326965332,24.672361373901367,-2.3043792247772217,0.7641028761863708,-0.256106436252594,-0.364837110042572,-0.4663159251213074,7.269713401794434,-0.5624307990074158,6.915277004241943,10.619823455810547,42.10115051269531,10.634973526000977,0.4736030101776123,-0.3853897452354431,-0.19516555964946747,-0.7675189971923828
3061829,7.555365085601807,-0.5706344246864319,6.137646198272705,2.6713905334472656,22.911684036254883,-2.2779595851898193,0.7652031183242798,-0.2541554570198059,-0.36250513792037964,-0.4673963785171509,7.200336456298828,-0.4262731373310089,6.966950416564941,11.912477493286133,37.372493743896484,9.579890251159668,0.47632238268852234,-0.3806747794151306,-0.19343562424182892,-0.76862633228302
3061996,7.44995641708374,-0.48631224036216736,6.158573150634766,2.919154167175293,20.691038131713867,-1.8336927890777588,0.7662091255187988,-0.25235429406166077,-0.36041060090065,-0.46834322810173035,6.983570575714111,-0.33185434341430664,7.027893543243408,12.35127067565918,31.82948112487793,7.3682355880737305,0.4786500930786133,-0.37646982073783875,-0.19225311279296875,-0.7695475220680237
3062163,7.290891647338867,-0.4489055573940277,6.211402416229248,4.255625247955322,19.26336669921875,-0.579026997089386,0.7672921419143677,-0.2505481541156769,-0.3585261404514313,-0.4689856469631195,7.0176591873168945,-0.3826969563961029,7.004575729370117,11.532285690307617,25.747821807861328,5.233566761016846,0.4805150330066681,-0.3729284107685089,-0.19151294231414795,-0.7702938318252563
3062329,7.207099914550781,-0.3632582128047943,6.187314510345459,5.299830913543701,17.503786087036133,0.7066104412078857,0.7683798670768738,-0.24882569909095764,-0.35684582591056824,-0.46940329670906067,7.114348888397217,-0.459553062915802,6.910277366638184,11.384809494018555,20.73906135559082,4.504547119140625,0.4821447730064392,-0.369927316904068,-0.19114097952842712,-0.7708147764205933
3062496,7.235823631286621,-0.32095521688461304,6.271809101104736,6.093132972717285,16.50804901123047,1.3251320123672485,0.7695080041885376,-0.24709424376487732,-0.355316162109375,-0.46963006258010864,7.16504430770874,-0.4279039204120636,6.818553924560547,11.773582458496094,16.916261672973633,4.967533588409424,0.48373669385910034,-0.36733269691467285,-0.19105182588100433,-0.7710802555084229
3062663,7.26968240737915,-0.26861312985420227,6.341549873352051,5.979399681091309,15.859098434448242,1.5457855463027954,0.7705881595611572,-0.245441734790802,-0.35382986068725586,-0.4698476493358612,7.315311431884766,-0.26539039611816406,6.800255298614502,11.063066482543945,14.544988632202148,5.341169834136963,0.48526304960250854,-0.3650585412979126,-0.19102706015110016,-0.7712073922157288
3062829,7.259587287902832,-0.26795336604118347,6.382587909698486,4.420173645019531,15.593146324157715,1.8614622354507446,0.7716156244277954,-0.2439952790737152,-0.35225173830986023,-0.4701005220413208,7.476378917694092,-0.09073175489902496,6.714243412017822,8.285813331604004,14.635157585144043,4.255868911743164,0.4865190088748932,-0.36293530464172363,-0.19074095785617828,-0.7714889645576477
3062996,7.360649585723877,-0.2584484815597534,6.378312587738037,4.387747287750244,15.46309757232666,2.5293397903442383,0.7726669311523438,-0.24259839951992035,-0.35065463185310364,-0.4702906608581543,7.505735874176025,-0.11658087372779846,6.585829734802246,4.436360836029053,16.159151077270508,3.0049808025360107,0.4874693751335144,-0.3608750104904175,-0.1899818629026413,-0.7720425724983215
3063163,7.395510196685791,-0.19068145751953125,6.47126579284668,3.8545548915863037,15.509394645690918,2.639307737350464,0.7737120389938354,-0.24125663936138153,-0.3490123450756073,-0.4704843759536743,7.390280723571777,-0.15839575231075287,6.494976997375488,1.5440311431884766,17.549692153930664,2.5023183822631836,0.48824548721313477,-0.3588469922542572,-0.18882684409618378,-0.7727805376052856
3063329,7.364306449890137,-0.17374351620674133,6.520473480224609,3.0441038608551025,15.901498794555664,2.317445755004883,0.7747482657432556,-0.23994335532188416,-0.347290575504303,-0.47072479128837585,7.445580005645752,-0.17556597292423248,6.52547025680542,-1.1042673587799072,18.309152603149414,2.2347042560577393,0.48886945843696594,-0.3569117486476898,-0.18733492493629456,-0.7736449241638184
3063496,7.270470142364502,-0.20701268315315247,6.532838344573975,1.850307822227478,17.036296844482422,2.1022346019744873,0.7757804989814758,-0.2386726438999176,-0.3453640043735504,-0.4710880219936371,7.408420562744141,-0.22952011227607727,6.629718780517578,-3.62568736076355,19.356826782226562,1.4586257934570312,0.48929882049560547,-0.3550143539905548,-0.1855258047580719,-0.774681806564331
3063663,7.36612606048584,-0.25411155819892883,6.451874732971191,0.9078366160392761,17.013643264770508,2.4761295318603516,0.7767999768257141,-0.23752520978450775,-0.34335950016975403,-0.4714531898498535,7.328233242034912,-0.38233429193496704,6.677079200744629,-5.941694736480713,19.648460388183594,0.5329947471618652,0.4895070195198059,-0.3532211184501648,-0.18348291516304016,-0.7758557200431824
3063829,7.365060329437256,-0.2664473056793213,6.421426773071289,0.36370718479156494,18.089406967163086,2.478588581085205,0.7778491377830505,-0.2363627552986145,-0.34119391441345215,-0.4718792736530304,7.316312313079834,-0.5194693803787231,6.678216934204102,-6.757357120513916,19.731342315673828,0.4322085380554199,0.4896591603755951,-0.35147103667259216,-0.18134631216526031,-0.7770558595657349
3063996,7.372535228729248,-0.33646339178085327,6.4673380851745605,-0.2129058837890625,19.610576629638672,1.969241738319397,0.7789126634597778,-0.235133558511734,-0.33883196115493774,-0.47244083881378174,7.448947429656982,-0.5831450819969177,6.7516961097717285,-6.478589057922363,20.699993133544922,0.6582666635513306,0.48987188935279846,-0.3495953381061554,-0.1791592389345169,-0.7782742977142334
3064163,7.297175884246826,-0.34652167558670044,6.522567272186279,-0.09110450744628906,21.10652732849121,1.5274219512939453,0.7800166010856628,-0.23376350104808807,-0.3363214135169983,-0.4730927646160126,7.532692909240723,-0.5802264213562012,6.736827373504639,-5.782309532165527,23.894975662231445,0.6231902837753296,0.49019354581832886,-0.34730520844459534,-0.1768234521150589,-0.7796300053596497
3064329,7.412962913513184,-0.37401244044303894,6.613641262054443,-0.014368749223649502,21.630056381225586,0.7184438705444336,0.781085193157196,-0.23230649530887604,-0.3337811231613159,-0.47384586930274963,7.311756610870361,-0.5408411622047424,6.705279350280762,-5.376068592071533,26.6583251953125,-0.006300740875303745,0.4905281662940979,-0.3446541726589203,-0.17436698079109192,-0.7811477780342102
3064496,7.311813831329346,-0.38025498390197754,6.712919235229492,0.5485033392906189,22.26793098449707,0.6060039401054382,0.782187283039093,-0.2307339310646057,-0.33120793104171753,-0.47460123896598816,7.181381702423096,-0.4920824468135834,6.6786017417907715,-5.418600559234619,28.090343475341797,-1.1605020761489868,0.49075743556022644,-0.3418104350566864,-0.1718594878911972,-0.7828071713447571
3064663,7.221954345703125,-0.37614381313323975,6.712456226348877,0.7506777048110962,23.97288703918457,0.5809035301208496,0.7833672761917114,-0.22901670634746552,-0.3284517228603363,-0.47540149092674255,7.279336452484131,-0.5654038786888123,6.735624313354492,-5.8780317306518555,29.661264419555664,-1.9809184074401855,0.49090030789375305,-0.3387956917285919,-0.16922646760940552,-0.7845999002456665
3064829,7.184449672698975,-0.3815876245498657,6.736217021942139,1.1782318353652954,26.710786819458008,0.31898772716522217,0.7846635580062866,-0.2270454615354538,-0.32541748881340027,-0.47629523277282715,7.606654167175293,-0.7252798080444336,6.930452823638916,-5.009748935699463,33.616310119628906,-1.0904523134231567,0.49127379059791565,-0.33528468012809753,-0.16636386513710022,-0.7864843606948853
3064996,7.193960666656494,-0.3728558123111725,6.8617472648620605,0.45543989539146423,28.64466667175293,0.16330063343048096,0.7860034108161926,-0.22501163184642792,-0.32211241126060486,-0.4772968590259552,7.42946720123291,-0.6582075953483582,7.150731086730957,-3.332268714904785,39.77228927612305,-0.7099751234054565,0.49190714955329895,-0.3309531509876251,-0.16323129832744598,-0.7885767817497253
3065163,7.298501968383789,-0.522365927696228,6.915703296661377,-0.9206249713897705,26.331756591796875,-0.6526899933815002,0.7871202230453491,-0.22325371205806732,-0.318997859954834,-0.47837257385253906,6.660809516906738,-0.5035864114761353,7.331518650054932,-3.333794116973877,40.79618835449219,-1.800660252571106,0.492422491312027,-0.32646968960762024,-0.16007336974143982,-0.7907682061195374
3065329,7.113064289093018,-0.4002527892589569,6.908708572387695,0.13204015791416168,24.937162399291992,-0.5028552412986755,0.7882053256034851,-0.22147713601589203,-0.31610721349716187,-0.47932928800582886,6.459843635559082,-0.5615826845169067,7.5217061042785645,-4.960089683532715,36.96453094482422,-2.9902844429016113,0.492619127035141,-0.3225041329860687,-0.15705396234989166,-0.7928757071495056
3065496,6.823507308959961,-0.397339791059494,6.812267303466797,0.07412971556186676,24.993431091308594,-0.5855460166931152,0.7892746925354004,-0.21969686448574066,-0.3132050037384033,-0.4802933633327484,6.441823959350586,-0.7044641375541687,7.596582412719727,-5.13283109664917,33.05002212524414,-3.017930746078491,0.49270254373550415,-0.3189912438392639,-0.15429112315177917,-0.7947848439216614
3065663,6.761270523071289,-0.39116770029067993,6.803023338317871,0.6829705238342285,25.291397094726562,-1.0887982845306396,0.7903309464454651,-0.21780003607273102,-0.310323029756546,-0.48128992319107056,6.4448699951171875,-0.7344434857368469,7.6734161376953125,-4.240297794342041,29.144939422607422,-2.7184250354766846,0.49276503920555115,-0.315864622592926,-0.15189246833324432,-0.7964550852775574
3065829,6.6837921142578125,-0.386361300945282,6.958693504333496,0.7992780208587646,24.94573974609375,-1.4022598266601562,0.7913424372673035,-0.21589720249176025,-0.3074949085712433,-0.4822995662689209,6.469518661499023,-0.675792932510376,7.8070292472839355,-3.7792274951934814,25.950166702270508,-3.0149295330047607,0.4927366375923157,-0.31306248903274536,-0.14978569746017456,-0.7979768514633179
3065996,6.638180732727051,-0.470335990190506,7.078136920928955,0.1023421511054039,24.077592849731445,-1.5657843351364136,0.7922711968421936,-0.21412520110607147,-0.30471864342689514,-0.48332536220550537,6.318335056304932,-0.6390691995620728,8.010170936584473,-4.102842807769775,23.043424606323242,-4.613931655883789,0.4924384653568268,-0.31058090925216675,-0.14791914820671082,-0.7994772791862488
3066163,6.612173557281494,-0.431272029876709,7.171735763549805,0.4072106182575226,22.157888412475586,-1.416192650794983,0.7931260466575623,-0.21245743334293365,-0.3021760582923889,-0.4842548370361328,6.3763108253479,-0.7792223691940308,8.09807300567627,-4.25764274597168,19.193445205688477,-4.826975345611572,0.4920214116573334,-0.3085482120513916,-0.146316796541214,-0.8008149862289429
3066329,6.564907550811768,-0.39627334475517273,7.204161643981934,1.8284231424331665,20.634410858154297,-1.9392813444137573,0.7939132452011108,-0.21070784330368042,-0.2999217212200165,-0.48513004183769226,6.266573905944824,-0.7122156620025635,8.20649528503418,-1.8842893838882446,16.233259201049805,-3.941080331802368,0.49174830317497253,-0.3067055642604828,-0.14515967667102814,-0.8019002079963684
3066496,6.536879062652588,-0.49208012223243713,7.330636978149414,2.13970685005188,18.88477325439453,-2.8273379802703857,0.7945641875267029,-0.20900501310825348,-0.29791536927223206,-0.4860362410545349,6.281614303588867,-0.5999414324760437,8.332106590270996,-1.0101144313812256,13.518259048461914,-3.337503671646118,0.49152567982673645,-0.30512624979019165,-0.14426887035369873,-0.8027994632720947
3066663,6.440998554229736,-0.5059466361999512,7.4192070960998535,1.387191653251648,16.846084594726562,-2.665195941925049,0.7951101660728455,-0.20753896236419678,-0.29608315229415894,-0.4868905544281006,6.3229851722717285,-0.5547571778297424,8.341753005981445,-0.8565403819084167,11.864339828491211,-3.909050464630127,0.4912070631980896,-0.3037134110927582,-0.14353738725185394,-0.8036609888076782
3066829,6.4625420570373535,-0.37018585205078125,7.419871807098389,1.7277251482009888,13.936565399169922,-2.182523488998413,0.7955715656280518,-0.20625931024551392,-0.2945936620235443,-0.48758381605148315,6.101619243621826,-0.5300044417381287,8.29210376739502,-0.8686550855636597,9.986095428466797,-4.2088470458984375,0.49081239104270935,-0.3025115430355072,-0.14295019209384918,-0.8044596314430237
3066996,6.379860877990723,-0.4105313718318939,7.489468097686768,1.1211516857147217,11.14791202545166,-2.202526569366455,0.7958909869194031,-0.20524553954601288,-0.2933824062347412,-0.4882197678089142,6.0246052742004395,-0.5528954863548279,8.282916069030762,-0.7333812713623047,6.355145454406738,-3.5647757053375244,0.4904230535030365,-0.30173489451408386,-0.14260783791542053,-0.8050495386123657
3067163,6.20951509475708,-0.41504961252212524,7.483956336975098,1.4006755352020264,8.46939754486084,-2.158600091934204,0.7961064577102661,-0.20439065992832184,-0.2924976944923401,-0.48875781893730164,6.128673076629639,-0.4935292899608612,8.257075309753418,0.1518256962299347,3.4985222816467285,-2.3321003913879395,0.49015745520591736,-0.30125200748443604,-0.14251676201820374,-0.8054079413414001
3067329,6.237212657928467,-0.4007819890975952,7.470187187194824,1.209950566291809,6.279677391052246,-1.8567286729812622,0.7962440252304077,-0.20372548699378967,-0.29184165596961975,-0.48920348286628723,6.181755542755127,-0.3932088315486908,8.245696067810059,-0.3101057708263397,1.7986583709716797,-2.046198844909668,0.4898698925971985,-0.3010048270225525,-0.14247901737689972,-0.8056818842887878
3067496,6.2359771728515625,-0.4324912428855896,7.465919017791748,0.5716307163238525,3.713874101638794,-1.2523460388183594,0.7962968349456787,-0.20334187150001526,-0.29141753911972046,-0.4895299971103668,6.21931266784668,-0.46151071786880493,8.130550384521484,-1.161740779876709,1.0192638635635376,-1.6581918001174927,0.48957404494285583,-0.3009154498577118,-0.14237944781780243,-0.8059127330780029
3067663,6.2950263023376465,-0.36111223697662354,7.469862461090088,0.8182809352874756,1.1746816635131836,-0.6667113900184631,0.7962912321090698,-0.20313507318496704,-0.29128608107566833,-0.48970308899879456,6.036847114562988,-0.5047274827957153,8.044512748718262,-0.9922232031822205,-0.5492131114006042,-0.40753647685050964,0.48939943313598633,-0.30102241039276123,-0.14235611259937286,-0.8059830069541931
3067829,6.2159743309021,-0.3599157929420471,7.517839431762695,0.7047781944274902,-1.082200527191162,-0.5439369082450867,0.7961958050727844,-0.20310699939727783,-0.2914031744003296,-0.48980024456977844,6.0446672439575195,-0.5359636545181274,7.9987688064575195,-0.4063454568386078,-3.3273072242736816,0.8626548647880554,0.4893418252468109,-0.30143797397613525,-0.14254246652126312,-0.8058297038078308
3067996,6.182555675506592,-0.36243873834609985,7.454676628112793,0.6152619123458862,-2.229931354522705,-0.3371399939060211,0.7960642576217651,-0.20317915081977844,-0.2916390597820282,-0.48984360694885254,6.216380596160889,-0.5233083963394165,7.963571071624756,0.3611455261707306,-4.97607421875,1.546744704246521,0.4893636405467987,-0.3020049035549164,-0.14290490746498108,-0.8055399060249329
3068163,6.240640640258789,-0.372176855802536,7.432199001312256,0.24172623455524445,-2.567544937133789,-0.04219691455364227,0.7959288954734802,-0.20333053171634674,-0.29187723994255066,-0.48985886573791504,6.3387627601623535,-0.48989835381507874,8.01004409790039,0.7874945402145386,-5.4285993576049805,1.3211352825164795,0.48936793208122253,-0.3025891184806824,-0.1433587670326233,-0.8052375316619873
3068329,6.321880340576172,-0.3632773160934448,7.4446892738342285,0.5494756102561951,-4.1244001388549805,0.4570137858390808,0.7957724928855896,-0.20357806980609894,-0.29230159521102905,-0.48975732922554016,6.281331539154053,-0.49826833605766296,8.079721450805664,0.759154200553894,-6.339848518371582,0.7230658531188965,0.4892810583114624,-0.30326899886131287,-0.14390014111995697,-0.8049378991127014
3068496,6.401727676391602,-0.3129051625728607,7.425624370574951,0.6600841879844666,-5.886490821838379,0.7680160999298096,0.7955664396286011,-0.20395120978355408,-0.29292747378349304,-0.4895627498626709,6.2379984855651855,-0.5597642660140991,8.104223251342773,0.8175382614135742,-8.391464233398438,0.5680833458900452,0.489134818315506,-0.3041803538799286,-0.14460040628910065,-0.804557204246521
3068663,6.37861442565918,-0.31999117136001587,7.429266929626465,0.9665144681930542,-7.117218971252441,0.8669067025184631,0.7953236103057861,-0.2043803334236145,-0.2937139868736267,-0.48930707573890686,6.228047847747803,-0.5791105031967163,8.141450881958008,1.167561650276184,-10.531779289245605,0.7900432348251343,0.488984078168869,-0.3053203821182251,-0.14548268914222717,-0.8040578365325928
3068829,6.390103340148926,-0.312794029712677,7.41390323638916,0.6379292607307434,-8.20715618133545,0.649288535118103,0.79500812292099,-0.2049151510000229,-0.2946086525917053,-0.4890579879283905,6.179766654968262,-0.5468692779541016,8.158429145812988,1.655266284942627,-13.207720756530762,0.8598507046699524,0.4888051748275757,-0.30673784017562866,-0.14660733938217163,-0.8034226298332214
3068996,6.3700056076049805,-0.3241082727909088,7.39004373550415,0.6929453015327454,-9.640250205993652,0.533250093460083,0.794623613357544,-0.20553991198539734,-0.29567545652389526,-0.48877671360969543,6.151656150817871,-0.541363000869751,8.250959396362305,1.9819830656051636,-17.329992294311523,0.9999527335166931,0.48856690526008606,-0.30861344933509827,-0.14805468916893005,-0.8025833964347839
3069163,6.321408748626709,-0.29202428460121155,7.33834171295166,1.3444303274154663,-10.551822662353516,0.457526296377182,0.7942124009132385,-0.20615026354789734,-0.29689478874206543,-0.4884488582611084,6.065275192260742,-0.48840171098709106,8.318403244018555,2.3801345825195312,-22.3013858795166,0.5517560839653015,0.4881831705570221,-0.311026394367218,-0.14991872012615204,-0.8015387654304504
3069329,6.360930919647217,-0.28904420137405396,7.327091217041016,1.1897809505462646,-12.86563777923584,0.49080997705459595,0.7936971187591553,-0.20694328844547272,-0.29836776852607727,-0.488053560256958,6.009554862976074,-0.43539959192276,8.255592346191406,1.9530830383300781,-29.042634963989258,-0.1536894589662552,0.48754411935806274,-0.31423237919807434,-0.1522391438484192,-0.8002389073371887
3069496,6.303747653961182,-0.2526986002922058,7.286539077758789,1.7876970767974854,-14.754424095153809,0.9714327454566956,0.7931491732597351,-0.20782078802585602,-0.3000848889350891,-0.4875185191631317,6.0458173751831055,-0.41981127858161926,8.178899765014648,1.396493911743164,-35.42654037475586,-0.8787499666213989,0.4866431653499603,-0.3181940019130707,-0.15497487783432007,-0.7986951470375061
3069663,6.342034816741943,-0.20969799160957336,7.256322383880615,1.657700538635254,-16.813091278076172,1.5566071271896362,0.7925463914871216,-0.20888236165046692,-0.30201050639152527,-0.48685529828071594,6.000534534454346,-0.3957376480102539,8.08858871459961,0.9166778922080994,-42.198978424072266,-1.0310457944869995,0.4855341613292694,-0.32295894622802734,-0.15813389420509338,-0.796836256980896
3069829,6.319000244140625,-0.23968905210494995,7.185849189758301,1.5799082517623901,-18.17296028137207,1.9324932098388672,0.7919027209281921,-0.21006378531455994,-0.30407318472862244,-0.4861100912094116,5.985589027404785,-0.384439080953598,8.12377643585205,0.20256628096103668,-50.738468170166016,-1.0660486221313477,0.4841688871383667,-0.3287442624568939,-0.1618049293756485,-0.7945608496665955
3069996,6.315452575683594,-0.26526784896850586,7.05259370803833,2.360898971557617,-19.862499237060547,2.08758544921875,0.7912130951881409,-0.2112792730331421,-0.30637770891189575,-0.4852588176727295,6.279780864715576,-0.4028622806072235,8.035523414611816,-0.4680267572402954,-59.443607330322266,-1.2856199741363525,0.48251044750213623,-0.3355516493320465,-0.16600841283798218,-0.7918523550033569
3070163,6.446772575378418,-0.23314692080020905,7.12769079208374,2.0919275283813477,-23.2128849029541,1.951851487159729,0.7903465032577515,-0.21275465190410614,-0.3090483844280243,-0.4843316674232483,6.554469108581543,-0.4168738126754761,7.76255989074707,-0.7899972200393677,-65.71647644042969,-1.3685969114303589,0.48063555359840393,-0.34307023882865906,-0.17060251533985138,-0.7887886762619019
3070329,6.690622806549072,-0.21075670421123505,7.15863561630249,0.960222601890564,-27.069604873657227,3.001457452774048,0.789339005947113,-0.2146737426519394,-0.31204670667648315,-0.4832040071487427,6.578172206878662,-0.3773932456970215,7.428036689758301,-1.141385555267334,-70.01409912109375,-1.638523817062378,0.47855859994888306,-0.35106348991394043,-0.17545126378536224,-0.7854636907577515
3070496,6.833890438079834,-0.28081613779067993,7.194915771484375,-0.291960209608078,-31.47612190246582,3.4707698822021484,0.7881088852882385,-0.2170645147562027,-0.3154415488243103,-0.48193782567977905,6.588430881500244,-0.413254976272583,7.213161945343018,-1.402835488319397,-75.30997467041016,-1.7174936532974243,0.47627052664756775,-0.3596363961696625,-0.1806211620569229,-0.7817954421043396
3070663,6.944025993347168,-0.3101564347743988,7.0316338539123535,-0.8399849534034729,-35.00481033325195,3.0831995010375977,0.7866576313972473,-0.21974027156829834,-0.3192085325717926,-0.4806141257286072,6.561832427978516,-0.4450264871120453,7.088527202606201,-1.3978078365325928,-81.90843963623047,-1.8937709331512451,0.47372719645500183,-0.36890530586242676,-0.18623198568820953,-0.7776947617530823
3070829,6.984729290008545,-0.30661696195602417,6.839130401611328,-1.1654220819473267,-37.577552795410156,2.220228672027588,0.784993052482605,-0.22258903086185455,-0.3232647478580475,-0.4793122708797455,6.9495768547058105,-0.48818761110305786,6.8651862144470215,-1.1703929901123047,-89.97860717773438,-1.662362813949585,0.4709300696849823,-0.3790171146392822,-0.19238010048866272,-0.7730206847190857
3070996,6.965077877044678,-0.26385942101478577,6.830007076263428,-1.715944766998291,-38.98456573486328,1.8807696104049683,0.7831962704658508,-0.2255755215883255,-0.32744520902633667,-0.4780157506465912,7.374571323394775,-0.4921792149543762,6.453406810760498,-0.33293700218200684,-93.9757080078125,-1.560489296913147,0.4679948091506958,-0.3894544243812561,-0.19885365664958954,-0.7679606080055237
3071163,7.014640808105469,-0.24493157863616943,6.789043426513672,-2.32450795173645,-42.5162239074707,2.1070868968963623,0.7811973094940186,-0.2288806289434433,-0.33196619153022766,-0.4765952527523041,7.48118257522583,-0.4676811695098877,6.125866413116455,0.5226119756698608,-95.75140380859375,-1.4825493097305298,0.46497634053230286,-0.39996030926704407,-0.20549996197223663,-0.7626262307167053
3071329,7.159696578979492,-0.32699739933013916,6.710202217102051,-2.4337363243103027,-45.172481536865234,2.495495557785034,0.7790661454200745,-0.23239032924175262,-0.3367556035518646,-0.47502264380455017,7.656011581420898,-0.47962313890457153,5.823618412017822,1.0453091859817505,-98.34738159179688,-1.896723747253418,0.46177205443382263,-0.41062724590301514,-0.21236179769039154,-0.7570036053657532
3071496,7.185349464416504,-0.3599708378314972,6.590358734130859,-2.138683319091797,-46.857357025146484,1.57638418674469,0.7767758965492249,-0.23592296242713928,-0.34177547693252563,-0.4734439551830292,7.73634147644043,-0.4497458040714264,5.546756267547607,1.9841915369033813,-101.27326202392578,-1.9134788513183594,0.45843416452407837,-0.4214673340320587,-0.21947872638702393,-0.751021146774292
3071663,7.251103401184082,-0.2817884385585785,6.504106521606445,-1.1571407318115234,-49.40697479248047,1.8035789728164673,0.7743726968765259,-0.23952098190784454,-0.34712573885917664,-0.47167837619781494,8.080291748046875,-0.36406922340393066,5.276643753051758,2.236412763595581,-103.58161926269531,-1.3189759254455566,0.4550010561943054,-0.4324692189693451,-0.22669097781181335,-0.7446849346160889
3071829,7.346722602844238,-0.427040159702301,6.41963529586792,-0.3634602427482605,-50.217247009277344,2.5236995220184326,0.7719534635543823,-0.24311141669750214,-0.3525765836238861,-0.46976014971733093,8.473305702209473,-0.3148776590824127,4.88301420211792,2.1782922744750977,-101.76631927490234,-1.080216646194458,0.4515480697154999,-0.4431914687156677,-0.23371103405952454,-0.7382851839065552
3071996,7.5282883644104,-0.37002700567245483,6.309574127197266,-0.8507972955703735,-50.02006149291992,2.8587419986724854,0.7694783806800842,-0.24676579236984253,-0.3579285144805908,-0.46786436438560486,8.472319602966309,-0.22787046432495117,4.672754287719727,1.8483083248138428,-99.2066650390625,-1.4388432502746582,0.44802460074424744,-0.4535563588142395,-0.24050135910511017,-0.7319288849830627
3072163,7.7082839012146,-0.34784141182899475,6.111597061157227,-0.9437333345413208,-48.44485855102539,2.8775272369384766,0.7670736908912659,-0.2502959370613098,-0.36308977007865906,-0.46595701575279236,8.401131629943848,-0.2391865849494934,4.519585609436035,0.6324189901351929,-99.63963317871094,-2.0122427940368652,0.4442497491836548,-0.46393364667892456,-0.24717846512794495,-0.7254728078842163
3072329,7.585437297821045,-0.32944929599761963,5.956908226013184,-0.4890916645526886,-50.51169967651367,3.2052080631256104,0.7645325660705566,-0.2539356052875519,-0.3684718906879425,-0.4639345407485962,8.745329856872559,-0.3020646274089813,4.1839399337768555,-0.3642897605895996,-101.08748626708984,-1.7464137077331543,0.44028809666633606,-0.4744400680065155,-0.25377321243286133,-0.7187851667404175
3072496,7.861732006072998,-0.3432607054710388,5.831569671630859,-2.9972221851348877,-47.73136901855469,2.7022063732147217,0.7620124816894531,-0.25761187076568604,-0.37338584661483765,-0.4621216058731079,9.113011360168457,-0.28364038467407227,3.791935682296753,-0.8269598484039307,-98.50858306884766,-0.9705495238304138,0.4363771975040436,-0.4846374988555908,-0.26004764437675476,-0.71209317445755
3072663,7.9918060302734375,-0.30096378922462463,5.861152172088623,-2.406278133392334,-43.59148025512695,3.3114943504333496,0.7597200870513916,-0.26097622513771057,-0.37783560156822205,-0.4603879749774933,9.104336738586426,-0.2538287341594696,3.5333199501037598,-1.197431206703186,-94.5010757446289,-0.24138163030147552,0.43257999420166016,-0.4943786859512329,-0.26592758297920227,-0.7055119276046753
3072829,7.9430952072143555,-0.43618014454841614,5.718490123748779,-2.2794432640075684,-43.52692794799805,3.7614104747772217,0.7574422359466553,-0.2643350660800934,-0.38225609064102173,-0.45857223868370056,9.151368141174316,-0.3254011273384094,3.257845401763916,-2.1784136295318604,-93.095458984375,0.34128043055534363,0.42874446511268616,-0.5039706230163574,-0.2715277075767517,-0.6989024877548218
3072996,7.947572231292725,-0.44140008091926575,5.607852935791016,-4.190765380859375,-43.71492385864258,2.829383373260498,0.754976212978363,-0.26785966753959656,-0.38658714294433594,-0.45696038007736206,9.299739837646484,-0.35728171467781067,3.025116443634033,-2.5297000408172607,-91.34146881103516,0.5315752029418945,0.42489349842071533,-0.5133258700370789,-0.27692046761512756,-0.6922984719276428
3073163,8.08350944519043,-0.39805716276168823,5.542665481567383,-3.8415725231170654,-44.03089904785156,2.331418514251709,0.7524412274360657,-0.27133044600486755,-0.3909778594970703,-0.45535513758659363,9.50406551361084,-0.39631417393684387,2.720114231109619,-2.9943742752075195,-88.80821990966797,1.1580655574798584,0.4210990071296692,-0.5223947763442993,-0.2820158898830414,-0.685745120048523
3073329,8.275643348693848,-0.4532587230205536,5.1897454261779785,-2.4498698711395264,-42.090145111083984,3.2276620864868164,0.7501271367073059,-0.27455002069473267,-0.39520540833473206,-0.4535904824733734,9.728494644165039,-0.42787668108940125,2.404855489730835,-2.8236539363861084,-85.04421997070312,1.861392617225647,0.41747358441352844,-0.531026303768158,-0.28679975867271423,-0.6793178915977478
3073496,8.420182228088379,-0.3882429897785187,5.325254917144775,-2.7659177780151367,-39.20969772338867,2.861088514328003,0.7479076981544495,-0.27758580446243286,-0.3990989625453949,-0.45199623703956604,9.552332878112793,-0.4186360836029053,2.1140284538269043,-2.646786689758301,-80.27229309082031,1.5981982946395874,0.4139731526374817,-0.5390914082527161,-0.2912909686565399,-0.6731688976287842
3073663,8.34444522857666,-0.46209007501602173,5.196505069732666,-3.1574230194091797,-39.19961929321289,1.8137539625167847,0.7455639243125916,-0.2806035280227661,-0.4029889702796936,-0.4505508840084076,9.387839317321777,-0.3970484733581543,1.9759724140167236,-2.7335500717163086,-79.20690155029297,1.24154531955719,0.4104192554950714,-0.5469732284545898,-0.29569900035858154,-0.667037308216095
3073829,8.436595916748047,-0.4999752640724182,5.001506328582764,-3.6744954586029053,-39.75168228149414,1.2826335430145264,0.7431222796440125,-0.2836664319038391,-0.4069187343120575,-0.4491324722766876,9.686084747314453,-0.4427603781223297,1.849585771560669,-2.824579954147339,-79.41016387939453,0.9591079950332642,0.40676626563072205,-0.554797887802124,-0.3000938594341278,-0.6608211994171143
3073996,8.480785369873047,-0.4687027037143707,4.877804756164551,-3.9967432022094727,-39.57991027832031,1.5845576524734497,0.7406511902809143,-0.28677263855934143,-0.4107762277126312,-0.4477277398109436,10.143803596496582,-0.46242254972457886,1.548905611038208,-2.701272487640381,-75.72168731689453,0.5095045566558838,0.40318816900253296,-0.5621729493141174,-0.304280549287796,-0.6548392176628113
3074163,8.695143699645996,-0.579967200756073,4.679275035858154,-2.3073067665100098,-38.737159729003906,1.6990851163864136,0.7382950782775879,-0.28963524103164673,-0.41463929414749146,-0.4462132453918457,9.981236457824707,-0.4252171218395233,1.255852222442627,-2.064136505126953,-69.0645980834961,0.07556513696908951,0.399869441986084,-0.5687981247901917,-0.3081398010253906,-0.6493250727653503
3074330,8.833303451538086,-0.453884094953537,4.641687870025635,-2.0760457515716553,-33.77900314331055,2.467313766479492,0.7362768054008484,-0.29219090938568115,-0.4179423451423645,-0.44479796290397644,9.575544357299805,-0.3914381265640259,1.1745542287826538,-2.1944146156311035,-66.35511016845703,-0.20074261724948883,0.39659518003463745,-0.5751103758811951,-0.31182292103767395,-0.6439928412437439
3074496,8.549792289733887,-0.49615252017974854,4.798757553100586,-3.9582931995391846,-34.72088623046875,2.231701612472534,0.7341129779815674,-0.2949729561805725,-0.42123672366142273,-0.44342875480651855,9.552898406982422,-0.4007824659347534,1.053391933441162,-2.2889792919158936,-67.46795654296875,-0.4243963956832886,0.3932029604911804,-0.5814700126647949,-0.31555092334747314,-0.638523280620575
3074663,8.592011451721191,-0.5739132165908813,4.513860702514648,-7.469893455505371,-37.91992950439453,1.3740965127944946,0.7315133213996887,-0.2982829213142395,-0.4246653616428375,-0.442238450050354,9.906121253967285,-0.4335973262786865,0.8216984868049622,-2.6709983348846436,-66.669189453125,-0.39044612646102905,0.38977983593940735,-0.5877254009246826,-0.3191649615764618,-0.6330754160881042
3074830,8.952384948730469,-0.5750449299812317,4.167402267456055,-3.7668490409851074,-34.21990966796875,1.6497397422790527,0.7293000221252441,-0.3009703755378723,-0.42791518568992615,-0.4409385919570923,10.053646087646484,-0.42527204751968384,0.5445113182067871,-2.2401297092437744,-62.20368194580078,-0.007530236151069403,0.3866008222103119,-0.5935134887695312,-0.32250499725341797,-0.6279111504554749
3074996,8.965670585632324,-0.5659506916999817,4.218655586242676,-2.163818120956421,-28.27428436279297,2.4890553951263428,0.7275717854499817,-0.30314916372299194,-0.4305969774723053,-0.43968871235847473,9.848311424255371,-0.41441333293914795,0.44482359290122986,-2.339876413345337,-58.704105377197266,0.3246512711048126,0.38357648253440857,-0.5989596247673035,-0.3255859911441803,-0.6229851245880127
3075163,8.7460355758667,-0.5573177933692932,4.440001964569092,-2.2194888591766357,-30.24407386779785,2.447871446609497,0.7256958484649658,-0.3054567575454712,-0.43347641825675964,-0.4383605122566223,9.817405700683594,-0.4890533983707428,0.2815941870212555,-2.2613327503204346,-57.41347885131836,0.6111837029457092,0.3806176781654358,-0.604257345199585,-0.32855424284935,-0.6181064248085022
3075330,8.776429176330566,-0.6411877274513245,4.137556552886963,-3.6112000942230225,-32.85511779785156,2.102036237716675,0.7235684394836426,-0.3080410957336426,-0.43655505776405334,-0.43701171875,9.948604583740234,-0.541692316532135,0.043424367904663086,-1.5415936708450317,-55.528099060058594,1.0507018566131592,0.37782540917396545,-0.6093279123306274,-0.3314221501350403,-0.6132919192314148
3075496,9.105691909790039,-0.6286163330078125,3.906402111053467,-1.1511021852493286,-28.392091751098633,2.1437442302703857,0.7218090891838074,-0.31009015440940857,-0.43930333852767944,-0.43571600317955017,9.946430206298828,-0.516708493232727,-0.12461300939321518,-0.5851277709007263,-51.83815383911133,1.378879189491272,0.375301331281662,-0.613997757434845,-0.3341235816478729,-0.6087012887001038
3075663,9.056833267211914,-0.6405331492424011,4.124574661254883,-1.9427143335342407,-24.487443923950195,2.355623960494995,0.7202690243721008,-0.31198278069496155,-0.44157904386520386,-0.43461185693740845,9.96295166015625,-0.48997631669044495,-0.27288374304771423,0.010328407399356365,-48.56814193725586,1.4111883640289307,0.37294653058052063,-0.6183232069015503,-0.33666542172431946,-0.6043541431427002
3075830,8.883864402770996,-0.6342916488647461,4.105666160583496,-3.3510587215423584,-26.638961791992188,1.9411207437515259,0.7184967398643494,-0.31412389874458313,-0.4440074563026428,-0.43352729082107544,9.670400619506836,-0.46410879492759705,-0.34190303087234497,0.22988207638263702,-46.1179313659668,1.3194671869277954,0.37074726819992065,-0.6223784685134888,-0.3391091823577881,-0.6001641154289246
3075996,8.976495742797852,-0.6753941774368286,3.923966407775879,-1.1815170049667358,-27.349145889282227,2.5699658393859863,0.7168035507202148,-0.31612157821655273,-0.4466097950935364,-0.43220317363739014,9.862747192382812,-0.47510388493537903,-0.43659940361976624,0.38481447100639343,-46.072635650634766,1.04950749874115,0.3685263395309448,-0.6263805627822876,-0.34157565236091614,-0.5959545969963074
3076163,9.154057502746582,-0.6655108332633972,3.705631732940674,-2.19488525390625,-25.315738677978516,2.261561632156372,0.7151651978492737,-0.31807371973991394,-0.4489440619945526,-0.4310651123523712,10.184206008911133,-0.5251486897468567,-0.6024928689002991,0.679233968257904,-42.76163864135742,0.9984983205795288,0.36648160219192505,-0.6300512552261353,-0.34388434886932373,-0.5920056104660034
3076330,9.297969818115234,-0.6990895867347717,3.640036106109619,-1.3641728162765503,-20.370450973510742,2.7206809520721436,0.713904082775116,-0.31966036558151245,-0.45078858733177185,-0.4300557076931,10.171577453613281,-0.5650923848152161,-0.7948901653289795,1.6578220129013062,-37.14878845214844,1.3126379251480103,0.36483439803123474,-0.6331781148910522,-0.34594613313674927,-0.5884751081466675
3076496,9.192171096801758,-0.6498120427131653,3.826860189437866,1.4849679470062256,-17.66407012939453,2.8775830268859863,0.7129586935043335,-0.32078924775123596,-0.4525220990180969,-0.42896148562431335,9.95647144317627,-0.5146741271018982,-0.8815618753433228,2.1853668689727783,-32.61359405517578,1.606799602508545,0.3634856939315796,-0.6358867287635803,-0.34778130054473877,-0.5852987766265869
3076663,8.988541603088379,-0.6630265116691589,3.995412826538086,-5.581039905548096,-17.878019332885742,0.5327512621879578,0.7115304470062256,-0.3224984109401703,-0.45395052433013916,-0.4285421073436737,10.089422225952148,-0.5030301809310913,-0.9340946674346924,2.376180410385132,-28.8175106048584,1.402241826057434,0.3623153567314148,-0.6382419466972351,-0.34944164752960205,-0.5824651718139648
3076830,9.008667945861816,-0.6204676032066345,3.664126396179199,-1.7922128438949585,-19.92211151123047,1.010121464729309,0.7101574540138245,-0.32398128509521484,-0.45579299330711365,-0.42774444818496704,9.874829292297363,-0.5046482682228088,-0.9144310355186462,2.647993564605713,-24.73444175720215,1.514872670173645,0.36138856410980225,-0.6402316093444824,-0.35089969635009766,-0.5799754858016968
3076996,9.180551528930664,-0.6254147887229919,3.60040545463562,-2.0281951427459717,-17.005491256713867,1.6685985326766968,0.7090060114860535,-0.32534584403038025,-0.4572877287864685,-0.42702287435531616,9.570013046264648,-0.5256174802780151,-0.7840434312820435,2.6596474647521973,-24.521316528320312,1.6012004613876343,0.3604699671268463,-0.6422012448310852,-0.3523321747779846,-0.5774955153465271
3077163,9.006083488464355,-0.6733117699623108,3.655365228652954,-5.459175109863281,-19.210613250732422,0.6543861627578735,0.7074827551841736,-0.3271270990371704,-0.4588454067707062,-0.42651715874671936,9.623913764953613,-0.5632404088973999,-0.7260724306106567,2.7270867824554443,-26.76596450805664,1.1969548463821411,0.35943764448165894,-0.6443156599998474,-0.3539425730705261,-0.5747929811477661
3077330,9.088627815246582,-0.6502512097358704,3.3919332027435303,-1.3199529647827148,-23.38220977783203,1.24965238571167,0.7059009075164795,-0.32878395915031433,-0.461051881313324,-0.42548367381095886,9.771493911743164,-0.5338835716247559,-0.8083893656730652,2.7887887954711914,-27.65191650390625,0.6507500410079956,0.3583139181137085,-0.6464621424674988,-0.35565030574798584,-0.5720234513282776
3077496,9.483818054199219,-0.6536172032356262,3.054029941558838,-1.7139779329299927,-16.62753677368164,1.2656464576721191,0.7047507762908936,-0.3300594389438629,-0.46253839135169983,-0.4247887432575226,9.72402286529541,-0.476357102394104,-0.9010969400405884,2.612854480743408,-27.029653549194336,0.1917179673910141,0.35715600848197937,-0.6485335230827332,-0.35734525322914124,-0.5693403482437134
3077663,9.302311897277832,-0.6531882882118225,3.437246084213257,-0.5068243145942688,-12.772867202758789,1.0801713466644287,0.7039082646369934,-0.3309551775455475,-0.4637172520160675,-0.424203485250473,9.306438446044922,-0.43385493755340576,-0.8879903554916382,1.88424813747406,-28.446720123291016,-0.24836702644824982,0.3558371365070343,-0.650718092918396,-0.3591053783893585,-0.5665593147277832
3077830,8.910455703735352,-0.6208187937736511,3.7351222038269043,-2.309077501296997,-18.313692092895508,0.18357285857200623,0.7025400400161743,-0.33232006430625916,-0.4653899371623993,-0.42357194423675537,9.344356536865234,-0.3966390788555145,-0.895977258682251,0.7635495662689209,-33.260643005371094,-1.345056176185608,0.35405266284942627,-0.6532893180847168,-0.36111313104629517,-0.5634334087371826
3077996,9.11347484588623,-0.6524958610534668,3.2076263427734375,-1.045217752456665,-23.27979850769043,-0.03346305340528488,0.7008777260780334,-0.33384352922439575,-0.4676530361175537,-0.4226343035697937,9.575946807861328,-0.4194115996360779,-1.027585506439209,-0.44862130284309387,-35.886253356933594,-1.9443200826644897,0.351940780878067,-0.6560946702957153,-0.36319461464881897,-0.560149610042572
3078163,9.50910758972168,-0.6474360823631287,2.957366704940796,2.614220380783081,-16.58554458618164,1.405479073524475,0.6999274492263794,-0.33468061685562134,-0.4693835377693176,-0.4216274917125702,9.470623016357422,-0.4101981818675995,-1.170555591583252,-1.0037022829055786,-36.23265838623047,-1.8962064981460571,0.34977394342422485,-0.6589319705963135,-0.3652498424053192,-0.5568299889564514
3078330,9.314785957336426,-0.6538509130477905,3.329120635986328,3.589385747909546,-14.486220359802246,1.1185777187347412,0.6991536021232605,-0.33526256680488586,-0.4709785580635071,-0.4206694960594177,9.027488708496094,-0.40581950545310974,-1.1730871200561523,-1.7939103841781616,-39.45985412597656,-2.055302143096924,0.3473362922668457,-0.6620412468910217,-0.367410808801651,-0.5532345175743103
3078496,8.974977493286133,-0.6744758486747742,3.5362708568573,0.4381250739097595,-20.480609893798828,-0.18026243150234222,0.697725236415863,-0.33644580841064453,-0.4730468988418579,-0.41977444291114807,9.3342924118042,-0.40404561161994934,-1.2736859321594238,-2.833681344985962,-45.24470901489258,-2.7469944953918457,0.34443145990371704,-0.6656006574630737,-0.369841992855072,-0.549144446849823
3078663,9.278681755065918,-0.6266821026802063,2.9040915966033936,1.93874990940094,-20.730039596557617,-0.010027386248111725,0.6963599920272827,-0.33749866485595703,-0.4752196669578552,-0.41874074935913086,9.645044326782227,-0.39461007714271545,-1.5004264116287231,-3.581129789352417,-45.28763961791992,-3.276247024536133,0.34139513969421387,-0.6691416501998901,-0.37225261330604553,-0.5450934767723083
3078830,9.594361305236816,-0.565331220626831,2.7941770553588867,3.576347589492798,-12.514139175415039,0.8931728005409241,0.6956877708435059,-0.337951123714447,-0.47661060094833374,-0.41791167855262756,9.111750602722168,-0.400901198387146,-1.6247217655181885,-4.162107467651367,-45.647098541259766,-3.211817741394043,0.33826231956481934,-0.6727162003517151,-0.3746064007282257,-0.5410189628601074
3078996,9.272660255432129,-0.6256221532821655,3.274892807006836,7.753872394561768,-13.003793716430664,1.2680151462554932,0.6952173113822937,-0.3380254805088043,-0.4782940745353699,-0.41670945286750793,9.228472709655762,-0.419010192155838,-1.7507359981536865,-4.562930583953857,-50.124053955078125,-3.425447463989258,0.33472302556037903,-0.6766524910926819,-0.3770856261253357,-0.536571204662323
3079163,9.25478458404541,-0.6707278490066528,2.986290693283081,7.091886043548584,-14.082039833068848,0.8813784718513489,0.6946144700050354,-0.3382015824317932,-0.4800640046596527,-0.41553473472595215,9.970702171325684,-0.4098832309246063,-1.9725770950317383,-4.583292007446289,-50.103946685791016,-4.127651214599609,0.33111003041267395,-0.6805130839347839,-0.3796102702617645,-0.5321317911148071
