sampleTimeFine,D4:22:CD:00:A9:12_acc_x,D4:22:CD:00:A9:12_acc_y,D4:22:CD:00:A9:12_acc_z,D4:22:CD:00:A9:12_gyro_x,D4:22:CD:00:A9:12_gyro_y,D4:22:CD:00:A9:12_gyro_z,D4:22:CD:00:A9:12_quat_w,D4:22:CD:00:A9:12_quat_x,D4:22:CD:00:A9:12_quat_y,D4:22:CD:00:A9:12_quat_z,D4:22:CD:00:A1:93_acc_x,D4:22:CD:00:A1:93_acc_y,D4:22:CD:00:A1:93_acc_z,D4:22:CD:00:A1:93_gyro_x,D4:22:CD:00:A1:93_gyro_y,D4:22:CD:00:A1:93_gyro_z,D4:22:CD:00:A1:93_quat_w,D4:22:CD:00:A1:93_quat_x,D4:22:CD:00:A1:93_quat_y,D4:22:CD:00:A1:93_quat_z
223871,0.0,0.0,0.0,0.0,0.0,0.0,0.6441496014595032,-0.33882972598075867,-0.5306658744812012,-0.43434938788414,0.0,0.0,0.0,0.0,0.0,0.0,0.3433580696582794,-0.6449801325798035,-0.4139116406440735,-0.5429392457008362
224038,9.620943069458008,0.2256699800491333,2.0333261489868164,1.2390847206115723,-0.16050197184085846,0.24377529323101044,0.6445680856704712,-0.33843421936035156,-0.53083336353302,-0.4338321387767792,9.588767051696777,0.07262203842401505,-1.694446325302124,0.8293840885162354,-0.06686194986104965,0.10085640847682953,0.34379124641418457,-0.644638180732727,-0.4142952859401703,-0.5427786111831665
224205,9.615610122680664,0.2526845335960388,2.014397382736206,1.6233775615692139,-0.26674342155456543,0.18321403861045837,0.6445553302764893,-0.3385743200778961,-0.5308139324188232,-0.43376559019088745,9.591938018798828,0.08733123540878296,-1.6902568340301514,0.8303444385528564,-0.17315466701984406,-0.050585079938173294,0.34383314847946167,-0.6445339322090149,-0.4144027829170227,-0.5427937507629395
224371,9.621847152709961,0.26537224650382996,2.0092060565948486,1.6612589359283447,-0.1727960705757141,0.10579966753721237,0.6445144414901733,-0.338484525680542,-0.5310602784156799,-0.43359479308128357,9.5887451171875,0.10305172950029373,-1.6782281398773193,0.6710975766181946,-0.2668458819389343,-0.08111541718244553,0.3440243601799011,-0.6442175507545471,-0.4148419201374054,-0.5427128672599792
224538,9.621467590332031,0.2926022708415985,1.9871000051498413,1.719066858291626,-0.07919447869062424,0.17282810807228088,0.6444932818412781,-0.33826208114624023,-0.531402587890625,-0.4333806037902832,9.576926231384277,0.12002824246883392,-1.6910382509231567,0.3783571720123291,-0.31449833512306213,-0.04434838518500328,0.34385043382644653,-0.6441210508346558,-0.41490235924720764,-0.5428914427757263
224705,9.611507415771484,0.2813921272754669,2.0093283653259277,1.655585765838623,-0.05137907713651657,0.2934255301952362,0.6443789005279541,-0.3380639851093292,-0.5317637920379639,-0.43326181173324585,9.5888671875,0.11529334634542465,-1.6997355222702026,-0.019965099170804024,-0.45903080701828003,-0.02360210195183754,0.34365570545196533,-0.6440287828445435,-0.4150508642196655,-0.5430107116699219
224871,9.623641014099121,0.3009052574634552,1.9832453727722168,1.4740301370620728,0.014298290945589542,0.3350973427295685,0.6443379521369934,-0.33784374594688416,-0.5320551991462708,-0.43313688039779663,9.609275817871094,0.10353835672140121,-1.682845115661621,0.026470724493265152,-0.46571576595306396,0.2949686348438263,0.3435295522212982,-0.6439704895019531,-0.4151995778083801,-0.5430458188056946
225038,9.607449531555176,0.3042090833187103,2.0149269104003906,1.2492016553878784,0.014387933537364006,0.31404370069503784,0.6443184614181519,-0.33760303258895874,-0.5323601961135864,-0.43297895789146423,9.605899810791016,0.08936584740877151,-1.6892215013504028,-0.05200658366084099,-0.39435872435569763,0.4168146252632141,0.3434588313102722,-0.643932044506073,-0.41528087854385376,-0.5430741310119629
225205,9.613890647888184,0.2770688533782959,1.9822115898132324,0.8972576260566711,-0.14828471839427948,0.7053160667419434,0.6441863775253296,-0.3375977873802185,-0.5324783325195312,-0.4330340027809143,9.589997291564941,0.0713060051202774,-1.6949721574783325,0.0856296569108963,-0.19027672708034515,0.48764657974243164,0.3434889018535614,-0.6438753604888916,-0.4153580963611603,-0.5430630445480347
225371,9.618635177612305,0.25622111558914185,2.0167758464813232,0.7776975631713867,0.06565175205469131,0.7669786214828491,0.6442294716835022,-0.33745360374450684,-0.5326554775238037,-0.4328646659851074,9.607348442077637,0.06620990484952927,-1.6949684619903564,0.2510876953601837,-0.24382010102272034,0.49899303913116455,0.34355658292770386,-0.6438477039337158,-0.415414422750473,-0.5430100560188293
225538,9.611949920654297,0.24912449717521667,2.0107202529907227,0.6811249256134033,0.04774847254157066,0.882197380065918,0.6443055868148804,-0.33735454082489014,-0.5327728986740112,-0.43268394470214844,9.589739799499512,0.035890817642211914,-1.703687310218811,0.4711136519908905,-0.1404600739479065,0.44533443450927734,0.34370118379592896,-0.6437873840332031,-0.4155089557170868,-0.5429176688194275
225705,9.610018730163574,0.22427843511104584,2.0188136100769043,0.7973554134368896,-0.024997996166348457,0.947240948677063,0.644336998462677,-0.33735957741737366,-0.5328166484832764,-0.4325793981552124,9.545480728149414,0.023203909397125244,-1.7083122730255127,0.8387710452079773,-0.2957882583141327,0.6498646140098572,0.3438757658004761,-0.6437796950340271,-0.4155629575252533,-0.5427748560905457
225871,9.616717338562012,0.26345375180244446,2.0246896743774414,0.8766394257545471,0.24389052391052246,1.1136209964752197,0.644469141960144,-0.33731818199157715,-0.5328373908996582,-0.4323893189430237,9.558819770812988,0.04810271039605141,-1.7153429985046387,1.0722179412841797,-0.6730248928070068,0.6012004613876343,0.34398335218429565,-0.6438624262809753,-0.41555872559547424,-0.5426117777824402
226038,9.62093448638916,0.21688997745513916,1.983100414276123,0.710348904132843,0.21315528452396393,1.2244725227355957,0.6446260213851929,-0.3372739255428314,-0.5328503847122192,-0.4321737289428711,9.654125213623047,0.1506166160106659,-1.730987548828125,0.6672683954238892,-0.6149864792823792,-0.21454477310180664,0.34402796626091003,-0.6438880562782288,-0.41564443707466125,-0.5424875020980835
226205,9.642804145812988,0.16816169023513794,1.954102873802185,1.3067662715911865,0.47825950384140015,1.2644925117492676,0.6447781920433044,-0.337251752614975,-0.532824695110321,-0.4319954216480255,9.706938743591309,0.11154548078775406,-1.7317354679107666,-0.036062683910131454,0.10133025050163269,-0.5379948019981384,0.343941867351532,-0.6438980102539062,-0.4156348705291748,-0.5425376296043396
226371,9.620556831359863,0.30298101902008057,1.9926785230636597,1.3543931245803833,1.4243029356002808,0.6976578831672668,0.6450251340866089,-0.33708441257476807,-0.5327816605567932,-0.43181052803993225,9.671095848083496,0.08609556406736374,-1.726491093635559,-0.1577102094888687,0.86408931016922,0.0623733289539814,0.3439972400665283,-0.6438315510749817,-0.4156107008457184,-0.5425999164581299
226538,9.645533561706543,0.34142744541168213,2.045436382293701,0.8125565648078918,2.3480379581451416,0.14138850569725037,0.645244300365448,-0.3368862569332123,-0.5326313972473145,-0.43182316422462463,9.627856254577637,0.1267409324645996,-1.6868276596069336,-0.3101826310157776,1.366392731666565,0.8459683060646057,0.3441113233566284,-0.6437941789627075,-0.4154547452926636,-0.5426914095878601
226705,9.655411720275879,0.28201916813850403,2.0846352577209473,-0.05767980217933655,1.7533366680145264,1.2462564706802368,0.6454852819442749,-0.336813747882843,-0.5324652791023254,-0.4317243695259094,9.607819557189941,0.1123773530125618,-1.6899210214614868,-0.5136627554893494,1.5120137929916382,0.8736940622329712,0.34421733021736145,-0.6437441110610962,-0.41528239846229553,-0.5428154468536377
226871,9.60673713684082,0.21319596469402313,2.089181900024414,0.23132751882076263,1.2760822772979736,0.6660391092300415,0.6455662846565247,-0.3368223309516907,-0.5322960019111633,-0.4318055510520935,9.576362609863281,0.057991474866867065,-1.6574461460113525,-0.5281978845596313,1.4321660995483398,0.7968688011169434,0.34429463744163513,-0.643703281879425,-0.4151049256324768,-0.5429506897926331
227038,9.599510192871094,0.2226126343011856,2.0575954914093018,0.7421343922615051,1.1734906435012817,-0.010040178894996643,0.6456537842750549,-0.33671391010284424,-0.5322020053863525,-0.4318752586841583,9.557640075683594,0.02773885987699032,-1.649688482284546,-0.1812482625246048,1.1049511432647705,0.7566183805465698,0.34442317485809326,-0.6436416506767273,-0.41500699520111084,-0.5430168509483337
227205,9.615808486938477,0.26323580741882324,2.0560145378112793,1.1239558458328247,0.6610702872276306,0.6467655301094055,0.6458009481430054,-0.3366122245788574,-0.5321692228317261,-0.43177464604377747,9.5564546585083,0.05165300890803337,-1.6557819843292236,0.3313578963279724,0.7196465134620667,0.7444394826889038,0.34453335404396057,-0.6436251401901245,-0.41489943861961365,-0.5430487394332886
227371,9.590841293334961,0.2572946846485138,2.0459072589874268,1.0805933475494385,0.6948916912078857,0.8491697907447815,0.6459565162658691,-0.3365319073200226,-0.5321167707443237,-0.4316692650318146,9.556527137756348,0.05345374718308449,-1.650587558746338,0.5328786373138428,0.3641037344932556,0.7434918284416199,0.34466370940208435,-0.6436120271682739,-0.41484519839286804,-0.5430231690406799
227538,9.578995704650879,0.2309776395559311,2.039804697036743,0.7839215993881226,0.5748322606086731,0.766223132610321,0.6460744142532349,-0.33648982644081116,-0.5320550799369812,-0.43160146474838257,9.575488090515137,0.04983627796173096,-1.6619817018508911,0.6329986453056335,-0.06044596806168556,0.8720547556877136,0.3447043001651764,-0.6437004208564758,-0.41470369696617126,-0.5430005788803101
227705,9.587230682373047,0.22892002761363983,2.047348737716675,0.8123642802238464,0.449842244386673,0.6472265124320984,0.6461935043334961,-0.33642590045928955,-0.5320249199867249,-0.43151021003723145,9.59434700012207,0.09110654145479202,-1.6593562364578247,0.5953351259231567,-0.2326657474040985,0.849541187286377,0.34486886858940125,-0.6436978578567505,-0.414732426404953,-0.542877197265625
227871,9.587910652160645,0.23533055186271667,2.0400002002716064,0.7748546004295349,0.38394078612327576,0.9265843033790588,0.6463180780410767,-0.33640027046203613,-0.5319794416427612,-0.43139976263046265,9.622281074523926,0.08703300356864929,-1.6607823371887207,0.4713825285434723,-0.125771164894104,0.737588107585907,0.34495601058006287,-0.6437307000160217,-0.4146862328052521,-0.5428181886672974
228038,9.590208053588867,0.2388640195131302,2.0413808822631836,0.5961291790008545,0.4896700382232666,0.8466342687606812,0.6464537978172302,-0.33635860681533813,-0.5319305658340454,-0.43128907680511475,9.641660690307617,0.08977580815553665,-1.655815839767456,0.3229312598705292,-0.051430296152830124,0.8547533750534058,0.34504997730255127,-0.6437636017799377,-0.4146253764629364,-0.5427658557891846
228205,9.605292320251465,0.25754275918006897,2.0458016395568848,0.738817572593689,0.5203027725219727,0.7170467972755432,0.6465483903884888,-0.3363436460494995,-0.5318623781204224,-0.43124309182167053,9.613369941711426,0.09222332388162613,-1.652243971824646,0.1410043090581894,0.04923400655388832,0.9437830448150635,0.34510862827301025,-0.6438238024711609,-0.41450223326683044,-0.5427511930465698
228371,9.62448501586914,0.2758581340312958,2.0773301124572754,0.6253212094306946,0.360767662525177,0.8946003913879395,0.6466646790504456,-0.33632567524909973,-0.5318179726600647,-0.43113747239112854,9.558939933776855,0.07800456881523132,-1.6450802087783813,-0.07446891814470291,-0.198703333735466,1.009658932685852,0.34518855810165405,-0.6438764929771423,-0.4144320487976074,-0.5426915287971497
228538,9.610315322875977,0.24792081117630005,2.100024461746216,0.5777648687362671,0.11883651465177536,0.9915636777877808,0.6467863917350769,-0.3363058865070343,-0.5318055152893066,-0.430985689163208,9.542886734008789,0.05660238862037659,-1.6534756422042847,-0.10827769339084625,-0.5618274807929993,1.1001743078231812,0.3451966643333435,-0.6440049409866333,-0.414306104183197,-0.5426302552223206
228705,9.580848693847656,0.27427196502685547,2.0675556659698486,0.6612494587898254,-0.08408648520708084,0.6731977462768555,0.6468575596809387,-0.33629024028778076,-0.5318146347999573,-0.43087998032569885,9.570265769958496,0.089968241751194,-1.6513017416000366,-0.16326817870140076,-0.8672588467597961,1.00082266330719,0.3451852798461914,-0.6441457271575928,-0.41421401500701904,-0.5425405502319336
228871,9.590063095092773,0.22749347984790802,2.04196834564209,0.5278201103210449,-0.29563456773757935,0.9840463995933533,0.6469364166259766,-0.3363076150417328,-0.5318301916122437,-0.43072888255119324,9.584476470947266,0.07939204573631287,-1.6764105558395386,-0.5050824880599976,-0.9971280097961426,0.6634778380393982,0.3451381027698517,-0.6442682147026062,-0.4141724109649658,-0.5424569249153137
229038,9.588146209716797,0.2639903128147125,2.066066265106201,0.3217275142669678,-0.17140017449855804,0.7805148959159851,0.6469842791557312,-0.3363436758518219,-0.5318182110786438,-0.43064358830451965,9.614180564880371,0.06275229156017303,-1.6778825521469116,-0.623490035533905,-0.9697865843772888,0.3450094759464264,0.3450474739074707,-0.6443814039230347,-0.41414231061935425,-0.5424032211303711
229205,9.578710556030273,0.2773527503013611,2.0539231300354004,0.04582752287387848,0.06106707453727722,0.2596423327922821,0.6469885110855103,-0.33636802434921265,-0.5317811965942383,-0.43066367506980896,9.658384323120117,0.030662400647997856,-1.6472117900848389,-0.3994556665420532,-0.6189565062522888,0.352539598941803,0.34498700499534607,-0.6444658637046814,-0.41409701108932495,-0.5423757433891296
229371,9.616853713989258,0.28648996353149414,2.0128109455108643,-0.18599942326545715,0.0033104412723332644,0.4878898561000824,0.6469712853431702,-0.33645743131637573,-0.5317105054855347,-0.4307069480419159,9.649174690246582,0.0347357913851738,-1.684969425201416,-0.03881604224443436,-0.28369903564453125,0.4652738869190216,0.3449982702732086,-0.6445075273513794,-0.41405847668647766,-0.5423485040664673
229538,9.619942665100098,0.25202611088752747,2.117140054702759,0.11680031567811966,0.24718177318572998,0.7763657569885254,0.6470251679420471,-0.33649778366088867,-0.5316425561904907,-0.4306783378124237,9.613636016845703,0.03299766406416893,-1.659825086593628,0.27650827169418335,-0.07590322941541672,0.5271157622337341,0.34506717324256897,-0.644514262676239,-0.41403958201408386,-0.5423110723495483
229705,9.611742973327637,0.23202435672283173,2.1313552856445312,-0.09364003688097,0.263637900352478,0.6121370792388916,0.6470768451690674,-0.3365239202976227,-0.5315778255462646,-0.4306602478027344,9.601097106933594,0.04781746864318848,-1.6891428232192993,0.496739000082016,0.07941856980323792,0.32651710510253906,0.3451205790042877,-0.644509494304657,-0.4140113294124603,-0.5423043370246887
229871,9.591140747070312,0.20582860708236694,2.110527276992798,0.3607228398323059,-0.013433859683573246,0.4274055063724518,0.6470884084701538,-0.3365485370159149,-0.5315491557121277,-0.43065905570983887,9.586864471435547,0.0665246993303299,-1.6294232606887817,0.5516399145126343,0.0719652846455574,0.1537466198205948,0.3452688455581665,-0.6444135904312134,-0.4141281247138977,-0.5422347784042358
230038,9.59790325164795,0.21622644364833832,2.0941693782806396,0.8739628791809082,-0.11940639466047287,0.09689924120903015,0.647142231464386,-0.3364519774913788,-0.5316110849380493,-0.4305770993232727,9.581077575683594,0.06800886988639832,-1.6509921550750732,0.6361105442047119,-0.16243574023246765,0.2645087242126465,0.34534022212028503,-0.6443982720375061,-0.41415807604789734,-0.5421848297119141
230205,9.606586456298828,0.24477322399616241,2.09768009185791,1.16854727268219,-0.46211710572242737,0.19403541088104248,0.647172212600708,-0.3363804221153259,-0.5317031741142273,-0.43047425150871277,9.589686393737793,0.08835801482200623,-1.6567468643188477,0.6028269529342651,-0.3501640558242798,0.5148217082023621,0.3453867435455322,-0.6444368362426758,-0.41413605213165283,-0.5421260595321655
230371,9.584118843078613,0.2507820725440979,2.100829839706421,1.26039457321167,-0.5979669094085693,0.4415181577205658,0.6472209692001343,-0.3363163471221924,-0.5318081974983215,-0.43032118678092957,9.583634376525879,0.10855475068092346,-1.6629797220230103,0.4244856536388397,-0.6482189297676086,0.7356542944908142,0.3454396426677704,-0.6445016264915466,-0.4141246974468231,-0.5420240759849548
230538,9.591898918151855,0.25331321358680725,2.0773234367370605,1.0783522129058838,-0.49605390429496765,0.5101473927497864,0.6472468972206116,-0.3363003730773926,-0.5318676829338074,-0.4302212595939636,9.598918914794922,0.07952633500099182,-1.6501023769378662,0.21823939681053162,-0.7749505639076233,0.8433429002761841,0.34546342492103577,-0.6445992588996887,-0.41408416628837585,-0.5419235825538635
230705,9.595025062561035,0.22724443674087524,2.089920997619629,1.0527524948120117,-0.41194185614585876,0.6047863364219666,0.647325336933136,-0.3362373113632202,-0.5319456458091736,-0.43005600571632385,9.582988739013672,0.047126561403274536,-1.6665198802947998,0.16230127215385437,-0.899389922618866,1.0113238096237183,0.34548047184944153,-0.6447243094444275,-0.41402187943458557,-0.541811466217041
230871,9.580121040344238,0.2673082649707794,2.0761544704437256,0.8705306649208069,-0.553208589553833,0.5736283659934998,0.6473615765571594,-0.33622387051582336,-0.5320103168487549,-0.4299321174621582,9.576904296875,0.026982901617884636,-1.6815890073776245,0.2832828760147095,-1.0991177558898926,1.1175525188446045,0.3455107808113098,-0.64486163854599,-0.4139755964279175,-0.541664183139801
231038,9.60347843170166,0.26690807938575745,2.0735208988189697,0.38022691011428833,-0.6869581341743469,0.8886774182319641,0.6473698019981384,-0.33630475401878357,-0.532031774520874,-0.4298299252986908,9.561695098876953,0.011046033352613449,-1.6620603799819946,0.5962316989898682,-1.270197868347168,1.073870062828064,0.3455779254436493,-0.644978940486908,-0.4139910340309143,-0.541469931602478
231205,9.627811431884766,0.23734848201274872,2.078310251235962,0.2746257781982422,-0.8407624363899231,1.0731016397476196,0.6473088264465332,-0.3364972174167633,-0.5320031642913818,-0.4298067092895508,9.589902877807617,0.03948569670319557,-1.695335030555725,0.6363027095794678,-1.398146152496338,0.6687027812004089,0.34562334418296814,-0.6450703740119934,-0.41406896710395813,-0.5412724018096924
231371,9.603658676147461,0.20394505560398102,2.062370777130127,0.05780145525932312,-0.8440024256706238,1.2333347797393799,0.6473239064216614,-0.3366276025772095,-0.5320137739181519,-0.4296686053276062,9.611431121826172,0.05637296661734581,-1.7139856815338135,0.5834893584251404,-1.2379001379013062,0.3053097724914551,0.3456362187862396,-0.645136833190918,-0.4141590893268585,-0.5411160588264465
231538,9.584609985351562,0.22955381870269775,2.0637357234954834,0.3651154339313507,-0.7752068042755127,0.996865451335907,0.6473221778869629,-0.33673548698425293,-0.5320308804512024,-0.42956557869911194,9.612566947937012,0.06047181040048599,-1.6951125860214233,0.4934990406036377,-1.0589954853057861,0.19171744585037231,0.34561872482299805,-0.6452049016952515,-0.41421714425086975,-0.5410014986991882
231705,9.598163604736328,0.24927347898483276,2.076856851577759,0.6360978484153748,-0.5634537935256958,0.8040659427642822,0.6473473310470581,-0.3367781937122345,-0.532061755657196,-0.4294556677341461,9.586013793945312,0.07674609869718552,-1.704994559288025,0.3040291368961334,-0.9174085259437561,0.3736700713634491,0.34566250443458557,-0.6452388763427734,-0.4143041670322418,-0.5408662557601929
231871,9.610696792602539,0.2514227628707886,2.085723400115967,0.5701067447662354,-0.6221068501472473,0.9401974081993103,0.6473724246025085,-0.3368419110774994,-0.532086968421936,-0.4293365776538849,9.60892391204834,0.06462675333023071,-1.732965350151062,0.1137780100107193,-1.1274582147598267,0.5631912350654602,0.345697283744812,-0.6453045606613159,-0.41437894105911255,-0.5407083630561829
232038,9.61085319519043,0.23608161509037018,2.0773873329162598,0.5649200677871704,-0.7610045075416565,0.9584976434707642,0.6474013924598694,-0.3368986248970032,-0.5321348309516907,-0.42918911576271057,9.57627010345459,0.04323077201843262,-1.7301709651947021,-0.04825431853532791,-0.9275125861167908,0.6484174728393555,0.3456641435623169,-0.6454222202301025,-0.4143395721912384,-0.5406192541122437
232205,9.592889785766602,0.22058793902397156,2.078226089477539,0.5757286548614502,-0.9066638946533203,0.8347243070602417,0.6473690271377563,-0.33700671792030334,-0.53216952085495,-0.4291100800037384,9.52805233001709,-0.002165543846786022,-1.7210350036621094,0.28200221061706543,-1.2260288000106812,1.003409504890442,0.3457076847553253,-0.6455411911010742,-0.41435152292251587,-0.5404402613639832
232371,9.612133026123047,0.23665060102939606,2.0726170539855957,0.5129903554916382,-0.8056987524032593,0.7627013325691223,0.6473666429519653,-0.3370724022388458,-0.5322171449661255,-0.4290030002593994,9.547420501708984,-0.016925573348999023,-1.7454290390014648,0.5804926753044128,-1.6818193197250366,0.9844433069229126,0.34573590755462646,-0.6456921100616455,-0.4143936336040497,-0.5402097105979919
232538,9.61349868774414,0.20437414944171906,2.0476105213165283,0.12085992842912674,-0.9156540036201477,0.9926009774208069,0.6473497152328491,-0.3372008800506592,-0.5322386026382446,-0.4289010763168335,9.629386901855469,0.08424080908298492,-1.7478041648864746,0.5141044855117798,-1.8327935934066772,0.13357661664485931,0.3456799387931824,-0.6458099484443665,-0.41451478004455566,-0.5400116443634033
232705,9.62349796295166,0.13626955449581146,1.9833152294158936,0.5747169256210327,-1.0794343948364258,1.1181159019470215,0.647418737411499,-0.33722203969955444,-0.5323517322540283,-0.4286397397518158,9.674519538879395,0.08048159629106522,-1.7440601587295532,-0.27985718846321106,-1.1925657987594604,-0.5257135033607483,0.3455252945423126,-0.6458850502967834,-0.41459256410598755,-0.5399609804153442
232871,9.632342338562012,0.23292751610279083,2.0321621894836426,0.6949941515922546,-0.21498018503189087,0.733131468296051,0.6474488377571106,-0.3372589945793152,-0.5323415994644165,-0.42857781052589417,9.649127006530762,0.053905341774225235,-1.7411174774169922,-0.38215428590774536,-0.7723510265350342,-0.32420554757118225,0.3453867435455322,-0.6459554433822632,-0.4146054685115814,-0.5399554967880249
233038,9.633513450622559,0.30785825848579407,2.0639991760253906,0.7143062353134155,0.5592597126960754,-0.27992120385169983,0.6474483609199524,-0.337201863527298,-0.5322883129119873,-0.42868950963020325,9.619543075561523,0.07543294131755829,-1.7157963514328003,-0.4450591206550598,-0.2808176577091217,0.18457794189453125,0.34537482261657715,-0.645972490310669,-0.4146171510219574,-0.5399337410926819
233205,9.64350700378418,0.281353235244751,2.095709800720215,-0.03779153898358345,-0.29272758960723877,0.898038923740387,0.6474193930625916,-0.33735647797584534,-0.5322127342224121,-0.42870551347732544,9.590774536132812,0.07264917343854904,-1.7282978296279907,-0.8604329824447632,-0.03373192250728607,0.12667398154735565,0.34531307220458984,-0.6460031270980835,-0.4145645201206207,-0.5399770140647888
233371,9.614566802978516,0.20121656358242035,2.114957571029663,0.11508426070213318,-0.5710607171058655,0.669253408908844,0.6474106311798096,-0.3374345898628235,-0.5322226881980896,-0.42864495515823364,9.589730262756348,0.03131609782576561,-1.7185848951339722,-0.9394353032112122,0.011813856661319733,-0.04711455851793289,0.34519508481025696,-0.6460521817207336,-0.4144754111766815,-0.5400621891021729
233538,9.577943801879883,0.1792069375514984,2.065481185913086,0.5141173005104065,-0.6150633692741394,-0.1517936736345291,0.6473679542541504,-0.33741387724876404,-0.5323010683059692,-0.42862844467163086,9.54707145690918,0.003229315159842372,-1.7264283895492554,-0.777191698551178,-0.18306675553321838,0.07776656001806259,0.3450946807861328,-0.646112859249115,-0.41440168023109436,-0.5401102900505066
233705,9.623674392700195,0.2456299513578415,2.0667991638183594,0.5181897282600403,-0.8932556509971619,0.2986888587474823,0.6472681164741516,-0.3375253975391388,-0.5323325395584106,-0.4286523461341858,9.536983489990234,-0.0020956574007868767,-1.713478922843933,-0.33980369567871094,-0.5305030345916748,0.04568665102124214,0.34498220682144165,-0.6462007164955139,-0.4143460690975189,-0.5401197671890259
233871,9.619462966918945,0.22272759675979614,2.0643579959869385,0.8509500026702881,-0.9016565680503845,0.6555378437042236,0.6472489237785339,-0.33758002519607544,-0.5324019193649292,-0.42855215072631836,9.54650592803955,0.021276133134961128,-1.7266125679016113,-0.015969518572092056,-0.8713439702987671,0.034378644078969955,0.3449152112007141,-0.6462712287902832,-0.41437655687332153,-0.5400547981262207
234038,9.593178749084473,0.21307142078876495,2.0264692306518555,0.6187323927879333,-0.7110213041305542,0.5651890635490417,0.6471980214118958,-0.3376743793487549,-0.5324199199676514,-0.42853230237960815,9.589649200439453,0.02158867008984089,-1.7461938858032227,0.2640221416950226,-1.1667354106903076,0.14277160167694092,0.344844788312912,-0.6463736295700073,-0.4144086539745331,-0.5399527549743652
234205,9.571786880493164,0.22586600482463837,2.037111282348633,0.6603018045425415,-0.5384301543235779,0.2750355899333954,0.6472039818763733,-0.3376576006412506,-0.5324859619140625,-0.42845433950424194,9.59870719909668,0.052386924624443054,-1.774502158164978,0.40016642212867737,-1.1652498245239258,0.17451855540275574,0.34479400515556335,-0.6464680433273315,-0.41445305943489075,-0.5398378372192383
234371,9.581914901733398,0.19741059839725494,2.029772996902466,0.43023574352264404,-0.5352669954299927,0.35790547728538513,0.6471877098083496,-0.3376888632774353,-0.5325207114219666,-0.428411066532135,9.630901336669922,0.05775493010878563,-1.7291144132614136,0.4787205457687378,-1.076488971710205,0.09956296533346176,0.34475770592689514,-0.6465412974357605,-0.4145164489746094,-0.5397247076034546
234538,9.601408958435059,0.2076524794101715,2.0480868816375732,0.3657301068305969,-0.4218667447566986,0.32741352915763855,0.6471633911132812,-0.33773159980773926,-0.5325330495834351,-0.42839866876602173,9.618170738220215,0.07686123251914978,-1.7475111484527588,0.34055283665657043,-0.8830874562263489,0.10535143315792084,0.3447640538215637,-0.6465725898742676,-0.41461142897605896,-0.5396100878715515
234705,9.624743461608887,0.2211667150259018,2.052821636199951,0.30863937735557556,-0.5435143113136292,0.2154732346534729,0.6470881700515747,-0.3378183841705322,-0.5325336456298828,-0.4284432530403137,9.608915328979492,0.0791412889957428,-1.7417093515396118,0.25814399123191833,-0.6100432872772217,0.15023767948150635,0.34476417303085327,-0.646602988243103,-0.41466066241264343,-0.5395357608795166
234871,9.6336088180542,0.22545126080513,2.0364246368408203,0.48216545581817627,-0.4745776653289795,0.25427645444869995,0.6470629572868347,-0.33784541487693787,-0.532563328742981,-0.42842310667037964,9.515165328979492,0.06730066239833832,-1.7431901693344116,0.022097354754805565,-0.7533462643623352,0.026515547186136246,0.3447120189666748,-0.6466575860977173,-0.4146968722343445,-0.5394759178161621
235038,9.626604080200195,0.23008482158184052,2.0938961505889893,0.7150489091873169,-0.7141717672348022,0.2755606472492218,0.6470452547073364,-0.3378504514694214,-0.532639741897583,-0.4283508360385895,9.545333862304688,0.06687796860933304,-1.764996886253357,-0.018799718469381332,-1.128495454788208,0.26713404059410095,0.34462839365005493,-0.6467761397361755,-0.41469812393188477,-0.5393862724304199
235205,9.618152618408203,0.24430082738399506,2.0850791931152344,0.8261951804161072,-0.9243878722190857,-0.007299618795514107,0.6469900608062744,-0.33784720301628113,-0.5327491164207458,-0.4283007085323334,9.549819946289062,0.0789581909775734,-1.7635350227355957,-0.0764026865363121,-1.2785604000091553,0.17997406423091888,0.3445652425289154,-0.6468716263771057,-0.4147619307041168,-0.5392630696296692
235371,9.606344223022461,0.22852860391139984,1.9942536354064941,0.6089739203453064,-1.416715145111084,0.2677231431007385,0.6469320058822632,-0.33788013458251953,-0.5329002141952515,-0.4281744956970215,9.577506065368652,0.09615164250135422,-1.7833319902420044,-0.402913361787796,-1.2856680154800415,-0.16499701142311096,0.34439653158187866,-0.6469990611076355,-0.414777010679245,-0.5392061471939087
235538,9.597979545593262,0.2487296760082245,2.0324904918670654,0.4846627116203308,-1.0116119384765625,0.5761640071868896,0.6468833088874817,-0.3379669785499573,-0.5329632759094238,-0.428101122379303,9.610154151916504,0.08563528954982758,-1.7671021223068237,-0.5409146547317505,-1.1278040409088135,-0.3692711293697357,0.34423843026161194,-0.6470850706100464,-0.4148304760456085,-0.5391629338264465
235705,9.609508514404297,0.268898606300354,2.032426595687866,0.11669786274433136,-0.3975987732410431,-0.042786020785570145,0.6468161940574646,-0.338013231754303,-0.532969057559967,-0.4281587600708008,9.632234573364258,0.08566555380821228,-1.7822303771972656,-0.6131808161735535,-0.8098351359367371,-0.191237211227417,0.3440956175327301,-0.6471683979034424,-0.41483309864997864,-0.5391520261764526
235871,9.599008560180664,0.28280648589134216,2.033560276031494,0.05821126326918602,-0.5318476557731628,0.04637819156050682,0.6467185616493225,-0.3381076455116272,-0.5329620838165283,-0.42824026942253113,9.635497093200684,0.07795416563749313,-1.7763093709945679,-0.6256029605865479,-0.5041090846061707,0.04427795112133026,0.3440180718898773,-0.6472192406654358,-0.4148339629173279,-0.5391398072242737
236038,9.620670318603516,0.24801713228225708,2.0229461193084717,0.027347959578037262,-0.5976082682609558,-0.03209271281957626,0.6465667486190796,-0.3382551670074463,-0.5329300165176392,-0.4283929169178009,9.619142532348633,0.0815303772687912,-1.79335355758667,-0.6579645872116089,-0.02752084471285343,0.2004641741514206,0.3439570665359497,-0.6472600102424622,-0.41476842761039734,-0.5391802191734314
236205,9.64549446105957,0.23972012102603912,2.087932586669922,0.12331873178482056,-0.4877682626247406,0.15915091335773468,0.6464645266532898,-0.3383706212043762,-0.5329040288925171,-0.4284883439540863,9.586041450500488,0.05447278916835785,-1.7649762630462646,-0.67356276512146,0.25215059518814087,0.11032029986381531,0.343918114900589,-0.6472631692886353,-0.41471371054649353,-0.5392432808876038
236371,9.616095542907715,0.2259090095758438,2.068174362182617,-0.30949103832244873,-0.29746586084365845,0.0745137482881546,0.6463391780853271,-0.33852240443229675,-0.532827615737915,-0.4286526143550873,9.552650451660156,0.03478576987981796,-1.7508431673049927,-0.5278264880180359,0.30313265323638916,-0.0466151125729084,0.3438701927661896,-0.6472561955451965,-0.4146661162376404,-0.5393187999725342
236538,9.607609748840332,0.2279653400182724,2.0533223152160645,-0.04012228921055794,-0.40833044052124023,-0.060804545879364014,0.6462827324867249,-0.338554710149765,-0.5328422784805298,-0.4286940395832062,9.524702072143555,0.06447543948888779,-1.7588073015213013,-0.32316821813583374,0.10718272626399994,-0.24495986104011536,0.3438064455986023,-0.6472485065460205,-0.41465336084365845,-0.5393785834312439
236705,9.605311393737793,0.24652431905269623,2.0449941158294678,0.3172837197780609,-0.7898443937301636,-0.1550464630126953,0.6461935639381409,-0.3385883867740631,-0.5329076051712036,-0.4287206530570984,9.531779289245605,0.08015353232622147,-1.7607170343399048,-0.13099615275859833,-0.2883477509021759,-0.33009645342826843,0.34377580881118774,-0.6472216248512268,-0.4147389531135559,-0.5393645167350769
236871,9.602984428405762,0.2539919912815094,2.0476486682891846,0.5535096526145935,-0.841863751411438,-0.2987593114376068,0.6460737586021423,-0.3386281132698059,-0.5329762697219849,-0.4287842810153961,9.57061767578125,0.09986180067062378,-1.7747753858566284,-0.17307782173156738,-0.5436039566993713,-0.16792967915534973,0.3436693251132965,-0.6472797393798828,-0.41473573446273804,-0.5393649935722351
237038,9.592745780944824,0.2558647394180298,2.0129573345184326,0.6888982653617859,-0.6822710037231445,-0.12395264953374863,0.6459742784500122,-0.3386703431606293,-0.5330221652984619,-0.42884379625320435,9.593071937561035,0.11657720804214478,-1.7527670860290527,-0.21223962306976318,-0.73084557056427,-0.1587218940258026,0.3435543179512024,-0.6473502516746521,-0.41474583745002747,-0.5393460392951965
237205,9.601519584655762,0.2475164532661438,2.0207645893096924,0.5799676179885864,-0.4881652593612671,0.0896124392747879,0.6459214091300964,-0.3386974036693573,-0.5330515503883362,-0.42886555194854736,9.605262756347656,0.10137159377336502,-1.7444844245910645,-0.27495232224464417,-0.5630951523780823,0.03970608860254288,0.34350165724754333,-0.6473889946937561,-0.41477638483047485,-0.5393096208572388
237371,9.609884262084961,0.2563854455947876,2.013014793395996,0.48724958300590515,-0.20251962542533875,-0.06674669682979584,0.6458949446678162,-0.33867964148521423,-0.5330711007118225,-0.42889511585235596,9.60261344909668,0.08707349747419357,-1.7766203880310059,-0.1694023758172989,-0.5406456589698792,0.3904079496860504,0.343465656042099,-0.647458553314209,-0.4147544801235199,-0.5392659306526184
237538,9.616121292114258,0.26538708806037903,2.017427921295166,0.27285847067832947,-0.193401500582695,0.19206322729587555,0.6458899974822998,-0.3386821746826172,-0.5330760478973389,-0.42889440059661865,9.57408618927002,0.06178971007466316,-1.7630702257156372,-0.0002561270084697753,-0.4418702721595764,0.5479645133018494,0.34344935417175293,-0.647532045841217,-0.4147092401981354,-0.5392225384712219
237705,9.605363845825195,0.24968363344669342,2.0538623332977295,0.17846287786960602,-0.46394839882850647,0.33333006501197815,0.6458451151847839,-0.33874961733818054,-0.5330756306648254,-0.4289091229438782,9.56916332244873,0.06681168079376221,-1.7822345495224,0.24885940551757812,-0.5002416372299194,0.6377882361412048,0.34348154067993164,-0.6475865244865417,-0.4147040545940399,-0.5391407012939453
237871,9.628703117370605,0.22855569422245026,2.048140525817871,0.259629487991333,-0.650421679019928,0.36045390367507935,0.6457743048667908,-0.338844358921051,-0.5330826044082642,-0.42893239855766296,9.557228088378906,0.07447093725204468,-1.7899632453918457,0.36037707328796387,-0.6134241223335266,0.35643270611763,0.34346720576286316,-0.6476489901542664,-0.4147060513496399,-0.5390732884407043
238038,9.609474182128906,0.22761598229408264,2.03547739982605,0.4111030697822571,-0.6936303973197937,0.38751378655433655,0.6457387208938599,-0.3388929069042206,-0.5331247448921204,-0.42889511585235596,9.564208030700684,0.09345302730798721,-1.7718030214309692,0.3284507989883423,-0.4671627879142761,-0.0560918003320694,0.343427836894989,-0.6476753950119019,-0.4147394299507141,-0.5390409827232361
238205,9.621932029724121,0.23831488192081451,2.0242013931274414,0.592677891254425,-0.4581087827682495,0.21962891519069672,0.6456513404846191,-0.3389824628829956,-0.5331095457077026,-0.42897486686706543,9.584357261657715,0.12027142941951752,-1.7782082557678223,0.13791798055171967,-0.444572389125824,-0.0228977520018816,0.3433687090873718,-0.64771568775177,-0.4147472679615021,-0.5390243530273438
238371,9.61031723022461,0.26864826679229736,2.0336174964904785,0.6020969748497009,-0.38836535811424255,0.3321646749973297,0.6456499695777893,-0.3389839828014374,-0.5331411957740784,-0.4289364814758301,9.597806930541992,0.1293049305677414,-1.784058928489685,-0.15981043875217438,-0.27768006920814514,0.04403463006019592,0.34331992268562317,-0.6477431058883667,-0.4147461950778961,-0.5390232801437378
238538,9.601734161376953,0.2723925709724426,2.0316576957702637,0.6878867149353027,-0.23535509407520294,0.2703612744808197,0.6456570029258728,-0.33896729350090027,-0.533163845539093,-0.42891085147857666,9.594027519226074,0.13206933438777924,-1.7766239643096924,-0.3734075725078583,-0.14314937591552734,0.439264178276062,0.3433206081390381,-0.6477699279785156,-0.41472285985946655,-0.5390084981918335
238705,9.61689281463623,0.29304710030555725,2.034574508666992,0.7809503674507141,-0.29393133521080017,0.36821454763412476,0.6456669569015503,-0.3389565050601959,-0.5331907868385315,-0.4288710355758667,9.572549819946289,0.11501491814851761,-1.7765586376190186,-0.49628448486328125,-0.22566069662570953,0.7481662034988403,0.3433145582675934,-0.6478383541107178,-0.4146486520767212,-0.5389871597290039
238871,9.61420726776123,0.2893151640892029,2.053633451461792,0.4719332158565521,-0.36443030834198,0.3854391276836395,0.6456260085105896,-0.3390187919139862,-0.5331793427467346,-0.4288976788520813,9.59568977355957,0.08354735374450684,-1.7695753574371338,-0.5387246608734131,-0.0994412899017334,0.5994331240653992,0.34327253699302673,-0.6479112505912781,-0.41454553604125977,-0.5390055775642395
239038,9.606962203979492,0.2504096031188965,2.052839517593384,0.17825795710086823,-0.4029005765914917,0.40105003118515015,0.6456049680709839,-0.33906593918800354,-0.5331814289093018,-0.4288891553878784,9.550251007080078,0.0199480839073658,-1.7831898927688599,-0.11567975580692291,-0.21416059136390686,0.7099391222000122,0.34326615929603577,-0.6479831337928772,-0.4144638478755951,-0.5389862060546875
239205,9.591498374938965,0.2604373097419739,2.041574478149414,0.325210839509964,-0.5247145891189575,0.5116201043128967,0.6455703377723694,-0.339138388633728,-0.533183753490448,-0.42888137698173523,9.492999076843262,-0.0010695639066398144,-1.8007031679153442,0.3818149268627167,-0.6868173480033875,0.9958025217056274,0.34329912066459656,-0.6480857133865356,-0.41441577672958374,-0.5388787984848022
239371,9.62374210357666,0.25778016448020935,2.0516951084136963,0.2572859823703766,-0.4421776831150055,0.648186981678009,0.6455353498458862,-0.33923712372779846,-0.5331576466560364,-0.42888855934143066,9.571172714233398,0.07765365391969681,-1.815207600593567,0.8281033635139465,-1.0153515338897705,0.457743763923645,0.3433355987071991,-0.6481419205665588,-0.41449758410453796,-0.5387250185012817
239538,9.587787628173828,0.19815535843372345,1.9831472635269165,0.2457730770111084,-0.8566551804542542,0.8116856813430786,0.645473837852478,-0.33938005566596985,-0.5331582427024841,-0.4288671612739563,9.663485527038574,0.16304513812065125,-1.811991810798645,0.2605387568473816,-0.6616528034210205,-0.5301572680473328,0.34323668479919434,-0.6481590270996094,-0.4145797789096832,-0.5387042164802551
239705,9.624052047729492,0.20289050042629242,1.956865906715393,0.8230577707290649,-0.3273046910762787,0.9036353230476379,0.6454942226409912,-0.3394348621368408,-0.5331460237503052,-0.428808331489563,9.63917064666748,0.12302155792713165,-1.8144172430038452,-0.30644315481185913,-0.12406791746616364,-0.5647345185279846,0.34314101934432983,-0.6481380462646484,-0.41462868452072144,-0.538752555847168
239872,9.617547988891602,0.3277459740638733,2.029942274093628,0.7367939949035645,0.7188395261764526,-0.23334448039531708,0.6455320119857788,-0.33933016657829285,-0.5330958962440491,-0.42889663577079773,9.620338439941406,0.12004577368497849,-1.8105443716049194,-0.3350525200366974,0.36635762453079224,0.14178550243377686,0.3431289792060852,-0.6481208801269531,-0.41458749771118164,-0.5388126373291016
240038,9.636087417602539,0.3246138393878937,2.081270694732666,0.317975252866745,0.7967150211334229,0.029422586783766747,0.6455713510513306,-0.3392791450023651,-0.5329999327659607,-0.42899712920188904,9.5954008102417,0.1458861380815506,-1.789313554763794,-0.7334965467453003,0.9362658858299255,0.5636138916015625,0.3431088626384735,-0.6481334567070007,-0.41440141201019287,-0.5389534831047058
240205,9.640555381774902,0.29001811146736145,2.1033437252044678,-0.15143506228923798,-0.12061019241809845,0.9251371026039124,0.6455718278884888,-0.33939820528030396,-0.5329161882400513,-0.42900604009628296,9.562243461608887,0.10378723591566086,-1.78131103515625,-0.9628326892852783,1.086318016052246,0.7333876490592957,0.34307974576950073,-0.6481623649597168,-0.4141635298728943,-0.539120078086853
240372,9.58069133758545,0.2007324993610382,2.0684032440185547,0.25679928064346313,0.00651202816516161,0.06351309269666672,0.6455289125442505,-0.3394283354282379,-0.532872200012207,-0.42910152673721313,9.562933921813965,0.05607705935835838,-1.7677991390228271,-0.8114743232727051,1.1416668891906738,0.8105971217155457,0.34312477707862854,-0.6481442451477051,-0.4139898419380188,-0.539246678352356
240538,9.613131523132324,0.2480958104133606,2.0888447761535645,0.37639784812927246,-0.07733755558729172,-0.23330608010292053,0.6454976797103882,-0.33939123153686523,-0.532882034778595,-0.4291656017303467,9.535470962524414,0.055750325322151184,-1.7704802751541138,-0.2567160725593567,0.9983381628990173,0.7831658720970154,0.3432069420814514,-0.6481111645698547,-0.4138641655445099,-0.5393304824829102
240705,9.604708671569824,0.2741551399230957,2.0474038124084473,0.35638144612312317,-0.40863776206970215,0.37766560912132263,0.6454780697822571,-0.3394237458705902,-0.5328909158706665,-0.42915838956832886,9.534502029418945,0.04431229457259178,-1.7794808149337769,0.2213769555091858,0.6509146690368652,0.8520768284797668,0.3432626724243164,-0.6481290459632874,-0.4137187600135803,-0.5393851399421692
240872,9.582937240600586,0.22880198061466217,2.038172483444214,0.4837406277656555,-0.4127742350101471,0.6376473307609558,0.6454201340675354,-0.339540034532547,-0.5328467488288879,-0.4292083978652954,9.557657241821289,0.06161941960453987,-1.7658859491348267,0.5918646454811096,0.3941858112812042,0.8643709421157837,0.3434254229068756,-0.6480821967124939,-0.4137195348739624,-0.5393372178077698
241038,9.585301399230957,0.2273406833410263,2.009345531463623,0.7302629351615906,-0.13414651155471802,0.6182841658592224,0.6454229354858398,-0.3395790457725525,-0.5328150391578674,-0.4292128384113312,9.582037925720215,0.08250291645526886,-1.7701762914657593,0.7435944080352783,0.3335222005844116,0.7525972127914429,0.3435622751712799,-0.648047149181366,-0.41371235251426697,-0.5392977595329285
241205,9.580842018127441,0.22664213180541992,1.995870590209961,0.6651042103767395,0.18740171194076538,0.41623836755752563,0.6454344391822815,-0.3395884931087494,-0.5327587723731995,-0.4292576014995575,9.603734016418457,0.09349232912063599,-1.7686457633972168,0.6926249861717224,0.27731508016586304,0.6263009905815125,0.34365615248680115,-0.6480304598808289,-0.41368579864501953,-0.5392782688140869
241372,9.597267150878906,0.2353573590517044,2.003838300704956,0.6639003753662109,0.1595863252878189,0.43074795603752136,0.6454513072967529,-0.33959272503852844,-0.5327097773551941,-0.42928987741470337,9.614380836486816,0.10323561728000641,-1.7808756828308105,0.5886118412017822,0.4561557471752167,0.5744608044624329,0.34373506903648376,-0.6480106711387634,-0.4136330485343933,-0.5392922163009644
241538,9.616308212280273,0.2517394721508026,2.0266945362091064,0.8238004446029663,0.25673532485961914,0.3689829707145691,0.6454904079437256,-0.3395574688911438,-0.5326733589172363,-0.4293040633201599,9.606894493103027,0.0997869148850441,-1.783197045326233,0.48231908679008484,0.43316832184791565,0.45907559990882874,0.34378230571746826,-0.6479990482330322,-0.41357144713401794,-0.5393233299255371
241705,9.638554573059082,0.2762289345264435,2.041663885116577,0.9063116908073425,0.17254634201526642,0.5527796745300293,0.6455633640289307,-0.3395024240016937,-0.5326610803604126,-0.42925310134887695,9.53136157989502,0.10917087644338608,-1.7428395748138428,0.1780274510383606,0.6797930598258972,0.42022114992141724,0.34388622641563416,-0.6479232907295227,-0.41356801986694336,-0.5393507480621338
241872,9.631750106811523,0.26510190963745117,2.051445722579956,0.8398597240447998,0.03823335841298103,0.4391617774963379,0.6455651521682739,-0.3395155668258667,-0.5326226949691772,-0.4292876720428467,9.52186393737793,0.09648610651493073,-1.7569013833999634,0.0596199631690979,0.23356859385967255,0.7498693466186523,0.3439598083496094,-0.6479215025901794,-0.41352546215057373,-0.5393385887145996
242038,9.627676010131836,0.2784065902233124,2.071199417114258,0.8593125343322754,-0.03973810374736786,0.35679131746292114,0.6455669403076172,-0.3395122289657593,-0.532604992389679,-0.429309606552124,9.545207977294922,0.09847444295883179,-1.774349570274353,-0.008951638825237751,-0.09630374610424042,0.747052013874054,0.3439887464046478,-0.6479626297950745,-0.4134727120399475,-0.5393111109733582
242205,9.598146438598633,0.2667272984981537,2.0284359455108643,0.9593812823295593,-0.3894026577472687,0.3900877833366394,0.6455596089363098,-0.3395096957683563,-0.532633364200592,-0.42928755283355713,9.566597938537598,0.09469076246023178,-1.7623618841171265,-0.2830715477466583,-0.16160331666469574,0.5798779129981995,0.34398502111434937,-0.6480041146278381,-0.4134310483932495,-0.5392956137657166
242372,9.603925704956055,0.26102834939956665,2.019261598587036,0.5934910178184509,-0.632441520690918,0.675848662853241,0.6455053091049194,-0.339613139629364,-0.5326254367828369,-0.42929723858833313,9.574110984802246,0.0896376371383667,-1.7798748016357422,-0.3678112030029297,0.013824455440044403,0.27194923162460327,0.34393659234046936,-0.648034930229187,-0.4133756160736084,-0.5393320322036743
242538,9.601791381835938,0.28951185941696167,2.015507459640503,0.4890168309211731,-0.08028300851583481,0.33230555057525635,0.645420491695404,-0.3397230803966522,-0.5325390696525574,-0.4294450879096985,9.611175537109375,0.07886604964733124,-1.791126012802124,-0.4439833164215088,0.03218875825405121,0.342896431684494,0.343930184841156,-0.6480391025543213,-0.4133589267730713,-0.5393437147140503
242705,9.596927642822266,0.2941323220729828,2.0242228507995605,0.18143394589424133,-0.00760697154328227,0.2485136091709137,0.6454064249992371,-0.3397429883480072,-0.5324996709823608,-0.42949894070625305,9.64309310913086,0.0785624161362648,-1.774084448814392,-0.35417240858078003,0.5028092861175537,0.518253743648529,0.3439332842826843,-0.6480438113212585,-0.413260281085968,-0.5394118428230286
242872,9.608902931213379,0.2700212597846985,2.0350661277770996,0.14119642972946167,-0.1999199390411377,0.37213334441185,0.6453734040260315,-0.33979982137680054,-0.5324621796607971,-0.42955002188682556,9.615575790405273,0.08491187542676926,-1.753818154335022,-0.08310040086507797,0.9116391539573669,0.6637594699859619,0.34402137994766235,-0.6479929089546204,-0.41317787766456604,-0.5394798517227173
243038,9.613313674926758,0.24387945234775543,2.072197437286377,0.08764025568962097,-0.043925780802965164,0.5774703621864319,0.6453843116760254,-0.3398401439189911,-0.5324143171310425,-0.4295613169670105,9.602446556091309,0.08110149204730988,-1.7566899061203003,-0.014330304227769375,1.092170238494873,0.7956136465072632,0.34410470724105835,-0.6479570865631104,-0.4130403697490692,-0.5395750999450684
243205,9.619915008544922,0.23674850165843964,2.093801498413086,0.12039889395236969,0.09222492575645447,0.41388198733329773,0.6453784704208374,-0.33987945318222046,-0.532348096370697,-0.4296209514141083,9.55451488494873,0.07146511226892471,-1.7282428741455078,0.06889176368713379,1.0583616495132446,0.5630888342857361,0.344158798456192,-0.6479183435440063,-0.4129127860069275,-0.5396846532821655
243372,9.605402946472168,0.23193134367465973,2.112454891204834,0.23502852022647858,0.24013827741146088,0.288712739944458,0.6453944444656372,-0.3398735225200653,-0.5322906374931335,-0.42967289686203003,9.550174713134766,0.06863222271203995,-1.7370697259902954,0.1772078573703766,0.8695191144943237,0.4140740931034088,0.34421905875205994,-0.6478649377822876,-0.4128410220146179,-0.539765477180481
243538,9.590229034423828,0.25536981225013733,2.0628600120544434,0.6701242327690125,-0.026982977986335754,0.21931514143943787,0.6453948020935059,-0.3398530185222626,-0.532278299331665,-0.4297037422657013,9.557231903076172,0.09383610635995865,-1.738662600517273,0.23479799926280975,0.5869725942611694,0.2783011794090271,0.34425100684165955,-0.6478269696235657,-0.41279336810112,-0.5398269295692444
243705,9.583186149597168,0.28385576605796814,2.0515823364257812,0.8368117809295654,-0.12483630329370499,0.184059277176857,0.6454117894172668,-0.33979731798171997,-0.5323016047477722,-0.42969343066215515,9.564970970153809,0.12723062932491302,-1.7386267185211182,0.13597141206264496,0.41307520866394043,0.3459059000015259,0.34430232644081116,-0.6477850079536438,-0.4127824008464813,-0.5398529171943665
243872,9.59490966796875,0.2811032831668854,2.044426441192627,0.727573573589325,-0.17087514698505402,0.40882357954978943,0.6454277038574219,-0.33977916836738586,-0.5323063731193542,-0.42967793345451355,9.57211971282959,0.1289544552564621,-1.7508538961410522,-0.030402276664972305,0.2129119485616684,0.5752676725387573,0.3443433344364166,-0.6477805972099304,-0.41274726390838623,-0.5398590564727783
244038,9.594430923461914,0.2727036774158478,2.0378336906433105,0.6923304796218872,-0.11818981170654297,0.367971271276474,0.6454377174377441,-0.33976441621780396,-0.5323015451431274,-0.4296804368495941,9.593608856201172,0.12219900637865067,-1.7372785806655884,-0.21996185183525085,-0.10738123953342438,0.782935380935669,0.34435513615608215,-0.6478288769721985,-0.4126847982406616,-0.53984135389328
244205,9.589170455932617,0.2848983407020569,2.0347299575805664,0.4603947103023529,-0.2865164875984192,0.3776784837245941,0.6454203128814697,-0.33978670835494995,-0.5322948694229126,-0.42969757318496704,9.601213455200195,0.08796556293964386,-1.7490298748016357,-0.20524735748767853,-0.026393884792923927,0.9268147349357605,0.344393789768219,-0.6478707194328308,-0.4126182794570923,-0.5398173928260803
244372,9.614706993103027,0.2721097767353058,2.0305886268615723,0.15614141523838043,-0.3476155698299408,0.4277512729167938,0.6453655362129211,-0.3398701548576355,-0.5322561860084534,-0.4297616183757782,9.593954086303711,0.04936356469988823,-1.7437944412231445,-0.14459648728370667,-0.09716176241636276,1.025423526763916,0.3444172739982605,-0.647939145565033,-0.41252198815345764,-0.5397937893867493
244538,9.607531547546387,0.27058735489845276,2.025202751159668,0.19422750174999237,-0.4652163088321686,0.6928043365478516,0.645357072353363,-0.3399311900138855,-0.5322476625442505,-0.4297366142272949,9.592116355895996,0.045788075774908066,-1.7610124349594116,0.1630440354347229,-0.016904383897781372,0.9003568291664124,0.3444706201553345,-0.6479735970497131,-0.41246503591537476,-0.5397619009017944
244705,9.604723930358887,0.2648110091686249,2.0462486743927,0.017589520663022995,-0.47433438897132874,0.6605451107025146,0.6453085541725159,-0.34004220366477966,-0.532207727432251,-0.42977118492126465,9.574766159057617,0.046712420880794525,-1.744713544845581,0.3232002258300781,-0.12849891185760498,0.7277784943580627,0.34453490376472473,-0.6479858756065369,-0.41246241331100464,-0.5397080183029175
244872,9.613615989685059,0.26283231377601624,2.063216209411621,0.1659126579761505,-0.513841986656189,0.7705773115158081,0.6453254222869873,-0.3400818705558777,-0.5322190523147583,-0.42970043420791626,9.585015296936035,0.06955365836620331,-1.7502530813217163,0.5145143270492554,-0.028135553002357483,0.6366484761238098,0.34462299942970276,-0.6479693651199341,-0.41248756647109985,-0.5396523475646973
245038,9.603153228759766,0.24513113498687744,2.050450563430786,0.09380010515451431,-0.47046685218811035,0.6663848161697388,0.6453030109405518,-0.3401578664779663,-0.5322004556655884,-0.4296967387199402,9.594038009643555,0.08636898547410965,-1.7504247426986694,0.45447811484336853,0.11403413116931915,0.5123372673988342,0.34467601776123047,-0.6479588747024536,-0.41247841715812683,-0.539638102054596
245205,9.593053817749023,0.26492518186569214,2.056644916534424,0.33874714374542236,-0.4516158998012543,0.4832284152507782,0.6452789306640625,-0.34020012617111206,-0.5322012901306152,-0.4296985864639282,9.594080924987793,0.10151779651641846,-1.76333487033844,0.19963176548480988,0.2843201458454132,0.47080621123313904,0.3447116017341614,-0.6479452848434448,-0.4124448001384735,-0.539657473564148
245372,9.598419189453125,0.26820123195648193,2.038634777069092,0.1899886280298233,-0.4776512384414673,0.459792822599411,0.6452358365058899,-0.3402658998966217,-0.532189667224884,-0.4297255277633667,9.605668067932129,0.1105620265007019,-1.7304015159606934,-0.015367618761956692,0.45867857336997986,0.46427497267723083,0.34473007917404175,-0.647932767868042,-0.4123792350292206,-0.5397108197212219
245538,9.582919120788574,0.2853098213672638,2.0738353729248047,0.18869517743587494,-0.4510396122932434,0.4472168982028961,0.6452005505561829,-0.3403204083442688,-0.5321815013885498,-0.4297454059123993,9.59926986694336,0.09806220978498459,-1.7447826862335205,-0.3701034486293793,0.5291391611099243,0.541548490524292,0.34473299980163574,-0.6479308605194092,-0.41228464245796204,-0.5397835969924927
245705,9.572792053222656,0.273608922958374,2.07586669921875,0.307986319065094,-0.4779329299926758,0.25253480672836304,0.6451438069343567,-0.3403662145137787,-0.5321822166442871,-0.42979365587234497,9.579798698425293,0.08844976127147675,-1.7303721904754639,-0.6583616137504578,0.6167857646942139,0.7034719586372375,0.3447178900241852,-0.6479520201683044,-0.4121384024620056,-0.5398794412612915
245872,9.596199989318848,0.2906058728694916,2.03291654586792,0.2685811519622803,-0.6375384330749512,0.376205712556839,0.6451053023338318,-0.3404034972190857,-0.532209038734436,-0.4297885298728943,9.543745040893555,0.0638524517416954,-1.7308789491653442,-0.6093902587890625,0.39729782938957214,0.7483454942703247,0.34470346570014954,-0.6479858160018921,-0.4120103716850281,-0.5399458408355713
246038,9.629703521728516,0.27817028760910034,2.054885149002075,0.09646383672952652,-0.7931613326072693,0.41984981298446655,0.6450534462928772,-0.3404637575149536,-0.5322414040565491,-0.429778516292572,9.585442543029785,0.05567200854420662,-1.7272107601165771,-0.4752308130264282,0.2580030858516693,0.6471624374389648,0.34468966722488403,-0.6480139493942261,-0.4119153618812561,-0.5399934649467468
246205,9.59774112701416,0.2581348121166229,2.044778823852539,-0.14919397234916687,-0.9064205288887024,0.44553929567337036,0.6449597477912903,-0.34058380126953125,-0.5322496294975281,-0.42981404066085815,9.565435409545898,0.03222520276904106,-1.7346893548965454,-0.2809329032897949,0.06133601441979408,0.5503721237182617,0.3446912467479706,-0.648029088973999,-0.4118747413158417,-0.5400051474571228
246372,9.580071449279785,0.24336068332195282,2.018205404281616,-0.1528950184583664,-0.9014902114868164,0.2897244691848755,0.6448361277580261,-0.3407168686389923,-0.5322481989860535,-0.4298955798149109,9.499329566955566,0.012931565754115582,-1.732865571975708,0.08342695981264114,-0.2624277174472809,0.6253148317337036,0.3446659445762634,-0.6480924487113953,-0.41181379556655884,-0.5399917364120483
246538,9.605947494506836,0.27239254117012024,2.0417356491088867,-0.07357247918844223,-0.6628438830375671,0.22530849277973175,0.6447492241859436,-0.34079933166503906,-0.5322475433349609,-0.4299614727497101,9.5718994140625,0.06954029947519302,-1.766732931137085,0.3834541440010071,-0.8344618082046509,0.5695943832397461,0.3446534276008606,-0.6481645703315735,-0.4118385314941406,-0.5398941040039062
246705,9.606842041015625,0.22083988785743713,1.994826316833496,-0.1681729555130005,-0.9528820514678955,0.44357991218566895,0.644649088382721,-0.34092479944229126,-0.532257616519928,-0.42999979853630066,9.677419662475586,0.14917434751987457,-1.768627405166626,-0.03877762705087662,-0.6662375926971436,-0.12563030421733856,0.3445773124694824,-0.6481866836547852,-0.4119136929512024,-0.539858877658844
246872,9.605043411254883,0.19907644391059875,1.969740390777588,0.4910658895969391,-1.037980318069458,0.7580142021179199,0.6446073055267334,-0.3410022258758545,-0.5323114991188049,-0.42993420362472534,9.68066120147705,0.10734359174966812,-1.7452112436294556,-0.5540539622306824,0.11181863397359848,-0.32166987657546997,0.3444686830043793,-0.6481723785400391,-0.4119110703468323,-0.5399474501609802
247038,9.620004653930664,0.30157798528671265,2.0058696269989014,0.5020792484283447,-0.18606343865394592,0.21501216292381287,0.6445907950401306,-0.34099242091178894,-0.532307505607605,-0.42997151613235474,9.648143768310547,0.07910759001970291,-1.755412220954895,-0.531156063079834,0.6421423554420471,0.2648545205593109,0.34449896216392517,-0.6481046676635742,-0.4119007885456085,-0.5400172472000122
247205,9.654511451721191,0.3151032030582428,2.0754661560058594,0.03039587289094925,0.4211304485797882,-0.18306677043437958,0.6445677876472473,-0.3409639298915863,-0.5322329998016357,-0.4301207661628723,9.611652374267578,0.11770565062761307,-1.719710350036621,-0.721970796585083,1.0931435823440552,0.7274198532104492,0.34451064467430115,-0.6480875015258789,-0.4117317795753479,-0.5401593446731567
247372,9.64475154876709,0.2994033694267273,2.1238481998443604,-0.31266701221466064,-0.3807711899280548,0.8898299336433411,0.6445509195327759,-0.34107741713523865,-0.5321736335754395,-0.43012991547584534,9.58926773071289,0.10582312941551208,-1.7106887102127075,-1.0486478805541992,1.2810255289077759,0.7178150415420532,0.3445301651954651,-0.6480488181114197,-0.41156426072120667,-0.5403210520744324
247538,9.56355094909668,0.20108653604984283,2.0883514881134033,-0.05362018942832947,-0.5227936506271362,0.15716592967510223,0.6444892883300781,-0.34111908078193665,-0.5321788787841797,-0.4301828145980835,9.566692352294922,0.06403428316116333,-1.7160720825195312,-0.9297793507575989,1.251327633857727,0.4918598532676697,0.34451064467430115,-0.6480156779289246,-0.4113919734954834,-0.5405042767524719
247705,9.585379600524902,0.2434503138065338,2.072047233581543,0.13971085846424103,-0.5920631289482117,-0.4318685233592987,0.644379198551178,-0.3411211669445038,-0.5322182774543762,-0.4302971065044403,9.529419898986816,0.04662851616740227,-1.7280362844467163,-0.7720820903778076,1.0298802852630615,0.5417022109031677,0.34450769424438477,-0.6479863524436951,-0.4112522602081299,-0.5406476855278015
247872,9.604117393493652,0.26922041177749634,2.0641448497772217,0.24299407005310059,-0.8011524081230164,0.1372520476579666,0.6443122029304504,-0.34114763140678406,-0.5322698354721069,-0.4303126633167267,9.533839225769043,0.0405694805085659,-1.6984020471572876,-0.4053593873977661,0.6492499113082886,0.4912451505661011,0.34448903799057007,-0.647983193397522,-0.4111369252204895,-0.5407510995864868
248038,9.597295761108398,0.2642352283000946,2.0364997386932373,0.07434726506471634,-0.7235587239265442,0.2754325866699219,0.6442715525627136,-0.34117016196250916,-0.5323126912117004,-0.4303026497364044,9.57386302947998,0.05019915848970413,-1.7212607860565186,-0.020669449120759964,0.32464736700057983,0.6444731950759888,0.34453099966049194,-0.6479710936546326,-0.4110924303531647,-0.5407726168632507
248205,9.596870422363281,0.23548968136310577,2.022134304046631,0.22014755010604858,-0.6478219628334045,0.4675149917602539,0.644252359867096,-0.3411933481693268,-0.5323449969291687,-0.4302731156349182,9.55872631072998,0.07727111130952835,-1.7040449380874634,0.11715888977050781,0.17984595894813538,0.5586833953857422,0.34454345703125,-0.647978663444519,-0.4110415577888489,-0.5407942533493042
248372,9.580376625061035,0.23312200605869293,2.001152992248535,0.24325020611286163,-0.5236132144927979,0.4844706058502197,0.6442168354988098,-0.34124311804771423,-0.532343327999115,-0.4302889406681061,9.601975440979004,0.08614008873701096,-1.7206380367279053,0.21685630083084106,-0.008567447774112225,0.39398089051246643,0.34455618262290955,-0.6479743719100952,-0.41104236245155334,-0.5407906770706177
248538,9.589592933654785,0.22535112500190735,1.9950337409973145,0.23171168565750122,-0.39359036087989807,0.30714109539985657,0.6442304849624634,-0.34120824933052063,-0.5323787927627563,-0.4302522540092468,9.622830390930176,0.08884371817111969,-1.738437294960022,0.11750467121601105,-0.07379018515348434,0.2812466621398926,0.3445896506309509,-0.647940456867218,-0.411101758480072,-0.5407648086547852
248705,9.599169731140137,0.26026207208633423,2.011359214782715,0.24999915063381195,-0.48944586515426636,0.17788657546043396,0.644171416759491,-0.3412404954433441,-0.5323837399482727,-0.430308997631073,9.614729881286621,0.11305464059114456,-1.7239571809768677,0.000992491957731545,-0.030850494280457497,0.2433142364025116,0.34459003806114197,-0.6479226350784302,-0.4111281633377075,-0.5407658219337463
248872,9.610068321228027,0.28988170623779297,2.0150413513183594,0.07934173196554184,-0.8230128288269043,0.18421292304992676,0.6440557837486267,-0.3413380980491638,-0.5323907136917114,-0.43039605021476746,9.586424827575684,0.12205223739147186,-1.7305628061294556,-0.2849028408527374,0.1485600769519806,0.34791651368141174,0.34455209970474243,-0.6479336619377136,-0.4110773503780365,-0.5408154129981995
249038,9.634312629699707,0.2911716401576996,2.0393226146698,0.2096463292837143,-0.9087385535240173,0.08716642111539841,0.6439765095710754,-0.34136733412742615,-0.5324532985687256,-0.4304139018058777,9.540431022644043,0.09433677047491074,-1.7176272869110107,-0.33858710527420044,-0.04392578452825546,0.5223134160041809,0.34450197219848633,-0.6479792594909668,-0.41100528836250305,-0.5408474206924438
249205,9.619514465332031,0.2723888158798218,2.045433759689331,-0.0007427682285197079,-1.006335735321045,0.09446603059768677,0.6438798904418945,-0.34142211079597473,-0.5325117111206055,-0.4304426610469818,9.53575611114502,0.09391835331916809,-1.7286063432693481,-0.3540315330028534,-0.39944279193878174,0.5039490461349487,0.344449907541275,-0.6480352282524109,-0.41097936034202576,-0.5408332347869873
249372,9.612696647644043,0.27629154920578003,2.032914876937866,-0.16430547833442688,-1.3125611543655396,0.07283611595630646,0.6437447667121887,-0.34151598811149597,-0.5325852632522583,-0.4304792582988739,9.55473804473877,0.09842955321073532,-1.7419180870056152,-0.5751203894615173,-0.77390056848526,0.2070978879928589,0.3443303406238556,-0.6481142640113831,-0.4109824001789093,-0.5408124327659607
249538,9.595526695251465,0.24555012583732605,1.9740017652511597,0.23948514461517334,-1.515311360359192,0.35812315344810486,0.6436249613761902,-0.3416149616241455,-0.5326833724975586,-0.43045860528945923,9.577886581420898,0.0690636932849884,-1.7360559701919556,-0.6605258584022522,-0.7894730567932129,0.12954263389110565,0.3441673219203949,-0.6482150554656982,-0.41095346212387085,-0.5408173203468323
249705,9.600737571716309,0.29892486333847046,1.983282446861267,0.184148907661438,-1.1508042812347412,-0.1662520319223404,0.6435138583183289,-0.3416352868080139,-0.5327830910682678,-0.4304851293563843,9.650798797607422,0.1123046800494194,-1.7414048910140991,-0.6237717270851135,-0.65451979637146,0.21342423558235168,0.34406647086143494,-0.6482753753662109,-0.4109659790992737,-0.5407999157905579
249872,9.601045608520508,0.31747010350227356,2.0066325664520264,-0.33430978655815125,-0.8431316614151001,0.11417501419782639,0.643406093120575,-0.34172144532203674,-0.5327980518341064,-0.43055933713912964,9.662822723388672,0.09216601401567459,-1.7391525506973267,-0.6470407247543335,-0.26104459166526794,0.3240070343017578,0.3439681828022003,-0.6483321785926819,-0.41091448068618774,-0.5408332347869873
250038,9.594715118408203,0.28452691435813904,2.0065817832946777,-0.7982070446014404,-0.8886966705322266,0.12132095545530319,0.6432549357414246,-0.34187525510787964,-0.5327740907669067,-0.43069276213645935,9.64328384399414,0.08202765882015228,-1.7330652475357056,-0.6960507035255432,0.3569193482398987,0.4205028712749481,0.3439297080039978,-0.6483334302902222,-0.41084378957748413,-0.540910005569458
250205,9.631802558898926,0.28270992636680603,2.049018621444702,-0.7256205081939697,-0.7799322605133057,0.25163835287094116,0.6431496143341064,-0.3419925570487976,-0.5327591896057129,-0.43077534437179565,9.591636657714844,0.07825079560279846,-1.7303489446640015,-0.6334021091461182,0.4770430028438568,0.49932605028152466,0.34392622113227844,-0.6483139395713806,-0.41078469157218933,-0.540980339050293
250372,9.618596076965332,0.2675812244415283,2.04524302482605,-0.8882740139961243,-0.7008658647537231,0.27113601565361023,0.6430633068084717,-0.3420965373516083,-0.5327414274215698,-0.43084365129470825,9.578503608703613,0.08622484654188156,-1.7040244340896606,-0.5514542460441589,0.5721300840377808,0.3222525715827942,0.343905508518219,-0.6482850909233093,-0.4107235372066498,-0.5410745143890381
250538,9.616464614868164,0.25084206461906433,2.036271095275879,-0.2842497229576111,-0.7255821824073792,0.06293680518865585,0.6429553627967834,-0.34217530488967896,-0.5327439904212952,-0.4309391379356384,9.556741714477539,0.09441902488470078,-1.7047566175460815,-0.5538489818572998,0.3819429874420166,0.12590563297271729,0.3438672423362732,-0.6482513546943665,-0.4107031524181366,-0.5411547422409058
250705,9.585931777954102,0.2837323844432831,2.0217294692993164,0.006985863205045462,-0.8394945859909058,-0.04861290007829666,0.6428450345993042,-0.34222644567489624,-0.5327796936035156,-0.4310186207294464,9.56839656829834,0.11924505233764648,-1.703072190284729,-0.5885413885116577,0.2609613835811615,0.046544674783945084,0.34377649426460266,-0.6482504606246948,-0.4106510281562805,-0.5412529706954956
250872,9.589151382446289,0.29604896903038025,1.995294213294983,0.19910670816898346,-0.8655939102172852,-0.10254044085741043,0.6427587866783142,-0.34223178029060364,-0.5328487157821655,-0.431057870388031,9.574705123901367,0.1209687888622284,-1.7199554443359375,-0.7521169781684875,0.04073059558868408,0.081339530646801,0.34368568658828735,-0.6482574939727783,-0.4106252193450928,-0.5413218140602112
251038,9.615878105163574,0.30661213397979736,2.005417823791504,0.21146485209465027,-0.9766889810562134,0.12390783429145813,0.6426758766174316,-0.34226343035697937,-0.5329155325889587,-0.4310738444328308,9.593877792358398,0.1295778751373291,-1.6957895755767822,-0.840916097164154,-0.1564679741859436,0.3075508773326874,0.3435852825641632,-0.6483029723167419,-0.4105728566646576,-0.5413708686828613
251205,9.602104187011719,0.30257928371429443,1.9944469928741455,0.0010949427960440516,-0.7801627516746521,0.19020628929138184,0.6425790190696716,-0.34233561158180237,-0.5329290628433228,-0.43114420771598816,9.570011138916016,0.11551564931869507,-1.705604910850525,-0.8728679418563843,-0.2746833562850952,0.46711796522140503,0.3434717357158661,-0.6483794450759888,-0.4104912281036377,-0.5414131879806519
251372,9.620396614074707,0.2938714027404785,1.9995286464691162,-0.22764569520950317,-0.5941122174263,0.2597320079803467,0.6425121426582336,-0.34239402413368225,-0.5329259037971497,-0.43120139837265015,9.5828218460083,0.10678257793188095,-1.7201626300811768,-0.8043156862258911,-0.43221431970596313,0.5530614256858826,0.34334760904312134,-0.6484807729721069,-0.41039758920669556,-0.5414415597915649
251538,9.6184663772583,0.2739380896091461,1.9949710369110107,-0.39113152027130127,-0.8422607779502869,0.39553049206733704,0.6424323916435242,-0.3424856960773468,-0.5329338908195496,-0.4312373995780945,9.591005325317383,0.0796685665845871,-1.7382581233978271,-0.7240710258483887,-0.4587875008583069,0.6845698952674866,0.34326618909835815,-0.6485674977302551,-0.410332053899765,-0.5414389967918396
251705,9.609333992004395,0.27857843041419983,1.9826793670654297,-0.4957209825515747,-0.9943618178367615,0.5277816653251648,0.6423415541648865,-0.342609703540802,-0.5329411029815674,-0.43126538395881653,9.582558631896973,0.08193046599626541,-1.727906346321106,-0.46534430980682373,-0.3548639416694641,0.7491137981414795,0.3432113826274872,-0.6486440300941467,-0.41026416420936584,-0.5414334535598755
251872,9.621833801269531,0.26811158657073975,2.0143587589263916,-0.39991670846939087,-1.0812017917633057,0.5057803988456726,0.6422221660614014,-0.3427598178386688,-0.5329431295394897,-0.43132126331329346,9.59261417388916,0.09088572859764099,-1.7188003063201904,-0.1173957958817482,-0.3424161672592163,0.5961931943893433,0.34319210052490234,-0.6486822962760925,-0.4102551341056824,-0.5414068102836609
252038,9.61993408203125,0.27328285574913025,2.0041704177856445,-0.3711792528629303,-1.0400805473327637,0.7623428702354431,0.642135739326477,-0.34290874004364014,-0.5329402685165405,-0.4313352108001709,9.602899551391602,0.10522989928722382,-1.7317426204681396,-0.14248345792293549,-0.23695588111877441,0.4808464050292969,0.3431669771671295,-0.6487060189247131,-0.4102502763271332,-0.5413979291915894
252205,9.607873916625977,0.26471471786499023,2.0040204524993896,-0.35287901759147644,-1.004773497581482,0.4744560420513153,0.642052948474884,-0.34300851821899414,-0.5329641103744507,-0.43134957551956177,9.611207008361816,0.09746582806110382,-1.7388375997543335,-0.21086934208869934,-0.1715666502714157,0.39362233877182007,0.34314560890197754,-0.6487128734588623,-0.41026103496551514,-0.5413950681686401
252372,9.604658126831055,0.2848774492740631,2.0387723445892334,-0.06400612741708755,-0.8330017328262329,0.44875368475914,0.6419890522956848,-0.34307754039764404,-0.5329851508140564,-0.43136370182037354,9.602409362792969,0.11794331669807434,-1.7324864864349365,-0.2488657832145691,-0.022026918828487396,0.5893033742904663,0.34313735365867615,-0.6487273573875427,-0.41023358702659607,-0.5414038896560669
252538,9.619568824768066,0.2618408501148224,1.9856611490249634,-0.0067617520689964294,-0.8571417331695557,0.5928506851196289,0.6419255137443542,-0.3431660532951355,-0.532996416091919,-0.4313740134239197,9.580409049987793,0.12008184939622879,-1.7448599338531494,-0.3349628448486328,-0.11574378609657288,0.6196544170379639,0.3431136906147003,-0.6487573385238647,-0.41019782423973083,-0.541409969329834
252705,9.627307891845703,0.28260883688926697,2.0055346488952637,0.015015443786978722,-0.7263376712799072,0.6859145164489746,0.6418743133544922,-0.3432568907737732,-0.5329886078834534,-0.4313874840736389,9.595114707946777,0.10980744659900665,-1.73599112033844,-0.5313225984573364,-0.15751808881759644,0.6199361681938171,0.3430596590042114,-0.6488068103790283,-0.41013845801353455,-0.5414298176765442
252872,9.618040084838867,0.28335538506507874,2.0023090839385986,0.08641083538532257,-0.8093868494033813,0.5124012231826782,0.6418262720108032,-0.34331128001213074,-0.5330153107643127,-0.4313827455043793,9.539374351501465,0.08483126014471054,-1.7404510974884033,-0.3636234700679779,-0.09599639475345612,0.6275559067726135,0.3430114686489105,-0.6488542556762695,-0.4100711941719055,-0.5414544939994812
253038,9.602123260498047,0.2746519148349762,1.986534833908081,0.25042176246643066,-1.011035680770874,0.7195439338684082,0.6417896151542664,-0.3433713912963867,-0.5330654978752136,-0.4313274323940277,9.515012741088867,0.055611420422792435,-1.731137752532959,-0.026419498026371002,-0.4004288911819458,0.8419598340988159,0.34299299120903015,-0.6489218473434448,-0.41002532839775085,-0.5414199233055115
253205,9.632881164550781,0.2844993472099304,1.9868695735931396,0.08774270117282867,-0.7974002361297607,0.551447868347168,0.6417279243469238,-0.3434489667415619,-0.5330751538276672,-0.431345671415329,9.612321853637695,0.10419820249080658,-1.7816126346588135,0.16178900003433228,-0.9611036777496338,0.7435686588287354,0.3429804742336273,-0.6489959955215454,-0.41006770730018616,-0.5413068532943726
253372,9.599149703979492,0.23526790738105774,1.9586455821990967,0.03825896978378296,-1.1743037700653076,0.950237512588501,0.6416563391685486,-0.34358906745910645,-0.5330947041511536,-0.43131643533706665,9.70669174194336,0.16366155445575714,-1.790928840637207,-0.3337206542491913,-0.48646196722984314,0.07652433961629868,0.3428850471973419,-0.6490264534950256,-0.4100966155529022,-0.5413088798522949
253538,9.560808181762695,0.2264232635498047,1.907431721687317,0.12310104817152023,-1.1195695400238037,0.9082326889038086,0.6416019201278687,-0.3437005579471588,-0.5331255793571472,-0.4312704801559448,9.662858009338379,0.10294827818870544,-1.748822569847107,-0.5443594455718994,0.11440552026033401,0.09637418389320374,0.34281986951828003,-0.6490110754966736,-0.4100940227508545,-0.541370689868927
253705,9.6759614944458,0.318682998418808,2.0117669105529785,0.09962700307369232,0.02738637663424015,0.3828650414943695,0.6416104435920715,-0.34369105100631714,-0.5330812931060791,-0.43132004141807556,9.601739883422852,0.09166217595338821,-1.7281081676483154,-0.4028109312057495,0.503731369972229,0.6246744990348816,0.3428262770175934,-0.6489941477775574,-0.41002562642097473,-0.5414386987686157
253872,9.676898002624512,0.3133687674999237,2.047646999359131,-0.08011652529239655,0.4208102822303772,0.511760950088501,0.6416195034980774,-0.34371984004974365,-0.5329588055610657,-0.4314349293708801,9.557535171508789,0.10030404478311539,-1.7210626602172852,-0.32818830013275146,0.6693174839019775,0.9357278943061829,0.342862069606781,-0.6489876508712769,-0.4099113643169403,-0.5415104031562805
254038,9.634665489196777,0.2724413275718689,2.0293140411376953,-0.6278953552246094,-0.3215034008026123,0.9464083909988403,0.6415993571281433,-0.34384337067604065,-0.5328726768493652,-0.4314730167388916,9.555333137512207,0.09729798138141632,-1.7246688604354858,-0.26186421513557434,0.6827641129493713,0.784920334815979,0.3428850471973419,-0.648973286151886,-0.40980687737464905,-0.5415921211242676
254205,9.58723258972168,0.20584648847579956,2.0076398849487305,0.15965035557746887,-0.5233058333396912,0.24326300621032715,0.6415470242500305,-0.3438662588596344,-0.5328798294067383,-0.4315236806869507,9.551312446594238,0.07122886925935745,-1.7240647077560425,-0.14016549289226532,0.7174822092056274,0.7468727231025696,0.3428961932659149,-0.6489642262458801,-0.409687340259552,-0.5416861772537231
254372,9.575552940368652,0.23358406126499176,1.9996577501296997,0.4041875898838043,-0.4412427544593811,0.10344328731298447,0.641512393951416,-0.3438407778739929,-0.5329073667526245,-0.4315612018108368,9.561734199523926,0.05402218550443649,-1.711626410484314,0.19664789736270905,0.4389440417289734,0.6738380193710327,0.34293898940086365,-0.648939311504364,-0.40964195132255554,-0.5417231917381287
254538,9.586827278137207,0.2642548382282257,1.982949137687683,0.598434329032898,-0.6097999215126038,0.46593987941741943,0.6414837837219238,-0.34385278820991516,-0.5329335927963257,-0.4315618872642517,9.58444595336914,0.06955844908952713,-1.6922681331634521,0.48286983370780945,0.2557620406150818,0.8310360908508301,0.343036413192749,-0.64890456199646,-0.4096446931362152,-0.5417012572288513
254705,9.582719802856445,0.25821012258529663,1.9915294647216797,0.5882789492607117,-0.5194896459579468,0.6792680621147156,0.6414888501167297,-0.3438592851161957,-0.5329510569572449,-0.43152764439582825,9.585047721862793,0.08544722944498062,-1.7277170419692993,0.5539194345474243,0.10583806782960892,0.8691092729568481,0.3431189954280853,-0.6488913893699646,-0.40963852405548096,-0.5416693091392517
254872,9.62310791015625,0.25584676861763,1.97174072265625,0.5978066921234131,-0.4456609785556793,0.7538905739784241,0.6414875388145447,-0.3438880443572998,-0.5329440236091614,-0.4315154254436493,9.599520683288574,0.08578269928693771,-1.7125661373138428,0.6248666644096375,-0.05733402818441391,0.7222974300384521,0.3432038128376007,-0.6488664150238037,-0.4096802771091461,-0.5416138768196106
255038,9.609423637390137,0.2469978928565979,1.9696682691574097,0.568313717842102,0.007075508125126362,0.55829918384552,0.6415161490440369,-0.3438645303249359,-0.5329100489616394,-0.4315336048603058,9.578410148620605,0.08569776266813278,-1.7069436311721802,0.5879075527191162,-0.09721300005912781,0.6082568168640137,0.34325188398361206,-0.6488556861877441,-0.40970587730407715,-0.5415770411491394
255205,9.61984920501709,0.27597859501838684,1.9746713638305664,0.7969455718994141,0.06011940538883209,0.4602922797203064,0.6415694355964661,-0.34378957748413086,-0.532902717590332,-0.43152323365211487,9.5884428024292,0.09528669714927673,-1.69871187210083,0.5946051478385925,-0.18117141723632812,0.6971200108528137,0.34330618381500244,-0.6488534808158875,-0.40973222255706787,-0.5415253639221191
255372,9.638642311096191,0.2851800322532654,2.005387544631958,0.7851252555847168,-0.15943902730941772,0.6850180625915527,0.6416301727294922,-0.3437322676181793,-0.5329132676124573,-0.4314652681350708,9.598247528076172,0.129397913813591,-1.7384587526321411,0.3415645360946655,-0.14560820162296295,0.6388127207756042,0.3433641791343689,-0.648835301399231,-0.4097782075405121,-0.5414754152297974
255538,9.63097858428955,0.27663707733154297,1.9657081365585327,0.8413963317871094,-0.4215850234031677,0.6704828143119812,0.6416593194007874,-0.34370145201683044,-0.5329416990280151,-0.4314112961292267,9.540117263793945,0.07520346343517303,-1.7056317329406738,0.08213353157043457,-0.24058012664318085,0.8438937067985535,0.3434039354324341,-0.6488516330718994,-0.4097864031791687,-0.541424572467804
255705,9.626060485839844,0.27247148752212524,1.9651024341583252,0.8258366584777832,-0.4127998948097229,0.5034624338150024,0.6416952013969421,-0.34363633394241333,-0.5329911708831787,-0.4313487708568573,9.558475494384766,0.08460015058517456,-1.7225171327590942,0.18144676089286804,-0.3594614267349243,1.0028715133666992,0.3434259295463562,-0.6489062309265137,-0.409753680229187,-0.5413699746131897
256038,9.607792854309082,0.235042005777359,1.9600461721420288,0.5077268481254578,-0.8925897479057312,0.6799595355987549,0.641649603843689,-0.3436700701713562,-0.5330521464347839,-0.43131422996520996,9.549710273742676,0.10503359138965607,-1.7504792213439941,-0.10909728705883026,-0.5915637016296387,0.6139683723449707,0.3434160351753235,-0.6489408016204834,-0.4097941815853119,-0.5413039326667786
256205,9.612521171569824,0.26229235529899597,1.9535911083221436,0.45580995082855225,-0.6274598836898804,0.4906560480594635,0.641643226146698,-0.3436591327190399,-0.5330944061279297,-0.43128037452697754,9.577544212341309,0.07992465794086456,-1.733992099761963,-0.2461124211549759,-0.7292318940162659,0.3179624080657959,0.34333550930023193,-0.6489942669868469,-0.4098286032676697,-0.5412649512290955
256372,9.592174530029297,0.2997570335865021,1.9574373960494995,0.6838783025741577,-0.6863307952880859,0.2205829918384552,0.6415992379188538,-0.3436448872089386,-0.5331471562385559,-0.4312920868396759,9.60942268371582,0.08912623673677444,-1.7601805925369263,-0.22595523297786713,-0.6296497583389282,0.17327630519866943,0.3432493507862091,-0.6490310430526733,-0.40987205505371094,-0.5412425994873047
256539,9.620689392089844,0.3194791376590729,1.958530068397522,0.36556363105773926,-0.8492146134376526,0.5908401012420654,0.6415655612945557,-0.34367862343788147,-0.5331900119781494,-0.431262344121933,9.656983375549316,0.10512593388557434,-1.752834677696228,-0.2205253392457962,-0.3289438784122467,0.3168482780456543,0.34320056438446045,-0.6490471363067627,-0.4098963141441345,-0.5412359237670898
256705,9.641180992126465,0.2631530165672302,1.994959831237793,0.22072386741638184,-0.47108161449432373,0.7407256960868835,0.6415502429008484,-0.34373000264167786,-0.5331705808639526,-0.43126827478408813,9.646514892578125,0.09823111444711685,-1.74805748462677,-0.3696424663066864,0.24492783844470978,0.48418885469436646,0.34319859743118286,-0.6490245461463928,-0.4098820388317108,-0.541275143623352
256872,9.646864891052246,0.25131794810295105,2.0164945125579834,-0.027149461209774017,0.02678447961807251,0.5590547919273376,0.6415702104568481,-0.34373271465301514,-0.533115029335022,-0.4313049912452698,9.605341911315918,0.08669862151145935,-1.7265210151672363,-0.4249275326728821,0.691254734992981,0.552152156829834,0.3432055413722992,-0.6489868760108948,-0.40981313586235046,-0.5413680076599121
257039,9.632771492004395,0.24402965605258942,2.032337188720703,0.13507495820522308,-0.0291216392070055,0.3195888102054596,0.6415674090385437,-0.34372007846832275,-0.5330770015716553,-0.4313662648200989,9.559179306030273,0.07452789694070816,-1.713868498802185,-0.4020681381225586,0.7208245396614075,0.569850504398346,0.34322646260261536,-0.6489397287368774,-0.4097541570663452,-0.5414557456970215
257205,9.621481895446777,0.2703295648097992,1.9805964231491089,0.3895627558231354,-0.40071067214012146,0.21487131714820862,0.6415091156959534,-0.34374096989631653,-0.5330670475959778,-0.4314483404159546,9.541632652282715,0.07335516065359116,-1.7134824991226196,-0.28289225697517395,0.5778416395187378,0.4356912076473236,0.3432216942310333,-0.6489035487174988,-0.4097024202346802,-0.541541337966919
257372,9.605704307556152,0.2547987103462219,1.9686050415039062,0.7072498202323914,-0.6587330102920532,0.2551473081111908,0.6414933204650879,-0.3436950147151947,-0.5331355929374695,-0.43142372369766235,9.547318458557129,0.07797562330961227,-1.704817295074463,-0.2345867156982422,0.24765558540821075,0.2762521803379059,0.34320753812789917,-0.6488674879074097,-0.40970849990844727,-0.5415889620780945
257539,9.592428207397461,0.2646407186985016,1.9539520740509033,0.8047574162483215,-0.5883620977401733,0.3120843470096588,0.6414724588394165,-0.34366410970687866,-0.5331853628158569,-0.4314180910587311,9.56682014465332,0.10011252015829086,-1.7031834125518799,-0.262005090713501,-0.1108773723244667,0.1843537986278534,0.3431604504585266,-0.6488567590713501,-0.4097367823123932,-0.5416103005409241
257705,9.588109970092773,0.2792046368122101,1.9433937072753906,0.7441193461418152,-0.27841004729270935,0.3637067377567291,0.6415051817893982,-0.34358546137809753,-0.53322434425354,-0.4313839375972748,9.584220886230469,0.11714224517345428,-1.7091374397277832,-0.3917718231678009,-0.2874513268470764,0.0806351825594902,0.34308820962905884,-0.6488551497459412,-0.4097813367843628,-0.5416243076324463
257872,9.626049041748047,0.2970147430896759,1.966882348060608,0.4194656014442444,0.030319033190608025,0.3120843172073364,0.6415000557899475,-0.3435678780078888,-0.5331816673278809,-0.43145811557769775,9.619422912597656,0.12861503660678864,-1.7259706258773804,-0.545921802520752,-0.399225115776062,0.2169971466064453,0.3429948389530182,-0.64888596534729,-0.40979379415512085,-0.5416370630264282
258039,9.624690055847168,0.29008764028549194,1.9764875173568726,0.2729225158691406,0.047313056886196136,0.47135689854621887,0.6415098309516907,-0.34356075525283813,-0.5331296920776367,-0.43151360750198364,9.595592498779297,0.0947674810886383,-1.711648941040039,-0.6481293439865112,-0.24503672122955322,0.5177287459373474,0.3429311513900757,-0.6489223837852478,-0.4097703695297241,-0.5416514277458191
258205,9.639498710632324,0.260591059923172,1.9780467748641968,0.1474458873271942,-0.07837485522031784,0.6536296606063843,0.6415178775787354,-0.34358349442481995,-0.5330749154090881,-0.4315512478351593,9.604544639587402,0.08885802328586578,-1.7243541479110718,-0.5034048557281494,-0.09406264126300812,0.6105747818946838,0.3428826332092285,-0.648956298828125,-0.40972405672073364,-0.5416765809059143
258372,9.619818687438965,0.2517971694469452,1.9840333461761475,0.11335540562868118,-0.28797638416290283,0.6262113451957703,0.6414968371391296,-0.3436323404312134,-0.5330312252044678,-0.4315975606441498,9.601998329162598,0.050867971032857895,-1.6927369832992554,-0.27993395924568176,0.022007709369063377,0.7574635744094849,0.34288105368614197,-0.648972749710083,-0.4096854329109192,-0.5416871905326843
258539,9.610763549804688,0.25035595893859863,2.0120530128479004,0.3632969260215759,-0.35225144028663635,0.5946948528289795,0.6415287256240845,-0.3435989320278168,-0.5330498218536377,-0.43155375123023987,9.611259460449219,0.07251110672950745,-1.6999609470367432,-0.08584096282720566,0.1995421200990677,0.7389583587646484,0.3428996503353119,-0.6489699482917786,-0.4096456468105316,-0.5417088270187378
258705,9.60910415649414,0.2600618004798889,2.0187618732452393,0.409502238035202,-0.2976451516151428,0.6536808609962463,0.6415334939956665,-0.34361037611961365,-0.5330318808555603,-0.4315597414970398,9.5897216796875,0.08494923263788223,-1.7199126482009888,0.13904494047164917,0.20106607675552368,0.7057130932807922,0.3429252505302429,-0.6489624381065369,-0.40961235761642456,-0.5417267680168152
258872,9.603806495666504,0.24591340124607086,2.0082650184631348,0.49469006061553955,-0.47576868534088135,0.49325576424598694,0.6415368318557739,-0.34358930587768555,-0.5330587029457092,-0.43153852224349976,9.54588794708252,0.09765906631946564,-1.7169156074523926,0.060234665870666504,0.0715554803609848,0.698541522026062,0.34296172857284546,-0.6489485502243042,-0.40961238741874695,-0.5417202711105347
259039,9.61627197265625,0.27299997210502625,1.97444748878479,0.7817828059196472,-0.3363587558269501,0.505806028842926,0.6415344476699829,-0.34357398748397827,-0.5330634713172913,-0.43154823780059814,9.600836753845215,0.09601402282714844,-1.7157320976257324,0.12716065347194672,-0.10647198557853699,0.6460098624229431,0.34299328923225403,-0.6489399671554565,-0.4096353054046631,-0.5416932106018066
259205,9.600736618041992,0.28331267833709717,1.9655873775482178,0.8205989003181458,-0.48069918155670166,0.7262672781944275,0.6415484547615051,-0.3435661792755127,-0.5330828428268433,-0.43150973320007324,9.57556438446045,0.07710954546928406,-1.7168843746185303,0.2267044186592102,-0.11177382618188858,0.8014918565750122,0.3430173695087433,-0.6489568948745728,-0.4096178114414215,-0.5416709780693054
259372,9.634350776672363,0.2627238631248474,2.0188443660736084,0.6871055364608765,-0.1988954097032547,0.6420911550521851,0.641536295413971,-0.34359216690063477,-0.533042311668396,-0.43155717849731445,9.507091522216797,0.06033793464303017,-1.7213557958602905,0.2395363599061966,-0.2655780613422394,0.8485679030418396,0.34306663274765015,-0.6489664912223816,-0.4096396267414093,-0.5416117310523987
259539,9.601027488708496,0.23109708726406097,1.965216040611267,0.7990073561668396,-0.3897484242916107,0.8859753012657166,0.641582727432251,-0.3435716927051544,-0.5330573916435242,-0.4314858019351959,9.588447570800781,0.06832540780305862,-1.7543424367904663,0.41004008054733276,-0.8800266981124878,0.8663430213928223,0.343053936958313,-0.6490486860275269,-0.4096526503562927,-0.5415114760398865
259705,9.595711708068848,0.2523941099643707,1.9551770687103271,0.8794440031051636,-0.5438215732574463,1.039228916168213,0.6416272521018982,-0.3435697853565216,-0.5330814123153687,-0.43139153718948364,9.695212364196777,0.16428738832473755,-1.767240047454834,-0.10729160904884338,-0.5196817517280579,0.14864972233772278,0.3429771959781647,-0.6490704417228699,-0.4096992015838623,-0.5414987802505493
259872,9.608072280883789,0.2902553975582123,1.9719332456588745,0.6064127087593079,0.11234371364116669,0.6692023277282715,0.6416739821434021,-0.3435388505458832,-0.5330356955528259,-0.431403249502182,9.6798095703125,0.12722338736057281,-1.7523016929626465,-0.7530390024185181,0.1726488173007965,-0.30155110359191895,0.34287065267562866,-0.6490240693092346,-0.4097338616847992,-0.5415956974029541
260039,9.70126724243164,0.36877381801605225,2.015725612640381,0.3974642753601074,0.7975729703903198,0.19376645982265472,0.6417407989501953,-0.3434375822544098,-0.5329428911209106,-0.43149879574775696,9.632058143615723,0.07279136031866074,-1.7377369403839111,-0.8348203301429749,0.544916570186615,0.24345511198043823,0.34282687306404114,-0.6489807963371277,-0.40969863533973694,-0.5417018532752991
260205,9.672054290771484,0.3087867796421051,2.0531134605407715,-0.48842135071754456,0.11678750067949295,1.021543264389038,0.6417820453643799,-0.3435003459453583,-0.5328332781791687,-0.4315231144428253,9.58487319946289,0.11446624249219894,-1.699536919593811,-0.8141764402389526,0.9265457987785339,0.5870237946510315,0.34279879927635193,-0.6489531993865967,-0.4095708429813385,-0.5418493151664734
260372,9.592024803161621,0.2050275355577469,2.018139600753784,0.1546686887741089,-0.19411863386631012,0.5462740659713745,0.6417698860168457,-0.34352579712867737,-0.5327903032302856,-0.43157389760017395,9.571854591369629,0.1050611287355423,-1.6925359964370728,-0.9268340468406677,1.1489025354385376,0.6230866312980652,0.3428022861480713,-0.6488965749740601,-0.40945062041282654,-0.5420056581497192
260539,9.598511695861816,0.2539142966270447,2.0129146575927734,0.5961163640022278,-0.1394227147102356,0.0024652222637087107,0.6417596936225891,-0.34345245361328125,-0.5328046083450317,-0.4316297471523285,9.560141563415527,0.07011665403842926,-1.720797061920166,-0.8482157588005066,1.0315322875976562,0.5555714964866638,0.3427775502204895,-0.6488578915596008,-0.40932172536849976,-0.5421649813652039
260705,9.595954895019531,0.27740639448165894,2.0014636516571045,0.680996835231781,-0.3418782651424408,0.2794153392314911,0.641772985458374,-0.34338274598121643,-0.5328437089920044,-0.43161720037460327,9.538870811462402,0.04740026965737343,-1.6948950290679932,-0.6965628862380981,0.7994043231010437,0.5834892988204956,0.3427545428276062,-0.6488319039344788,-0.4092130959033966,-0.5422926545143127
260872,9.590422630310059,0.2679934799671173,1.9905564785003662,0.5569417476654053,-0.3277016580104828,0.5052937269210815,0.6417919993400574,-0.3433453142642975,-0.5328596234321594,-0.431598961353302,9.550834655761719,0.048455558717250824,-1.7086412906646729,-0.24986469745635986,0.4291727840900421,0.7325295805931091,0.3427968919277191,-0.6487969756126404,-0.40918421745300293,-0.5423295497894287
261039,9.615007400512695,0.24777525663375854,1.989912509918213,0.6597127318382263,-0.2619538903236389,0.7119498252868652,0.6418432593345642,-0.34329891204833984,-0.5328726172447205,-0.4315435290336609,9.579411506652832,0.048587869852781296,-1.71300208568573,0.11645455658435822,0.1024572104215622,0.8358897566795349,0.3428458869457245,-0.648788332939148,-0.40917009115219116,-0.5423194169998169
261205,9.613396644592285,0.24417060613632202,1.9508233070373535,0.495381623506546,-0.10400036722421646,0.7096958160400391,0.6418793201446533,-0.343282014131546,-0.5328450798988342,-0.431537389755249,9.578910827636719,0.0654231384396553,-1.7000395059585571,0.3579566776752472,-0.028583772480487823,0.7173668742179871,0.3429250121116638,-0.6487532258033752,-0.409221351146698,-0.5422725677490234
261372,9.6062650680542,0.24129386246204376,1.950731635093689,0.38922977447509766,0.13402485847473145,0.4143686294555664,0.6419230699539185,-0.343220591545105,-0.5328142642974854,-0.4315592646598816,9.610677719116211,0.07544367015361786,-1.716601014137268,0.4362803101539612,-0.04319581761956215,0.5662519335746765,0.3429705798625946,-0.648727536201477,-0.4092597961425781,-0.5422455072402954
261539,9.627786636352539,0.24985887110233307,1.9508460760116577,0.5153082609176636,0.11229247599840164,0.4796810448169708,0.6419425010681152,-0.34319600462913513,-0.5327631831169128,-0.4316129982471466,9.612373352050781,0.07677759230136871,-1.7032939195632935,0.45589959621429443,0.08182617276906967,0.5865244269371033,0.3430291414260864,-0.648690402507782,-0.4092944860458374,-0.5422267913818359
261705,9.638818740844727,0.26460444927215576,1.9949244260787964,0.5927098393440247,0.005180168431252241,0.6011108160018921,0.6420074701309204,-0.34312596917152405,-0.5327561497688293,-0.43158069252967834,9.606647491455078,0.10473638027906418,-1.7151132822036743,0.49745622277259827,0.08305557817220688,0.662171483039856,0.34308671951293945,-0.6486637592315674,-0.4093119204044342,-0.5422090291976929
261872,9.629902839660645,0.27003908157348633,2.007075309753418,0.7471031546592712,-0.19279958307743073,0.5655987858772278,0.6420179605484009,-0.3431084156036377,-0.5327421426773071,-0.43159642815589905,9.584260940551758,0.10952135175466537,-1.7216613292694092,0.34191030263900757,0.29710090160369873,0.6868237257003784,0.34314921498298645,-0.6486251950263977,-0.40931078791618347,-0.542216420173645
262039,9.634787559509277,0.2694058120250702,1.992448329925537,0.7534679770469666,-0.1938881278038025,0.4251900017261505,0.6420133709907532,-0.34308770298957825,-0.532730221748352,-0.4316345453262329,9.524744033813477,0.07323922216892242,-1.7137861251831055,0.19810782372951508,-0.026086533442139626,0.9523377418518066,0.3432042896747589,-0.6486319899559021,-0.40929481387138367,-0.5421855449676514
262205,9.61367416381836,0.27280575037002563,1.9997795820236206,0.7124875783920288,-0.36670982837677,0.44031432271003723,0.64202880859375,-0.34303852915763855,-0.5327595472335815,-0.4316141903400421,9.516743659973145,0.06815233081579208,-1.7130945920944214,0.20743083953857422,-0.4798922836780548,0.7821926474571228,0.3432191014289856,-0.6486644744873047,-0.409317284822464,-0.5421202778816223
262372,9.60317611694336,0.2538646459579468,1.9684332609176636,0.5877665877342224,-0.8095278143882751,0.8861546516418457,0.6420384049415588,-0.3430546820163727,-0.532805860042572,-0.4315301775932312,9.555360794067383,0.10852716118097305,-1.706895112991333,-0.10228430479764938,-0.7073202729225159,0.38104650378227234,0.34317705035209656,-0.648693859577179,-0.40938547253608704,-0.5420603156089783
262539,9.582880020141602,0.2978495657444,1.9545056819915771,0.7312873601913452,-0.5033151507377625,0.3354302942752838,0.6420429944992065,-0.3429970443248749,-0.5328590273857117,-0.4315033555030823,9.589394569396973,0.08648601919412613,-1.7423051595687866,-0.26965048909187317,-0.8695639371871948,0.02072707563638687,0.3430478870868683,-0.6487464904785156,-0.4094441533088684,-0.5420348644256592
262705,9.607101440429688,0.3323405086994171,1.9621754884719849,0.5873311758041382,-0.28034377098083496,0.3735675811767578,0.6420509815216064,-0.34295353293418884,-0.5328730344772339,-0.43150877952575684,9.639442443847656,0.08153464645147324,-1.7410036325454712,-0.28494128584861755,-0.7910866141319275,0.17828358709812164,0.342953085899353,-0.6487893462181091,-0.4095049500465393,-0.5419974327087402
262872,9.6216459274292,0.2943969666957855,1.9722390174865723,0.0072035719640553,-0.3154716193675995,0.5686851143836975,0.6420380473136902,-0.34298256039619446,-0.5328436493873596,-0.43154120445251465,9.676694869995117,0.09042797982692719,-1.739728331565857,-0.39298850297927856,-0.35851380228996277,0.36240053176879883,0.3428979218006134,-0.6488074064254761,-0.40952998399734497,-0.5419920086860657
263039,9.644047737121582,0.2672070562839508,2.0106189250946045,0.04557139053940773,-0.15979762375354767,0.6141347885131836,0.6420508027076721,-0.3429902493953705,-0.5328073501586914,-0.4315609037876129,9.641115188598633,0.07001140713691711,-1.6981120109558105,-0.4490033984184265,0.17837324738502502,0.6074115633964539,0.34286680817604065,-0.6488165855407715,-0.40947458148002625,-0.5420423746109009
263205,9.635858535766602,0.2455066293478012,2.0331203937530518,-0.10476875305175781,-0.09426754713058472,0.5758823156356812,0.642058789730072,-0.34300482273101807,-0.5327574014663696,-0.43159908056259155,9.603271484375,0.06560194492340088,-1.7174019813537598,-0.36549320816993713,0.4145223796367645,0.5277944803237915,0.3428744375705719,-0.6487811803817749,-0.40944910049438477,-0.5420991778373718
263372,9.6195650100708,0.24593578279018402,2.030012607574463,0.16995947062969208,-0.334553062915802,0.4390720725059509,0.6420588493347168,-0.34299132227897644,-0.5327581763267517,-0.4316088557243347,9.568625450134277,0.07721389085054398,-1.7222621440887451,-0.1983959674835205,0.41430461406707764,0.23002126812934875,0.3428474962711334,-0.6487395167350769,-0.4094327688217163,-0.5421784520149231
263539,9.602237701416016,0.2616603672504425,2.014380931854248,0.4518144428730011,-0.5788342356681824,0.07323311269283295,0.6420211791992188,-0.3429512679576874,-0.5328091382980347,-0.4316338002681732,9.540702819824219,0.07828675210475922,-1.7036908864974976,-0.06624724715948105,0.2208774983882904,0.05303749814629555,0.34282147884368896,-0.6486859917640686,-0.409469336271286,-0.5422313809394836
263705,9.606254577636719,0.2766053378582001,2.008244276046753,0.5876513123512268,-0.42515799403190613,0.07871422171592712,0.6419674754142761,-0.3429339826107025,-0.5328251123428345,-0.4317077696323395,9.564888000488281,0.09453704208135605,-1.7187037467956543,-0.026650013402104378,-0.027469618245959282,-0.007414876017719507,0.3427869975566864,-0.6486411094665527,-0.40953585505485535,-0.5422565937042236
263872,9.599116325378418,0.26522940397262573,1.978690505027771,0.5019256472587585,-0.32346275448799133,0.10022889077663422,0.6419199109077454,-0.3429187536239624,-0.5328258275985718,-0.43178969621658325,9.559223175048828,0.11425267159938812,-1.698340892791748,-0.10521696507930756,-0.3179304301738739,-0.03738173097372055,0.3427111804485321,-0.64863121509552,-0.4095972776412964,-0.5422698855400085
264039,9.60896110534668,0.28165850043296814,1.9731724262237549,0.5504617094993591,-0.17201489210128784,0.13654769957065582,0.6419441103935242,-0.3428213894367218,-0.5328593254089355,-0.4317896366119385,9.591484069824219,0.11607296019792557,-1.7281306982040405,-0.31868600845336914,-0.5429508090019226,0.2197505533695221,0.34264832735061646,-0.6486461162567139,-0.4096594750881195,-0.5422448515892029
264205,9.61190128326416,0.2811936140060425,1.9765018224716187,0.526142418384552,-0.07974512875080109,0.049298036843538284,0.6419402956962585,-0.34274977445602417,-0.5328638553619385,-0.4318464994430542,9.613513946533203,0.12547838687896729,-1.7122021913528442,-0.3959338665008545,-0.44504624605178833,0.40115249156951904,0.34258192777633667,-0.6486795544624329,-0.40967488288879395,-0.542235255241394
264372,9.6285982131958,0.27438807487487793,1.9773529767990112,0.24417224526405334,-0.2625301778316498,0.4478956460952759,0.6419265270233154,-0.34275564551353455,-0.5328423380851746,-0.4318889081478119,9.601755142211914,0.10551241785287857,-1.7072670459747314,-0.3679264187812805,-0.49055999517440796,0.4445275664329529,0.34250015020370483,-0.648730993270874,-0.40966901183128357,-0.5422297716140747
264539,9.630786895751953,0.2748422622680664,2.019205331802368,0.12783940136432648,-0.30011680722236633,0.5776112079620361,0.6419093608856201,-0.34278810024261475,-0.5328084230422974,-0.43193045258522034,9.619568824768066,0.08798542618751526,-1.7465481758117676,-0.26004570722579956,-0.2376602292060852,0.613955557346344,0.3424576222896576,-0.6487666368484497,-0.4096437394618988,-0.5422329902648926
264705,9.632406234741211,0.25014880299568176,2.001283884048462,0.2802477478981018,-0.6451966762542725,0.4956761300563812,0.6418659687042236,-0.34282413125038147,-0.5328187346458435,-0.4319536089897156,9.592048645019531,0.09607125073671341,-1.7350828647613525,-0.1401398777961731,-0.08247289806604385,0.7291102409362793,0.3424622714519501,-0.64877849817276,-0.4096299409866333,-0.5422263741493225
264872,9.627799987792969,0.269707053899765,1.9953829050064087,0.22318264842033386,-0.6685042381286621,0.6457281112670898,0.6418190598487854,-0.3428892195224762,-0.5328132510185242,-0.43197837471961975,9.565217018127441,0.08189872652292252,-1.7274762392044067,0.11085815727710724,-0.08431700617074966,0.6856710910797119,0.34247124195098877,-0.6487869024276733,-0.4096214771270752,-0.5422170162200928
265039,9.62411117553711,0.2556980848312378,2.009042739868164,0.4023691415786743,-0.6657893657684326,0.4910018742084503,0.6418094038963318,-0.3428773880004883,-0.5328574180603027,-0.43194782733917236,9.563214302062988,0.07122731953859329,-1.7213859558105469,0.27946656942367554,-0.2081672102212906,0.6149289011955261,0.3424803912639618,-0.6487942337989807,-0.4096364378929138,-0.5421911478042603
265205,9.62043285369873,0.2764718234539032,1.9832303524017334,0.5458642244338989,-0.4547150433063507,0.46948713064193726,0.641829252243042,-0.3428279757499695,-0.5328977108001709,-0.4319075644016266,9.599187850952148,0.06358502805233002,-1.73053777217865,0.47531411051750183,-0.09234658628702164,0.5149241089820862,0.34251999855041504,-0.6487674117088318,-0.40968552231788635,-0.5421610474586487
265372,9.613710403442383,0.2638814449310303,1.9661202430725098,0.6925225853919983,-0.5221661329269409,0.6388383507728577,0.6418357491493225,-0.34281542897224426,-0.5329238176345825,-0.43187570571899414,9.56208324432373,0.0687207505106926,-1.725728154182434,0.6193471550941467,-0.20103409886360168,0.6203845143318176,0.3425644636154175,-0.6487566232681274,-0.4097282588481903,-0.5421136021614075
265539,9.629770278930664,0.25983479619026184,2.001124382019043,0.6373143792152405,-0.25077393651008606,0.6574844121932983,0.6418715715408325,-0.34277981519699097,-0.5329285264015198,-0.4318450689315796,9.51750659942627,0.06748446822166443,-1.739677906036377,0.8063709735870361,-0.5083736777305603,0.6283755302429199,0.34263116121292114,-0.6487447619438171,-0.40982672572135925,-0.5420112609863281
265705,9.606780052185059,0.2245561182498932,1.9434078931808472,0.8110581636428833,-0.5211672186851501,0.732375979423523,0.6418882608413696,-0.3427654504776001,-0.5329561233520508,-0.43179768323898315,9.640813827514648,0.15408188104629517,-1.7723058462142944,0.6585601568222046,-0.7007762789726257,0.3650898039340973,0.34262728691101074,-0.6487573385238647,-0.40991970896720886,-0.5419282913208008
265872,9.600275039672852,0.26169252395629883,1.9258108139038086,0.7351164817810059,-0.3613951802253723,0.7288797497749329,0.6419230103492737,-0.3427356779575348,-0.5329722762107849,-0.4317496716976166,9.714109420776367,0.20006009936332703,-1.7814058065414429,-0.30012962222099304,-0.18106898665428162,-0.422980934381485,0.3425131142139435,-0.6487212181091309,-0.40999969840049744,-0.5419832468032837
266039,9.656816482543945,0.3487950563430786,2.0055973529815674,0.6251738667488098,0.6519648432731628,0.0011717809829860926,0.6419689655303955,-0.3426167368888855,-0.5329102277755737,-0.4318523406982422,9.690645217895508,0.1261313259601593,-1.7530452013015747,-0.9933885931968689,0.5341976881027222,-0.18914979696273804,0.3423912823200226,-0.6486788392066956,-0.40996477007865906,-0.5421373248100281
266205,9.689753532409668,0.3651738166809082,2.027963161468506,0.10030572861433029,0.6447548866271973,0.32181715965270996,0.6420032978057861,-0.34257814288139343,-0.5327959656715393,-0.4319729804992676,9.617198944091797,0.09836617857217789,-1.7142078876495361,-1.024495244026184,1.0422896146774292,0.3405144512653351,0.3423193395137787,-0.6486437916755676,-0.4098292887210846,-0.5423272848129272
266372,9.655945777893066,0.2898533046245575,2.0387284755706787,-0.604779839515686,-0.04254268854856491,0.8299858570098877,0.6420013904571533,-0.3426611125469208,-0.5326932668685913,-0.432036429643631,9.577571868896484,0.11310014873743057,-1.7042735815048218,-1.1335924863815308,1.3227230310440063,0.7039202451705933,0.3422986567020416,-0.6486015915870667,-0.409655898809433,-0.5425216555595398
266539,9.608997344970703,0.21606779098510742,2.008279800415039,0.1836366355419159,-0.2304246574640274,0.07749763131141663,0.6419650316238403,-0.34263932704925537,-0.5326852202415466,-0.4321178197860718,9.54464340209961,0.07503687590360641,-1.7086139917373657,-1.072621464729309,1.1670235395431519,0.5793656706809998,0.34226322174072266,-0.6485618352890015,-0.40950578451156616,-0.5427048206329346
266705,9.6030855178833,0.26409217715263367,2.0033984184265137,0.33697986602783203,-0.29481494426727295,-0.05282619222998619,0.64192795753479,-0.3425914943218231,-0.5327028632164001,-0.43218910694122314,9.530117988586426,0.04406686872243881,-1.7061669826507568,-0.6831674575805664,0.943142831325531,0.5250795483589172,0.34225019812583923,-0.6485151052474976,-0.40940600633621216,-0.5428441762924194
266872,9.58520793914795,0.2641782760620117,1.9988456964492798,0.3140309453010559,-0.2715586721897125,0.29488545656204224,0.6419348120689392,-0.34254392981529236,-0.5327169299125671,-0.43219903111457825,9.536035537719727,0.05741600692272186,-1.7006796598434448,-0.18710076808929443,0.5085593461990356,0.4706525504589081,0.3422679901123047,-0.6484647393226624,-0.40938806533813477,-0.542906641960144
267039,9.593465805053711,0.26353809237480164,1.9745560884475708,0.44081375002861023,-0.14635096490383148,0.2820662260055542,0.6419230699539185,-0.34251880645751953,-0.53270024061203,-0.4322570860385895,9.552031517028809,0.07235382497310638,-1.6842827796936035,0.216075137257576,0.14146533608436584,0.35127171874046326,0.342271625995636,-0.6484314799308777,-0.4094069004058838,-0.5429298281669617
267205,9.615416526794434,0.2565964460372925,1.9722962379455566,0.46919259428977966,-0.015867067500948906,0.3888455629348755,0.6419415473937988,-0.3424758315086365,-0.5326777696609497,-0.43229129910469055,9.579808235168457,0.08158043771982193,-1.6930086612701416,0.46044594049453735,-0.17461459338665009,0.5183946490287781,0.342317670583725,-0.648402750492096,-0.4094741940498352,-0.542884349822998
267372,9.591487884521484,0.2412724792957306,1.9678219556808472,0.5922744274139404,-0.02169395424425602,0.5007858872413635,0.6419470310211182,-0.34246307611465454,-0.5326372385025024,-0.43234318494796753,9.618751525878906,0.08269502222537994,-1.7098650932312012,0.6295921802520752,-0.2207430750131607,0.6007395386695862,0.34236547350883484,-0.6483871936798096,-0.40952834486961365,-0.54283207654953
267539,9.615363121032715,0.2527828514575958,2.018782138824463,0.6145703196525574,-0.057372450828552246,0.6865804195404053,0.6419807076454163,-0.3424423038959503,-0.5326067209243774,-0.43234744668006897,9.633008003234863,0.09993711113929749,-1.7296040058135986,0.5560581088066101,-0.050047215074300766,0.5614367723464966,0.3424275815486908,-0.648349404335022,-0.4095877408981323,-0.5427930355072021
267705,9.632746696472168,0.2425634115934372,1.9942076206207275,0.6527717113494873,0.08594981580972672,0.3962348699569702,0.6420179009437561,-0.3423752784729004,-0.5325867533683777,-0.4323698580265045,9.629474639892578,0.1071467474102974,-1.7064480781555176,0.4277641475200653,0.19368965923786163,0.5745888948440552,0.34246379137039185,-0.6483210921287537,-0.40958961844444275,-0.5428027510643005
267872,9.627449989318848,0.28024598956108093,2.0134222507476807,0.6314491033554077,-0.05757734924554825,0.47231733798980713,0.6420605778694153,-0.34230896830558777,-0.5325853824615479,-0.43236061930656433,9.623648643493652,0.10518698394298553,-1.687261700630188,0.26345860958099365,0.3263377845287323,0.5336597561836243,0.3425059914588928,-0.6482748985290527,-0.4095965623855591,-0.5428259372711182
268039,9.615765571594238,0.2740139663219452,2.020451545715332,0.7590387463569641,-0.1766635924577713,0.5266931056976318,0.6421156525611877,-0.34222766757011414,-0.5326098799705505,-0.43231311440467834,9.57519817352295,0.12457360327243805,-1.6848227977752686,-0.023832615464925766,0.5001968145370483,0.5915700793266296,0.3425452411174774,-0.6482262015342712,-0.40957704186439514,-0.5428741574287415
268205,9.630122184753418,0.28646185994148254,2.054147720336914,0.7737148404121399,-0.3532503843307495,0.35586926341056824,0.6421263217926025,-0.3421688973903656,-0.5326435565948486,-0.43230217695236206,9.508858680725098,0.09596747159957886,-1.7066198587417603,-0.1739230453968048,0.09579789638519287,0.6783714890480042,0.3425610363483429,-0.6482162475585938,-0.4095666706562042,-0.5428838133811951
268372,9.605157852172852,0.29383695125579834,1.9848921298980713,0.8353517055511475,-0.6378073692321777,0.2008996158838272,0.6421172618865967,-0.34209904074668884,-0.5327223539352417,-0.4322737753391266,9.526326179504395,0.09492327272891998,-1.706744909286499,-0.24950607120990753,-0.4470312297344208,0.6264417767524719,0.3425179719924927,-0.648261547088623,-0.409563809633255,-0.5428591370582581
268539,9.57852840423584,0.2609632909297943,1.9565036296844482,0.4399429261684418,-1.0500952005386353,0.6503897309303284,0.6420747637748718,-0.3421395719051361,-0.5327844023704529,-0.4322284758090973,9.593286514282227,0.11709575355052948,-1.7142120599746704,-0.4715298116207123,-0.6101456880569458,0.2867662012577057,0.34241631627082825,-0.6483112573623657,-0.40958234667778015,-0.5428498387336731
268705,9.608078002929688,0.29820919036865234,1.9489221572875977,0.4147016406059265,-0.47845807671546936,0.26508504152297974,0.6420512199401855,-0.34211626648902893,-0.5328111052513123,-0.43224895000457764,9.620147705078125,0.0822921022772789,-1.7236818075180054,-0.6113751530647278,-0.4789831340312958,0.18158762156963348,0.34230875968933105,-0.6483451724052429,-0.40960314869880676,-0.5428614616394043
268872,9.586051940917969,0.32932576537132263,1.991071343421936,0.06310329586267471,-0.24483181536197662,0.35353851318359375,0.6420469880104065,-0.342101514339447,-0.5328001976013184,-0.43228012323379517,9.647974014282227,0.10049857944250107,-1.7401896715164185,-0.5556930899620056,-0.24553611874580383,0.041037943214178085,0.3422125577926636,-0.6483474969863892,-0.4096332788467407,-0.5428967475891113
269039,9.621045112609863,0.2869548797607422,1.9894405603408813,-0.14661991596221924,-0.32044053077697754,0.34331902861595154,0.6420246362686157,-0.3421112895011902,-0.5327832102775574,-0.43232670426368713,9.637460708618164,0.08824649453163147,-1.7182960510253906,-0.5215898156166077,0.0597224086523056,0.20121976733207703,0.34214237332344055,-0.648339033126831,-0.40962710976600647,-0.542955756187439
269205,9.651811599731445,0.2837291359901428,2.042715311050415,0.03992379456758499,-0.35581162571907043,0.4055066406726837,0.6419992446899414,-0.3421276807785034,-0.5327672958374023,-0.4323711097240448,9.615606307983398,0.08743827044963837,-1.703365445137024,-0.3775951862335205,0.4382524788379669,0.5323919057846069,0.3421376347541809,-0.6483110189437866,-0.4095856249332428,-0.5430233478546143
269372,9.640341758728027,0.2465616762638092,2.0235180854797363,-0.16363953053951263,-0.18544873595237732,0.3677407205104828,0.6419681310653687,-0.34215742349624634,-0.5327193140983582,-0.4324527978897095,9.576407432556152,0.08867563307285309,-1.6902908086776733,-0.1364900916814804,0.537770688533783,0.4379707872867584,0.34214985370635986,-0.6482607126235962,-0.4095619320869446,-0.5430935025215149
269539,9.603218078613281,0.2454175353050232,2.017879009246826,0.267185240983963,-0.20476071536540985,0.04822230339050293,0.6419442296028137,-0.3421143591403961,-0.532721757888794,-0.4325193166732788,9.550622940063477,0.08110838383436203,-1.7003613710403442,-0.1415613889694214,0.4356912076473236,0.2715906500816345,0.34214913845062256,-0.6482037305831909,-0.40956664085388184,-0.5431584119796753
269705,9.598708152770996,0.28620386123657227,1.9802031517028809,0.5208150148391724,-0.298054963350296,-0.008464996702969074,0.6419286727905273,-0.3420412242412567,-0.5327565670013428,-0.43255743384361267,9.555017471313477,0.11501440405845642,-1.7010587453842163,-0.08276744931936264,0.2567737400531769,0.011275991797447205,0.34212085604667664,-0.6481441855430603,-0.40960678458213806,-0.543217122554779
269872,9.594778060913086,0.29409655928611755,1.9991105794906616,0.5855383276939392,-0.41764065623283386,0.007613374851644039,0.6419075727462769,-0.341971218585968,-0.5328056216239929,-0.43258345127105713,9.585358619689941,0.12420167773962021,-1.7074494361877441,-0.06573499739170074,-0.04099312797188759,-0.06663144379854202,0.3420694172382355,-0.6481032371520996,-0.40966951847076416,-0.5432510375976562
270039,9.596576690673828,0.30253639817237854,1.9696855545043945,0.6347275376319885,-0.28483885526657104,0.13057996332645416,0.6419282555580139,-0.3418714106082916,-0.5328561663627625,-0.4325696527957916,9.59371566772461,0.14464670419692993,-1.699510097503662,-0.22116565704345703,-0.06565815210342407,0.08942033350467682,0.3420170545578003,-0.6480790376663208,-0.4097100496292114,-0.5432823300361633
270205,9.598236083984375,0.2852993309497833,1.9671250581741333,0.6494932174682617,-0.28973084688186646,0.1699850857257843,0.6419462561607361,-0.3417801260948181,-0.5329020023345947,-0.43255850672721863,9.604927062988281,0.13949353992938995,-1.7028683423995972,-0.3961644172668457,-0.29954051971435547,0.3366469144821167,0.34196069836616516,-0.6480913758277893,-0.40973347425460815,-0.5432854294776917
270372,9.61733341217041,0.2945614755153656,1.9647289514541626,0.43462833762168884,-0.2651298940181732,0.23153242468833923,0.6419516801834106,-0.3417218029499054,-0.5329229831695557,-0.43257075548171997,9.603224754333496,0.1452755481004715,-1.7104017734527588,-0.7251722812652588,-0.2078598588705063,0.4921927750110626,0.3418872654438019,-0.6481251120567322,-0.40970683097839355,-0.5433114171028137
270539,9.619830131530762,0.3014282286167145,1.9922369718551636,0.20036175847053528,-0.33349019289016724,0.2378075271844864,0.6419283151626587,-0.341705322265625,-0.5329258441925049,-0.4326149523258209,9.614665031433105,0.10145965218544006,-1.7125107049942017,-0.47200363874435425,-0.2494805008172989,0.7631880640983582,0.34184718132019043,-0.6481720805168152,-0.40966665744781494,-0.5433109998703003
270705,9.631386756896973,0.2923179566860199,1.9618723392486572,0.1285821497440338,-0.5916149020195007,0.6183993816375732,0.641904354095459,-0.3417424261569977,-0.5329287052154541,-0.4326176941394806,9.609081268310547,0.07525382190942764,-1.6986337900161743,-0.21075409650802612,-0.1439049392938614,0.9505320191383362,0.3418513834476471,-0.6482100486755371,-0.40962228178977966,-0.5432964563369751
270872,9.617735862731934,0.2594563663005829,2.012655019760132,0.08269700407981873,-0.6710783243179321,0.8675214052200317,0.6418820023536682,-0.3418152928352356,-0.5329192876815796,-0.43260490894317627,9.565546989440918,0.07932808995246887,-1.7092143297195435,0.10784866660833359,-0.14784930646419525,0.8238260746002197,0.3418714106082916,-0.6482277512550354,-0.4096105992794037,-0.543271541595459
271039,9.631754875183105,0.2514898180961609,2.0043423175811768,0.19330544769763947,-0.628369152545929,0.8146182894706726,0.6418748497962952,-0.34185901284217834,-0.5329231023788452,-0.43257635831832886,9.59615707397461,0.08647261559963226,-1.7330833673477173,0.37647464871406555,-0.19343991577625275,0.6854406595230103,0.3419228196144104,-0.6482135653495789,-0.40965765714645386,-0.5432206988334656
271205,9.595590591430664,0.26101478934288025,1.9761481285095215,0.4516735374927521,-0.6980229020118713,0.7787733674049377,0.6418665051460266,-0.3418881893157959,-0.5329462885856628,-0.432536780834198,9.586946487426758,0.08334708958864212,-1.715917944908142,0.5152058601379395,-0.09568905085325241,0.5461076498031616,0.3419748842716217,-0.6481809616088867,-0.4097168445587158,-0.5431819558143616
271372,9.624213218688965,0.2742900550365448,1.9999701976776123,0.5738204717636108,-0.4420239329338074,0.7436454892158508,0.6418683528900146,-0.34190431237220764,-0.5329443216323853,-0.43252384662628174,9.518790245056152,0.09772957861423492,-1.7019023895263672,0.6562678217887878,-0.22718466818332672,0.6805999279022217,0.3420617878437042,-0.6481470465660095,-0.4098013639450073,-0.5431041121482849
271539,9.612785339355469,0.25107553601264954,1.9767507314682007,0.5663543939590454,-0.34315893054008484,0.7586673498153687,0.6419110298156738,-0.3418751657009125,-0.5329577326774597,-0.43246695399284363,9.530226707458496,0.09155537188053131,-1.7180622816085815,0.7112839221954346,-0.7813155055046082,0.7839343547821045,0.3420933187007904,-0.6481860876083374,-0.40986722707748413,-0.5429878830909729
271705,9.600810050964355,0.24281826615333557,1.9160248041152954,1.0941168069839478,-0.6559028029441833,0.8460834622383118,0.6419467329978943,-0.34184160828590393,-0.5330176949501038,-0.4323665499687195,9.648947715759277,0.17062778770923615,-1.740064263343811,0.2693111002445221,-0.9123755097389221,0.13707275688648224,0.34203076362609863,-0.6482143998146057,-0.40997281670570374,-0.5429137349128723
271872,9.605916023254395,0.29149964451789856,1.9428976774215698,0.8796745538711548,-0.247764453291893,0.762458086013794,0.6420081853866577,-0.3417836129665375,-0.5330383777618408,-0.4322957396507263,9.680639266967773,0.1656964123249054,-1.7507644891738892,-0.7353020906448364,-0.3238341510295868,-0.20984484255313873,0.34188997745513916,-0.6482182741165161,-0.4100140631198883,-0.5429666042327881
272039,9.660414695739746,0.3581927716732025,1.9912281036376953,0.7109124660491943,0.6193855404853821,0.168153777718544,0.6420871019363403,-0.34164559841156006,-0.532994270324707,-0.43234217166900635,9.653470993041992,0.09339206665754318,-1.7231621742248535,-0.8707677125930786,0.08810128271579742,0.25323915481567383,0.3417992889881134,-0.6482229828834534,-0.40998220443725586,-0.5430423021316528
272205,9.685408592224121,0.3636305332183838,2.065412759780884,-0.4048599302768707,0.08469479531049728,1.0206340551376343,0.6421282291412354,-0.3417041003704071,-0.5328922271728516,-0.43236055970191956,9.62052059173584,0.11522500962018967,-1.7032194137573242,-0.9220443964004517,0.5348123908042908,0.6446268558502197,0.3417542576789856,-0.6482232213020325,-0.4098793864250183,-0.5431480407714844
272372,9.62043571472168,0.25120794773101807,2.021641969680786,-0.5095390677452087,-0.26195386052131653,0.6461251378059387,0.6421059370040894,-0.34177470207214355,-0.5328283905982971,-0.432416707277298,9.572487831115723,0.09418654441833496,-1.6724326610565186,-0.99843430519104,0.6269028186798096,0.6504665613174438,0.34171637892723083,-0.6482142806053162,-0.40977463126182556,-0.5432614684104919
272539,9.615398406982422,0.24423708021640778,2.0456478595733643,-0.08101297169923782,-0.2739918529987335,-0.028711838647723198,0.6420619487762451,-0.3417532742023468,-0.5328262448310852,-0.43250134587287903,9.553470611572266,0.05845506861805916,-1.6759300231933594,-0.856680691242218,0.5159742832183838,0.6601353287696838,0.3416833281517029,-0.6482094526290894,-0.40968263149261475,-0.5433574914932251
272705,9.605542182922363,0.2688807249069214,1.991976022720337,0.2602314054965973,-0.45403629541397095,0.4177238941192627,0.642060399055481,-0.34173211455345154,-0.5328486561775208,-0.43249276280403137,9.513745307922363,0.03949920833110809,-1.6831741333007812,-0.3081079423427582,0.24130362272262573,0.6106259822845459,0.34169504046440125,-0.6481866836547852,-0.40966692566871643,-0.5433890223503113
272872,9.5900239944458,0.2529072165489197,1.9997360706329346,0.5736923813819885,-0.549917459487915,0.5974609851837158,0.6420696973800659,-0.3417125642299652,-0.5328840613365173,-0.43245092034339905,9.545512199401855,0.05642182379961014,-1.6841254234313965,0.29934200644493103,-0.18861190974712372,0.7139731645584106,0.34173253178596497,-0.6481841802597046,-0.40969446301460266,-0.5433476567268372
273039,9.595627784729004,0.2512150704860687,1.973076581954956,0.7199282646179199,-0.46028587222099304,0.7326449155807495,0.6420944929122925,-0.3416934311389923,-0.5329076647758484,-0.432400107383728,9.55711555480957,0.0801316648721695,-1.6740095615386963,0.6326912641525269,-0.47087666392326355,0.6641564965248108,0.3417770266532898,-0.6481879353523254,-0.40976154804229736,-0.543264627456665
273206,9.583584785461426,0.2471780925989151,1.9676443338394165,0.6517855525016785,-0.3379083275794983,0.5790454745292664,0.6421138048171997,-0.3416635990142822,-0.5329217314720154,-0.43237757682800293,9.596869468688965,0.07847817242145538,-1.7296879291534424,0.7486912608146667,-0.7044773697853088,0.6963005065917969,0.3418269455432892,-0.648201584815979,-0.40985357761383057,-0.5431474447250366
273372,9.602619171142578,0.25229722261428833,1.9812346696853638,0.6077316999435425,-0.19039200246334076,0.7873919606208801,0.642158567905426,-0.3416408896446228,-0.5329114198684692,-0.432341605424881,9.603337287902832,0.11337286233901978,-1.7282506227493286,0.754274845123291,-0.8794121146202087,0.6078470349311829,0.3418460786342621,-0.6482336521148682,-0.40994730591773987,-0.543026328086853
273539,9.613935470581055,0.27632251381874084,1.9551727771759033,0.7037922143936157,-0.2939569354057312,0.7305318117141724,0.6422014236450195,-0.34160536527633667,-0.5329235792160034,-0.43229109048843384,9.638643264770508,0.12286734580993652,-1.7096810340881348,0.4059932827949524,-0.7835820317268372,0.6086664795875549,0.3418493866920471,-0.6482676267623901,-0.4100211560726166,-0.5429279208183289
273706,9.625934600830078,0.2829406261444092,2.0048184394836426,0.8005056977272034,-0.3520977795124054,0.6739405989646912,0.6422398686408997,-0.3415614664554596,-0.5329492688179016,-0.432236909866333,9.624338150024414,0.1094941720366478,-1.7052372694015503,0.1417214572429657,-0.5197840929031372,0.7266514301300049,0.34184131026268005,-0.6483091115951538,-0.4100368916988373,-0.5428715944290161
273872,9.651801109313965,0.27074605226516724,2.013859272003174,0.6862346529960632,-0.5944195985794067,0.7684770226478577,0.6422566771507263,-0.3415546715259552,-0.5329832434654236,-0.4321753680706024,9.597929000854492,0.10761154443025589,-1.722183346748352,-0.11497540026903152,-0.38328123092651367,0.6474698185920715,0.3418112099170685,-0.6483475565910339,-0.4100334644317627,-0.542847216129303
274039,9.637459754943848,0.27621331810951233,2.013317584991455,0.682776927947998,-0.72599196434021,0.7868030071258545,0.6422551870346069,-0.3415694236755371,-0.5330211520195007,-0.4321192502975464,9.489434242248535,0.0788947120308876,-1.69588041305542,-0.13706636428833008,-0.39092662930488586,0.6385181546211243,0.3417958915233612,-0.6483739018440247,-0.41005027294158936,-0.5428126454353333
