sampleTimeFine,D4:22:CD:00:A9:12_acc_x,D4:22:CD:00:A9:12_acc_y,D4:22:CD:00:A9:12_acc_z,D4:22:CD:00:A9:12_gyro_x,D4:22:CD:00:A9:12_gyro_y,D4:22:CD:00:A9:12_gyro_z,D4:22:CD:00:A9:12_quat_w,D4:22:CD:00:A9:12_quat_x,D4:22:CD:00:A9:12_quat_y,D4:22:CD:00:A9:12_quat_z,D4:22:CD:00:A1:93_acc_x,D4:22:CD:00:A1:93_acc_y,D4:22:CD:00:A1:93_acc_z,D4:22:CD:00:A1:93_gyro_x,D4:22:CD:00:A1:93_gyro_y,D4:22:CD:00:A1:93_gyro_z,D4:22:CD:00:A1:93_quat_w,D4:22:CD:00:A1:93_quat_x,D4:22:CD:00:A1:93_quat_y,D4:22:CD:00:A1:93_quat_z
4994276,0.09355927258729935,0.19661836326122284,0.161868155002594,-0.26108938455581665,0.09736345708370209,-0.2513555586338043,0.6457844972610474,-0.3077729046344757,-0.6380493640899658,-0.28483521938323975,-0.195868581533432,0.0882241278886795,0.0193089097738266,-0.046531204134225845,-0.0483737513422966,-0.3730051815509796,0.3708726763725281,-0.6506055593490601,-0.5486077070236206,-0.37174656987190247
4994443,9.831862449645996,-0.45996537804603577,0.01422377023845911,0.03326449543237686,1.37010657787323,0.11833708733320236,0.6460259556770325,-0.30787694454193115,-0.6378626227378845,-0.2845936417579651,8.699270248413086,-0.6573440432548523,-4.344679355621338,0.10404518991708755,1.8308663368225098,1.172146201133728,0.37095025181770325,-0.6507970094680786,-0.5481098294258118,-0.3720683753490448
4994609,9.787764549255371,-0.4433540403842926,0.0832427367568016,0.8193438649177551,1.0741389989852905,0.7626374363899231,0.6468900442123413,-0.30836501717567444,-0.6371347904205322,-0.2837315499782562,8.59376049041748,-0.6633330583572388,-4.328834533691406,-0.31709805130958557,2.3352572917938232,1.1909840106964111,0.3708922863006592,-0.6504558324813843,-0.5480232834815979,-0.37284931540489197
4994776,9.83163070678711,-0.4025643765926361,0.08711397647857666,-0.15139664709568024,0.7171876430511475,0.7721908092498779,0.6476776003837585,-0.3092848062515259,-0.635874330997467,-0.283761590719223,8.527706146240234,-0.7218607068061829,-4.305800914764404,0.018959801644086838,1.9208821058273315,1.3580429553985596,0.3708168566226959,-0.6501288414001465,-0.5481948852539062,-0.37324225902557373
4994943,9.800119400024414,-0.47011831402778625,0.04811106622219086,-0.5538618564605713,0.8110069632530212,0.7442090511322021,0.6483219861984253,-0.309746652841568,-0.6348971128463745,-0.2839743494987488,8.548572540283203,-0.7706942558288574,-4.318059921264648,0.570349931716919,1.3052294254302979,1.258473515510559,0.3709338307380676,-0.6500277519226074,-0.5482802391052246,-0.37317660450935364
4995109,9.746126174926758,-0.4743344485759735,0.037398453801870346,0.47103673219680786,0.2525988221168518,0.9396466612815857,0.64879310131073,-0.3101160228252411,-0.6342837810516357,-0.2838655114173889,8.614825248718262,-0.7992173433303833,-4.328190803527832,1.2910656929016113,0.876152753829956,1.08229660987854,0.37120768427848816,-0.6500873565673828,-0.5482437014579773,-0.37285420298576355
4995276,9.767952919006348,-0.46807870268821716,-0.0007295731920748949,0.6653602719306946,0.35891714692115784,1.0418797731399536,0.6490291953086853,-0.3106977641582489,-0.6337270736694336,-0.28393298387527466,8.669596672058105,-0.7887845635414124,-4.328097820281982,1.9988856315612793,0.7440298199653625,0.830639123916626,0.3715895116329193,-0.6501956582069397,-0.5481073260307312,-0.37248551845550537
4995443,9.758036613464355,-0.4553472101688385,0.010674234479665756,1.0000287294387817,0.8013893961906433,0.9563334584236145,0.6492366790771484,-0.3110637068748474,-0.6333747506141663,-0.2838444709777832,8.666162490844727,-0.7390386462211609,-4.312229156494141,2.27787184715271,0.8069857954978943,0.5021049976348877,0.3720313608646393,-0.6502069234848022,-0.5480111837387085,-0.3721657395362854
4995609,9.769861221313477,-0.44768083095550537,0.021611401811242104,0.635956883430481,0.6255837678909302,0.8815442323684692,0.6493777632713318,-0.3113260865211487,-0.6331571936607361,-0.2837195098400116,8.685338973999023,-0.6912961006164551,-4.322757244110107,1.8963704109191895,0.09057290107011795,0.30811434984207153,0.37239736318588257,-0.6501109600067139,-0.5480901598930359,-0.3718513250350952
4995776,9.83193302154541,-0.47178614139556885,0.016622774302959442,0.2514078617095947,0.533173143863678,0.7596918344497681,0.6493520140647888,-0.3117959201335907,-0.6328727602958679,-0.2838971018791199,8.626087188720703,-0.7085201740264893,-4.3612542152404785,1.6904447078704834,0.29365602135658264,0.5952584147453308,0.3726266920566559,-0.6501123905181885,-0.548016369342804,-0.37172770500183105
4995943,9.84371566772461,-0.4577608108520508,0.013561375439167023,0.7167137861251831,0.21885409951210022,0.7699112892150879,0.6494090557098389,-0.31197288632392883,-0.632782518863678,-0.2837733030319214,8.648014068603516,-0.6165565252304077,-4.309274196624756,0.9487007856369019,-0.4371447265148163,0.7226559519767761,0.37270060181617737,-0.6501690149307251,-0.5480097532272339,-0.37156426906585693
4996109,9.811959266662598,-0.4405798017978668,0.03761986643075943,1.2720611095428467,0.16514427959918976,0.9038913249969482,0.649405837059021,-0.3122454285621643,-0.6326583027839661,-0.28375759720802307,8.577386856079102,-0.6547120809555054,-4.302493095397949,-0.1299460381269455,-0.6424689888954163,0.8694806694984436,0.37255823612213135,-0.6503475904464722,-0.5478822588920593,-0.3715825378894806
4996276,9.83289909362793,-0.42695900797843933,0.01931885816156864,0.49981260299682617,-0.5126381516456604,0.8564822673797607,0.6493063569068909,-0.3125738203525543,-0.6325812339782715,-0.2837955951690674,8.611172676086426,-0.7296310067176819,-4.32649564743042,-0.775783121585846,-1.1626372337341309,1.0636378526687622,0.3723699450492859,-0.6504989862442017,-0.547859251499176,-0.3715398907661438
4996443,9.89417839050293,-0.43326467275619507,-0.021761221811175346,0.22653792798519135,-0.4537161886692047,0.5087386965751648,0.649259626865387,-0.31268510222435,-0.6326080560684204,-0.2837201654911041,8.57640552520752,-0.7559111714363098,-4.317273139953613,-0.5838159322738647,-1.5799577236175537,1.1996667385101318,0.37218648195266724,-0.6506818532943726,-0.547849178314209,-0.3714185357093811
4996609,9.789280891418457,-0.4672068655490875,-0.030391426756978035,0.9417470097541809,-0.14792615175247192,0.39362239837646484,0.6492080092430115,-0.3127952218055725,-0.6326110363006592,-0.2837100625038147,8.582878112792969,-0.7416365146636963,-4.326811790466309,-0.5562950372695923,-1.8373783826828003,0.9774127006530762,0.37196269631385803,-0.6509096026420593,-0.5478177666664124,-0.37129002809524536
4996776,9.762943267822266,-0.4277947247028351,0.012728646397590637,0.6032239198684692,-0.6086218357086182,0.5840911865234375,0.6491210460662842,-0.3129279315471649,-0.6326680779457092,-0.28363579511642456,8.594893455505371,-0.7322942614555359,-4.348629951477051,-0.6065471768379211,-1.9710893630981445,0.6322687268257141,0.3717197775840759,-0.6511147022247314,-0.5478309392929077,-0.37115439772605896
4996943,9.790196418762207,-0.44753411412239075,-0.03727242723107338,0.11227968335151672,-0.8043156862258911,0.41984981298446655,0.6489590406417847,-0.3131546080112457,-0.6326977014541626,-0.2836902439594269,8.605873107910156,-0.737793505191803,-4.373326778411865,-0.591397225856781,-2.055649757385254,0.28501173853874207,0.3714229464530945,-0.6513464450836182,-0.5478249192237854,-0.37105366587638855
4997109,9.77616024017334,-0.44520169496536255,0.006880503613501787,0.23068715631961823,-0.5472921133041382,0.17145779728889465,0.6488243341445923,-0.3133046329021454,-0.6327409744262695,-0.2837362587451935,8.673227310180664,-0.7562568783760071,-4.391744613647461,-0.5339223146438599,-1.9774155616760254,0.3276568651199341,0.37117165327072144,-0.6515334844589233,-0.5478664636611938,-0.37091538310050964
4997276,9.772721290588379,-0.4379673898220062,-0.005202585831284523,-0.1634986698627472,-0.935401439666748,0.15728119015693665,0.6486790180206299,-0.31341391801834106,-0.6328449845314026,-0.2837153375148773,8.69660472869873,-0.7421740889549255,-4.415151119232178,-0.2815220057964325,-1.602945327758789,0.6211528182029724,0.3710049092769623,-0.6516995429992676,-0.5478842258453369,-0.3707640469074249
4997443,9.802992820739746,-0.46912652254104614,0.010960963554680347,0.3981430232524872,-0.9457361698150635,0.2177015244960785,0.6485522985458374,-0.3134962022304535,-0.6329571008682251,-0.28366437554359436,8.715957641601562,-0.7220082879066467,-4.395060062408447,-0.2703932821750641,-1.0470983982086182,0.7829098105430603,0.3709491789340973,-0.6517676711082458,-0.54795241355896,-0.37059950828552246
4997609,9.81920051574707,-0.44456806778907776,0.04893310368061066,0.28489646315574646,-0.9664952754974365,0.30883151292800903,0.6484367847442627,-0.3135789632797241,-0.6330657601356506,-0.28359436988830566,8.680424690246582,-0.7165062427520752,-4.395949363708496,-0.49169978499412537,-0.7488128542900085,0.6018151640892029,0.37086424231529236,-0.6518504619598389,-0.547964334487915,-0.37052103877067566
4997776,9.824326515197754,-0.47164350748062134,0.03052516281604767,-0.05937023460865021,-0.9171138405799866,0.08100656419992447,0.6482862234115601,-0.31371697783470154,-0.63313227891922,-0.28363773226737976,8.613541603088379,-0.724791407585144,-4.38530158996582,-0.7166177034378052,-0.4169747233390808,0.4123452305793762,0.37074434757232666,-0.6519556045532227,-0.5479105710983276,-0.3705354928970337
4997943,9.856413841247559,-0.4587363302707672,0.040859490633010864,0.09120042622089386,-0.8680784702301025,0.1336791068315506,0.6481807827949524,-0.31378650665283203,-0.6332194209098816,-0.2836070656776428,8.5953369140625,-0.7366217970848083,-4.400853157043457,-0.7726070284843445,-0.6564534306526184,0.14526882767677307,0.3705838918685913,-0.6520586609840393,-0.5478886961936951,-0.37054699659347534
4998109,9.844557762145996,-0.45057040452957153,0.011595645919442177,0.045750685036182404,-1.0438071489334106,0.07423200458288193,0.6480327844619751,-0.3139210045337677,-0.6332879066467285,-0.2836434245109558,8.583769798278809,-0.7209870219230652,-4.403000354766846,-0.7113799452781677,-0.7365955710411072,0.14032557606697083,0.3704695701599121,-0.6520956158638,-0.5479570627212524,-0.3704952001571655
4998276,9.821975708007812,-0.43909573554992676,-0.003735864534974098,0.3845810890197754,-1.0263649225234985,0.015732603147625923,0.6479241847991943,-0.31396499276161194,-0.6333949565887451,-0.28360408544540405,8.57663345336914,-0.7164069414138794,-4.412713050842285,-0.6433525681495667,-0.9502310752868652,0.011813856661319733,0.3702893555164337,-0.6522008180618286,-0.5479713082313538,-0.37046924233436584
4998443,9.81990909576416,-0.4453114867210388,-0.04142441600561142,0.5130800008773804,-1.0523360967636108,0.016091177240014076,0.6478297710418701,-0.3139725923538208,-0.6335213780403137,-0.2835286855697632,8.579228401184082,-0.7017918229103088,-4.404341697692871,-0.4694807827472687,-1.011919379234314,0.02353166975080967,0.37016528844833374,-0.6522347331047058,-0.5480785965919495,-0.37037473917007446
4998609,9.810256004333496,-0.44551882147789,-0.05388844758272171,0.5509355664253235,-0.8723685145378113,0.09547773748636246,0.6477044820785522,-0.31408998370170593,-0.6335750222206116,-0.28356534242630005,8.607659339904785,-0.716251790523529,-4.429086685180664,-0.3261776864528656,-1.1060972213745117,0.2717571556568146,0.37004193663597107,-0.6523115038871765,-0.548145592212677,-0.37026363611221313
4998776,9.794598579406738,-0.443572998046875,-0.06556078791618347,0.550935685634613,-0.7270293831825256,-0.05934462696313858,0.6476216912269592,-0.3141031861305237,-0.6336661577224731,-0.28353574872016907,8.623908996582031,-0.7223973870277405,-4.422451019287109,-0.0687444806098938,-0.792712926864624,0.5278456807136536,0.36995309591293335,-0.6524204015731812,-0.5481358766555786,-0.3701748847961426
4998943,9.79380989074707,-0.4500986933708191,-0.06305120885372162,0.5934655070304871,-0.6006050109863281,0.13045190274715424,0.6475688219070435,-0.3141014873981476,-0.6337528228759766,-0.2834647297859192,8.657708168029785,-0.7004395127296448,-4.4285783767700195,0.043291863054037094,-0.4086250066757202,0.6777696013450623,0.36993247270584106,-0.6524881720542908,-0.5481281876564026,-0.37008753418922424
4999109,9.811084747314453,-0.44426149129867554,-0.02807680331170559,0.5797369480133057,-0.4473513960838318,0.21785521507263184,0.6475298404693604,-0.3141079545021057,-0.6338198184967041,-0.28339701890945435,8.640894889831543,-0.6965126991271973,-4.42724084854126,0.100728340446949,-0.13048389554023743,0.5590419769287109,0.369927316904068,-0.6525360941886902,-0.548109233379364,-0.37003612518310547
4999276,9.8126802444458,-0.4492325782775879,-0.0071591464802622795,0.44583389163017273,-0.18170931935310364,0.3374025225639343,0.647493302822113,-0.3141748607158661,-0.6338260173797607,-0.28339216113090515,8.632291793823242,-0.7299861311912537,-4.436263561248779,0.3170660436153412,0.2867918014526367,0.5638956427574158,0.3699914813041687,-0.65252685546875,-0.5481062531471252,-0.36999285221099854
4999443,9.802145004272461,-0.46816486120224,0.003637002781033516,0.496995210647583,-0.23290908336639404,0.31415894627571106,0.6474606394767761,-0.31422507762908936,-0.6338437795639038,-0.2833717167377472,8.62331771850586,-0.7269369959831238,-4.434037685394287,0.6740429997444153,0.32261115312576294,0.453095018863678,0.37002336978912354,-0.6525829434394836,-0.5480172634124756,-0.3699936270713806
4999609,9.815855979919434,-0.449622243642807,0.009040651842951775,0.7656340003013611,-0.16969692707061768,0.28060629963874817,0.6474559903144836,-0.3142247796058655,-0.6338750720024109,-0.28331243991851807,8.603729248046875,-0.6957189440727234,-4.411242485046387,0.6606091856956482,0.41832587122917175,0.5237605571746826,0.370114266872406,-0.6525693535804749,-0.548000156879425,-0.3699519634246826
4999776,9.81968879699707,-0.45205238461494446,0.0037779430858790874,0.7744959592819214,-0.2820086181163788,0.5226591229438782,0.6474515199661255,-0.3142542541027069,-0.633901834487915,-0.2832300662994385,8.55704116821289,-0.7257311940193176,-4.3990864753723145,0.6800619959831238,0.058582644909620285,0.7113222479820251,0.3701617419719696,-0.6526275277137756,-0.5479393601417542,-0.36989209055900574
4999943,9.801223754882812,-0.4182634651660919,-0.03407901152968407,0.7943458557128906,-0.2635674774646759,0.5444939136505127,0.6474652290344238,-0.314253568649292,-0.633939266204834,-0.28311586380004883,8.505064010620117,-0.6918354630470276,-4.447142601013184,1.0601671934127808,-0.42783451080322266,1.043186068534851,0.3702457547187805,-0.6526878476142883,-0.5479292273521423,-0.3697166442871094
5000109,9.837910652160645,-0.4042723476886749,-0.03491451218724251,0.33262571692466736,-0.36326488852500916,0.46326330304145813,0.6474279165267944,-0.3143293857574463,-0.6339526772499084,-0.28308698534965515,8.649578094482422,-0.6860286593437195,-4.451905250549316,0.733925461769104,-0.9249257445335388,1.111546277999878,0.37027010321617126,-0.6527836322784424,-0.5479418635368347,-0.36950409412384033
5000276,9.85977840423584,-0.4745807349681854,-0.1028873547911644,0.1560005396604538,-0.4977059066295624,0.5431749224662781,0.6473929286003113,-0.3143877387046814,-0.6339911818504333,-0.28301602602005005,8.600292205810547,-0.597552478313446,-4.418326377868652,0.32663238048553467,-0.48110899329185486,1.093630313873291,0.37030982971191406,-0.6528449058532715,-0.5479474067687988,-0.36934787034988403
5000443,9.812300682067871,-0.44661322236061096,-0.1165580078959465,0.8779584765434265,0.04495668783783913,0.861476719379425,0.6474460959434509,-0.31440094113349915,-0.6339887976646423,-0.2828851342201233,8.629611015319824,-0.6371971964836121,-4.419934272766113,-0.7377482056617737,-0.422046035528183,0.6973505616188049,0.37021690607070923,-0.6529436111450195,-0.5479117631912231,-0.3693194091320038
5000610,9.828039169311523,-0.35946911573410034,-0.010446151718497276,0.42780250310897827,0.5650737881660461,0.6673964858055115,0.6475130319595337,-0.31442537903785706,-0.6339266896247864,-0.2828438878059387,8.667895317077637,-0.7148023843765259,-4.4278693199157715,-0.864915132522583,0.015585326589643955,0.7686882019042969,0.3701408803462982,-0.6530418395996094,-0.547825276851654,-0.3693503141403198
5000776,9.827631950378418,-0.3693321943283081,-0.05353108048439026,-1.0371222496032715,0.23743613064289093,-0.12723109126091003,0.6474593877792358,-0.31450366973876953,-0.6338819861412048,-0.2829797863960266,8.706917762756348,-0.7280978560447693,-4.411161422729492,-0.4413580894470215,0.48695507645606995,1.0655587911605835,0.3701668083667755,-0.6531052589416504,-0.5477184653282166,-0.3693705201148987
5000943,9.853958129882812,-0.488533616065979,-0.03693721443414688,0.37323465943336487,0.9859544634819031,0.18881040811538696,0.647502064704895,-0.314555287361145,-0.6337570548057556,-0.28310447931289673,8.709186553955078,-0.6971396207809448,-4.381568431854248,-0.20606696605682373,1.4430450201034546,1.227206826210022,0.37027937173843384,-0.653150737285614,-0.5475149750709534,-0.3694787323474884
5001110,9.814275741577148,-0.395272821187973,0.08525586873292923,1.0432502031326294,0.6345226764678955,0.7390352487564087,0.6475834250450134,-0.3145727813243866,-0.6336852312088013,-0.2830598056316376,8.6476411819458,-0.7390556931495667,-4.369569778442383,-0.14622290432453156,2.123965263366699,1.394733190536499,0.37048909068107605,-0.6531291604042053,-0.5473073720932007,-0.3696144223213196
5001276,9.845943450927734,-0.40016108751296997,0.05215460807085037,-0.13252009451389313,0.4285580515861511,0.7731641530990601,0.647611141204834,-0.31467702984809875,-0.6335960626602173,-0.28308025002479553,8.556028366088867,-0.756538987159729,-4.394531726837158,0.3238790035247803,2.222074508666992,1.404312252998352,0.3707437813282013,-0.6530926823616028,-0.5470983386039734,-0.36973273754119873
5001443,9.786958694458008,-0.47927021980285645,0.05379882827401161,-0.2645535469055176,0.42338430881500244,0.7857911586761475,0.647652804851532,-0.3147520124912262,-0.6335198283195496,-0.2830716073513031,8.539422988891602,-0.8098149299621582,-4.377768516540527,1.0257309675216675,1.7933562994003296,1.3222620487213135,0.3710271418094635,-0.6530366539955139,-0.5469562411308289,-0.3697579801082611
5001610,9.812824249267578,-0.4800158441066742,0.021696103736758232,0.11927194148302078,-0.13970448076725006,0.9900396466255188,0.6476790904998779,-0.314815491437912,-0.6335095167160034,-0.28296443819999695,8.559956550598145,-0.8023112416267395,-4.3593597412109375,1.923763394355774,1.2986854314804077,1.2524545192718506,0.3713664710521698,-0.6529377698898315,-0.5469141006469727,-0.3696543276309967
5001776,9.801631927490234,-0.4719448983669281,-0.009198344312608242,0.7335413098335266,0.17226460576057434,1.174002766609192,0.6477577090263367,-0.31485605239868164,-0.6334698796272278,-0.282828152179718,8.619464874267578,-0.7868617177009583,-4.349417686462402,2.5034430027008057,0.9788340926170349,1.104490041732788,0.37172016501426697,-0.6528275609016418,-0.5469163060188293,-0.36949020624160767
5001943,9.778339385986328,-0.46386900544166565,0.015712181106209755,0.9108708500862122,0.48673737049102783,1.201177954673767,0.6478670239448547,-0.3148877024650574,-0.6333973407745361,-0.2827048599720001,8.658352851867676,-0.7387887835502625,-4.3728156089782715,2.6954355239868164,0.9260847568511963,0.76772141456604,0.37205198407173157,-0.6527124643325806,-0.5469269156455994,-0.36934393644332886
5002110,9.796014785766602,-0.46838080883026123,-0.03545232117176056,0.31130313873291016,0.5544061064720154,1.3774445056915283,0.6479418873786926,-0.3150372803211212,-0.63326096534729,-0.2826722264289856,8.616595268249512,-0.7221617698669434,-4.367790699005127,2.3985204696655273,0.7254733443260193,0.6971456408500671,0.3723567724227905,-0.6525874733924866,-0.5469749569892883,-0.3691862225532532
5002276,9.809877395629883,-0.4911938011646271,-0.02985050342977047,0.6745041012763977,0.5128494501113892,1.2316187620162964,0.6480306386947632,-0.31512460112571716,-0.6331585645675659,-0.2826003134250641,8.693442344665527,-0.7442197203636169,-4.3592424392700195,1.8710782527923584,0.9316172003746033,0.864588737487793,0.3726411759853363,-0.6524866819381714,-0.5469750761985779,-0.3690774440765381
5002443,9.839117050170898,-0.4601343274116516,0.005482513457536697,1.1078197956085205,0.6439225077629089,1.1873087882995605,0.6481794714927673,-0.3150952458381653,-0.6330973505973816,-0.282429039478302,8.61473560333252,-0.6783807277679443,-4.334467887878418,1.7018424272537231,0.5017592310905457,1.1125837564468384,0.3728611469268799,-0.6524791121482849,-0.5469150543212891,-0.3689577281475067
5002610,9.828457832336426,-0.4615429639816284,0.007590525783598423,1.0745487213134766,0.36792001128196716,1.167382001876831,0.6482870578765869,-0.3151092827320099,-0.6330457329750061,-0.2822819948196411,8.608490943908691,-0.6603180766105652,-4.339852333068848,0.42794331908226013,0.5148216485977173,0.9016245603561401,0.37296199798583984,-0.6525028944015503,-0.5468289256095886,-0.3689410388469696
5002776,9.793353080749512,-0.43824830651283264,0.036587800830602646,0.9188747406005859,0.29475733637809753,1.3206355571746826,0.6483862996101379,-0.31515735387802124,-0.6329860687255859,-0.28213420510292053,8.60807991027832,-0.7136583924293518,-4.338661193847656,-0.4851941168308258,0.20308947563171387,0.9779248237609863,0.3730148673057556,-0.6525077819824219,-0.5468121767044067,-0.3689039647579193
5002943,9.883700370788574,-0.41893479228019714,0.02276613563299179,0.04814546927809715,0.13924984633922577,0.8227887153625488,0.6484184861183167,-0.31523147225379944,-0.6329354047775269,-0.2820911705493927,8.589706420898438,-0.7878188490867615,-4.342291355133057,-0.4693911075592041,-0.012806348502635956,1.0199040174484253,0.3730034828186035,-0.6526015400886536,-0.5467139482498169,-0.36889514327049255
5003110,9.830294609069824,-0.46626612544059753,0.009974285960197449,0.5309191942214966,0.3793048560619354,0.5371302962303162,0.6484429240226746,-0.3153132200241089,-0.6328498721122742,-0.2821354866027832,8.605345726013184,-0.7883530855178833,-4.35500431060791,-0.4119546413421631,-0.33400240540504456,1.0588994026184082,0.37294477224349976,-0.652758002281189,-0.5465778708457947,-0.368879497051239
5003276,9.736210823059082,-0.45690351724624634,0.0328923724591732,0.8229039907455444,0.20631666481494904,0.9072721600532532,0.6485201120376587,-0.3153190016746521,-0.6328200697898865,-0.2820185124874115,8.60016918182373,-0.7640793323516846,-4.334628105163574,-0.509244441986084,-0.5798587203025818,0.8459298014640808,0.3728944957256317,-0.6528450846672058,-0.5465545654296875,-0.3688106834888458
5003443,9.823280334472656,-0.4361433684825897,-0.024590136483311653,0.14827831089496613,-0.4087018072605133,0.6036977171897888,0.6484785079956055,-0.3154287338256836,-0.6328122615814209,-0.28200897574424744,8.603166580200195,-0.7720467448234558,-4.356443881988525,-0.5154427886009216,-0.818300187587738,0.6287342309951782,0.37279951572418213,-0.652948796749115,-0.5465389490127563,-0.3687460422515869
5003776,9.792635917663574,-0.479594349861145,0.01185150071978569,0.03181737661361694,-0.21843789517879486,0.41502174735069275,0.6484043002128601,-0.3156411945819855,-0.6327440738677979,-0.2820949852466583,8.621621131896973,-0.7701058387756348,-4.371374607086182,-0.39099064469337463,-0.8843424320220947,0.5120682716369629,0.37271884083747864,-0.6530202627182007,-0.5465682148933411,-0.3686576783657074
5003943,9.80688190460205,-0.48171520233154297,0.0035011954605579376,0.062386129051446915,-0.47047966718673706,0.3805214762687683,0.648348331451416,-0.31572970747947693,-0.6327547430992126,-0.2821005582809448,8.643158912658691,-0.7722074389457703,-4.371238708496094,-0.30900436639785767,-0.886173665523529,0.5442505478858948,0.3726218044757843,-0.6531283259391785,-0.5465527772903442,-0.36858710646629333
5004110,9.800374031066895,-0.45228293538093567,0.010549811646342278,0.261038213968277,-0.3166753947734833,0.293835312128067,0.6483157277107239,-0.31577733159065247,-0.6327669024467468,-0.2820947468280792,8.642826080322266,-0.7663170099258423,-4.373310565948486,-0.32196444272994995,-0.84279865026474,0.5624100565910339,0.3725418448448181,-0.653216540813446,-0.5465558767318726,-0.3685072064399719
5004276,9.820099830627441,-0.4702501595020294,0.0008085162844508886,0.38412001729011536,-0.361407995223999,0.26694193482398987,0.6482818126678467,-0.3158165514469147,-0.6327874064445496,-0.282082736492157,8.639058113098145,-0.7535485625267029,-4.386112213134766,-0.2566264271736145,-0.651125967502594,0.6106003522872925,0.37246328592300415,-0.6533282399177551,-0.5465070009231567,-0.36846107244491577
5004443,9.823695182800293,-0.4857848584651947,0.02376747317612171,0.4236276149749756,-0.5425922274589539,0.2729737460613251,0.6482438445091248,-0.31583642959594727,-0.6328381299972534,-0.2820340692996979,8.644486427307129,-0.746704638004303,-4.377735614776611,-0.23252488672733307,-0.5375208854675293,0.5202130675315857,0.37238895893096924,-0.653428852558136,-0.5464573502540588,-0.36843129992485046
5004610,9.839079856872559,-0.4857705533504486,0.006605254951864481,0.6421423554420471,-0.3922712802886963,0.23519501090049744,0.6482117176055908,-0.31586402654647827,-0.6328659057617188,-0.28201454877853394,8.631566047668457,-0.7528131008148193,-4.381905555725098,-0.17731672525405884,-0.3459891676902771,0.5957705974578857,0.37236717343330383,-0.6534804701805115,-0.5464429259300232,-0.3683831989765167
5004776,9.814865112304688,-0.4834134876728058,0.04706628620624542,0.5163072347640991,-0.4552913308143616,0.2568761706352234,0.6481994390487671,-0.31584012508392334,-0.6329273581504822,-0.28193193674087524,8.628643989562988,-0.7619825005531311,-4.385799884796143,-0.19802461564540863,-0.32442325353622437,0.6845186352729797,0.37234604358673096,-0.653544545173645,-0.5464112162590027,-0.368338018655777
5004943,9.805388450622559,-0.4776167869567871,0.02923191897571087,0.46736130118370056,-0.49104663729667664,0.3007506728172302,0.6481695175170898,-0.3158588409423828,-0.6329709887504578,-0.2818816900253296,8.62086296081543,-0.7592002153396606,-4.39210844039917,-0.07816994935274124,-0.12930570542812347,0.6142116785049438,0.3723343312740326,-0.6536065340042114,-0.546357274055481,-0.3683197498321533
5005110,9.81333065032959,-0.4781174659729004,0.013918599113821983,0.5026171803474426,-0.34920352697372437,0.338094025850296,0.6481744647026062,-0.3158307373523712,-0.6330209970474243,-0.2817893326282501,8.590707778930664,-0.7651081085205078,-4.377199172973633,-0.004392578266561031,-0.18964923918247223,0.5296386480331421,0.372336745262146,-0.6536365747451782,-0.5463480949401855,-0.3682776093482971
5005276,9.807877540588379,-0.47425541281700134,0.0014593187952414155,0.44674310088157654,-0.4357360303401947,0.35352566838264465,0.6481674313545227,-0.3158179819583893,-0.6330734491348267,-0.2817021310329437,8.601812362670898,-0.7602587342262268,-4.4054975509643555,0.038284581154584885,-0.3658005893230438,0.5544957518577576,0.3723284900188446,-0.6536790132522583,-0.5463445782661438,-0.36821597814559937
5005443,9.821516990661621,-0.47673705220222473,0.006090281065553427,0.5133489370346069,-0.47129929065704346,0.3940577507019043,0.6481450796127319,-0.315841943025589,-0.6331110596656799,-0.2816421389579773,8.626641273498535,-0.7494729161262512,-4.4060235023498535,0.17838603258132935,-0.3288286328315735,0.5741918683052063,0.37231841683387756,-0.653741717338562,-0.5463109612464905,-0.36816465854644775
5005610,9.826380729675293,-0.4758608639240265,-7.867655949667096e-05,0.5001839995384216,-0.26464319229125977,0.4072226583957672,0.6481495499610901,-0.31584233045578003,-0.6331366300582886,-0.28157374262809753,8.624878883361816,-0.750209629535675,-4.383800506591797,0.3123020529747009,-0.22390620410442352,0.5490275025367737,0.37235021591186523,-0.6537559628486633,-0.5463218688964844,-0.3680911064147949
5005776,9.809601783752441,-0.47262805700302124,0.0021782242693006992,0.45715460181236267,-0.20668165385723114,0.49109145998954773,0.6481562852859497,-0.31586241722106934,-0.6331459879875183,-0.2815147042274475,8.630196571350098,-0.7469338774681091,-4.405694484710693,0.18437941372394562,-0.13907694816589355,0.4507514536380768,0.37239140272140503,-0.6537346243858337,-0.5463665127754211,-0.3680208623409271
5005943,9.816117286682129,-0.45829811692237854,0.011515387333929539,0.486391544342041,-0.1739230453968048,0.48244720697402954,0.6481608748435974,-0.3158915936946869,-0.6331466436386108,-0.2814698815345764,8.61793327331543,-0.7598653435707092,-4.385202407836914,0.36789441108703613,0.021239329129457474,0.42458808422088623,0.3724548816680908,-0.6537021994590759,-0.5464034676551819,-0.36795923113822937
5006110,9.805929183959961,-0.48859676718711853,0.004923372995108366,0.7154843211174011,-0.15975920855998993,0.4845346510410309,0.6481677293777466,-0.31592053174972534,-0.633144199848175,-0.2814273536205292,8.600006103515625,-0.7531135082244873,-4.388070583343506,0.3613247871398926,0.004629495553672314,0.5148985385894775,0.37252965569496155,-0.6536653637886047,-0.5464479327201843,-0.36788302659988403
5006276,9.794451713562012,-0.4762340486049652,0.0018628218676894903,0.6856710910797119,-0.22543016076087952,0.5423424243927002,0.6481786370277405,-0.3159399926662445,-0.6331540942192078,-0.2813582420349121,8.567977905273438,-0.7433719038963318,-4.380471229553223,0.2537001967430115,-0.11539801955223083,0.5839247107505798,0.3725712299346924,-0.6536714434623718,-0.5464562773704529,-0.3678176701068878
5006443,9.804030418395996,-0.45685875415802,-0.006870624143630266,0.6730440855026245,-0.28614503145217896,0.5216858386993408,0.6481930613517761,-0.3159373700618744,-0.6331819891929626,-0.2812651991844177,8.58137321472168,-0.7689380645751953,-4.397629737854004,0.09874334931373596,-0.36774715781211853,0.6474826335906982,0.3725384771823883,-0.6537678837776184,-0.5463881492614746,-0.36778074502944946
5006610,9.828093528747559,-0.43111512064933777,-0.0010730262147262692,0.23926742374897003,-0.3582320213317871,0.23468273878097534,0.6481660604476929,-0.315958708524704,-0.6332087516784668,-0.2812431752681732,8.545997619628906,-0.7363339066505432,-4.411849498748779,0.5587859153747559,-0.7309480905532837,0.8797770738601685,0.37256118655204773,-0.6538353562355042,-0.5463926792144775,-0.36763107776641846
5006776,9.838343620300293,-0.5239465236663818,-0.07838698476552963,0.053114332258701324,-0.37498268485069275,0.479155957698822,0.6481475234031677,-0.31600046157836914,-0.6332281827926636,-0.28119492530822754,8.693603515625,-0.747954785823822,-4.430487155914307,0.42812272906303406,-0.8934093713760376,1.0125277042388916,0.372568815946579,-0.6539232134819031,-0.5463942885398865,-0.3674648702144623
5006943,9.814273834228516,-0.47659391164779663,-0.04870716109871864,0.8716321587562561,0.0876658633351326,0.608948290348053,0.6482018828392029,-0.315986305475235,-0.6332183480262756,-0.2811077833175659,8.669909477233887,-0.6490492820739746,-4.395430564880371,0.09377449005842209,-0.19091704487800598,0.6545005440711975,0.3725948631763458,-0.6539422273635864,-0.5463988780975342,-0.367397665977478
5007110,9.834641456604004,-0.39814630150794983,0.050270747393369675,0.18111377954483032,0.48030850291252136,0.38532382249832153,0.6482315063476562,-0.31604498624801636,-0.6331316828727722,-0.28116869926452637,8.614717483520508,-0.6965283155441284,-4.399357318878174,-0.8452703952789307,-0.08213993161916733,0.1680385172367096,0.3725306987762451,-0.653940737247467,-0.5464257001876831,-0.3674253225326538
5007276,9.805373191833496,-0.3944500684738159,0.0126884113997221,-1.289778709411621,0.05191053822636604,-0.38451066613197327,0.6481285095214844,-0.3161748945713043,-0.6330670118331909,-0.28140589594841003,8.631558418273926,-0.7428908944129944,-4.368843078613281,-1.0174646377563477,0.262818306684494,0.24113719165325165,0.37246859073638916,-0.6539539098739624,-0.5463961362838745,-0.3675087094306946
5007443,9.858407974243164,-0.5218435525894165,-0.0016236467054113746,0.14272035658359528,0.46205946803092957,-0.15010321140289307,0.6481747031211853,-0.31609171628952026,-0.6330526471138,-0.28142502903938293,8.65467357635498,-0.7257246971130371,-4.383044242858887,-0.8736363053321838,0.23438821732997894,0.5037569999694824,0.3723967671394348,-0.6540336012840271,-0.5462881326675415,-0.36760032176971436
5007610,9.831962585449219,-0.42622309923171997,0.05561717599630356,0.7008466720581055,-0.04439961165189743,0.22277285158634186,0.6481850147247314,-0.3160802721977234,-0.6330569982528687,-0.28140467405319214,8.698748588562012,-0.7119395732879639,-4.364912509918213,-0.9371815919876099,1.045081377029419,0.8399365544319153,0.3724243640899658,-0.6540650129318237,-0.5461426973342896,-0.3677329123020172
5007776,9.816184997558594,-0.4194033443927765,0.040564630180597305,-0.4547406733036041,0.09861529618501663,0.22583356499671936,0.6481568217277527,-0.3161686062812805,-0.633001446723938,-0.2814949154853821,8.620864868164062,-0.7498201727867126,-4.369491100311279,-1.0113813877105713,1.398037075996399,1.0891478061676025,0.37246575951576233,-0.6541312336921692,-0.5459134578704834,-0.3679134249687195
5007943,9.763700485229492,-0.47469475865364075,0.05901427939534187,-0.7154651284217834,-0.20647674798965454,0.29894500970840454,0.6480912566184998,-0.31630122661590576,-0.6329598426818848,-0.28159040212631226,8.565311431884766,-0.7969781160354614,-4.3841352462768555,-0.5806142091751099,1.4013794660568237,1.088008165359497,0.3725879192352295,-0.6541147232055664,-0.5457778573036194,-0.36802005767822266
5008110,9.81344985961914,-0.51481693983078,-0.01153954491019249,-0.43631231784820557,-0.7706989645957947,0.44126203656196594,0.6479990482330322,-0.31642985343933105,-0.6329826712608337,-0.28160715103149414,8.560173034667969,-0.8287973403930664,-4.368743896484375,0.14324542880058289,1.0372182130813599,1.0738699436187744,0.37268319725990295,-0.6541756987571716,-0.5455840229988098,-0.36810246109962463
5008276,9.813958168029785,-0.49774956703186035,-0.01605774275958538,0.6844289302825928,-0.24986468255519867,0.5242087244987488,0.6479927897453308,-0.3164777457714081,-0.6329789757728577,-0.2815757393836975,8.58333683013916,-0.8474321365356445,-4.377547740936279,1.1470199823379517,0.8087145686149597,0.8696344494819641,0.37288832664489746,-0.6541151404380798,-0.5455520153045654,-0.3680500388145447
5008443,9.782857894897461,-0.4727467894554138,0.04111520200967789,0.759640634059906,-0.06144486367702484,0.6380956172943115,0.6480410099029541,-0.3164559304714203,-0.632988452911377,-0.28146812319755554,8.620071411132812,-0.8144330978393555,-4.39703369140625,2.057833194732666,0.5297282934188843,0.6474570631980896,0.3731553256511688,-0.6539895534515381,-0.5456203818321228,-0.367901086807251
5008610,9.797314643859863,-0.4964263439178467,-0.01597924344241619,0.2948469817638397,-0.19779406487941742,0.8100848197937012,0.6480360627174377,-0.3165588676929474,-0.6329534649848938,-0.2814423739910126,8.657576560974121,-0.7763786911964417,-4.370551109313965,2.4791104793548584,0.6413483023643494,0.33997654914855957,0.3734310269355774,-0.6538466811180115,-0.5456913113594055,-0.3677700459957123
5008776,9.82663345336914,-0.4968074560165405,-0.008685306645929813,0.6148648262023926,0.13675259053707123,0.7323118448257446,0.6480593681335449,-0.3166426122188568,-0.6328876614570618,-0.28144240379333496,8.617233276367188,-0.7194940447807312,-4.375614643096924,2.2386715412139893,0.6297202110290527,0.2740110456943512,0.37371596693992615,-0.6536571979522705,-0.5458220839500427,-0.36762332916259766
5008943,9.834200859069824,-0.46104758977890015,0.04403287172317505,0.9945347905158997,0.35040098428726196,0.7501384019851685,0.648146390914917,-0.31662529706954956,-0.6328456401824951,-0.28135600686073303,8.66979694366455,-0.740849494934082,-4.375305652618408,1.735356330871582,0.7113094329833984,0.5257326364517212,0.3739505708217621,-0.6535425782203674,-0.5458592772483826,-0.36753347516059875
5009110,9.817048072814941,-0.4718422293663025,0.003451852360740304,0.8201634287834167,-0.029685117304325104,0.7885445356369019,0.6481830477714539,-0.31666386127471924,-0.632819652557373,-0.28128641843795776,8.59615421295166,-0.6756395101547241,-4.342612266540527,1.6037070751190186,0.12393344938755035,1.0295729637145996,0.37414437532424927,-0.6535181999206543,-0.5458592772483826,-0.3673798441886902
5009276,9.789962768554688,-0.46524202823638916,0.025098100304603577,0.9347032904624939,0.06720131635665894,1.1812511682510376,0.648240864276886,-0.3167440593242645,-0.6327610015869141,-0.2811949849128723,8.60122013092041,-0.6606536507606506,-4.3650126457214355,0.17400628328323364,0.26285675168037415,0.9034047722816467,0.37420618534088135,-0.6535526514053345,-0.5457887053489685,-0.36736008524894714
5009443,9.869685173034668,-0.41760456562042236,-0.011640778742730618,0.27079665660858154,-0.02420399710536003,0.6007394194602966,0.6482532024383545,-0.3167978525161743,-0.6327300071716309,-0.2811756432056427,8.611778259277344,-0.7599651217460632,-4.362618923187256,-0.535689651966095,-0.01398453302681446,1.0736907720565796,0.3741692006587982,-0.6536796689033508,-0.5456485152244568,-0.3673800528049469
5009610,9.82850170135498,-0.4709291160106659,-0.0354398749768734,0.46348100900650024,0.2394339144229889,0.5526644587516785,0.6482751369476318,-0.31686586141586304,-0.6326602101325989,-0.281205415725708,8.60193920135498,-0.7985888123512268,-4.3633646965026855,-0.29838794469833374,-0.1511533409357071,1.1597877740859985,0.3741622865200043,-0.6537867188453674,-0.5455458164215088,-0.3673492670059204
5009776,9.757243156433105,-0.45467618107795715,0.023604784160852432,0.6882836818695068,0.13823813199996948,0.7099775671958923,0.6483286023139954,-0.31687596440315247,-0.6326301097869873,-0.2811385691165924,8.572269439697266,-0.7795942425727844,-4.381382942199707,-0.236341193318367,-0.44169098138809204,1.1345592737197876,0.374152809381485,-0.6538803577423096,-0.5454928874969482,-0.36727070808410645
5009943,9.827876091003418,-0.44904279708862305,-0.016632987186312675,0.047453928738832474,-0.35797590017318726,0.5475290417671204,0.6482892632484436,-0.31697598099708557,-0.6326156854629517,-0.281148761510849,8.6016206741333,-0.7739495635032654,-4.372398376464844,-0.1925947219133377,-0.8011268973350525,0.8199586272239685,0.3740960955619812,-0.6539742946624756,-0.5454820394515991,-0.3671775162220001
5010110,9.808177947998047,-0.4701961576938629,-0.018889527767896652,-0.10049141198396683,0.04242103174328804,0.3036961853504181,0.6482642889022827,-0.3170633018016815,-0.6325626969337463,-0.2812272608280182,8.596367835998535,-0.7931926250457764,-4.38058614730835,-0.2126750499010086,-0.8906303644180298,0.5684802532196045,0.37399065494537354,-0.6540929079055786,-0.5454519391059875,-0.36711814999580383
5010276,9.78946590423584,-0.46889081597328186,-0.0071524521335959435,-0.039469167590141296,-0.24940364062786102,0.24807818233966827,0.6482427716255188,-0.31708332896232605,-0.6325769424438477,-0.28122231364250183,8.631725311279297,-0.7752248644828796,-4.371583461761475,-0.12236467003822327,-0.9656242728233337,0.28426891565322876,0.373890221118927,-0.6541611552238464,-0.5454905033111572,-0.3670414984226227
5010443,9.812872886657715,-0.4860207140445709,-0.008783318102359772,-0.12282570451498032,-0.24616368114948273,0.25226590037345886,0.6481885313987732,-0.3171773850917816,-0.6325539350509644,-0.2812928557395935,8.648807525634766,-0.7545199990272522,-4.375406742095947,-0.15750528872013092,-0.7829289436340332,0.33618587255477905,0.37379851937294006,-0.6542328000068665,-0.5455036163330078,-0.3669877052307129
5010610,9.79054069519043,-0.45987486839294434,0.021360307931900024,0.20040015876293182,-0.1731930822134018,0.1668218970298767,0.6481505036354065,-0.3172340989112854,-0.6325393319129944,-0.28134942054748535,8.63650131225586,-0.7446021437644958,-4.37876558303833,-0.23931224644184113,-0.6936559081077576,0.21498660743236542,0.37370765209198,-0.6542819738388062,-0.5455342531204224,-0.36694735288619995
5010776,9.807538032531738,-0.4463571608066559,0.03026544488966465,-0.004226095974445343,-0.49851277470588684,-0.002087435219436884,0.6480710506439209,-0.31729668378829956,-0.6325602531433105,-0.28141507506370544,8.644322395324707,-0.7582489252090454,-4.381179332733154,-0.37032121419906616,-0.539467453956604,0.24856483936309814,0.3736172020435333,-0.6543334722518921,-0.5455448627471924,-0.3669314682483673
5010943,9.817315101623535,-0.47963735461235046,0.025884589180350304,0.00187613011803478,-0.5422848463058472,0.03526228293776512,0.6480053663253784,-0.3173268437385559,-0.6326021552085876,-0.2814377546310425,8.635764122009277,-0.7323317527770996,-4.386375427246094,-0.6476171612739563,-0.29717135429382324,0.40545544028282166,0.37354087829589844,-0.6543797850608826,-0.5455365180969238,-0.3669390380382538
5011110,9.800771713256836,-0.4729855954647064,0.017963288351893425,0.1251116245985031,-0.41240283846855164,-0.03571690618991852,0.6479333639144897,-0.31738173961639404,-0.6326155066490173,-0.2815118134021759,8.616427421569824,-0.7451417446136475,-4.373152256011963,-0.8025354743003845,-0.2242904007434845,0.3508235216140747,0.37345242500305176,-0.6544256806373596,-0.5455217957496643,-0.36696913838386536
5011276,9.814844131469727,-0.4578618109226227,0.02574511617422104,0.14596037566661835,-0.5485215783119202,-0.03492291271686554,0.6478590965270996,-0.3174193203449249,-0.632652759552002,-0.28155672550201416,8.608116149902344,-0.7579447627067566,-4.400241851806641,-0.7262992858886719,-0.24253946542739868,0.4190685749053955,0.3733573853969574,-0.6544967889785767,-0.5454778075218201,-0.3670044541358948
5011443,9.805198669433594,-0.4575470983982086,0.023638730868697166,0.11654418706893921,-0.6155115962028503,0.07429603487253189,0.6478047370910645,-0.3174198269844055,-0.6327164173126221,-0.28153783082962036,8.613520622253418,-0.7770240306854248,-4.403770446777344,-0.526789128780365,-0.2943283021450043,0.3884357511997223,0.3732894957065582,-0.6545354127883911,-0.5454767942428589,-0.36700597405433655
5011610,9.809854507446289,-0.4610231816768646,-0.001448363997042179,0.09522160142660141,-0.6606027483940125,0.08263297379016876,0.6477186679840088,-0.3174862563610077,-0.6327518224716187,-0.2815818190574646,8.598679542541504,-0.7705832719802856,-4.399800777435303,-0.39745789766311646,-0.27435046434402466,0.38178926706314087,0.3732140362262726,-0.6545971035957336,-0.5454440116882324,-0.367021381855011
5011776,9.817000389099121,-0.4784497320652008,-0.0024926336482167244,0.1824200600385666,-0.6185466647148132,0.02929452434182167,0.647642195224762,-0.3175280690193176,-0.6327941417694092,-0.28161534667015076,8.608438491821289,-0.7698143720626831,-4.399367809295654,-0.19748669862747192,-0.4367605447769165,0.2363859862089157,0.3731154203414917,-0.654676616191864,-0.545406699180603,-0.3670353889465332
5011943,9.819282531738281,-0.4912380874156952,-0.008250406011939049,0.5344409942626953,-0.6316220164299011,0.12216616421937943,0.6475933790206909,-0.31752583384513855,-0.6328577399253845,-0.28158706426620483,8.62061595916748,-0.7770276069641113,-4.404063701629639,0.13373029232025146,-0.44709524512290955,0.24839834868907928,0.3730642795562744,-0.6547150015830994,-0.5454161763191223,-0.3670046925544739
5012110,9.821900367736816,-0.47241511940956116,-0.006928310729563236,0.6705340147018433,-0.5100769400596619,0.24002298712730408,0.6475704908370972,-0.3175082504749298,-0.6329143643379211,-0.28153231739997864,8.623880386352539,-0.7247827053070068,-4.397583961486816,0.4875185191631317,-0.4245176613330841,0.4279433786869049,0.37308692932128906,-0.654703676700592,-0.5454792976379395,-0.36690816283226013
5012276,9.826323509216309,-0.4587379992008209,0.01966198720037937,0.5099679827690125,-0.49075207114219666,0.31291675567626953,0.6475145220756531,-0.3175806999206543,-0.6329240798950195,-0.2815575897693634,8.644841194152832,-0.7272002696990967,-4.388153076171875,0.46185463666915894,-0.22933611273765564,0.4027276933193207,0.37313762307167053,-0.6546556949615479,-0.5455639362335205,-0.3668164908885956
5012443,9.813152313232422,-0.4617132246494293,-0.011647951789200306,0.43939223885536194,-0.305764377117157,0.3939681053161621,0.647496223449707,-0.3176127076148987,-0.6329332590103149,-0.28154298663139343,8.619782447814941,-0.7322785258293152,-4.382087707519531,0.37278643250465393,0.21531955897808075,0.49550968408584595,0.37320676445961,-0.6546148061752319,-0.545587956905365,-0.3667832612991333
5012610,9.799078941345215,-0.4651249349117279,0.015376205556094646,0.6584576964378357,-0.21249575912952423,0.5063951015472412,0.6475052237510681,-0.3176208436489105,-0.632942259311676,-0.2814926207065582,8.591044425964355,-0.7432752847671509,-4.388278007507324,0.4341672360897064,0.1463317573070526,0.5982678532600403,0.37327325344085693,-0.6545946598052979,-0.5455943942070007,-0.36674201488494873
5012776,9.790687561035156,-0.4582977592945099,0.008338631130754948,0.7454383969306946,-0.37794098258018494,0.6077061295509338,0.6474913954734802,-0.3176727294921875,-0.6329474449157715,-0.281454473733902,8.572179794311523,-0.7272896766662598,-4.403652191162109,0.27527886629104614,0.09721940755844116,0.6517471075057983,0.37331387400627136,-0.6546033024787903,-0.5455739498138428,-0.36671575903892517
5012943,9.783397674560547,-0.4621209502220154,-0.02813878282904625,0.7957417964935303,-0.2767196297645569,0.5849876999855042,0.6474977135658264,-0.31769177317619324,-0.6329569816589355,-0.2813969552516937,8.564915657043457,-0.7776604294776917,-4.419530391693115,0.17659316956996918,-0.13262255489826202,0.6507226228713989,0.3733552396297455,-0.6545858979225159,-0.5456135869026184,-0.3666454255580902
5013110,9.831169128417969,-0.442537784576416,-0.013864955864846706,0.4927178919315338,-0.3343609869480133,0.4420943856239319,0.6474829912185669,-0.3177188038825989,-0.6329709887504578,-0.2813686430454254,8.545269012451172,-0.7558749914169312,-4.412637233734131,0.7386894226074219,-0.46138712763786316,0.7952550649642944,0.37338608503341675,-0.6546350121498108,-0.5456057786941528,-0.36653828620910645
5013276,9.858316421508789,-0.48444733023643494,-0.07304045557975769,0.30112212896347046,-0.2545646131038666,0.5027452707290649,0.6474656462669373,-0.3177734315395355,-0.6329631805419922,-0.2813642919063568,8.683457374572754,-0.7564223408699036,-4.433938980102539,0.46805286407470703,-0.8027916550636292,0.7140756249427795,0.3733810782432556,-0.6546776294708252,-0.5456498861312866,-0.3664015233516693
5013443,9.805326461791992,-0.4528944790363312,-0.04079176485538483,1.0480525493621826,0.20305109024047852,0.7685410380363464,0.6475654244422913,-0.3176949620246887,-0.6329659223556519,-0.28121712803840637,8.668641090393066,-0.6729063391685486,-4.420553207397461,0.16550284624099731,0.1880420446395874,0.5919287204742432,0.37339580059051514,-0.6547083854675293,-0.5455941557884216,-0.36641454696655273
5013610,9.84829044342041,-0.3865984380245209,0.03377358615398407,0.3006739020347595,0.6923689246177673,0.5302021503448486,0.6476414799690247,-0.31769999861717224,-0.6328750848770142,-0.281240850687027,8.633318901062012,-0.6865335702896118,-4.440837383270264,-0.8692693710327148,0.4057627320289612,0.32578712701797485,0.37331777811050415,-0.6547561883926392,-0.545504629611969,-0.36654192209243774
5013776,9.816190719604492,-0.37889495491981506,0.015722118318080902,-0.9672635197639465,0.36557644605636597,-0.1453520506620407,0.6476054787635803,-0.31776466965675354,-0.6327995657920837,-0.28142067790031433,8.641430854797363,-0.7459802031517029,-4.4306182861328125,-1.1507786512374878,0.6569209694862366,0.1726488173007965,0.37322425842285156,-0.6547933220863342,-0.5454018712043762,-0.366723895072937
5013943,9.872342109680176,-0.5295040011405945,-0.033022698014974594,0.092762790620327,0.5139380097389221,-0.1868702471256256,0.6476296186447144,-0.31772008538246155,-0.6327547430992126,-0.2815161347389221,8.635835647583008,-0.7581415176391602,-4.414804458618164,-0.9270901679992676,0.778414785861969,0.47723498940467834,0.37317854166030884,-0.6548333168029785,-0.5452786684036255,-0.3668819069862366
5014110,9.825972557067871,-0.4295646548271179,0.07259732484817505,1.3395248651504517,0.4064415395259857,0.42042604088783264,0.6477099657058716,-0.31765586137771606,-0.6327241063117981,-0.28147265315055847,8.68364429473877,-0.7262075543403625,-4.357460021972656,-0.7830057144165039,1.397844910621643,0.9092699289321899,0.37321779131889343,-0.6548677086830139,-0.5450871586799622,-0.3670651614665985
5014276,9.836769104003906,-0.41136395931243896,0.05340350419282913,0.09911473840475082,0.13705994188785553,0.40654394030570984,0.6477048397064209,-0.3177244961261749,-0.6326647400856018,-0.28154027462005615,8.613457679748535,-0.7546099424362183,-4.369828224182129,-0.7382605075836182,1.8257821798324585,1.1512205600738525,0.373319536447525,-0.6548776030540466,-0.5448735952377319,-0.3672611117362976
5014443,9.7672758102417,-0.4775201976299286,0.03430572524666786,-0.6569272875785828,0.17208531498908997,0.5841552019119263,0.6476932764053345,-0.31783780455589294,-0.6325834393501282,-0.2816215455532074,8.541972160339355,-0.7985514998435974,-4.396075248718262,-0.1806591898202896,1.6897019147872925,1.2413771152496338,0.37346187233924866,-0.6548808813095093,-0.5446772575378418,-0.36740201711654663
5014610,9.792778968811035,-0.5178775787353516,0.003858507378026843,-0.34776926040649414,-0.36042189598083496,0.49051517248153687,0.6476320028305054,-0.31796103715896606,-0.6325558423995972,-0.2816857397556305,8.524080276489258,-0.8352183699607849,-4.378633975982666,0.5213016867637634,1.1613118648529053,1.1742334365844727,0.3736110329627991,-0.6548906564712524,-0.5445271730422974,-0.3674551248550415
5014776,9.819981575012207,-0.508257269859314,-0.02922018989920616,0.6848259568214417,0.17346838116645813,0.6459330320358276,0.6476849913597107,-0.31795451045036316,-0.6325255036354065,-0.2816393971443176,8.577418327331543,-0.862278938293457,-4.384164810180664,1.351166009902954,0.6628630757331848,0.8422544598579407,0.3737885653972626,-0.6548458337783813,-0.5444926023483276,-0.3674057722091675
5014943,9.775875091552734,-0.4749985933303833,0.036524608731269836,0.776391327381134,0.5574796199798584,0.7659285664558411,0.6477756500244141,-0.317950040102005,-0.6324493885040283,-0.2816067039966583,8.613595962524414,-0.8584854006767273,-4.378549575805664,2.311091661453247,0.30641114711761475,0.4922313094139099,0.37403368949890137,-0.6547060012817383,-0.5446034073829651,-0.3672410547733307
5015110,9.790590286254883,-0.49149981141090393,-0.0192625280469656,0.2891097664833069,0.49686717987060547,0.8897275924682617,0.6478574275970459,-0.3179730474948883,-0.6323695778846741,-0.28157201409339905,8.753945350646973,-0.7764778733253479,-4.372771739959717,2.674215316772461,0.8392320275306702,0.28690704703330994,0.37432658672332764,-0.654529333114624,-0.5446906089782715,-0.36712825298309326
5015276,9.826091766357422,-0.49538111686706543,-0.024832801893353462,0.7596663236618042,0.8135169744491577,0.8613359332084656,0.6479856967926025,-0.31794309616088867,-0.6322769522666931,-0.2815186679363251,8.627474784851074,-0.7147452235221863,-4.344820976257324,2.3650317192077637,0.8683409094810486,0.19988790154457092,0.37461650371551514,-0.654316782951355,-0.5448211431503296,-0.3670177161693573
5015443,9.837132453918457,-0.4728330075740814,0.05876150354743004,0.9136369824409485,0.9246888160705566,0.8320221900939941,0.6481404304504395,-0.31786730885505676,-0.6321938633918762,-0.2814345061779022,8.692425727844238,-0.7210811972618103,-4.354924201965332,1.5776206254959106,1.158481478691101,0.5180231928825378,0.374845415353775,-0.654195249080658,-0.5448167324066162,-0.3670074939727783
5015610,9.8117094039917,-0.4650360643863678,0.040493614971637726,1.0432244539260864,0.3006354868412018,0.6585089564323425,0.648219108581543,-0.3178292512893677,-0.6321617960929871,-0.28136828541755676,8.561637878417969,-0.6536868810653687,-4.3330488204956055,1.1098815202713013,0.422974556684494,1.0959738492965698,0.37501806020736694,-0.6541590690612793,-0.5448025465011597,-0.3669165074825287
5015776,9.803953170776367,-0.44955843687057495,0.0546160526573658,0.7432612776756287,-0.23822371661663055,1.0506521463394165,0.6482486724853516,-0.31788119673728943,-0.632148027420044,-0.2812724709510803,8.626694679260254,-0.6610727310180664,-4.328720569610596,-0.30850493907928467,0.5772653818130493,0.9559106826782227,0.37504762411117554,-0.6541980504989624,-0.5446968078613281,-0.36697372794151306
5015943,9.881662368774414,-0.4179656207561493,-0.010621557012200356,0.1562054604291916,-0.10982726514339447,0.49936443567276,0.6482523083686829,-0.31790509819984436,-0.6321371793746948,-0.28126153349876404,8.587230682373047,-0.7616894841194153,-4.345914363861084,-1.002160906791687,0.2229137420654297,1.1428322792053223,0.37500718235969543,-0.6542855501174927,-0.5445833802223206,-0.36702749133110046
5016110,9.807469367980957,-0.47961610555648804,-0.028416886925697327,0.4101809561252594,0.0836830884218216,0.3102017641067505,0.6482772827148438,-0.31787917017936707,-0.632127583026886,-0.2812545895576477,8.603331565856934,-0.8090464472770691,-4.326601505279541,-0.9214937090873718,-0.184001624584198,1.1611580848693848,0.3749288320541382,-0.6544119715690613,-0.5444701313972473,-0.36705002188682556
5016276,9.750935554504395,-0.45302221179008484,0.03573818877339363,0.6430259943008423,-0.17530611157417297,0.5201234221458435,0.6482844352722168,-0.3178911507129669,-0.6321271657943726,-0.28122568130493164,8.587194442749023,-0.8053604364395142,-4.35023832321167,-0.7400405406951904,-0.5383917689323425,0.9227294325828552,0.37482577562332153,-0.6545304656028748,-0.5444059371948242,-0.36703911423683167
5016443,9.8330717086792,-0.4489677846431732,-0.006208295933902264,-0.09279480576515198,-0.5183625817298889,0.35777735710144043,0.6482255458831787,-0.31795716285705566,-0.6321434378623962,-0.28125,8.621145248413086,-0.7994970083236694,-4.3623199462890625,-0.7012757658958435,-0.5523250699043274,0.6374680995941162,0.3747248947620392,-0.6546023488044739,-0.5443994998931885,-0.36702343821525574
5016610,9.801193237304688,-0.480155885219574,-0.006651745643466711,-0.30523934960365295,-0.387481689453125,0.2244376689195633,0.6481641530990601,-0.31802254915237427,-0.6321466565132141,-0.28131017088890076,8.608590126037598,-0.8056307435035706,-4.366353511810303,-0.6090571284294128,-0.6349387764930725,0.2764698565006256,0.3745895028114319,-0.6546710729598999,-0.5444049835205078,-0.367031067609787
5016776,9.780168533325195,-0.4808353781700134,0.0015055832918733358,-0.19660310447216034,-0.497283399105072,0.13977491855621338,0.648090124130249,-0.3180839419364929,-0.6321636438369751,-0.2813735604286194,8.620037078857422,-0.7811327576637268,-4.359537601470947,-0.4037202000617981,-1.0930603742599487,0.15664087235927582,0.3744274973869324,-0.6547479629516602,-0.5444525480270386,-0.3669886887073517
5016943,9.80717658996582,-0.48138612508773804,0.02300216443836689,-0.015277976170182228,-0.7095357775688171,0.17318668961524963,0.6480004787445068,-0.31815284490585327,-0.6321998238563538,-0.2814209461212158,8.658102035522461,-0.7548440098762512,-4.378404140472412,-0.5356768369674683,-0.5540540218353271,0.20654723048210144,0.37429478764533997,-0.6548125743865967,-0.5444521903991699,-0.36700931191444397
5017110,9.807205200195312,-0.4689623713493347,0.020366501063108444,0.08510459214448929,-0.4979493021965027,0.0441114716231823,0.647942841053009,-0.31816110014915466,-0.6322416663169861,-0.28145015239715576,8.639578819274902,-0.7622978687286377,-4.355312824249268,-0.6771101355552673,-0.62311851978302,0.32057493925094604,0.3741627633571625,-0.6548764109611511,-0.544463038444519,-0.3670140206813812
5017277,9.816481590270996,-0.4507809281349182,0.028287800028920174,-0.25435972213745117,-0.35378819704055786,-0.04665353149175644,0.6478514075279236,-0.31825003027915955,-0.6322277784347534,-0.28159114718437195,8.63526439666748,-0.7511535286903381,-4.369167327880859,-0.7046694159507751,-0.38274338841438293,0.5142326354980469,0.374075710773468,-0.6549159288406372,-0.5444751381874084,-0.3670141100883484
5017443,9.800649642944336,-0.4932272136211395,0.034081269055604935,-0.22017958760261536,-0.42441526055336,0.004347756505012512,0.6477577090263367,-0.3183417022228241,-0.6322200894355774,-0.2817203104496002,8.619926452636719,-0.7506081461906433,-4.390432357788086,-0.6092620491981506,-0.35778379440307617,0.6148136258125305,0.37398409843444824,-0.6549873352050781,-0.5444441437721252,-0.3670260012149811
5017610,9.817787170410156,-0.48454031348228455,0.04053988680243492,-0.06417261809110641,-0.6511900424957275,-0.02155308611690998,0.6477041244506836,-0.3183005750179291,-0.6323052048683167,-0.2816990613937378,8.608989715576172,-0.7702324986457825,-4.380736827850342,-0.5670908093452454,-0.2834813892841339,0.5919415354728699,0.3738986551761627,-0.6550537943840027,-0.5444098711013794,-0.36704522371292114
5017777,9.826505661010742,-0.4774951934814453,0.01589624211192131,0.01878051459789276,-0.3380108177661896,0.049016308039426804,0.6476570963859558,-0.3183118402957916,-0.6323263645172119,-0.281747043132782,8.608331680297852,-0.7870910167694092,-4.388649940490723,-0.3555682897567749,-0.42222532629966736,0.4923977255821228,0.3738040626049042,-0.6551266312599182,-0.5443815588951111,-0.3670535385608673
5017943,9.80495548248291,-0.462593138217926,0.0259525366127491,0.11567334830760956,-0.21384042501449585,0.07678046822547913,0.6476354002952576,-0.3182923197746277,-0.6323481202125549,-0.2817701995372772,8.601336479187012,-0.7899948954582214,-4.375063896179199,0.05516334995627403,-0.5902446508407593,0.4175190329551697,0.37372681498527527,-0.6551868915557861,-0.5443831086158752,-0.36702221632003784
5018110,9.816256523132324,-0.4726029336452484,-0.024947622790932655,0.2960251569747925,-0.3141653537750244,0.14094027876853943,0.6476082801818848,-0.31828171014785767,-0.6323754191398621,-0.2817831337451935,8.596365928649902,-0.7689666748046875,-4.397418975830078,0.28917378187179565,-0.7325359582901001,0.24777087569236755,0.3736826181411743,-0.6551816463470459,-0.5444790124893188,-0.3669346868991852
5018277,9.818845748901367,-0.47689440846443176,-0.022533681243658066,0.40217697620391846,-0.163088858127594,0.20899321138858795,0.6476090550422668,-0.31824633479118347,-0.6323972940444946,-0.28177204728126526,8.607473373413086,-0.741147518157959,-4.377163410186768,0.2697209417819977,-0.6999566555023193,0.21575498580932617,0.37360426783561707,-0.6552222967147827,-0.5445149540901184,-0.3668884336948395
5018443,9.815476417541504,-0.46386268734931946,0.009852451272308826,0.6032494902610779,-0.28341731429100037,0.2998286485671997,0.6475799083709717,-0.31827762722969055,-0.6323975920677185,-0.2818029522895813,8.649006843566895,-0.7297108173370361,-4.385502815246582,0.24632373452186584,-0.5965197682380676,0.33626270294189453,0.37356969714164734,-0.655220091342926,-0.5445916652679443,-0.36681389808654785
5018610,9.816434860229492,-0.4534302353858948,-0.002765999175608158,0.6870158910751343,-0.322015643119812,0.40198490023612976,0.6475783586502075,-0.3182591497898102,-0.6324272751808167,-0.281761109828949,8.65345573425293,-0.7154309749603271,-4.374427318572998,0.21704843640327454,-0.4561365842819214,0.5334420204162598,0.37352052330970764,-0.6552767753601074,-0.5445797443389893,-0.36678022146224976
5018777,9.822250366210938,-0.4570857882499695,0.019601192325353622,0.4771197736263275,-0.18622994422912598,0.356548011302948,0.6475670337677002,-0.31827422976493835,-0.6324254274368286,-0.28177395462989807,8.625500679016113,-0.7339950799942017,-4.375736236572266,-0.07224061340093613,-0.17825156450271606,0.646458089351654,0.3735172748565674,-0.6552741527557373,-0.5446110963821411,-0.3667415678501129
5018943,9.807211875915527,-0.4521470367908478,-0.004695560317486525,0.6228047609329224,-0.278755784034729,0.48181968927383423,0.6475481390953064,-0.318315714597702,-0.6324196457862854,-0.2817835509777069,8.60690689086914,-0.7427281141281128,-4.391321659088135,-0.08703195303678513,-0.05628390610218048,0.6545516848564148,0.3734876811504364,-0.6553177237510681,-0.5445714592933655,-0.3667528033256531
5019110,9.816905975341797,-0.46513262391090393,0.005777062848210335,0.7715633511543274,-0.17558786273002625,0.38899925351142883,0.6475608944892883,-0.3182862102985382,-0.6324371695518494,-0.28174832463264465,8.579621315002441,-0.7691670656204224,-4.380521297454834,-0.0012806350132450461,-0.04856167733669281,0.6285932660102844,0.373485803604126,-0.6553234457969666,-0.5445759296417236,-0.36673784255981445
5019277,9.780549049377441,-0.4656074643135071,0.03235858306288719,0.7314153909683228,-0.21381480991840363,0.45166072249412537,0.6475462913513184,-0.31832370162010193,-0.6324248909950256,-0.2817671000957489,8.610283851623535,-0.7459253072738647,-4.384648323059082,0.2754838168621063,-0.03574252128601074,0.513541042804718,0.3735050857067108,-0.6553030610084534,-0.544607400894165,-0.36670801043510437
5019443,9.79587459564209,-0.45423224568367004,0.014382079243659973,0.8220844268798828,-0.31675225496292114,0.48705747723579407,0.6475583910942078,-0.31829017400741577,-0.6324599981307983,-0.2816983163356781,8.606922149658203,-0.7535319328308105,-4.399514675140381,0.1613280028104782,-0.14650464057922363,0.4733419418334961,0.3734983503818512,-0.6552967429161072,-0.5446362495422363,-0.36668336391448975
5019610,9.803757667541504,-0.4292593002319336,0.00840766355395317,0.4870062470436096,-0.12714143097400665,0.4128318727016449,0.6475590467453003,-0.3182975947856903,-0.6324542164802551,-0.28170156478881836,8.577014923095703,-0.7809044122695923,-4.411148548126221,0.5129647254943848,-0.10558834671974182,0.6205508708953857,0.37354815006256104,-0.655263364315033,-0.5446888208389282,-0.3666140139102936
5019777,9.851850509643555,-0.4659331142902374,-0.03867685794830322,0.11434148997068405,-0.21749024093151093,0.2685171365737915,0.6475197076797485,-0.31834861636161804,-0.6324390769004822,-0.2817680537700653,8.607587814331055,-0.7226523756980896,-4.422677516937256,0.5617313385009766,-0.6533415913581848,0.6520545482635498,0.37354063987731934,-0.6552883982658386,-0.544735312461853,-0.366507887840271
5019943,9.8225679397583,-0.5139899849891663,-0.07034523040056229,0.6138403415679932,-0.15794071555137634,0.6775135397911072,0.647525429725647,-0.3183880150318146,-0.632420003414154,-0.2817533612251282,8.686585426330566,-0.7171560525894165,-4.44189977645874,0.39626044034957886,-0.06914147734642029,0.793590247631073,0.3735813498497009,-0.6552863121032715,-0.5447476506233215,-0.3664516806602478
5020110,9.827998161315918,-0.4173851013183594,0.0035974744241684675,0.919297456741333,0.532520055770874,0.5842064619064331,0.6476213932037354,-0.3183232545852661,-0.6323728561401367,-0.2817113995552063,8.632203102111816,-0.6516350507736206,-4.4114556312561035,-0.47484666109085083,0.28887924551963806,0.47285524010658264,0.37355828285217285,-0.6552733182907104,-0.544741690158844,-0.3665074408054352
5020277,9.81235122680664,-0.3631993234157562,0.02518024481832981,-0.5311817526817322,0.41413813829421997,0.21631844341754913,0.647602915763855,-0.3184144198894501,-0.6322696805000305,-0.28188270330429077,8.658512115478516,-0.7159700989723206,-4.411505699157715,-1.2623218297958374,0.5010548233985901,0.17362208664417267,0.37345072627067566,-0.6552810072898865,-0.5446950793266296,-0.36667248606681824
5020443,9.865047454833984,-0.4506433308124542,-0.03282435983419418,-1.0446139574050903,0.12671241164207458,-0.38967156410217285,0.6475234627723694,-0.31847649812698364,-0.6322174072265625,-0.2821124494075775,8.645034790039062,-0.7519702911376953,-4.4087934494018555,-1.2886134386062622,0.8900221586227417,0.47704294323921204,0.3733668625354767,-0.655324399471283,-0.5445589423179626,-0.3668826222419739
5020610,9.842122077941895,-0.4819070100784302,0.03775504603981972,1.120113730430603,0.9741469621658325,0.1356128454208374,0.6476437449455261,-0.3183470368385315,-0.6321504712104797,-0.28213226795196533,8.68718433380127,-0.7586202621459961,-4.3830180168151855,-0.81544429063797,1.2154570817947388,0.8362482190132141,0.37338194251060486,-0.6553393602371216,-0.5444129109382629,-0.3670572340488434
5020777,9.815702438354492,-0.3925532400608063,0.08933320641517639,0.6490705609321594,0.11222843825817108,0.5142838358879089,0.6476722359657288,-0.3183468282222748,-0.6321200132369995,-0.2821354568004608,8.625997543334961,-0.7340607643127441,-4.366647243499756,-0.6384989619255066,1.8611915111541748,1.0972161293029785,0.3734607398509979,-0.6553574800491333,-0.5441835522651672,-0.3672848045825958
5020943,9.815320014953613,-0.4464857876300812,0.02985215373337269,-0.7772173285484314,0.18152359127998352,0.3885766267776489,0.6476379036903381,-0.3184613585472107,-0.6320323944091797,-0.2822812497615814,8.558937072753906,-0.7700912356376648,-4.37824010848999,-0.3743296265602112,1.8358479738235474,1.1598647832870483,0.3735906183719635,-0.6553298234939575,-0.5440096259117126,-0.36745959520339966
5021110,9.777043342590332,-0.5251802206039429,0.030418893322348595,-0.4504120945930481,-0.20515771210193634,0.5461716055870056,0.6475946307182312,-0.318563848733902,-0.6319929361343384,-0.2823530435562134,8.514666557312012,-0.8261479735374451,-4.374630928039551,0.3566504716873169,1.3114792108535767,1.0598984956741333,0.3737561106681824,-0.6552626490592957,-0.5439373254776001,-0.3675181567668915
5021277,9.792226791381836,-0.5176838040351868,-0.024812797084450722,0.4509691596031189,-0.21058760583400726,0.7252171039581299,0.6475990414619446,-0.31860077381134033,-0.6319813132286072,-0.28232744336128235,8.557930946350098,-0.8386662006378174,-4.366404056549072,1.178971767425537,0.6872976422309875,0.8490417003631592,0.37391602993011475,-0.6552019715309143,-0.5439210534095764,-0.3674878478050232
5021443,9.794163703918457,-0.48307666182518005,0.00553455576300621,1.225253939628601,0.34721216559410095,0.9110246300697327,0.6476870179176331,-0.31858429312705994,-0.631927490234375,-0.282264769077301,8.633990287780762,-0.8377727270126343,-4.339462757110596,2.118394613265991,0.35649675130844116,0.7090044021606445,0.37414026260375977,-0.6550847291946411,-0.5440009832382202,-0.3673499822616577
5021610,9.773493766784668,-0.5018879175186157,0.008002568036317825,0.6687284111976624,0.27716144919395447,1.0537641048431396,0.6477299928665161,-0.31867867708206177,-0.6318287253379822,-0.2822803556919098,8.702948570251465,-0.789900004863739,-4.338223457336426,2.6014115810394287,0.568749189376831,0.5163840055465698,0.3744005262851715,-0.6549398899078369,-0.5440824031829834,-0.36722245812416077
5021777,9.804387092590332,-0.4851060211658478,-0.004301971755921841,0.8979364633560181,0.37037888169288635,1.0579261779785156,0.647820234298706,-0.3186846375465393,-0.6317630410194397,-0.2822137176990509,8.637694358825684,-0.7342882752418518,-4.368534564971924,2.6172657012939453,0.9735067486763,0.4089003801345825,0.37471774220466614,-0.6547196507453918,-0.5442068576812744,-0.3671073615550995
5021943,9.837678909301758,-0.467503160238266,0.05356737971305847,1.1184360980987549,0.4538377821445465,0.9989657402038574,0.647923469543457,-0.3186660706996918,-0.6316986680030823,-0.28214168548583984,8.701313018798828,-0.7239581346511841,-4.360123634338379,1.8227342367172241,0.6770524382591248,0.4954840838909149,0.3749486207962036,-0.6545525789260864,-0.5443119406700134,-0.36701369285583496
5022110,9.81756591796875,-0.46318286657333374,0.02200133726000786,1.0786083936691284,-0.10749650746583939,0.8449693322181702,0.6479634642601013,-0.31866833567619324,-0.631688117980957,-0.28207099437713623,8.591418266296387,-0.712670087814331,-4.354994297027588,1.7122795581817627,0.8055898547172546,1.0315195322036743,0.3751817047595978,-0.654464840888977,-0.5443066954612732,-0.36693981289863586
5022277,9.811141967773438,-0.46685054898262024,0.05530400574207306,1.389098048210144,0.037413742393255234,1.2416330575942993,0.6480788588523865,-0.31859996914863586,-0.6316949725151062,-0.28186774253845215,8.634418487548828,-0.6644797325134277,-4.343219757080078,0.5958858728408813,0.5312649607658386,1.0784674882888794,0.3752996325492859,-0.6544395089149475,-0.5442731380462646,-0.36691418290138245
5022443,9.849964141845703,-0.42146429419517517,0.026213854551315308,0.47396939992904663,-0.3674653470516205,0.857545018196106,0.6480813026428223,-0.31863901019096375,-0.6316994428634644,-0.2818077802658081,8.630127906799316,-0.7032806873321533,-4.334314823150635,-0.36389243602752686,0.4622132182121277,0.9968782663345337,0.3753143548965454,-0.6544651389122009,-0.5441980957984924,-0.36696457862854004
5022610,9.825912475585938,-0.44179391860961914,-0.009444763883948326,0.2727816104888916,0.006678510922938585,0.5066383481025696,0.6480959057807922,-0.31864550709724426,-0.6316786408424377,-0.2818138003349304,8.541500091552734,-0.7778590321540833,-4.341296195983887,-0.845603346824646,0.2321983426809311,1.1492483615875244,0.37525200843811035,-0.6545725464820862,-0.5440570116043091,-0.367046058177948
5022777,9.758332252502441,-0.4689304530620575,0.03417382389307022,0.5902767181396484,0.17275124788284302,0.5233891606330872,0.6481279730796814,-0.31864574551582336,-0.6316395998001099,-0.2818271815776825,8.6162109375,-0.787042498588562,-4.3289079666137695,-0.8116023540496826,-0.5008435249328613,1.2330914735794067,0.37515875697135925,-0.6546939015388489,-0.5439866781234741,-0.3670291602611542
5022943,9.800289154052734,-0.4412231147289276,-0.004913570359349251,0.08478443324565887,-0.849393904209137,0.5632808804512024,0.648057758808136,-0.3187086582183838,-0.631689727306366,-0.28180500864982605,8.56104564666748,-0.8059247732162476,-4.363100528717041,-0.8056091070175171,-0.2851718068122864,0.8104626536369324,0.375079482793808,-0.6547414660453796,-0.5439797639846802,-0.3670355975627899
5023110,9.82020092010498,-0.44886407256126404,-0.04258190095424652,-0.5750178694725037,-0.508450448513031,0.2826169431209564,0.6479705572128296,-0.31880706548690796,-0.6316872239112854,-0.28189989924430847,8.597886085510254,-0.8048221468925476,-4.340384483337402,-0.6582080125808716,-0.9843473434448242,0.4123324453830719,0.37491941452026367,-0.6548137664794922,-0.5440241098403931,-0.3670042157173157
5023277,9.789470672607422,-0.4919108748435974,-0.022812625393271446,-0.05196816474199295,0.03738813474774361,0.28794437646865845,0.6479621529579163,-0.3188241124153137,-0.6316598653793335,-0.2819615304470062,8.624429702758789,-0.8252981305122375,-4.359464645385742,-0.5224862694740295,-0.9761512279510498,0.24765561521053314,0.37477609515190125,-0.6548469662666321,-0.5441132187843323,-0.3669593930244446
5023443,9.768689155578613,-0.4621461033821106,0.0443163625895977,0.223336324095726,-0.45179519057273865,0.230162113904953,0.6479180455207825,-0.31883174180984497,-0.6316918730735779,-0.2819823622703552,8.647253036499023,-0.7737310528755188,-4.36611795425415,-0.33031418919563293,-0.9790453910827637,0.27816030383110046,0.3746286630630493,-0.654908299446106,-0.544165313243866,-0.36692318320274353
5023610,9.817253112792969,-0.454496830701828,0.012552582658827305,0.16254457831382751,-0.4884597659111023,0.1907953917980194,0.6478683352470398,-0.3188379406929016,-0.631729006767273,-0.2820062041282654,8.678375244140625,-0.7551266551017761,-4.365138530731201,-0.5339863300323486,-0.7438439726829529,0.26844027638435364,0.3744947910308838,-0.6549448370933533,-0.5442224740982056,-0.3669101595878601
5023777,9.804492950439453,-0.4824516475200653,0.03318357840180397,-0.10293743014335632,-0.3357568681240082,0.09066254645586014,0.647831380367279,-0.3188187777996063,-0.6317635178565979,-0.28203555941581726,8.67070484161377,-0.7467119693756104,-4.355302810668945,-0.6833211779594421,-0.40119731426239014,0.32254713773727417,0.37438303232192993,-0.6549650430679321,-0.544260561466217,-0.3669314980506897
5023943,9.820886611938477,-0.5038661360740662,0.07168149203062057,0.007882308214902878,-0.4663304388523102,0.030319033190608025,0.6477676033973694,-0.31882885098457336,-0.6317968368530273,-0.2820959687232971,8.646246910095215,-0.7485767602920532,-4.382693290710449,-0.7818660736083984,-0.16801930963993073,0.4183642566204071,0.37428608536720276,-0.6549841165542603,-0.5442730188369751,-0.3669777810573578
5024110,9.809500694274902,-0.5012447834014893,0.03672407194972038,0.12936334311962128,-0.61175936460495,0.04934927076101303,0.6476988792419434,-0.31883132457733154,-0.6318495273590088,-0.282133013010025,8.627447128295898,-0.7828221321105957,-4.369789123535156,-0.7924056649208069,-0.0684371292591095,0.4747633635997772,0.37418660521507263,-0.6550208926200867,-0.5442521572113037,-0.36704447865486145
5024277,9.810323715209961,-0.4754996597766876,0.026052670553326607,0.20184725522994995,-0.62370765209198,0.04786372929811478,0.6476436257362366,-0.3188020884990692,-0.6319191455841064,-0.2821371555328369,8.594815254211426,-0.77520352602005,-4.363839626312256,-0.7184234857559204,-0.10814963281154633,0.48748016357421875,0.37409788370132446,-0.6550476551055908,-0.5442471504211426,-0.3670945167541504
5024443,9.810484886169434,-0.47573548555374146,-0.021452615037560463,0.3743872046470642,-0.778562068939209,-0.0007555746124126017,0.6475720405578613,-0.318776398897171,-0.6320033073425293,-0.28214165568351746,8.615734100341797,-0.7813440561294556,-4.3679938316345215,-0.5342296361923218,-0.30317750573158264,0.3235716223716736,0.37399253249168396,-0.6550764441490173,-0.5442603230476379,-0.36713099479675293
5024610,9.815679550170898,-0.47934091091156006,0.0059508574195206165,0.41043710708618164,-0.6720132231712341,0.08172371238470078,0.6474962830543518,-0.3187938630580902,-0.6320528388023376,-0.28218480944633484,8.615386962890625,-0.7851026654243469,-4.360802173614502,-0.3137427568435669,-0.23244810104370117,0.17385262250900269,0.3739224970340729,-0.655052661895752,-0.5443263649940491,-0.3671468496322632
5024777,9.807129859924316,-0.46071919798851013,0.008865417912602425,0.34034791588783264,-0.5428354740142822,0.11856759339570999,0.6474382877349854,-0.3187984824180603,-0.6320945620536804,-0.28221914172172546,8.597606658935547,-0.7555453181266785,-4.3968825340271,-0.19290204346179962,-0.25555071234703064,0.2002720981836319,0.3738355040550232,-0.6550673246383667,-0.5443460941314697,-0.3671799302101135
5024943,9.813459396362305,-0.48911428451538086,-0.010610607452690601,0.5463380813598633,-0.515622079372406,0.18046067655086517,0.6473974585533142,-0.31878209114074707,-0.6321425437927246,-0.28222396969795227,8.620147705078125,-0.7599619030952454,-4.383056640625,-0.08424016088247299,-0.3074163794517517,0.18063995242118835,0.37377533316612244,-0.6550439596176147,-0.544417679309845,-0.3671768605709076
5025110,9.810602188110352,-0.48437225818634033,-3.5762072911893483e-06,0.6727239489555359,-0.4349164366722107,0.23053351044654846,0.6473742127418518,-0.3187498450279236,-0.6321884989738464,-0.2822108566761017,8.635414123535156,-0.7495837807655334,-4.378229141235352,0.11644173413515091,-0.3365892767906189,0.3160286843776703,0.3737230896949768,-0.655046284198761,-0.5444586277008057,-0.36716511845588684
5025277,9.826422691345215,-0.46730896830558777,0.003481382504105568,0.8034511208534241,-0.2682673931121826,0.23604021966457367,0.647375226020813,-0.318693071603775,-0.6322267055511475,-0.2821870744228363,8.658753395080566,-0.742910623550415,-4.395359516143799,0.20992808043956757,-0.11190187931060791,0.515039324760437,0.37371256947517395,-0.6550397872924805,-0.5444826483726501,-0.36715176701545715
5025610,9.818187713623047,-0.471426397562027,0.01316095981746912,0.5495652556419373,-0.05295425280928612,0.3432677686214447,0.6474275588989258,-0.3185618817806244,-0.6322731375694275,-0.2821109890937805,8.66203498840332,-0.7404966354370117,-4.389941215515137,0.2959611415863037,0.19728823006153107,0.6346122622489929,0.3737626373767853,-0.6549887657165527,-0.5445237755775452,-0.36713099479675293
5025777,9.815788269042969,-0.44717252254486084,0.024772386997938156,0.4347051680088043,0.008945235051214695,0.3333812952041626,0.6474565267562866,-0.3185012638568878,-0.6322840452194214,-0.28208863735198975,8.644691467285156,-0.7276226878166199,-4.381978988647461,0.10875792056322098,0.4809616506099701,0.6934317350387573,0.3738013207912445,-0.6549650430679321,-0.5444996953010559,-0.36716973781585693
5025943,9.824889183044434,-0.4705466330051422,0.01624670997262001,0.5502439141273499,0.05623908340930939,0.5395122170448303,0.6474900245666504,-0.3184775710105896,-0.6322696805000305,-0.2820706367492676,8.630464553833008,-0.7584949135780334,-4.378902435302734,0.14140130579471588,0.7536472678184509,0.6404903531074524,0.373856782913208,-0.6549282670021057,-0.544458270072937,-0.36724042892456055
5026110,9.793722152709961,-0.46654170751571655,0.012339426204562187,0.7871358394622803,-0.04689684882760048,0.5691717863082886,0.6475311517715454,-0.31842726469039917,-0.6322790384292603,-0.2820119857788086,8.58782958984375,-0.7639438509941101,-4.37298059463501,0.223221093416214,0.6372119784355164,0.6984776258468628,0.37392905354499817,-0.6548748016357422,-0.544450044631958,-0.3672739267349243
5026277,9.787357330322266,-0.44255924224853516,-0.0275296438485384,0.5496805310249329,-0.20016323029994965,0.4887222945690155,0.647540807723999,-0.3184051811695099,-0.6322931051254272,-0.2819831371307373,8.590993881225586,-0.7349857091903687,-4.382266521453857,0.21329614520072937,0.36707478761672974,0.6660005450248718,0.3739583492279053,-0.6548617482185364,-0.5444250702857971,-0.36730465292930603
5026443,9.81584358215332,-0.42631617188453674,-0.024754326790571213,0.048273537307977676,-0.10538344830274582,0.15609019994735718,0.6475210785865784,-0.3183981478214264,-0.6322919726371765,-0.2820388972759247,8.580111503601074,-0.7796918749809265,-4.372231483459473,-0.07861817628145218,0.22865094244480133,0.6514653563499451,0.3739505112171173,-0.6548668146133423,-0.5443982481956482,-0.3673432767391205
5026610,9.825718879699707,-0.5026752948760986,-0.06879192590713501,0.09136690199375153,-0.05516975373029709,0.47396939992904663,0.6475086808204651,-0.31844162940979004,-0.63225919008255,-0.28209182620048523,8.539037704467773,-0.7491250038146973,-4.383413314819336,0.27356284856796265,-0.2392866611480713,0.7953959703445435,0.3739568889141083,-0.6548737287521362,-0.5444211959838867,-0.3672904074192047
5026777,9.803732872009277,-0.44898080825805664,-0.0525190606713295,0.8612974286079407,0.2800044119358063,0.5596438646316528,0.6475707292556763,-0.3183959126472473,-0.632228434085846,-0.2820698320865631,8.701481819152832,-0.7438471913337708,-4.410843372344971,-0.03448750078678131,-0.5068113207817078,0.7885830402374268,0.37390097975730896,-0.6549274921417236,-0.54442298412323,-0.3672487139701843
5026943,9.834710121154785,-0.37598466873168945,0.02074909210205078,0.13371747732162476,0.6714176535606384,0.43123453855514526,0.6476404666900635,-0.31836560368537903,-0.6321502923965454,-0.28211909532546997,8.67220687866211,-0.6945852041244507,-4.398505687713623,-0.30103883147239685,0.19773642718791962,0.7187243103981018,0.37388160824775696,-0.6549375653266907,-0.5443973541259766,-0.36728841066360474
5027110,9.802291870117188,-0.39208102226257324,0.011644833721220493,-1.1553761959075928,0.41526511311531067,-0.24740588665008545,0.6475791335105896,-0.3184497356414795,-0.6320515275001526,-0.28238633275032043,8.656866073608398,-0.6988933086395264,-4.379266738891602,-1.159435749053955,0.3361603021621704,0.10305910557508469,0.37375250458717346,-0.6549461483955383,-0.5443671941757202,-0.36744919419288635
5027277,9.880899429321289,-0.5133431553840637,-0.02554124966263771,-0.02531815506517887,0.5706445574760437,-0.32717663049697876,0.6475845575332642,-0.31840482354164124,-0.6319926381111145,-0.28255632519721985,8.596314430236816,-0.7786106467247009,-4.382558822631836,-1.213440179824829,0.28090089559555054,0.05571402609348297,0.3736240267753601,-0.6549363732337952,-0.5443670153617859,-0.36759787797927856
5027443,9.812566757202148,-0.44210126996040344,0.06308509409427643,1.382400631904602,0.7622787952423096,0.38437619805336,0.6477150321006775,-0.3182554543018341,-0.6319558024406433,-0.28250810503959656,8.757001876831055,-0.8107333183288574,-4.343629360198975,-0.40843287110328674,0.06105426698923111,0.4914500415325165,0.37356486916542053,-0.6549496054649353,-0.5443548560142517,-0.36765235662460327
5027610,9.830224990844727,-0.41122809052467346,0.04660513252019882,0.049298036843538284,0.48111528158187866,0.4233074486255646,0.6477615237236023,-0.3182421624660492,-0.6318908333778381,-0.28256163001060486,8.688689231872559,-0.7574991583824158,-4.34431791305542,0.23551517724990845,1.5266896486282349,0.8659461140632629,0.3737223446369171,-0.6548507809638977,-0.5442960262298584,-0.3677554428577423
5027777,9.776517868041992,-0.4881594479084015,0.06393901258707047,-0.4631672501564026,0.38325563073158264,0.36153602600097656,0.647761344909668,-0.31830132007598877,-0.6318034529685974,-0.2826910614967346,8.549895286560059,-0.7340734601020813,-4.352578639984131,0.3304358720779419,1.3425216674804688,1.0957818031311035,0.3738616406917572,-0.6548111438751221,-0.5441855192184448,-0.3678480088710785
5027943,9.780996322631836,-0.5246971845626831,0.05776531994342804,0.23140433430671692,-0.7199090123176575,0.6662439703941345,0.6477116942405701,-0.31835198402404785,-0.6318424940109253,-0.28266003727912903,8.538731575012207,-0.7856034636497498,-4.334715843200684,0.545121431350708,0.8569048047065735,1.066147804260254,0.3739776015281677,-0.6547887921333313,-0.5441092252731323,-0.36788272857666016
5028110,9.807750701904297,-0.4772261381149292,-0.003971740137785673,1.0025643110275269,-0.17868700623512268,0.8722853660583496,0.6477614045143127,-0.31831538677215576,-0.6318582892417908,-0.28255194425582886,8.58100700378418,-0.8284651041030884,-4.346199989318848,1.251622200012207,0.5027452707290649,1.0272293090820312,0.37414586544036865,-0.6547220945358276,-0.5441204309463501,-0.36781376600265503
5028277,9.769082069396973,-0.46208807826042175,0.025122150778770447,1.3180872201919556,0.5272694826126099,1.014448642730713,0.6478809714317322,-0.31826838850975037,-0.6317959427833557,-0.2824704349040985,8.619194984436035,-0.8171522617340088,-4.351294040679932,1.9817636013031006,0.35270610451698303,0.8658437728881836,0.3743601441383362,-0.654615044593811,-0.5441893339157104,-0.3676844537258148
5028443,9.76091480255127,-0.4742445945739746,0.017983755096793175,0.8799307942390442,-0.16837789118289948,1.0649183988571167,0.6479299068450928,-0.3182693421840668,-0.6317923665046692,-0.282365083694458,8.664595603942871,-0.7843387126922607,-4.3477396965026855,2.303010940551758,0.34860801696777344,0.8979108929634094,0.374606728553772,-0.6544933915138245,-0.5442720055580139,-0.3675271272659302
5028610,9.827770233154297,-0.4751931130886078,0.0028912737034261227,1.003255844116211,0.0008260095492005348,0.88254314661026,0.6479870676994324,-0.3182474672794342,-0.6317798495292664,-0.2822864353656769,8.653546333312988,-0.7404616475105286,-4.361197471618652,2.0660293102264404,0.8001856207847595,0.732875406742096,0.37485289573669434,-0.6543548703193665,-0.544323742389679,-0.36744606494903564
5028777,9.837940216064453,-0.44868215918540955,0.03812327980995178,1.1720564365386963,0.07607612013816833,0.764788806438446,0.648074209690094,-0.31815028190612793,-0.6317959427833557,-0.28216004371643066,8.614063262939453,-0.6910898089408875,-4.364750385284424,1.6710046529769897,-0.04812626540660858,0.6974786520004272,0.37499380111694336,-0.6542778015136719,-0.5444071292877197,-0.36731618642807007
5028943,9.829704284667969,-0.4650024473667145,0.027094615623354912,1.1841967105865479,-0.03945636376738548,0.9106659293174744,0.6481362581253052,-0.3181174099445343,-0.6317923665046692,-0.2820625603199005,8.697996139526367,-0.7429330348968506,-4.340246677398682,0.7899661064147949,0.7867517471313477,1.020147442817688,0.3751525580883026,-0.6542003750801086,-0.5444033741950989,-0.36729735136032104
5029110,9.814399719238281,-0.4104556441307068,0.054568078368902206,0.5042564272880554,-0.09052808582782745,1.1041314601898193,0.6481696963310242,-0.3181694447994232,-0.6317561268806458,-0.28200823068618774,8.652698516845703,-0.6670264005661011,-4.308017730712891,0.4745713174343109,0.16114871203899384,1.3556225299835205,0.37523695826530457,-0.6542197465896606,-0.5443606972694397,-0.3672400414943695
5029277,9.8510103225708,-0.4217957556247711,0.017408976331353188,-0.2435639649629593,0.07123532146215439,0.45784619450569153,0.6481630206108093,-0.31821131706237793,-0.6317111253738403,-0.282076895236969,8.606350898742676,-0.7027683258056641,-4.341577529907227,-0.5610718131065369,0.5134001970291138,1.1206260919570923,0.37523338198661804,-0.6542631387710571,-0.5442593693733215,-0.3673163652420044
5029443,9.803861618041992,-0.4693843722343445,0.00030040141427889466,0.23511816561222076,0.08908736705780029,0.34293484687805176,0.6481736898422241,-0.31820040941238403,-0.6316875219345093,-0.28211766481399536,8.596789360046387,-0.7870513200759888,-4.352721214294434,-1.1741758584976196,0.21387243270874023,0.9035584926605225,0.3751451075077057,-0.6543259024620056,-0.5441781878471375,-0.36741510033607483
5029610,9.757445335388184,-0.44646087288856506,0.03211791813373566,0.32527485489845276,-0.36694031953811646,0.6279913187026978,0.6481617093086243,-0.31821775436401367,-0.631701648235321,-0.2820938229560852,8.595319747924805,-0.8200485706329346,-4.346746444702148,-0.8424272537231445,-0.06595270335674286,0.9115495085716248,0.37505611777305603,-0.6544007062911987,-0.5441115498542786,-0.3674715757369995
5029777,9.825640678405762,-0.44341036677360535,-0.03829760476946831,-0.08969566971063614,-0.3408537805080414,0.3065391778945923,0.64811110496521,-0.31826314330101013,-0.6317011117935181,-0.28216010332107544,8.605201721191406,-0.7981505393981934,-4.32958984375,-0.5353182554244995,-0.29669755697250366,0.6890521049499512,0.37495851516723633,-0.6544662117958069,-0.5440793037414551,-0.3675024211406708
5029943,9.798395156860352,-0.4970068633556366,-0.012019675225019455,-0.01699402555823326,-0.12346602231264114,0.18411049246788025,0.6480695009231567,-0.3183017075061798,-0.6316786408424377,-0.28226238489151,8.596823692321777,-0.7959886193275452,-4.343214511871338,-0.2654115855693817,-0.48981720209121704,0.48835089802742004,0.3748706877231598,-0.654495358467102,-0.5441108345985413,-0.3674931824207306
5030110,9.784306526184082,-0.4945894777774811,0.013639654964208603,0.14742028713226318,-0.22119125723838806,0.1731482446193695,0.6480384469032288,-0.31829971075057983,-0.6316871643066406,-0.28231677412986755,8.629888534545898,-0.7948621511459351,-4.361438751220703,-0.2187708616256714,-0.5857751965522766,0.2717571556568146,0.3747639060020447,-0.6545170545578003,-0.544161856174469,-0.3674877882003784
5030277,9.805327415466309,-0.46648406982421875,0.03842277079820633,0.27447208762168884,-0.26666659116744995,0.11913105100393295,0.648003101348877,-0.31829142570495605,-0.6317033767700195,-0.2823713421821594,8.66071605682373,-0.7885429859161377,-4.342087745666504,-0.11875326931476593,-0.4873712360858917,0.27142417430877686,0.3746812343597412,-0.6545172929763794,-0.5442265272140503,-0.36747631430625916
5030443,9.813613891601562,-0.4674067199230194,0.04242812469601631,0.09009906649589539,-0.20249398052692413,0.17690050601959229,0.6479758620262146,-0.31828415393829346,-0.631712794303894,-0.28242096304893494,8.663949012756348,-0.7605734467506409,-4.357089996337891,-0.021181702613830566,-0.21289274096488953,0.279837965965271,0.37462952733039856,-0.6544986963272095,-0.5442795753479004,-0.36748334765434265
5030610,9.813084602355957,-0.4905054271221161,0.03145274147391319,0.06201474368572235,-0.286285936832428,0.05762217193841934,0.6479282379150391,-0.31828656792640686,-0.6317268013954163,-0.2824959456920624,8.665990829467773,-0.7565001845359802,-4.353399276733398,-0.1340312510728836,-0.0866989865899086,0.5001968145370483,0.3745919466018677,-0.6544920802116394,-0.544304609298706,-0.3674962520599365
5030777,9.821317672729492,-0.4822804629802704,0.04035045951604843,0.28378230333328247,-0.35357049107551575,0.13890406489372253,0.6478903293609619,-0.3182734251022339,-0.631754994392395,-0.2825346291065216,8.63710880279541,-0.7671679854393005,-4.360319137573242,-0.2226639986038208,0.03358465060591698,0.5429188013076782,0.3745489716529846,-0.6545004844665527,-0.5442980527877808,-0.36753496527671814
5030943,9.81993579864502,-0.47442659735679626,0.02171100303530693,0.23507975041866302,-0.3338615298271179,0.2185339480638504,0.6478533744812012,-0.31827598810195923,-0.6317731142044067,-0.2825759947299957,8.605642318725586,-0.7673396468162537,-4.349551200866699,-0.2089868038892746,-0.016417738050222397,0.5205460786819458,0.374498188495636,-0.654514729976654,-0.5442897081375122,-0.36757341027259827
5031110,9.821942329406738,-0.46550416946411133,-0.0014698212035000324,0.3366469144821167,-0.15654481947422028,0.1448718160390854,0.6478352546691895,-0.3182530105113983,-0.6317829489707947,-0.2826213240623474,8.62513256072998,-0.7730615735054016,-4.349701404571533,-0.35836008191108704,-0.24945487082004547,0.43045341968536377,0.37441977858543396,-0.654528021812439,-0.5443126559257507,-0.36759570240974426
5031277,9.819467544555664,-0.4671456515789032,-0.01386853214353323,0.38583609461784363,-0.23083443939685822,0.16623280942440033,0.6478282809257507,-0.3181965947151184,-0.6318182945251465,-0.28262168169021606,8.605076789855957,-0.7713557481765747,-4.382749557495117,-0.22455933690071106,-0.2695480287075043,0.40920767188072205,0.37434592843055725,-0.6545416712760925,-0.5443356037139893,-0.3676127791404724
5031443,9.81600570678711,-0.4615345895290375,0.0001966913987416774,0.22895832359790802,-0.2869262397289276,0.2133217602968216,0.6478022336959839,-0.3181808888912201,-0.6318405270576477,-0.28264936804771423,8.619514465332031,-0.7730687260627747,-4.368394374847412,-0.14476294815540314,-0.3967791199684143,0.39094582200050354,0.3742768466472626,-0.6545434594154358,-0.5443873405456543,-0.3676033318042755
5031610,9.798532485961914,-0.4798268973827362,0.0014660026645287871,0.5591444373130798,-0.15009041130542755,0.31312164664268494,0.6478147506713867,-0.3181225657463074,-0.6318666338920593,-0.2826281189918518,8.627635955810547,-0.7673038840293884,-4.367793560028076,0.036824654787778854,-0.37549492716789246,0.44366955757141113,0.37421154975891113,-0.654565155506134,-0.544409990310669,-0.3675977289676666
5031777,9.810054779052734,-0.46753546595573425,0.009226614609360695,0.7139092087745667,-0.14385373890399933,0.28630515933036804,0.6478200554847717,-0.31807783246040344,-0.6318840980529785,-0.28262731432914734,8.619610786437988,-0.7696570158004761,-4.365905284881592,0.20010562241077423,-0.3464885950088501,0.4311833679676056,0.3741794228553772,-0.6545513272285461,-0.5444703698158264,-0.36756542325019836
5031943,9.806780815124512,-0.4811679422855377,0.0001787824439816177,0.955885112285614,-0.06322494894266129,0.31714287400245667,0.6478469371795654,-0.3180060386657715,-0.6319044232368469,-0.2826012372970581,8.63650131225586,-0.7539753317832947,-4.37321138381958,0.4058908522129059,-0.17875103652477264,0.35137423872947693,0.3741711974143982,-0.6545179486274719,-0.5445320010185242,-0.36754199862480164
5032110,9.806072235107422,-0.47166764736175537,0.021103009581565857,1.0273189544677734,-0.022616012021899223,0.44194069504737854,0.6478995680809021,-0.3179067075252533,-0.6319336891174316,-0.28252679109573364,8.646857261657715,-0.7495087385177612,-4.381282329559326,0.4679888188838959,-0.1320718675851822,0.432002991437912,0.3741794526576996,-0.6544813513755798,-0.5445910692214966,-0.36751121282577515
5032277,9.82109546661377,-0.4604562819004059,0.03024337999522686,0.8695192337036133,-0.017826439812779427,0.5710031986236572,0.6479371190071106,-0.31786438822746277,-0.6319344639778137,-0.2824864983558655,8.666123390197754,-0.7660199999809265,-4.380778789520264,0.5592085123062134,-0.0029454606119543314,0.5861146450042725,0.3742118179798126,-0.6544482707977295,-0.5446298122406006,-0.3674798309803009
5032443,9.83796501159668,-0.46500352025032043,0.04474041610956192,0.759141206741333,0.1189902052283287,0.7514190077781677,0.6479865908622742,-0.31785011291503906,-0.6319060325622559,-0.2824527621269226,8.678055763244629,-0.7556288838386536,-4.36373233795166,0.5638187527656555,0.45105886459350586,0.7783764004707336,0.37428179383277893,-0.6544198393821716,-0.5446085333824158,-0.36749082803726196
5032610,9.813213348388672,-0.4490714967250824,0.04049697145819664,0.44246578216552734,0.20810958743095398,0.6578941941261292,0.6480445265769958,-0.3178113102912903,-0.6318817138671875,-0.28241774439811707,8.663209915161133,-0.7394282817840576,-4.3543620109558105,0.5335829854011536,0.7882757186889648,0.9882084131240845,0.3744034767150879,-0.6543670296669006,-0.5445770621299744,-0.36750730872154236
5032777,9.78859806060791,-0.4554764926433563,0.02103167586028576,0.42790499329566956,0.15279895067214966,0.5111590623855591,0.6480770111083984,-0.31779366731643677,-0.631852924823761,-0.2824276387691498,8.621354103088379,-0.7440626621246338,-4.366775035858154,0.23195502161979675,0.9142261743545532,0.8779201507568359,0.37449461221694946,-0.6543238162994385,-0.5445225834846497,-0.3675721287727356
5032943,9.807440757751465,-0.45561954379081726,0.027876535430550575,0.47162583470344543,0.13923704624176025,0.5705292820930481,0.6481056213378906,-0.31779366731643677,-0.6318163275718689,-0.2824437618255615,8.592818260192871,-0.7657731175422668,-4.344182968139648,0.07949541509151459,1.0080710649490356,0.9252780675888062,0.3745935261249542,-0.6542702317237854,-0.5444716215133667,-0.3676423132419586
5033110,9.790897369384766,-0.4589458703994751,-0.016465721651911736,0.5695815682411194,0.0073060221038758755,0.7662614583969116,0.6481460332870483,-0.31778213381767273,-0.6318002939224243,-0.2823997735977173,8.577733993530273,-0.7428810596466064,-4.340472221374512,0.20287179946899414,0.6430260539054871,1.004677414894104,0.3746577501296997,-0.654266357421875,-0.5444020628929138,-0.36768674850463867
5033277,9.815770149230957,-0.43035364151000977,-0.0061796861700713634,0.3838767409324646,0.2261793464422226,0.6859528422355652,0.6482005715370178,-0.3177580237388611,-0.6317669749259949,-0.28237634897232056,8.609634399414062,-0.7320506572723389,-4.3698930740356445,-0.07161311060190201,0.4876081049442291,0.713422417640686,0.37468090653419495,-0.6542436480522156,-0.5443775057792664,-0.36773988604545593
5033443,9.852075576782227,-0.4360255002975464,-0.004670526832342148,-0.031759750097990036,0.27572712302207947,0.4444636106491089,0.6482135653495789,-0.3177866041660309,-0.6317038536071777,-0.28245559334754944,8.610091209411621,-0.7971889972686768,-4.3568549156188965,-0.3927195072174072,0.39870646595954895,0.6501975655555725,0.3746573328971863,-0.65424644947052,-0.5443364977836609,-0.36781957745552063
5033610,9.829558372497559,-0.5272684097290039,-0.041672319173812866,0.3826729357242584,0.15737082064151764,0.8393857479095459,0.6482676863670349,-0.31777939200401306,-0.6316701173782349,-0.2824149429798126,8.610021591186523,-0.7503031492233276,-4.37531042098999,0.09047045558691025,0.1392754763364792,0.8531142473220825,0.37466350197792053,-0.6542624831199646,-0.544304609298706,-0.3678320050239563
5033777,9.821675300598145,-0.44315049052238464,0.0025039103347808123,0.8313817977905273,0.626838743686676,0.8033870458602905,0.6483730673789978,-0.3177323639392853,-0.6315997242927551,-0.2823835015296936,8.718952178955078,-0.7764185667037964,-4.390013217926025,-0.31887808442115784,0.5024122595787048,0.7277528047561646,0.37464410066604614,-0.6542839407920837,-0.5442277193069458,-0.3679274916648865
5033944,9.813992500305176,-0.38695958256721497,0.08858321607112885,0.05763497203588486,0.6631191372871399,0.6486223340034485,0.648443341255188,-0.3177337348461151,-0.6315059065818787,-0.28243041038513184,8.629999160766602,-0.7285393476486206,-4.36547327041626,-0.44454678893089294,0.8630134463310242,0.3868221938610077,0.3746311366558075,-0.654254138469696,-0.5441712141036987,-0.3680771291255951
5034110,9.822184562683105,-0.4453679323196411,0.01860777474939823,-0.8254972696304321,0.26335617899894714,-0.2512093484401703,0.6483935117721558,-0.3177644610404968,-0.6314484477043152,-0.2826384902000427,8.674476623535156,-0.7285738587379456,-4.343725204467773,-1.0489554405212402,0.8129919171333313,-0.06043316796422005,0.3745371997356415,-0.6542173027992249,-0.5441367626190186,-0.3682892620563507
5034277,9.858311653137207,-0.5337189435958862,0.026945529505610466,0.9635560512542725,1.1649487018585205,-0.1226079910993576,0.6485174894332886,-0.317594051361084,-0.6313772797584534,-0.282704621553421,8.663551330566406,-0.7963661551475525,-4.3306050300598145,-1.1266130208969116,1.403607964515686,-0.21252138912677765,0.3744850754737854,-0.6541250944137573,-0.5440995097160339,-0.3685609698295593
5034444,9.783315658569336,-0.4570986330509186,0.09800057858228683,1.4787172079086304,0.6957498788833618,0.4493556022644043,0.648648738861084,-0.31744036078453064,-0.6313484311103821,-0.2826405465602875,8.689952850341797,-0.7872359752655029,-4.3097662925720215,-0.3272406756877899,1.3401652574539185,0.28394877910614014,0.37452077865600586,-0.6540461778640747,-0.5440437197685242,-0.3687468469142914
5034610,9.793343544006348,-0.4361506700515747,0.10628845542669296,0.21236127614974976,0.3386062979698181,0.5079318284988403,0.6486846804618835,-0.3174411654472351,-0.6312904357910156,-0.28268659114837646,8.68763542175293,-0.7471134066581726,-4.298271656036377,-0.007658197078853846,1.7304770946502686,0.88055819272995,0.3746468424797058,-0.6539813280105591,-0.5439205169677734,-0.3689156472682953
5034777,9.80482006072998,-0.5200055837631226,0.04215278849005699,-0.03511501103639603,0.06962171941995621,0.6501079201698303,0.648689866065979,-0.31749066710472107,-0.63124018907547,-0.28273138403892517,8.610321998596191,-0.7706263661384583,-4.297155380249023,0.1614048331975937,1.760636329650879,1.2299154996871948,0.3748290240764618,-0.6539055109024048,-0.5438050627708435,-0.3690352141857147
5034944,9.809747695922852,-0.5281235575675964,0.007985671050846577,0.2699642777442932,0.05088603124022484,0.7051880359649658,0.648714005947113,-0.3175082802772522,-0.6312061548233032,-0.28273236751556396,8.563661575317383,-0.7936702370643616,-4.293446063995361,0.5432389378547668,1.3225693702697754,1.1893447637557983,0.37500426173210144,-0.6538382768630981,-0.5437265038490295,-0.36909180879592896
5035110,9.804585456848145,-0.5124651193618774,0.01885685883462429,1.0213384628295898,0.3862074911594391,0.9324367046356201,0.6488102078437805,-0.3174682557582855,-0.6311578750610352,-0.28266429901123047,8.583524703979492,-0.8196808099746704,-4.273528575897217,1.1436007022857666,0.6720452904701233,1.2292110919952393,0.3751859664916992,-0.6537789702415466,-0.5437087416648865,-0.369038462638855
5035277,9.783528327941895,-0.4717061519622803,0.059405773878097534,0.94100421667099,0.4862763285636902,0.977963387966156,0.648913562297821,-0.3174365162849426,-0.6310945749282837,-0.2826040983200073,8.63342571258545,-0.8522443175315857,-4.270330429077148,1.7869789600372314,0.380534291267395,1.1722357273101807,0.3754110634326935,-0.6536843180656433,-0.543760359287262,-0.36890122294425964
5035444,9.784952163696289,-0.48412784934043884,0.022306332364678383,0.4182490110397339,0.23477241396903992,1.0272806882858276,0.6489888429641724,-0.31743088364601135,-0.6310504078865051,-0.2825358510017395,8.67651653289795,-0.8131943941116333,-4.311967372894287,2.3560802936553955,0.24082982540130615,0.8325471878051758,0.37565308809280396,-0.6535518765449524,-0.5438665747642517,-0.3687327802181244
5035610,9.813740730285645,-0.5032343864440918,0.01194150559604168,0.9379947185516357,0.2538538873195648,1.037051796913147,0.6490710377693176,-0.3174191415309906,-0.631003737449646,-0.2824644446372986,8.630900382995605,-0.7795586585998535,-4.3018341064453125,2.1339924335479736,0.3117898106575012,0.5168194770812988,0.3758554458618164,-0.6534129977226257,-0.5439743399620056,-0.36861366033554077
5035777,9.822432518005371,-0.46177855134010315,0.05121820420026779,1.0399460792541504,-0.08667337894439697,1.0150249004364014,0.6491442918777466,-0.3173685371875763,-0.6310155391693115,-0.2823266386985779,8.677992820739746,-0.7319549322128296,-4.320257186889648,1.5878400802612305,-0.455841988325119,0.43921294808387756,0.3759598135948181,-0.6533113121986389,-0.5441359281539917,-0.3684490919113159
5035944,9.798370361328125,-0.47331440448760986,0.05567362159490585,1.2268801927566528,-0.05747489631175995,1.0284843444824219,0.649215817451477,-0.3173304796218872,-0.6310163140296936,-0.28220346570014954,8.629781723022461,-0.7594767808914185,-4.330439567565918,1.1183336973190308,-0.11030108481645584,0.9184008240699768,0.3760470747947693,-0.6532918214797974,-0.5441625118255615,-0.36835533380508423
5036110,9.827420234680176,-0.4367348253726959,0.04367907717823982,0.32458972930908203,-0.6571065783500671,1.0039921998977661,0.6491890549659729,-0.31740114092826843,-0.6310369968414307,-0.28213903307914734,8.691394805908203,-0.6856886148452759,-4.289027690887451,0.4772222340106964,-0.42928168177604675,1.0830777883529663,0.3760582208633423,-0.6533351540565491,-0.5441592931747437,-0.36827176809310913
5036277,9.86469841003418,-0.4627826511859894,0.012920912355184555,0.04823511466383934,-0.19433633983135223,0.47651785612106323,0.649174153804779,-0.31742188334465027,-0.631031334400177,-0.28216245770454407,8.617517471313477,-0.731566846370697,-4.310998916625977,-0.642533004283905,-0.50918048620224,1.0142821073532104,0.37596508860588074,-0.6534197926521301,-0.5441300868988037,-0.36826011538505554
5036444,9.788826942443848,-0.4961022138595581,0.02212599478662014,0.6913187503814697,0.25325194001197815,0.38766738772392273,0.6492239236831665,-0.3173605501651764,-0.6310114860534668,-0.2821614444255829,8.585052490234375,-0.8378337025642395,-4.310810089111328,-1.2695447206497192,-0.5633001327514648,0.8754228949546814,0.37580788135528564,-0.6535205245018005,-0.5440953373908997,-0.36829283833503723
5036610,9.780104637145996,-0.4623604416847229,0.05049942433834076,0.22902238368988037,-0.5336533784866333,0.5640107989311218,0.6491787433624268,-0.3174107074737549,-0.6310291290283203,-0.2821698784828186,8.661823272705078,-0.8389772772789001,-4.3117780685424805,-0.8001279234886169,-1.3257004022598267,0.7415708899497986,0.37561118602752686,-0.6536501049995422,-0.5441105365753174,-0.3682411313056946
5036777,9.821967124938965,-0.4724313020706177,-0.015735311433672905,-0.06331459432840347,0.001287038205191493,0.3380044102668762,0.649158775806427,-0.3174476623535156,-0.6309936046600342,-0.28225335478782654,8.645941734313965,-0.8210914134979248,-4.323009967803955,-0.790574312210083,-0.6407784819602966,0.5115175843238831,0.37546825408935547,-0.6537084579467773,-0.5441299676895142,-0.3682546615600586
5036944,9.79076862335205,-0.4826982021331787,0.052670784294605255,0.3343673646450043,0.17586319148540497,0.2304694801568985,0.6491838693618774,-0.31739625334739685,-0.6309804320335388,-0.2822829782962799,8.596822738647461,-0.7892844676971436,-4.342131614685059,-0.8344745635986328,-0.9807999134063721,0.24472296237945557,0.37528860569000244,-0.6537548899650574,-0.544204592704773,-0.3682449460029602
5037110,9.766318321228027,-0.46381211280822754,0.05665820091962814,0.3300260305404663,-0.8333475589752197,0.04792776331305504,0.6490963697433472,-0.31739717721939087,-0.6310568451881409,-0.2823122441768646,8.62397289276123,-0.7753098011016846,-4.34379768371582,-0.9821062088012695,-1.1840367317199707,-0.1441226601600647,0.37505728006362915,-0.6537901163101196,-0.5443189740180969,-0.36824923753738403
5037277,9.825945854187012,-0.47679343819618225,0.016067495569586754,0.11462321877479553,-0.9986262917518616,-0.09809663146734238,0.6489768028259277,-0.3174141049385071,-0.6311455965042114,-0.28236982226371765,8.640103340148926,-0.7819472551345825,-4.374871253967285,-1.0236114263534546,-1.1126283407211304,-0.1492067575454712,0.37482914328575134,-0.6538205146789551,-0.5444311499595642,-0.3682619333267212
5037444,9.822009086608887,-0.4968964159488678,0.04840748757123947,0.31045791506767273,-0.6887638568878174,-0.09919798374176025,0.648902177810669,-0.31738290190696716,-0.6312217116355896,-0.28240612149238586,8.679715156555176,-0.7670915126800537,-4.3402419090271,-1.0238291025161743,-1.0006240606307983,-0.04690965637564659,0.3746088147163391,-0.6538628339767456,-0.5445153117179871,-0.3682864308357239
5037610,9.793874740600586,-0.4857451617717743,0.03486460819840431,0.021943680942058563,-0.8927178978919983,-0.18373271822929382,0.6487975120544434,-0.31736764311790466,-0.6313152313232422,-0.28245484828948975,8.669389724731445,-0.7871775031089783,-4.369272232055664,-1.040669560432434,-0.6029869914054871,0.17689411342144012,0.3744186460971832,-0.6539192199707031,-0.5445349812507629,-0.36835047602653503
5037777,9.826616287231445,-0.4790322482585907,0.03125661611557007,0.03449390456080437,-0.8865835666656494,-0.32543492317199707,0.6486889719963074,-0.31733623147010803,-0.6314159631729126,-0.2825142741203308,8.672257423400879,-0.7596933245658875,-4.37188720703125,-0.9739614129066467,-0.3180457353591919,0.1557188332080841,0.37427014112472534,-0.6539346575737,-0.5445695519447327,-0.36842280626296997
5037944,9.80307674407959,-0.49250686168670654,0.04670441150665283,0.31988346576690674,-0.9068048596382141,-0.24047765135765076,0.6485835313796997,-0.31731244921684265,-0.6315134167671204,-0.28256556391716003,8.637259483337402,-0.7607015371322632,-4.367834091186523,-0.9157821536064148,-0.08356143534183502,0.18850308656692505,0.37413743138313293,-0.6539518237113953,-0.544573187828064,-0.36852163076400757
5038110,9.807286262512207,-0.47641870379447937,0.030765656381845474,0.35926294326782227,-0.9628965854644775,-0.2082952857017517,0.6484804153442383,-0.317280650138855,-0.6316208243370056,-0.28259751200675964,8.637506484985352,-0.7856927514076233,-4.363119602203369,-0.736941397190094,0.1418367326259613,0.16455520689487457,0.3740342855453491,-0.6539508104324341,-0.5445698499679565,-0.36863312125205994
5038277,9.812865257263184,-0.4892204999923706,0.029352916404604912,0.4365364611148834,-1.0140708684921265,-0.12244152277708054,0.6483803391456604,-0.31725025177001953,-0.6317329406738281,-0.2826105058193207,8.60498046875,-0.7980844974517822,-4.380642414093018,-0.39008140563964844,0.2414701133966446,0.22573110461235046,0.3739907741546631,-0.653907835483551,-0.5446012020111084,-0.36870700120925903
5038444,9.82083511352539,-0.48656564950942993,0.006114223040640354,0.45070022344589233,-0.8571801781654358,0.06953207403421402,0.6482916474342346,-0.3172553777694702,-0.6318089962005615,-0.28263822197914124,8.650712966918945,-0.7832108736038208,-4.369492530822754,0.1700875163078308,0.0020426122937351465,0.37290164828300476,0.3739829957485199,-0.6538695096969604,-0.5446493029594421,-0.36871224641799927
5038610,9.815468788146973,-0.4892519414424896,0.012670127674937248,0.391496479511261,-0.7746944427490234,0.141619011759758,0.6482316851615906,-0.3172229826450348,-0.6318951845169067,-0.2826193869113922,8.635832786560059,-0.7781614661216736,-4.38008975982666,0.5341976881027222,0.4430420398712158,0.300456166267395,0.37403982877731323,-0.6537829637527466,-0.5446985363960266,-0.36873531341552734
5038777,9.821159362792969,-0.48650047183036804,-0.011134420521557331,0.6864651441574097,-0.5254189372062683,0.2905568778514862,0.6481990814208984,-0.3172002136707306,-0.6319458484649658,-0.2826063632965088,8.606372833251953,-0.7647308707237244,-4.386220932006836,0.7235395312309265,0.2011941373348236,0.4237300753593445,0.3740787208080292,-0.6537421941757202,-0.5447188019752502,-0.3687380850315094
5038944,9.80167007446289,-0.45904988050460815,-0.014709188602864742,0.7115015387535095,-0.7577772736549377,0.3900749683380127,0.6481626629829407,-0.31716662645339966,-0.6320288181304932,-0.28254204988479614,8.60166072845459,-0.7782629132270813,-4.3862714767456055,0.8965148329734802,0.26449593901634216,0.5094045400619507,0.3741718530654907,-0.6536556482315063,-0.54478520154953,-0.3686988651752472
5039110,9.842089653015137,-0.4725085496902466,-0.009595951065421104,0.5637418627738953,-0.7510539889335632,0.5044484734535217,0.6481170058250427,-0.31717410683631897,-0.6320914030075073,-0.28249847888946533,8.651097297668457,-0.7487689852714539,-4.378444194793701,0.8912386894226074,0.0024011903442442417,0.6911137700080872,0.3742412030696869,-0.6536152362823486,-0.5448276996612549,-0.368637353181839
5039277,9.823848724365234,-0.45932090282440186,-0.0016271743224933743,0.6068353056907654,-0.26146724820137024,0.49694404006004333,0.6481286287307739,-0.31713324785232544,-0.6321218609809875,-0.2824496328830719,8.643218040466309,-0.7448937892913818,-4.364555358886719,0.7682721614837646,0.495061457157135,0.557044267654419,0.37433922290802,-0.6535319685935974,-0.5448646545410156,-0.36863085627555847
5039444,9.801311492919922,-0.4556978940963745,0.0036365617997944355,0.394979864358902,-0.3198642134666443,0.39375048875808716,0.648120105266571,-0.317106693983078,-0.632153332233429,-0.282428503036499,8.620336532592773,-0.7162356376647949,-4.367650508880615,0.46318644285202026,0.5003377199172974,0.4455777108669281,0.3744032382965088,-0.6534556150436401,-0.5448963046073914,-0.3686544895172119
5039610,9.819955825805664,-0.4629473388195038,-0.007273850962519646,0.7039970755577087,-0.36968088150024414,0.3494788706302643,0.6481137275695801,-0.3170616030693054,-0.6321978569030762,-0.282394140958786,8.629095077514648,-0.7426030039787292,-4.361248970031738,0.03234243392944336,0.43758654594421387,0.4093869626522064,0.37442469596862793,-0.6533949971199036,-0.5449216365814209,-0.3687025010585785
5039777,9.807088851928711,-0.46010053157806396,0.010539641603827477,1.0698232650756836,-0.17449934780597687,0.5050632357597351,0.6481528282165527,-0.31697848439216614,-0.632236897945404,-0.2823101580142975,8.654293060302734,-0.7553092837333679,-4.3505706787109375,-0.07692774385213852,0.5425729751586914,0.451801598072052,0.37443459033966064,-0.6533548831939697,-0.5449111461639404,-0.3687789738178253
5039944,9.787988662719727,-0.4464757442474365,0.026359617710113525,0.881557047367096,-0.14437878131866455,0.5295617580413818,0.6481766104698181,-0.3169374465942383,-0.6322524547576904,-0.28226688504219055,8.661026000976562,-0.7359403967857361,-4.353170871734619,-0.06310969591140747,0.7461812496185303,0.4408778250217438,0.3744634985923767,-0.6532989740371704,-0.544895350933075,-0.3688720166683197
5040110,9.779343605041504,-0.4358700215816498,0.007337858900427818,0.8213545083999634,-0.28230318427085876,0.5220829844474792,0.6481881141662598,-0.3168991208076477,-0.6322829127311707,-0.28221532702445984,8.572576522827148,-0.7473762631416321,-4.367982864379883,-0.14148452877998352,1.0159212350845337,0.5798779129981995,0.37452423572540283,-0.6532287001609802,-0.5448657274246216,-0.36897850036621094
5040277,9.81570053100586,-0.4636504650115967,-0.03701302781701088,0.55149906873703,-0.5073620676994324,0.42023399472236633,0.6481518745422363,-0.3169090747833252,-0.6323166489601135,-0.28221195936203003,8.621587753295898,-0.7933019399642944,-4.350857257843018,-0.15521295368671417,0.42379412055015564,0.7804893255233765,0.37454113364219666,-0.6532160639762878,-0.5448378920555115,-0.36902502179145813
5040444,9.804970741271973,-0.5023057460784912,-0.04414018616080284,0.5872415900230408,-0.1093406230211258,0.7588850855827332,0.6481704115867615,-0.31692418456077576,-0.6323019862174988,-0.28218498826026917,8.592817306518555,-0.7474360466003418,-4.361355781555176,0.3048999607563019,0.3960299491882324,0.877241313457489,0.3745953142642975,-0.6532019376754761,-0.5448094606399536,-0.36903712153434753
5040610,9.802931785583496,-0.42980363965034485,-0.0407114177942276,0.8680464625358582,-0.05929340049624443,0.7572330832481384,0.648206889629364,-0.3169094920158386,-0.6322951912879944,-0.282133013010025,8.674286842346191,-0.7454035878181458,-4.381869792938232,0.2198658287525177,0.2593221962451935,0.8185243010520935,0.3746339678764343,-0.6531848311424255,-0.5448021292686462,-0.3690389394760132
5040777,9.853924751281738,-0.3802688419818878,0.0019490330014377832,-0.04655108600854874,0.300251305103302,0.3922649025917053,0.648220419883728,-0.31692972779273987,-0.6322354674339294,-0.282213032245636,8.672538757324219,-0.6586014628410339,-4.334810256958008,-0.10483277589082718,0.3956841826438904,0.41044989228248596,0.37462738156318665,-0.6531509160995483,-0.5448026061058044,-0.3691050112247467
5040944,9.899547576904297,-0.42726245522499084,0.029636632651090622,-0.6161390542984009,0.5769708156585693,-0.20280134677886963,0.648216962814331,-0.31691884994506836,-0.6321630477905273,-0.2823953628540039,8.758917808532715,-0.7459380030632019,-4.330517292022705,-0.9191374182701111,0.8996397852897644,0.19654545187950134,0.3745708167552948,-0.6531177759170532,-0.5447517037391663,-0.36929619312286377
5041110,9.812132835388184,-0.5145138502120972,0.10684837400913239,0.6593157052993774,1.0735371112823486,0.18075521290302277,0.6483339071273804,-0.3168015778064728,-0.6320792436599731,-0.2824462354183197,8.723698616027832,-0.8153036236763,-4.3383564949035645,-0.5385966300964355,1.758843183517456,0.5666489601135254,0.3746482729911804,-0.6530332565307617,-0.5446553826332092,-0.36950892210006714
5041277,9.778749465942383,-0.46299707889556885,0.13401518762111664,0.4985959827899933,0.21631847321987152,0.5708109736442566,0.6483767628669739,-0.31678012013435364,-0.6320462822914124,-0.2824455797672272,8.714003562927246,-0.7756706476211548,-4.323091506958008,-0.01964494213461876,2.083791732788086,0.7024731040000916,0.374809205532074,-0.6529115438461304,-0.5445591807365417,-0.3697027564048767
5041444,9.813616752624512,-0.4758751690387726,0.07675255835056305,-0.0396740697324276,0.21387243270874023,0.31844907999038696,0.6483842730522156,-0.31678709387779236,-0.6320022344589233,-0.28251922130584717,8.615407943725586,-0.7462738752365112,-4.28618049621582,0.07642188668251038,2.7040157318115234,0.6222028732299805,0.37501445412635803,-0.6527602076530457,-0.5444227457046509,-0.36996254324913025
5041610,9.773138046264648,-0.48611006140708923,0.03592681139707565,0.40603169798851013,0.39684951305389404,0.4446684420108795,0.6484361886978149,-0.3167523145675659,-0.6319549679756165,-0.2825445234775543,8.564702033996582,-0.7729748487472534,-4.276134014129639,-0.0023051430471241474,2.132366180419922,0.4989546239376068,0.3751618564128876,-0.6526304483413696,-0.5443293452262878,-0.37017926573753357
5041777,9.76606273651123,-0.47709405422210693,0.02584451250731945,0.5432517528533936,0.019049445167183876,0.6615695953369141,0.6484610438346863,-0.3167572021484375,-0.6319304704666138,-0.2825370728969574,8.569253921508789,-0.7894565463066101,-4.28852653503418,0.3607996702194214,1.8526113033294678,0.30169835686683655,0.3753071129322052,-0.6524869799613953,-0.5442814230918884,-0.37035563588142395
5041944,9.793705940246582,-0.48004844784736633,0.012594356201589108,1.2227694988250732,0.4048663377761841,0.7374600768089294,0.6485641002655029,-0.316670686006546,-0.6319031715393066,-0.2824583351612091,8.61940860748291,-0.7985485792160034,-4.285309314727783,0.743030846118927,1.091363549232483,0.1965070366859436,0.37542304396629333,-0.6523546576499939,-0.5443063378334045,-0.37043455243110657
5042110,9.780534744262695,-0.44509145617485046,0.03392115607857704,1.3243494033813477,0.5392561554908752,0.7862650752067566,0.6486798524856567,-0.3165876567363739,-0.631858229637146,-0.2823863923549652,8.688541412353516,-0.7719501852989197,-4.295172691345215,1.2446171045303345,1.0159342288970947,0.3100353479385376,0.3755951523780823,-0.6521962285041809,-0.544365644454956,-0.3704518973827362
5042277,9.804224014282227,-0.4787430465221405,0.011735945008695126,0.7793880701065063,0.43830376863479614,0.7818213105201721,0.648766815662384,-0.31654664874076843,-0.6318070888519287,-0.28234657645225525,8.687994003295898,-0.766707181930542,-4.290750026702881,1.3688645362854004,0.8372728228569031,0.49348628520965576,0.37577223777770996,-0.6520591378211975,-0.5444191098213196,-0.3704349100589752
5042444,9.831533432006836,-0.4869372248649597,0.04741929471492767,0.9015989899635315,0.4608173370361328,0.8142340779304504,0.6488627195358276,-0.31649672985076904,-0.6317571401596069,-0.28229403495788574,8.654399871826172,-0.734859824180603,-4.284433841705322,1.4124058485031128,0.8928778767585754,0.7634056806564331,0.37597236037254333,-0.6519386768341064,-0.544445276260376,-0.370405375957489
5042610,9.837455749511719,-0.4824216961860657,0.05079462006688118,0.8106611967086792,0.10099728405475616,0.8731304407119751,0.6489255428314209,-0.3164719045162201,-0.6317365169525146,-0.2822236716747284,8.727578163146973,-0.7471383213996887,-4.273353576660156,1.2820243835449219,0.15268370509147644,1.1038881540298462,0.3761289715766907,-0.6518798470497131,-0.5444872379302979,-0.370288223028183
5042777,9.79028606414795,-0.475891649723053,0.0545555055141449,0.8779073357582092,0.38006046414375305,1.1445739269256592,0.6490256786346436,-0.31646010279655457,-0.6316767930984497,-0.2821405231952667,8.625153541564941,-0.7611491680145264,-4.304308891296387,1.5575275421142578,0.44806212186813354,1.5719730854034424,0.37634140253067017,-0.6518527269363403,-0.5444527268409729,-0.37017086148262024
5042944,9.829774856567383,-0.4414548873901367,0.029526442289352417,-0.04461732134222984,-0.2672172784805298,1.0737419128417969,0.6490115523338318,-0.3165758550167084,-0.6316331624984741,-0.2821405827999115,8.689493179321289,-0.7338375449180603,-4.256340503692627,1.1425248384475708,0.07867580652236938,1.5188651084899902,0.37649935483932495,-0.651840090751648,-0.5444499254226685,-0.3700368106365204
5043110,9.824660301208496,-0.48269858956336975,0.011157766915857792,-0.0009348635212518275,-0.024383287876844406,0.833046555519104,0.6490243673324585,-0.3166280686855316,-0.6315933465957642,-0.2821417450904846,8.638653755187988,-0.7755635380744934,-4.2575297355651855,0.8549326658248901,-0.05310792848467827,1.3041794300079346,0.3766014873981476,-0.6518425941467285,-0.5444476008415222,-0.3699316382408142
5043277,9.743947982788086,-0.4675624966621399,0.036416634917259216,0.8524355292320251,0.344010591506958,0.9421055912971497,0.6491153240203857,-0.31659358739852905,-0.6315491795539856,-0.2820700705051422,8.613935470581055,-0.8233020305633545,-4.268311500549316,0.8399365544319153,-0.050047215074300766,1.2086312770843506,0.37670379877090454,-0.6518293023109436,-0.5444639921188354,-0.3698267340660095
5043444,9.775583267211914,-0.45224931836128235,0.07012585550546646,0.2786341607570648,-0.5738268494606018,0.8979876041412354,0.6490891575813293,-0.3166567087173462,-0.6315653324127197,-0.28202328085899353,8.647215843200684,-0.7912757992744446,-4.261904716491699,0.9338198304176331,-0.5405048727989197,1.0617552995681763,0.37675777077674866,-0.6518403887748718,-0.5445083975791931,-0.3696867823600769
5043610,9.818347930908203,-0.4760803282260895,0.003991991281509399,0.06575419753789902,-0.5989529490470886,0.680407702922821,0.649038553237915,-0.3167283833026886,-0.6315813064575195,-0.2820233106613159,8.610771179199219,-0.7654537558555603,-4.283167362213135,0.7322606444358826,-0.4173973798751831,0.9698441624641418,0.37678971886634827,-0.6518584489822388,-0.5445322394371033,-0.3695873022079468
5043777,9.783987998962402,-0.4625001549720764,0.024958349764347076,0.36962324380874634,-0.5242407321929932,0.5396018624305725,0.6490139961242676,-0.3167315125465393,-0.631621241569519,-0.2819870412349701,8.631782531738281,-0.732994019985199,-4.278684616088867,0.3701227605342865,-0.9431237578392029,0.7167778015136719,0.3767493963241577,-0.6518819332122803,-0.5446164608001709,-0.3694630563259125
5043944,9.777965545654297,-0.46610498428344727,0.019118404015898705,0.007792663760483265,-0.642481803894043,0.4826904833316803,0.6489457488059998,-0.31679844856262207,-0.6316452026367188,-0.28201544284820557,8.667460441589355,-0.7499878406524658,-4.296248435974121,-0.07450734078884125,-0.888837456703186,0.7181480526924133,0.37665459513664246,-0.6519495844841003,-0.5446466207504272,-0.369395911693573
5044110,9.815305709838867,-0.471723347902298,0.036109257489442825,0.42338430881500244,-0.30225545167922974,0.4849316477775574,0.6489330530166626,-0.31680116057395935,-0.6316595077514648,-0.2820092737674713,8.678991317749023,-0.7755329608917236,-4.307956218719482,-0.37297213077545166,-0.9192014336585999,0.6851205229759216,0.3765330910682678,-0.6520236730575562,-0.5446760654449463,-0.369345486164093
