sampleTimeFine,D4:22:CD:00:A9:12_acc_x,D4:22:CD:00:A9:12_acc_y,D4:22:CD:00:A9:12_acc_z,D4:22:CD:00:A9:12_gyro_x,D4:22:CD:00:A9:12_gyro_y,D4:22:CD:00:A9:12_gyro_z,D4:22:CD:00:A9:12_quat_w,D4:22:CD:00:A9:12_quat_x,D4:22:CD:00:A9:12_quat_y,D4:22:CD:00:A9:12_quat_z,D4:22:CD:00:A1:93_acc_x,D4:22:CD:00:A1:93_acc_y,D4:22:CD:00:A1:93_acc_z,D4:22:CD:00:A1:93_gyro_x,D4:22:CD:00:A1:93_gyro_y,D4:22:CD:00:A1:93_gyro_z,D4:22:CD:00:A1:93_quat_w,D4:22:CD:00:A1:93_quat_x,D4:22:CD:00:A1:93_quat_y,D4:22:CD:00:A1:93_quat_z
1677408,-0.38770803809165955,0.35545411705970764,-0.4383452832698822,-0.32289478182792664,0.2054455578327179,-0.3866121768951416,0.7519474625587463,-0.2544754445552826,-0.5226876735687256,-0.3108294606208801,0.3745481073856354,0.375463604927063,0.39137014746665955,0.04671749845147133,-0.07166741043329239,-0.49765682220458984,0.39151865243911743,-0.5982863306999207,-0.5322068929672241,-0.4533458650112152
1677575,9.272526741027832,-0.5614568591117859,3.185997724533081,0.5751139521598816,-0.19167263805866241,0.6316283941268921,0.7519623041152954,-0.2545296549797058,-0.522634744644165,-0.3108381927013397,9.314488410949707,0.13444069027900696,-2.742130994796753,0.3761928975582123,-0.2906016707420349,1.0304948091506958,0.391266405582428,-0.598781943321228,-0.5315423607826233,-0.45368891954421997
1677742,9.28147029876709,-0.5723156929016113,3.216779947280884,0.5821958184242249,-0.19703848659992218,0.6312825679779053,0.7517881393432617,-0.2548239529132843,-0.5224743485450745,-0.31128746271133423,9.32059097290039,0.11892664432525635,-2.725123405456543,0.23677021265029907,-0.4360690712928772,1.1389391422271729,0.3913610279560089,-0.5988555550575256,-0.5315004587173462,-0.45355916023254395
1677908,9.265616416931152,-0.5690820813179016,3.174527645111084,0.38094407320022583,-0.1736028492450714,0.7321325540542603,0.7519416809082031,-0.25476154685020447,-0.522326648235321,-0.31121569871902466,9.335230827331543,0.10392452776432037,-2.7405028343200684,0.16802571713924408,-0.3320302367210388,1.1440616846084595,0.3915952742099762,-0.5988807082176208,-0.5314082503318787,-0.4534318447113037
1678075,9.27591609954834,-0.5629557967185974,3.1831247806549072,0.22447608411312103,-0.04810064658522606,0.6720708012580872,0.7518975734710693,-0.2549462616443634,-0.5221977233886719,-0.31138768792152405,9.351449966430664,0.10771625488996506,-2.7250804901123047,0.21234847605228424,-0.2828538119792938,0.9834955930709839,0.3916091024875641,-0.5992015600204468,-0.5310184955596924,-0.45345258712768555
1678242,9.26496696472168,-0.562544584274292,3.1817946434020996,0.11138322204351425,-0.036152325570583344,0.7687331438064575,0.7517684698104858,-0.25524410605430603,-0.5220539569854736,-0.31169599294662476,9.354303359985352,0.08081555366516113,-2.7264132499694824,0.37311938405036926,-0.129638671875,0.8404999375343323,0.3916870057582855,-0.5994039177894592,-0.5307050943374634,-0.4534849524497986
1678408,9.262656211853027,-0.5757800936698914,3.160780668258667,0.020035535097122192,0.03717042878270149,0.5403575897216797,0.7516766786575317,-0.25544121861457825,-0.5219598412513733,-0.31191352009773254,9.376545906066895,0.08929072320461273,-2.7470061779022217,0.36138877272605896,-0.012793542817234993,0.7541083097457886,0.39199984073638916,-0.5993523001670837,-0.5306647419929504,-0.4533299207687378
1678575,9.277358055114746,-0.5857362747192383,3.173694372177124,0.22461695969104767,0.06192510202527046,0.5862810611724854,0.7515875101089478,-0.2556361258029938,-0.52189701795578,-0.31207337975502014,9.359806060791016,0.10974673926830292,-2.7339415550231934,0.48730093240737915,0.12790343165397644,0.7292256355285645,0.39207395911216736,-0.5995553731918335,-0.5303530097007751,-0.45336201786994934
1678742,9.2766752243042,-0.5864372253417969,3.1920902729034424,0.2902238965034485,-0.0374329537153244,0.6354061961174011,0.7516010403633118,-0.2556780278682709,-0.5219242572784424,-0.3119613230228424,9.353984832763672,0.10412842780351639,-2.7360384464263916,0.3813026547431946,0.10842495411634445,0.5838991403579712,0.3921707570552826,-0.5996395945549011,-0.5301890969276428,-0.45335856080055237
1678908,9.282976150512695,-0.5817452073097229,3.192258596420288,0.24154697358608246,-0.14373847842216492,0.6431668996810913,0.751628041267395,-0.25571325421333313,-0.5219492316246033,-0.31182539463043213,9.369720458984375,0.12223470211029053,-2.7475175857543945,0.2338247299194336,0.393775999546051,0.49726414680480957,0.3923150599002838,-0.5996239185333252,-0.5301133990287781,-0.4533429443836212
1679075,9.29244613647461,-0.5741242170333862,3.1675896644592285,0.30988165736198425,-0.1270902305841446,0.6282090544700623,0.7516281008720398,-0.2557930648326874,-0.5219392776489258,-0.3117765188217163,9.372396469116211,0.10475006699562073,-2.732786178588867,0.04895227029919624,0.8914051055908203,0.29150453209877014,0.392416387796402,-0.5995902419090271,-0.5300070643424988,-0.4534241259098053
1679242,9.283991813659668,-0.5680125951766968,3.169116973876953,0.24656705558300018,-0.2375705987215042,0.5233250856399536,0.7516099214553833,-0.25586453080177307,-0.5219594836235046,-0.31172797083854675,9.351534843444824,0.09079156816005707,-2.777799367904663,-0.0019209523452445865,1.1385294198989868,0.21432065963745117,0.3925175070762634,-0.5995397567749023,-0.5298888087272644,-0.45354169607162476
1679408,9.278656005859375,-0.5768422484397888,3.169463872909546,0.09811583906412125,-0.2817780673503876,0.6908705234527588,0.7515996694564819,-0.25593873858451843,-0.5219881534576416,-0.3116438090801239,9.3029203414917,0.10639943927526474,-2.751664876937866,-0.006736139301210642,1.1016085147857666,0.31465840339660645,0.3926873505115509,-0.5994216799736023,-0.5298823714256287,-0.4535582363605499
1679575,9.257473945617676,-0.5718462467193604,3.1720492839813232,-0.031247494742274284,-0.3509451746940613,0.7039843201637268,0.7515531778335571,-0.25607436895370483,-0.521996259689331,-0.3116309344768524,9.29882526397705,0.09653613716363907,-2.7382519245147705,-0.03902094066143036,0.5856022834777832,0.27355000376701355,0.392691045999527,-0.599467396736145,-0.5297730565071106,-0.45362237095832825
1679742,9.241005897521973,-0.592835009098053,3.1931991577148438,0.19891461730003357,-0.4007618725299835,0.6473545432090759,0.751562237739563,-0.2560925781726837,-0.5220613479614258,-0.3114847242832184,9.317056655883789,0.10559824854135513,-2.7447140216827393,0.12892791628837585,0.543917715549469,0.5219932198524475,0.39273735880851746,-0.5995071530342102,-0.5296804308891296,-0.4536377191543579
1679908,9.265634536743164,-0.5608422756195068,3.206881523132324,-0.006518431939184666,-0.47544851899147034,0.533672571182251,0.7515320181846619,-0.2561770975589752,-0.5220924615859985,-0.3114360570907593,9.332141876220703,0.12215251475572586,-2.7346792221069336,-0.021360987797379494,0.1978132575750351,0.6434614062309265,0.39271265268325806,-0.5996289253234863,-0.5295435786247253,-0.45365792512893677
1680075,9.284626960754395,-0.6015859246253967,3.144219160079956,-0.10407719761133194,0.0002497238165233284,0.5558403730392456,0.7515619397163391,-0.2562057673931122,-0.522078275680542,-0.31136420369148254,9.365017890930176,0.11153832823038101,-2.7503466606140137,-0.29075533151626587,0.0750131905078888,0.5299971699714661,0.3926719129085541,-0.5997282266616821,-0.5294458270072937,-0.45367616415023804
1680242,9.269035339355469,-0.5946338772773743,3.1521191596984863,0.3145047426223755,0.2842945158481598,0.5648176670074463,0.7515743374824524,-0.2562696039676666,-0.5220155715942383,-0.3113868832588196,9.39345932006836,0.15473534166812897,-2.724740982055664,-0.5228447914123535,0.1506987065076828,0.15953508019447327,0.3926181495189667,-0.5997739434242249,-0.5293981432914734,-0.4537179172039032
1680409,9.2795991897583,-0.5446882247924805,3.1515395641326904,0.12845410406589508,0.20458786189556122,0.10883477330207825,0.7515648007392883,-0.25630348920822144,-0.52198326587677,-0.3114362955093384,9.407760620117188,0.14353255927562714,-2.72275447845459,-0.89265376329422,0.42369166016578674,-0.23671256005764008,0.3925529718399048,-0.5997490286827087,-0.5293857455253601,-0.4538217782974243
1680575,9.314875602722168,-0.5655986666679382,3.1904561519622803,0.21420539915561676,0.18796521425247192,-0.18990537524223328,0.7515727281570435,-0.25624391436576843,-0.5220015048980713,-0.3114352524280548,9.358699798583984,0.09402904659509659,-2.6944425106048584,-0.7732858061790466,0.6755926012992859,0.15851059556007385,0.3924413025379181,-0.5998449921607971,-0.5291961431503296,-0.4540126919746399
1680742,9.310111999511719,-0.5171946287155151,3.2158544063568115,0.8440216183662415,0.23604021966457367,-0.11911187320947647,0.7515880465507507,-0.2561550736427307,-0.522020161151886,-0.31144043803215027,9.316645622253418,0.08829297870397568,-2.690591812133789,-0.1674814224243164,0.5377578139305115,0.5447372794151306,0.39244285225868225,-0.5999000072479248,-0.5290641784667969,-0.4540921747684479
1680909,9.273655891418457,-0.5561074018478394,3.219273090362549,0.3491074740886688,0.2471945583820343,0.023262731730937958,0.7516105771064758,-0.2560911476612091,-0.52202308177948,-0.3114337623119354,9.323883056640625,0.12580806016921997,-2.6710457801818848,0.22346441447734833,0.3629767596721649,0.7273814082145691,0.39248740673065186,-0.5999538898468018,-0.5289530754089355,-0.4541119635105133
1681075,9.291468620300293,-0.5909894704818726,3.1976778507232666,0.22836925089359283,-0.4716578722000122,-0.7167842984199524,0.75152188539505,-0.2560509741306305,-0.5221030116081238,-0.3115467429161072,9.329527854919434,0.11169679462909698,-2.670077323913574,0.7946916222572327,0.07229824364185333,0.7690916657447815,0.3925943970680237,-0.5999586582183838,-0.5289309024810791,-0.454039067029953
1681242,9.237009048461914,-0.6294742822647095,3.2164840698242188,0.7308135628700256,-0.6816179156303406,-1.1541081666946411,0.751427173614502,-0.25592002272605896,-0.5222493410110474,-0.31163763999938965,9.357300758361816,0.1121387854218483,-2.6828951835632324,1.3439432382583618,-0.2368534654378891,1.0135778188705444,0.3927629888057709,-0.5999479293823242,-0.5289629697799683,-0.45387011766433716
1681409,9.228476524353027,-0.5824833512306213,3.196829319000244,0.7492674589157104,-0.5491490364074707,-0.8034831285476685,0.7513697147369385,-0.2558041512966156,-0.5223647952079773,-0.3116772770881653,9.365845680236816,0.11669359356164932,-2.7123796939849854,1.6741036176681519,-0.2627094089984894,1.0894297361373901,0.39293691515922546,-0.5999573469161987,-0.5289728045463562,-0.4536954462528229
1681575,9.259211540222168,-0.5721030235290527,3.1840102672576904,0.6224333643913269,-0.36911740899086,-0.5702155232429504,0.7513501048088074,-0.25568580627441406,-0.5224560499191284,-0.31166863441467285,9.346139907836914,0.10212109982967377,-2.689154863357544,1.9556641578674316,-0.438912034034729,1.2713953256607056,0.39315709471702576,-0.5999481081962585,-0.5290279984474182,-0.453452467918396
1681742,9.248929977416992,-0.5902060866355896,3.1975104808807373,0.8855399489402771,-0.17072144150733948,0.012697496451437473,0.7513373494148254,-0.25564977526664734,-0.5224786996841431,-0.3116910457611084,9.36248779296875,0.14821670949459076,-2.685377836227417,2.0297741889953613,-0.6234387159347534,1.382669448852539,0.39338600635528564,-0.5999460220336914,-0.5290982723236084,-0.4531748294830322
1681909,9.266207695007324,-0.5921358466148376,3.18742299079895,1.1218937635421753,0.056725721806287766,0.4740462303161621,0.7513973712921143,-0.25557395815849304,-0.5224875211715698,-0.3115943670272827,9.35340404510498,0.13712522387504578,-2.6975040435791016,1.7431941032409668,-0.7409626245498657,1.3554432392120361,0.39355483651161194,-0.5999889969825745,-0.5291304588317871,-0.45293349027633667
1682075,9.252500534057617,-0.5777009725570679,3.217766761779785,1.182455062866211,0.20439574122428894,0.6217930316925049,0.7514927983283997,-0.25547266006469727,-0.5224890112876892,-0.31144461035728455,9.40127182006836,0.13623927533626556,-2.7025277614593506,1.4529634714126587,-0.6029356718063354,1.1447532176971436,0.39369943737983704,-0.6000149250030518,-0.5291633009910583,-0.45273518562316895
1682242,9.254796028137207,-0.5378217101097107,3.2150356769561768,0.9176837205886841,0.19263949990272522,0.5919159054756165,0.7515565752983093,-0.2554338872432709,-0.5224611163139343,-0.31136929988861084,9.4111909866333,0.1586722433567047,-2.705395221710205,1.1035679578781128,-0.19794774055480957,0.9212824106216431,0.39381641149520874,-0.6000300049781799,-0.5291536450386047,-0.4526247978210449
1682409,9.28372859954834,-0.5509124398231506,3.2063422203063965,0.7685409784317017,0.18398241698741913,0.7965868711471558,0.7516350150108337,-0.2554054856300354,-0.5224286317825317,-0.3112572133541107,9.348755836486816,0.11893431842327118,-2.731905937194824,0.5340055227279663,-0.13090650737285614,0.9255980849266052,0.3939027488231659,-0.6000532507896423,-0.5291245579719543,-0.4525528848171234
1682575,9.265609741210938,-0.5216982364654541,3.2323877811431885,0.9636715054512024,0.27988916635513306,0.9046597480773926,0.7517334818840027,-0.255357563495636,-0.5223916172981262,-0.31112128496170044,9.339035034179688,0.08840354532003403,-2.710367441177368,0.48809483647346497,0.04965662211179733,1.260496973991394,0.3940375745296478,-0.6000727415084839,-0.5290783047676086,-0.4524635970592499
1682742,9.235395431518555,-0.5209658741950989,3.2185583114624023,0.6373144388198853,0.11137042939662933,0.8613103628158569,0.7518032193183899,-0.2553498446941376,-0.522357702255249,-0.31101593375205994,9.372260093688965,0.1285380870103836,-2.723282814025879,0.1981334239244461,-0.1353374868631363,0.8534727692604065,0.3940739929676056,-0.6001291275024414,-0.5290153622627258,-0.45243069529533386
1682909,9.2615385055542,-0.5616706013679504,3.2258195877075195,0.2006818950176239,-0.07060140371322632,0.8373111486434937,0.751847505569458,-0.2553844451904297,-0.5223292708396912,-0.3109282851219177,9.438139915466309,0.088418148458004,-2.7130467891693115,-0.019811421632766724,0.2911715507507324,0.6223053336143494,0.3941301107406616,-0.600125789642334,-0.5289648771286011,-0.4524453282356262
1683075,9.237051010131836,-0.5557571649551392,3.208231210708618,0.818946897983551,-0.3392402231693268,0.6387999057769775,0.7518779039382935,-0.25536155700683594,-0.5223581790924072,-0.3108248710632324,9.43485164642334,0.05234628543257713,-2.7238168716430664,0.19459886848926544,0.8725542426109314,0.597550630569458,0.39424216747283936,-0.600078821182251,-0.5288865566253662,-0.45250168442726135
1683242,9.267866134643555,-0.5106754302978516,3.2308173179626465,0.4898748993873596,-0.16429263353347778,0.3816227912902832,0.7518863677978516,-0.2553664445877075,-0.5223530530929565,-0.31080907583236694,9.394109725952148,0.033461131155490875,-2.698573589324951,0.7008211016654968,1.225292444229126,0.4726119637489319,0.39438316226005554,-0.6000138521194458,-0.5287824869155884,-0.45258644223213196
1683409,9.26107120513916,-0.5670684576034546,3.252506971359253,0.11733818054199219,-0.2828666567802429,0.6791271567344666,0.7518681883811951,-0.25546613335609436,-0.522319495677948,-0.31082770228385925,9.354001998901367,0.036925069987773895,-2.7013115882873535,1.073408842086792,1.454704999923706,0.2933614253997803,0.3945818543434143,-0.5998807549476624,-0.5287256240844727,-0.4526563882827759
1683575,9.251119613647461,-0.6290212869644165,3.2597944736480713,0.7372295260429382,-0.6690549850463867,0.9790005683898926,0.7518795728683472,-0.25550222396850586,-0.5223607420921326,-0.3107006549835205,9.343116760253906,0.03443869575858116,-2.6556451320648193,1.5058153867721558,1.5584238767623901,-0.21234209835529327,0.3947831690311432,-0.5996915698051453,-0.5287191271781921,-0.45273858308792114
1683742,9.257417678833008,-0.5993726253509521,3.2426626682281494,1.1130961179733276,-0.8530310392379761,1.111546516418457,0.7519020438194275,-0.2555125951766968,-0.5224338173866272,-0.31051504611968994,9.300094604492188,0.04650535434484482,-2.70062518119812,1.899854063987732,1.5536472797393799,-0.49068811535835266,0.3950384557247162,-0.5994176864624023,-0.5288087129592896,-0.45277413725852966
1683909,9.240457534790039,-0.587317943572998,3.2202701568603516,1.2180564403533936,-0.7744766473770142,1.2323228120803833,0.751936674118042,-0.25552481412887573,-0.5224937796592712,-0.3103201389312744,9.291714668273926,0.08860088884830475,-2.6665403842926025,2.004558801651001,1.2244727611541748,-0.5567048788070679,0.39525553584098816,-0.5991770029067993,-0.5289057493209839,-0.4527900218963623
1684075,9.221522331237793,-0.5945088267326355,3.1937520503997803,1.5138963460922241,-0.7764617800712585,1.2358574867248535,0.7519679665565491,-0.2555299401283264,-0.5225549340248108,-0.3101370632648468,9.309356689453125,0.12868021428585052,-2.6735317707061768,1.6793925762176514,0.8752435445785522,-0.6563125848770142,0.3954484462738037,-0.5989260077476501,-0.5290607213973999,-0.4527726471424103
1684242,9.229578971862793,-0.5602437257766724,3.1988155841827393,1.7856215238571167,-0.9085848331451416,1.0965245962142944,0.7519885897636414,-0.2555091977119446,-0.5226444602012634,-0.30995333194732666,9.336790084838867,0.17121398448944092,-2.6956241130828857,1.244053602218628,0.4689749479293823,-0.4740782678127289,0.39553961157798767,-0.5987905859947205,-0.5291385650634766,-0.4527810215950012
1684409,9.24708366394043,-0.5550017952919006,3.20194935798645,1.668187141418457,-0.92802494764328,1.0015270709991455,0.7520074248313904,-0.25547972321510315,-0.5227421522140503,-0.3097672760486603,9.339648246765137,0.18001219630241394,-2.7291107177734375,0.6502488255500793,0.28120821714401245,-0.10786788165569305,0.39557504653930664,-0.5987419486045837,-0.529143750667572,-0.4528084099292755
1684575,9.283954620361328,-0.5638263821601868,3.154356002807617,1.4986567497253418,-0.7166560888290405,0.9723156690597534,0.752058207988739,-0.2554163634777069,-0.5228304266929626,-0.3095473349094391,9.30685043334961,0.18173928558826447,-2.7059121131896973,-0.1605404019355774,-0.18771547079086304,0.364782452583313,0.3955346345901489,-0.5988036394119263,-0.5290877819061279,-0.4528277516365051
1684742,9.301554679870605,-0.5492970943450928,3.15071702003479,1.1165919303894043,-0.4006594717502594,0.929324746131897,0.7520833611488342,-0.2554316222667694,-0.5228441953659058,-0.30945006012916565,9.328689575195312,0.15741458535194397,-2.7357616424560547,-0.8461284041404724,-0.400633841753006,0.5655348300933838,0.3954322338104248,-0.5989295244216919,-0.5289880633354187,-0.4528670310974121
1684909,9.282828330993652,-0.5438060760498047,3.1848723888397217,1.0001951456069946,-0.3791447877883911,0.8359152674674988,0.752127468585968,-0.2554055154323578,-0.5228787660598755,-0.3093060255050659,9.320914268493652,0.13337092101573944,-2.735387086868286,-1.3446667194366455,-0.6874576807022095,0.6591107845306396,0.39530643820762634,-0.5990660786628723,-0.5289160013198853,-0.4528804421424866
1685075,9.285009384155273,-0.5565363764762878,3.1752383708953857,0.6327680945396423,-0.3452335596084595,0.6547182202339172,0.752132773399353,-0.2554354965686798,-0.5228854417800903,-0.30925703048706055,9.345273971557617,0.09368937462568283,-2.7387754917144775,-1.5021718740463257,-1.0225101709365845,0.5972817540168762,0.39514482021331787,-0.5992186665534973,-0.5288716554641724,-0.4528712034225464
1685242,9.28546142578125,-0.5542511343955994,3.150949001312256,0.15142866969108582,-0.3364996016025543,0.5488993525505066,0.7520989775657654,-0.2555374205112457,-0.5228610038757324,-0.30929648876190186,9.35860824584961,0.0746234878897667,-2.745694160461426,-1.5118918418884277,-1.1112836599349976,0.35369208455085754,0.3949165940284729,-0.599409818649292,-0.528796911239624,-0.45290470123291016
1685409,9.286352157592773,-0.5685132741928101,3.1658053398132324,0.045007914304733276,-0.2811890244483948,0.5390768647193909,0.7520830035209656,-0.2556154429912567,-0.5228434801101685,-0.3093003034591675,9.357576370239258,0.04459733888506889,-2.744492769241333,-1.1367172002792358,-1.0161069631576538,0.3250443637371063,0.3947278559207916,-0.599570631980896,-0.5287454128265381,-0.4529164731502533
1685575,9.29351806640625,-0.5680233240127563,3.1513359546661377,-0.08354861289262772,-0.2425522655248642,0.316041499376297,0.7520601749420166,-0.2556796371936798,-0.5228298902511597,-0.30932581424713135,9.335768699645996,0.05572671815752983,-2.721019983291626,-0.6732425689697266,-1.145668864250183,-0.10827768594026566,0.39452892541885376,-0.5996963977813721,-0.528752326965332,-0.4529153108596802
1685742,9.289624214172363,-0.5734555721282959,3.155910015106201,0.06937839090824127,-0.2133665829896927,0.32445529103279114,0.752030074596405,-0.2557516098022461,-0.5228087902069092,-0.30937525629997253,9.346586227416992,0.07626192271709442,-2.735828161239624,-0.3279961943626404,-1.0290286540985107,-0.1812610626220703,0.3944222331047058,-0.5997231006622314,-0.5288568139076233,-0.45285072922706604
1685909,9.280389785766602,-0.5872024893760681,3.1470444202423096,0.15532179176807404,-0.23961961269378662,0.23296670615673065,0.7519909143447876,-0.25581806898117065,-0.522794246673584,-0.30944007635116577,9.35990047454834,0.0969657227396965,-2.7569026947021484,-0.08754420280456543,-0.9859224557876587,-0.17813631892204285,0.3942999243736267,-0.5997812151908875,-0.5289208889007568,-0.4528055489063263
1686075,9.282621383666992,-0.5995118021965027,3.1575193405151367,0.43891844153404236,-0.267972856760025,0.20728999376296997,0.7519882321357727,-0.2558031678199768,-0.5228219628334045,-0.309411883354187,9.380304336547852,0.12751325964927673,-2.7616755962371826,-0.05888358876109123,-0.728540301322937,-0.1625894159078598,0.3942296802997589,-0.5997886061668396,-0.5290094017982483,-0.4527535140514374
1686242,9.277568817138672,-0.5813338160514832,3.165905475616455,0.7241670489311218,-0.17978835105895996,0.19932442903518677,0.7520037293434143,-0.25575050711631775,-0.5228550434112549,-0.3093618154525757,9.398380279541016,0.14183595776557922,-2.7456510066986084,0.003118346445262432,-0.31930074095726013,-0.020528579130768776,0.3941560685634613,-0.5998339056968689,-0.5290017127990723,-0.4527665972709656
1686409,9.282292366027832,-0.5728261470794678,3.1725499629974365,0.6741198897361755,-0.06049720197916031,0.16665543615818024,0.7520116567611694,-0.25571802258491516,-0.5228635668754578,-0.30935508012771606,9.393583297729492,0.14758966863155365,-2.743358612060547,-0.19811423122882843,0.32241904735565186,0.1588563621044159,0.3941618502140045,-0.5998196601867676,-0.5289769172668457,-0.4528094530105591
1686575,9.280855178833008,-0.5850711464881897,3.2114555835723877,0.720888614654541,-0.017826437950134277,0.21603670716285706,0.7520253658294678,-0.25568443536758423,-0.5228669047355652,-0.3093438446521759,9.3502197265625,0.14320921897888184,-2.729422092437744,-0.32738152146339417,0.6345354914665222,0.43697190284729004,0.3941778838634491,-0.5998369455337524,-0.5288751721382141,-0.45289146900177
1686909,9.259340286254883,-0.5780545473098755,3.2077791690826416,0.5762665271759033,0.05028413236141205,0.06840511411428452,0.7520060539245605,-0.2556881010532379,-0.5228197574615479,-0.30946746468544006,9.34618854522705,0.1451810598373413,-2.703122854232788,-0.49476054310798645,0.8334308862686157,0.40890035033226013,0.3941939175128937,-0.5998461246490479,-0.5287560820579529,-0.4530041515827179
1687075,9.237797737121582,-0.5792347192764282,3.230513095855713,0.4321439266204834,0.08693590760231018,0.12920968234539032,0.7520121932029724,-0.25567713379859924,-0.5227992534637451,-0.309496134519577,9.337888717651367,0.13625115156173706,-2.70550274848938,-0.6699513792991638,0.8562902808189392,0.2541612386703491,0.3941797614097595,-0.5998591780662537,-0.5286292433738708,-0.4531472325325012
1687242,9.251355171203613,-0.5527958273887634,3.207761287689209,0.2776608467102051,0.27119365334510803,0.09268595278263092,0.7520290613174438,-0.2556658685207367,-0.522754967212677,-0.30953913927078247,9.32305908203125,0.1115005761384964,-2.7070724964141846,-0.6288813948631287,0.900036633014679,0.1423233598470688,0.3941899240016937,-0.5998290777206421,-0.5285454392433167,-0.4532760679721832
1687409,9.242610931396484,-0.577743411064148,3.1834537982940674,0.11404693871736526,0.21304002404212952,0.17636264860630035,0.752052366733551,-0.2556591033935547,-0.5227171182632446,-0.3095521628856659,9.312837600708008,0.12615428864955902,-2.717838764190674,-0.47383493185043335,0.5015029907226562,0.15183846652507782,0.3941938877105713,-0.5998054146766663,-0.5285071134567261,-0.45334869623184204
1687575,9.255904197692871,-0.5746431946754456,3.2048466205596924,0.3884741961956024,0.24582427740097046,0.24957652390003204,0.7520848512649536,-0.255638062953949,-0.5226796865463257,-0.3095538020133972,9.348234176635742,0.13777002692222595,-2.7039921283721924,-0.5770796537399292,0.26835063099861145,0.1603803187608719,0.3941394090652466,-0.5998408198356628,-0.5284326076507568,-0.4534360468387604
1687742,9.265813827514648,-0.5243363380432129,3.181572914123535,0.15592369437217712,0.2769692838191986,-0.11039073020219803,0.7520589828491211,-0.25567466020584106,-0.522611677646637,-0.30970126390457153,9.38085651397705,0.2011188268661499,-2.6977736949920654,-0.8069793581962585,0.08533511310815811,-0.3452335596084595,0.39401698112487793,-0.5998627543449402,-0.5283972024917603,-0.4535546898841858
1687909,9.275008201599121,-0.5529746413230896,3.1901772022247314,0.41165369749069214,0.11508426070213318,-0.28750255703926086,0.752066433429718,-0.2556011974811554,-0.5226168036460876,-0.30973508954048157,9.394974708557129,0.1867772936820984,-2.696232557296753,-1.2360433340072632,0.19432996213436127,-0.7889479398727417,0.39379972219467163,-0.5999086499214172,-0.5283191800117493,-0.4537733793258667
1688075,9.291300773620605,-0.4988994896411896,3.199984550476074,1.1615040302276611,-0.020707868039608,-0.4572891891002655,0.7520683407783508,-0.25546449422836304,-0.5226645469665527,-0.3097626864910126,9.369281768798828,0.15700744092464447,-2.687357187271118,-1.241114616394043,0.20299986004829407,-0.5299395322799683,0.39365053176879883,-0.599914014339447,-0.5282857418060303,-0.45393475890159607
1688242,9.277522087097168,-0.5064874887466431,3.207721710205078,0.5231329202651978,-0.06337862461805344,-0.08042387664318085,0.7520662546157837,-0.2554164528846741,-0.5226799845695496,-0.30978119373321533,9.3193998336792,0.1685231775045395,-2.6960487365722656,-1.1102207899093628,-0.02210375852882862,-0.04055770859122276,0.39352551102638245,-0.5999664068222046,-0.528228223323822,-0.45404091477394104
1688409,9.27585220336914,-0.5687850117683411,3.2232213020324707,0.34576505422592163,-0.17195086181163788,0.2677871882915497,0.7520296573638916,-0.2554778754711151,-0.522657573223114,-0.30985721945762634,9.309514045715332,0.17261512577533722,-2.678642511367798,-0.9355422258377075,-0.2736716568470001,0.30916452407836914,0.39338117837905884,-0.6000960469245911,-0.5281161665916443,-0.4541248381137848
1688575,9.26052474975586,-0.5581031441688538,3.214888334274292,0.6466502547264099,-0.3594614267349243,0.0768573060631752,0.7520093321800232,-0.25545355677604675,-0.5226988196372986,-0.30985718965530396,9.336816787719727,0.1688588708639145,-2.6812386512756348,-0.954047441482544,-0.389056921005249,0.4014342725276947,0.39327549934387207,-0.6001909375190735,-0.5280585885047913,-0.4541579484939575
1688742,9.227215766906738,-0.5424319505691528,3.215822219848633,0.41361308097839355,-0.2211528718471527,-0.02991563268005848,0.7519906759262085,-0.25543272495269775,-0.5227218866348267,-0.3098807632923126,9.373809814453125,0.1476069986820221,-2.699091672897339,-0.6485263109207153,-0.2626582086086273,0.470140278339386,0.3931666612625122,-0.6003159284591675,-0.5279500484466553,-0.45421329140663147
1688909,9.246119499206543,-0.5486547946929932,3.2058122158050537,0.30679529905319214,-0.18886804580688477,0.08783235400915146,0.7519691586494446,-0.25544223189353943,-0.5227261781692505,-0.3099178075790405,9.382573127746582,0.11368405073881149,-2.7029404640197754,-0.2723269760608673,-0.11565414071083069,0.6218570470809937,0.39311835169792175,-0.6004139184951782,-0.5278527736663818,-0.454238623380661
1689075,9.244953155517578,-0.5694501996040344,3.2001404762268066,0.5175493955612183,-0.24408897757530212,0.40186962485313416,0.7519692182540894,-0.25544852018356323,-0.5227373242378235,-0.3098936378955841,9.357704162597656,0.11751794070005417,-2.71321964263916,0.37861332297325134,0.005756453610956669,0.8219819068908691,0.3932017683982849,-0.6004220247268677,-0.5278419852256775,-0.45416805148124695
1689242,9.264559745788574,-0.5973798036575317,3.208937168121338,0.751316487789154,-0.31471604108810425,0.6052217483520508,0.7519904375076294,-0.25543349981307983,-0.5227660536766052,-0.30980610847473145,9.365877151489258,0.13338688015937805,-2.6869771480560303,0.7911699414253235,-0.03676702827215195,0.8022474050521851,0.3932964503765106,-0.6004313826560974,-0.5278360247612,-0.45408061146736145
1689409,9.249434471130371,-0.5774555802345276,3.2118780612945557,0.8635258078575134,-0.3763914406299591,0.6936495900154114,0.75201016664505,-0.25542497634887695,-0.5227986574172974,-0.30971017479896545,9.357891082763672,0.13821110129356384,-2.7030346393585205,0.9010098576545715,-0.13118824362754822,0.6126493215560913,0.3933505415916443,-0.6004616022109985,-0.5278185606002808,-0.4540141224861145
1689575,9.283801078796387,-0.5577468872070312,3.215510845184326,0.7769163250923157,-0.39457643032073975,0.6244183778762817,0.7520105242729187,-0.2554416358470917,-0.5228216648101807,-0.30965670943260193,9.379744529724121,0.15979160368442535,-2.7052597999572754,1.1438312530517578,-0.16129598021507263,0.6428723335266113,0.39346030354499817,-0.6004416346549988,-0.5278623104095459,-0.45389464497566223
1689742,9.279077529907227,-0.5537187457084656,3.1909849643707275,0.649826169013977,-0.43476274609565735,0.525988757610321,0.7519985437393188,-0.2554667592048645,-0.5228467583656311,-0.30962270498275757,9.377165794372559,0.17912988364696503,-2.7216880321502686,1.0441336631774902,-0.15448299050331116,0.6053497195243835,0.3934708833694458,-0.6005263328552246,-0.5277857184410095,-0.4538624882698059
1689909,9.264662742614746,-0.5576663017272949,3.2248423099517822,0.8185626864433289,-0.39794448018074036,0.6777567863464355,0.7520021200180054,-0.25548356771469116,-0.5228697657585144,-0.3095613121986389,9.309748649597168,0.16864733397960663,-2.694471597671509,0.6939312219619751,-0.2957626283168793,0.5617953538894653,0.39344027638435364,-0.6006324887275696,-0.5277031064033508,-0.4538445472717285
1690075,9.24832534790039,-0.5355409383773804,3.238483190536499,0.7497156858444214,-0.40324628353118896,0.4809872508049011,0.7519883513450623,-0.2555026710033417,-0.522892415523529,-0.3095408082008362,9.329845428466797,0.14479583501815796,-2.7009925842285156,0.4787077307701111,-0.6418157815933228,0.698746383190155,0.393434077501297,-0.6007131934165955,-0.5276950001716614,-0.4537525177001953
1690242,9.261550903320312,-0.5339599251747131,3.1679511070251465,0.5122475624084473,-0.3862522840499878,0.4994156062602997,0.7520002722740173,-0.2554933726787567,-0.5229282379150391,-0.3094591200351715,9.320343017578125,0.19312980771064758,-2.715569496154785,0.386630117893219,-1.0164529085159302,0.5535353422164917,0.3934331238269806,-0.6007524132728577,-0.5277836918830872,-0.4535982608795166
1690409,9.252703666687012,-0.5684375762939453,3.188088893890381,0.8832219839096069,-0.5912691950798035,0.5880740284919739,0.7519819736480713,-0.25551366806030273,-0.5229735970497131,-0.3094102144241333,9.358448028564453,0.18825772404670715,-2.7209091186523438,-0.05602777376770973,-1.0745679140090942,0.47685083746910095,0.3933505415916443,-0.6008523106575012,-0.52781081199646,-0.45350614190101624
1690575,9.272285461425781,-0.5068657994270325,3.167658567428589,0.8657540082931519,-0.5219355821609497,0.24656705558300018,0.7519561052322388,-0.25550156831741333,-0.5230257511138916,-0.30939483642578125,9.347481727600098,0.16325202584266663,-2.734205722808838,-0.20770618319511414,-0.953484058380127,0.5609501600265503,0.3932444453239441,-0.600987434387207,-0.5277814269065857,-0.453453004360199
1690742,9.250321388244629,-0.5249872207641602,3.212721586227417,0.3219836354255676,-0.3740222454071045,0.4693463146686554,0.7519320845603943,-0.2555569112300873,-0.5230304598808289,-0.3093997538089752,9.347859382629395,0.1646391749382019,-2.732860565185547,-0.2883349359035492,-0.9944002032279968,0.8070753812789917,0.3931311070919037,-0.6011637449264526,-0.5277109146118164,-0.45339977741241455
1690909,9.274736404418945,-0.5654683709144592,3.2111456394195557,0.295628160238266,-0.6212489008903503,0.5205332636833191,0.7518977522850037,-0.2556173503398895,-0.5230649709701538,-0.3093746304512024,9.342395782470703,0.17522886395454407,-2.7359960079193115,-0.40456536412239075,-0.9850261211395264,0.8256189227104187,0.39303696155548096,-0.6013150215148926,-0.5276676416397095,-0.4533311724662781
1691075,9.273585319519043,-0.5419086813926697,3.2089998722076416,0.4654020071029663,-0.7164384126663208,0.2515999674797058,0.7518348097801208,-0.25566986203193665,-0.5231141448020935,-0.3094012439250946,9.31716251373291,0.1473410427570343,-2.73884916305542,-0.3989945948123932,-1.0331907272338867,0.7710639238357544,0.3929137587547302,-0.6014898419380188,-0.527603805065155,-0.4532802104949951
1691242,9.28434944152832,-0.5439339876174927,3.218132495880127,0.048465628176927567,-0.6539561748504639,0.31111106276512146,0.751781165599823,-0.25573986768722534,-0.5231497883796692,-0.3094134032726288,9.351804733276367,0.15142247080802917,-2.7422709465026855,-0.3459763526916504,-1.1040993928909302,0.6310136914253235,0.3928053081035614,-0.6016261577606201,-0.5275936126708984,-0.4532051086425781
1691409,9.261926651000977,-0.5495092868804932,3.1901557445526123,0.29487258195877075,-0.695602536201477,0.2263842523097992,0.7517321705818176,-0.2557740807533264,-0.5232059955596924,-0.3094090521335602,9.367416381835938,0.1469484120607376,-2.761110305786133,-0.1727960705757141,-0.954393208026886,0.4726247489452362,0.3927345275878906,-0.601705014705658,-0.5276293754577637,-0.4531201124191284
1691575,9.258421897888184,-0.556057333946228,3.214545488357544,0.37013551592826843,-0.5136626958847046,0.2860362231731415,0.7516923546791077,-0.2558134198188782,-0.5232351422309875,-0.3094239830970764,9.36899471282959,0.13836465775966644,-2.7374167442321777,0.004450206179171801,-0.8033678531646729,0.4352557957172394,0.3926870822906494,-0.6017623543739319,-0.52767014503479,-0.4530377984046936
1691742,9.263896942138672,-0.5580599904060364,3.2094457149505615,0.3946725130081177,-0.5474586486816406,0.25805437564849854,0.7516335844993591,-0.2558766305446625,-0.5232564210891724,-0.3094785213470459,9.367263793945312,0.136482372879982,-2.7387776374816895,0.18521183729171753,-0.5599576234817505,0.45315903425216675,0.39265862107276917,-0.6018133163452148,-0.5276859402656555,-0.4529762864112854
1691909,9.276248931884766,-0.5529710650444031,3.2017569541931152,0.40044814348220825,-0.592677891254425,0.37903594970703125,0.7515743970870972,-0.2559548318386078,-0.5232759118080139,-0.30952468514442444,9.331628799438477,0.1507728546857834,-2.7548880577087402,0.27101436257362366,-0.3092861473560333,0.5904046893119812,0.39268893003463745,-0.6018264889717102,-0.527711808681488,-0.45290249586105347
1692075,9.263772010803223,-0.5564187169075012,3.2045891284942627,0.493102103471756,-0.5684354305267334,0.4797578752040863,0.751563310623169,-0.25596460700035095,-0.5233246684074402,-0.3094610571861267,9.330170631408691,0.1521175503730774,-2.7508366107940674,0.2879956066608429,-0.33501410484313965,0.612546980381012,0.39267468452453613,-0.6018949151039124,-0.5276781320571899,-0.45286306738853455
1692242,9.264272689819336,-0.544724702835083,3.1907601356506348,0.4700634479522705,-0.4445083439350128,0.4056090712547302,0.7515439987182617,-0.25598853826522827,-0.5233501195907593,-0.3094450831413269,9.33570384979248,0.1619485467672348,-2.7501285076141357,0.26001372933387756,-0.3332212269306183,0.6415916681289673,0.3926800787448883,-0.6019427180290222,-0.5276679396629333,-0.4528067111968994
1692409,9.272780418395996,-0.5385911464691162,3.183028221130371,0.45747485756874084,-0.39704805612564087,0.40074267983436584,0.7515071034431458,-0.2560461163520813,-0.5233528017997742,-0.3094823360443115,9.342626571655273,0.17466196417808533,-2.7521419525146484,0.1841488927602768,-0.33022454380989075,0.7362050414085388,0.3926874101161957,-0.6019988059997559,-0.5276479721069336,-0.4527490735054016
1692575,9.269840240478516,-0.5491373538970947,3.208594560623169,0.34378644824028015,-0.34684714674949646,0.5101281404495239,0.7515053749084473,-0.2560700476169586,-0.5233663320541382,-0.3094441592693329,9.364799499511719,0.1528649777173996,-2.7445638179779053,0.06302645057439804,-0.3803741931915283,0.7347451448440552,0.39271214604377747,-0.602026641368866,-0.5276669263839722,-0.4526684880256653
1692742,9.25937271118164,-0.5617077350616455,3.192913055419922,0.4641725718975067,-0.24075937271118164,0.4613679051399231,0.751499593257904,-0.25609615445137024,-0.523363471031189,-0.30944129824638367,9.355426788330078,0.1616695672273636,-2.7689285278320312,0.09843600541353226,-0.37079504132270813,0.6616848111152649,0.3927214443683624,-0.6020628213882446,-0.5276750326156616,-0.45260289311408997
1692909,9.264912605285645,-0.5439661741256714,3.2096173763275146,0.4732394218444824,-0.2679344415664673,0.4711904227733612,0.751483142375946,-0.2561391294002533,-0.5233554840087891,-0.3094589412212372,9.331648826599121,0.14208263158798218,-2.7363529205322266,0.01263346429914236,-0.3115016520023346,0.7294816374778748,0.3927030563354492,-0.6021385788917542,-0.5276302695274353,-0.45257025957107544
1693075,9.269572257995605,-0.5472455620765686,3.1911141872406006,0.3416541814804077,-0.48258164525032043,0.484112024307251,0.751459002494812,-0.2561853229999542,-0.5233750343322754,-0.3094465136528015,9.333306312561035,0.14499709010124207,-2.7320101261138916,0.01797371171414852,-0.4746801257133484,0.7445418834686279,0.3926773965358734,-0.6022209525108337,-0.5275995135307312,-0.4525188207626343
1693242,9.27099895477295,-0.5390452742576599,3.1886680126190186,0.36585816740989685,-0.4928395748138428,0.5530230402946472,0.7514179348945618,-0.2562685012817383,-0.5233772993087769,-0.30947354435920715,9.33095932006836,0.1382513791322708,-2.7429397106170654,0.23920342326164246,-0.5804479122161865,0.662248432636261,0.39263030886650085,-0.6023224592208862,-0.5275607705116272,-0.45246973633766174
1693409,9.27505111694336,-0.5581209659576416,3.179856538772583,0.29772838950157166,-0.32105520367622375,0.5002608299255371,0.7514002323150635,-0.2563213109970093,-0.5233722925186157,-0.30948135256767273,9.340239524841309,0.1536460667848587,-2.7460970878601074,0.12317787110805511,-0.5195024013519287,0.7613951563835144,0.39265283942222595,-0.6023540496826172,-0.5275939106941223,-0.45236966013908386
1693575,9.286992073059082,-0.5543800592422485,3.176029682159424,0.35463982820510864,-0.40000638365745544,0.46733570098876953,0.7513726353645325,-0.25637614727020264,-0.5233761072158813,-0.3094959259033203,9.34517765045166,0.14865587651729584,-2.756150484085083,0.11120393127202988,-0.6204164028167725,0.8128125667572021,0.3926433324813843,-0.6024267673492432,-0.5275931358337402,-0.45228177309036255
1693742,9.269758224487305,-0.5602951049804688,3.202615261077881,0.33995091915130615,-0.35316070914268494,0.40157508850097656,0.7513490915298462,-0.25641870498657227,-0.5233800411224365,-0.3095115125179291,9.346714973449707,0.15430262684822083,-2.7636382579803467,0.010955833829939365,-0.552094578742981,0.7224767208099365,0.392608642578125,-0.6025118827819824,-0.5275691151618958,-0.4522264301776886
1693909,9.274718284606934,-0.5360162258148193,3.180532217025757,0.2702587842941284,-0.31890368461608887,0.370583713054657,0.7513426542282104,-0.2564336955547333,-0.5233932137489319,-0.3094925284385681,9.346158027648926,0.1534692347049713,-2.779778242111206,-0.04233779013156891,-0.4881267845630646,0.7539033889770508,0.39264899492263794,-0.602512538433075,-0.5276334285736084,-0.45211559534072876
1694075,9.265734672546387,-0.5573838353157043,3.1900696754455566,0.254942387342453,-0.2786661386489868,0.3494020402431488,0.7513163685798645,-0.2564828395843506,-0.5233843326568604,-0.30953076481819153,9.333186149597168,0.14868082106113434,-2.7548024654388428,-0.1417919099330902,-0.39129799604415894,0.668164849281311,0.3926112949848175,-0.6025883555412292,-0.5275990962982178,-0.4520874321460724
1694242,9.286412239074707,-0.554848849773407,3.203477621078491,0.19545689225196838,-0.27995961904525757,0.36629360914230347,0.751291811466217,-0.25653374195098877,-0.5233750343322754,-0.30956345796585083,9.360955238342285,0.1459450125694275,-2.7502214908599854,-0.17913521826267242,-0.09586832672357559,0.6376345157623291,0.39258676767349243,-0.6026490330696106,-0.5275429487228394,-0.4520933926105499
1694409,9.254563331604004,-0.5529746413230896,3.2054011821746826,0.25695300102233887,-0.2554866671562195,0.26411172747612,0.7512664794921875,-0.2565695345401764,-0.5233690738677979,-0.30960512161254883,9.344740867614746,0.15932004153728485,-2.781012535095215,-0.2748883068561554,0.09632295370101929,0.636738121509552,0.3925974369049072,-0.6026676297187805,-0.5275092720985413,-0.452098548412323
1694575,9.268270492553711,-0.5484471321105957,3.212038516998291,0.12914565205574036,-0.0872112512588501,0.33824774622917175,0.7512548565864563,-0.2566137909889221,-0.523337721824646,-0.30965015292167664,9.336247444152832,0.16262459754943848,-2.775090217590332,-0.2345867156982422,0.17877022922039032,0.5926458239555359,0.3926064968109131,-0.6026842594146729,-0.5274671912193298,-0.4521176218986511
1694742,9.261940956115723,-0.5517406463623047,3.216500997543335,0.12050134688615799,-0.19468212127685547,0.4166865944862366,0.7512479424476624,-0.25665321946144104,-0.523322343826294,-0.3096598982810974,9.336458206176758,0.18313758075237274,-2.7858726978302,-0.3377418518066406,0.2185339480638504,0.49969732761383057,0.3925887942314148,-0.6027133464813232,-0.5274057984352112,-0.4521659016609192
1694909,9.249588012695312,-0.5499134063720703,3.195838212966919,0.0962333232164383,-0.0690518394112587,0.37728151679039,0.7512413859367371,-0.2566981911659241,-0.5232875347137451,-0.30969786643981934,9.356391906738281,0.14269092679023743,-2.757960081100464,-0.37772324681282043,0.39861682057380676,0.4273030459880829,0.3925701677799225,-0.6027337908744812,-0.5273306369781494,-0.4522424340248108
1695075,9.272676467895508,-0.5322505235671997,3.1892473697662354,0.07160670310258865,-0.022616012021899223,0.2477196305990219,0.7512391209602356,-0.25672054290771484,-0.5232576131820679,-0.3097352385520935,9.317241668701172,0.1411208063364029,-2.7513718605041504,-0.17831560969352722,0.44092899560928345,0.7587825655937195,0.39262691140174866,-0.6027263402938843,-0.5272818803787231,-0.45225989818573
1695242,9.26585865020752,-0.5610353350639343,3.1816513538360596,-0.10948147624731064,0.0015559714520350099,0.332472026348114,0.7512242197990417,-0.2567870616912842,-0.5232040882110596,-0.30980655550956726,9.32063102722168,0.15319423377513885,-2.7699103355407715,-0.17008112370967865,0.37699970602989197,0.7412762641906738,0.39263737201690674,-0.6027688980102539,-0.5271844267845154,-0.4523077607154846
1695409,9.247198104858398,-0.5679875016212463,3.1953165531158447,0.2773791253566742,-0.018684465438127518,0.5339415669441223,0.7512206435203552,-0.25684553384780884,-0.5231538414955139,-0.309851735830307,9.347894668579102,0.15183861553668976,-2.7891483306884766,-0.33593612909317017,0.28548553586006165,0.6820469498634338,0.3926887810230255,-0.6027438640594482,-0.527176558971405,-0.4523054361343384
1695575,9.27574348449707,-0.522255003452301,3.1558992862701416,-0.01899181678891182,-0.03589619696140289,0.11222843825817108,0.7511752843856812,-0.25692296028137207,-0.5230985879898071,-0.3099907636642456,9.369820594787598,0.20420143008232117,-2.763378381729126,-0.6371671557426453,0.272602379322052,0.2979077100753784,0.3926117718219757,-0.6027954816818237,-0.5270829200744629,-0.45241278409957886
1695742,9.295735359191895,-0.538244366645813,3.1779255867004395,0.1410043090581894,0.018729284405708313,-0.046423014253377914,0.7511634826660156,-0.2569158375263214,-0.523076593875885,-0.3100624978542328,9.387495040893555,0.20045219361782074,-2.76434588432312,-0.9845009446144104,0.5850772857666016,-0.24768760800361633,0.3924981653690338,-0.6027959585189819,-0.5270060896873474,-0.45260027050971985
1695909,9.294866561889648,-0.4938026964664459,3.196986198425293,0.7186090350151062,-0.023281941190361977,-0.1913396567106247,0.7511634230613708,-0.25683560967445374,-0.5230910778045654,-0.310104638338089,9.363907814025879,0.16507428884506226,-2.7281100749969482,-0.9771884679794312,0.9146358966827393,0.11964333057403564,0.39243432879447937,-0.6028016209602356,-0.5268794894218445,-0.45279523730278015
1696075,9.278130531311035,-0.5125241279602051,3.2262682914733887,0.013235362246632576,0.10701625794172287,0.17302018404006958,0.7511587142944336,-0.25686153769493103,-0.5230420231819153,-0.31017711758613586,9.301633834838867,0.15593907237052917,-2.7339751720428467,-0.7498117685317993,0.9412732124328613,0.6810480952262878,0.39246153831481934,-0.6027969121932983,-0.5267613530158997,-0.4529154598712921
1696242,9.265999794006348,-0.58298259973526,3.214177131652832,0.19092345237731934,-0.12531012296676636,0.3825192451477051,0.7511551976203918,-0.2568894326686859,-0.5230206847190857,-0.31019875407218933,9.306785583496094,0.1600647270679474,-2.736316442489624,-0.4570714235305786,0.8529220819473267,0.8587233424186707,0.3925234377384186,-0.6027899980545044,-0.5266576409339905,-0.4529918134212494
1696409,9.238405227661133,-0.5642610192298889,3.2151782512664795,0.510185718536377,-0.2680496871471405,0.4810512959957123,0.7511609792709351,-0.2568901777267456,-0.5230282545089722,-0.31017112731933594,9.317155838012695,0.16741478443145752,-2.726715326309204,-0.24773883819580078,0.715100109577179,0.8413963317871094,0.3925677537918091,-0.6028059124946594,-0.5265457630157471,-0.4530620276927948
1696575,9.224833488464355,-0.5630809664726257,3.2248806953430176,0.3323952257633209,-0.2224719226360321,0.3707886338233948,0.7511786818504333,-0.25686630606651306,-0.5230430364608765,-0.31012290716171265,9.352921485900879,0.1291494518518448,-2.738823413848877,0.08456673473119736,0.690396785736084,0.7130127549171448,0.3926457464694977,-0.6027763485908508,-0.5264896154403687,-0.4530991017818451
1696742,9.266366958618164,-0.5599588751792908,3.2000513076782227,0.2532135546207428,-0.013805245980620384,0.4769788980484009,0.7512103915214539,-0.2568562626838684,-0.5230237245559692,-0.3100874423980713,9.358327865600586,0.12402735650539398,-2.754685163497925,0.5360546112060547,0.698772132396698,0.7511245012283325,0.39274483919143677,-0.6027488112449646,-0.5264301896095276,-0.45311903953552246
1696909,9.248472213745117,-0.5519053339958191,3.19622802734375,0.44844627380371094,-0.10700984299182892,0.5622691512107849,0.7512001395225525,-0.25691336393356323,-0.5229813456535339,-0.3101363778114319,9.365424156188965,0.14559346437454224,-2.725269079208374,0.882274329662323,0.6499671339988708,0.9290686845779419,0.3928948938846588,-0.6027031540870667,-0.526398241519928,-0.4530867636203766
1697076,9.270150184631348,-0.5849164128303528,3.2099783420562744,0.5768684148788452,-0.00911812111735344,0.8057690858840942,0.7512603998184204,-0.25689011812210083,-0.522964596748352,-0.3100377917289734,9.374500274658203,0.17548517882823944,-2.719865560531616,0.9855830669403076,0.7047013640403748,1.0007457733154297,0.393057644367218,-0.6026583313941956,-0.526357889175415,-0.4530520439147949
1697242,9.267779350280762,-0.5632162690162659,3.2290761470794678,0.760985255241394,-0.16995306313037872,0.8260799646377563,0.7512998580932617,-0.2568836212158203,-0.5229586958885193,-0.3099576234817505,9.35549259185791,0.1776619404554367,-2.7198357582092285,0.8968605995178223,0.5934655070304871,0.9525299668312073,0.39318838715553284,-0.6026362180709839,-0.5263060331344604,-0.45302844047546387
1697409,9.272666931152344,-0.5337190628051758,3.2219507694244385,0.6534631252288818,-0.19281238317489624,0.75033038854599,0.7513229846954346,-0.25689640641212463,-0.5229467749595642,-0.30991101264953613,9.345794677734375,0.18923331797122955,-2.723297595977783,0.6262625455856323,0.6416813731193542,1.0764057636260986,0.3933389186859131,-0.6025977730751038,-0.5262661576271057,-0.4529950022697449
1697576,9.249515533447266,-0.5370399355888367,3.231351137161255,0.5275896191596985,-0.2693943381309509,0.7156636118888855,0.751338005065918,-0.25691643357276917,-0.5229419469833374,-0.3098658323287964,9.363170623779297,0.1761564165353775,-2.7200183868408203,0.5247465968132019,0.6319485306739807,1.21134614944458,0.3934903144836426,-0.6025730967521667,-0.5262117385864258,-0.4529593586921692
1697742,9.27059268951416,-0.5533834099769592,3.22744083404541,0.42727747559547424,-0.3460788130760193,0.6889111995697021,0.7513622045516968,-0.2569146752357483,-0.5229582786560059,-0.30978095531463623,9.317413330078125,0.16371802985668182,-2.730268716812134,0.13853269815444946,0.6120858788490295,1.10251784324646,0.393582820892334,-0.6025812029838562,-0.5261221528053284,-0.45297229290008545
1697909,9.256560325622559,-0.5332428812980652,3.1924712657928467,0.35722675919532776,-0.3888648450374603,0.6717122793197632,0.7513574957847595,-0.25695928931236267,-0.5229575634002686,-0.30975645780563354,9.327239036560059,0.13705356419086456,-2.7252283096313477,0.16469605267047882,0.4590756297111511,1.1890760660171509,0.39370420575141907,-0.6025658249855042,-0.5260802507400513,-0.45293623208999634
1698076,9.286169052124023,-0.5581493973731995,3.1720027923583984,0.07789462059736252,-0.38868552446365356,0.6384156942367554,0.7513595819473267,-0.25699982047080994,-0.5229611992835999,-0.3097119629383087,9.295915603637695,0.17522673308849335,-2.7208070755004883,0.01370919682085514,0.2136291116476059,0.9027259349822998,0.39377209544181824,-0.6025552153587341,-0.5260652303695679,-0.45290854573249817
1698242,9.252506256103516,-0.5531752705574036,3.1902618408203125,0.540895402431488,-0.4432661533355713,0.7004880905151367,0.7513484358787537,-0.25704607367515564,-0.5229650139808655,-0.30969440937042236,9.364315032958984,0.15348713099956512,-2.7479865550994873,-0.2163248509168625,0.18184374272823334,0.6689589023590088,0.39375677704811096,-0.6025944948196411,-0.5259971022605896,-0.45294880867004395
1698409,9.272071838378906,-0.5090730786323547,3.1943936347961426,0.44478365778923035,-0.19691041111946106,0.4305814802646637,0.7513465881347656,-0.2570602595806122,-0.5229528546333313,-0.3097077012062073,9.353967666625977,0.13409365713596344,-2.7436838150024414,-0.20841053128242493,0.34372881054878235,0.7305958271026611,0.39379921555519104,-0.6025786995887756,-0.5259711146354675,-0.45296308398246765
1698576,9.255560874938965,-0.5389701724052429,3.206148624420166,0.010085000656545162,-0.12630902230739594,0.603236734867096,0.7513505816459656,-0.25711578130722046,-0.522914707660675,-0.30971628427505493,9.370344161987305,0.14365999400615692,-2.7429494857788086,-0.043874550610780716,0.3499270975589752,0.8922119140625,0.39379507303237915,-0.602649450302124,-0.5258446335792542,-0.45301946997642517
1698742,9.28017520904541,-0.5666143298149109,3.193885564804077,0.34810858964920044,-0.16996587812900543,0.5534583926200867,0.7513493895530701,-0.2571532130241394,-0.5228878855705261,-0.30973339080810547,9.352893829345703,0.1357724368572235,-2.735342025756836,-0.03808608278632164,0.44725534319877625,0.9208725690841675,0.3938158452510834,-0.6026972532272339,-0.5257316827774048,-0.45306888222694397
1698909,9.273759841918945,-0.5553635358810425,3.1937499046325684,0.43237441778182983,-0.2856968343257904,0.4828954041004181,0.7513415217399597,-0.2571775019168854,-0.5228818655014038,-0.3097424805164337,9.308549880981445,0.13038504123687744,-2.73193621635437,-0.05915252864360809,0.2860874533653259,0.7225662469863892,0.39385658502578735,-0.60268634557724,-0.5257081985473633,-0.45307525992393494
1699076,9.276328086853027,-0.5628520846366882,3.179509401321411,0.09769323468208313,-0.2573307752609253,0.3641037344932556,0.7513415217399597,-0.2571878135204315,-0.5228818655014038,-0.30973395705223083,9.352693557739258,0.12712344527244568,-2.733924627304077,0.10804076492786407,0.2319934070110321,0.517754316329956,0.3938833475112915,-0.6026652455329895,-0.5257036089897156,-0.45308539271354675
1699242,9.25851058959961,-0.561396598815918,3.1666600704193115,0.4047766923904419,-0.24811020493507385,0.2329282909631729,0.7513325810432434,-0.2571792006492615,-0.5228870511054993,-0.30975350737571716,9.359557151794434,0.13675417006015778,-2.739027976989746,-0.03524307534098625,0.25152310729026794,0.4932045042514801,0.39388009905815125,-0.602669358253479,-0.5256674289703369,-0.4531247317790985
1699409,9.27329158782959,-0.5481071472167969,3.1775600910186768,0.33262574672698975,-0.19674396514892578,0.28170767426490784,0.7513179779052734,-0.25719574093818665,-0.5228739380836487,-0.309798002243042,9.368536949157715,0.1488097757101059,-2.7156853675842285,-0.10487118363380432,0.23712877929210663,0.27771204710006714,0.39386311173439026,-0.6026510000228882,-0.5256591439247131,-0.4531734883785248
1699576,9.274603843688965,-0.5465946793556213,3.2071640491485596,0.4765435457229614,-0.27104640007019043,0.20809678733348846,0.7513144612312317,-0.25716862082481384,-0.5228907465934753,-0.30980050563812256,9.386259078979492,0.18179257214069366,-2.7224130630493164,-0.298054963350296,0.3135826587677002,0.3568297028541565,0.39387649297714233,-0.6026021838188171,-0.5256759524345398,-0.4532072842121124
1699742,9.286144256591797,-0.5668147206306458,3.222033739089966,0.6200001835823059,-0.27696290612220764,0.2209799587726593,0.7513197064399719,-0.257121205329895,-0.5229167938232422,-0.30978310108184814,9.360095977783203,0.15423056483268738,-2.722083330154419,-0.41792240738868713,0.6089867949485779,0.4469224214553833,0.3938588500022888,-0.6026041507720947,-0.5255945324897766,-0.4533144235610962
1699909,9.264451026916504,-0.5561145544052124,3.2082011699676514,0.24130362272262573,-0.1541244089603424,0.16064925491809845,0.751309335231781,-0.25711899995803833,-0.5229073762893677,-0.3098261058330536,9.358759880065918,0.17605696618556976,-2.7065863609313965,-0.5388655662536621,0.6601096987724304,0.6515166163444519,0.3938521146774292,-0.602619469165802,-0.5254911184310913,-0.45341989398002625
1700076,9.255946159362793,-0.5594157576560974,3.2215263843536377,0.2450430989265442,-0.21935996413230896,0.26844027638435364,0.7512845396995544,-0.2571512758731842,-0.5228890180587769,-0.3098900020122528,9.356069564819336,0.16517435014247894,-2.7043912410736084,-0.6527780890464783,0.6883220076560974,0.7096830606460571,0.39383944869041443,-0.6026444435119629,-0.5253725051879883,-0.45353490114212036
1700242,9.264336585998535,-0.5526027083396912,3.2374653816223145,-0.024319257587194443,-0.25955909490585327,0.22308020293712616,0.7512485384941101,-0.25720539689064026,-0.5228673219680786,-0.30996936559677124,9.347437858581543,0.14960315823554993,-2.6915857791900635,-0.6478988528251648,0.690319836139679,0.6586881875991821,0.3938373923301697,-0.6026495695114136,-0.5252766609191895,-0.4536409378051758
1700409,9.244302749633789,-0.5428932905197144,3.196406841278076,-0.04927883297204971,-0.24155335128307343,0.11471287161111832,0.7512150406837463,-0.2572409510612488,-0.5228519439697266,-0.31004661321640015,9.370014190673828,0.12932783365249634,-2.676563262939453,-0.5902318954467773,0.6616080403327942,0.6677038073539734,0.3937930166721344,-0.602706253528595,-0.5251246690750122,-0.4537801444530487
1700576,9.246444702148438,-0.5598158836364746,3.2204854488372803,0.08723045140504837,-0.31673943996429443,0.20243635773658752,0.751190721988678,-0.2572614848613739,-0.5228524208068848,-0.3100874423980713,9.376608848571777,0.1247667670249939,-2.6902871131896973,-0.4087147116661072,0.5332884192466736,0.6318845748901367,0.393798828125,-0.6027039289474487,-0.5250576734542847,-0.45385560393333435
1700742,9.259709358215332,-0.5743067264556885,3.224916458129883,0.21849553287029266,-0.35460782051086426,0.3824551999568939,0.7511759996414185,-0.25728467106819153,-0.5228551030158997,-0.3100997805595398,9.362500190734863,0.12133356183767319,-2.690073251724243,-0.19395215809345245,0.46234121918678284,0.5803261399269104,0.3938143253326416,-0.602689802646637,-0.5250135660171509,-0.4539119601249695
1700909,9.251569747924805,-0.5402969717979431,3.2100751399993896,0.20360171794891357,-0.34774360060691833,0.29985424876213074,0.751144528388977,-0.2573249638080597,-0.5228480100631714,-0.31015458703041077,9.352604866027832,0.14164641499519348,-2.6883208751678467,-0.07367493212223053,0.3991675078868866,0.5766891241073608,0.3938193917274475,-0.6026903986930847,-0.5249606966972351,-0.45396801829338074
1701076,9.266246795654297,-0.5539437532424927,3.211348295211792,0.17606809735298157,-0.3053033649921417,0.37258151173591614,0.7511117458343506,-0.25738322734832764,-0.5228263139724731,-0.3102222979068756,9.35389232635498,0.1422615796327591,-2.684197425842285,0.04254909232258797,0.207815021276474,0.6850948929786682,0.3938192129135132,-0.6027138829231262,-0.5249066948890686,-0.453999400138855
1701242,9.252184867858887,-0.5647153258323669,3.212038516998291,0.1930364966392517,-0.35900041460990906,0.37565505504608154,0.7510828375816345,-0.257429838180542,-0.5228170156478882,-0.3102692663669586,9.358376502990723,0.16227398812770844,-2.65079927444458,0.07204211503267288,0.044495657086372375,0.8334563374519348,0.3938210904598236,-0.602755069732666,-0.5248539447784424,-0.4540041387081146
1701409,9.258768081665039,-0.5739884376525879,3.210350513458252,0.237807497382164,-0.45709702372550964,0.3733627200126648,0.7510694265365601,-0.2574394941329956,-0.522838294506073,-0.3102577030658722,9.35887622833252,0.15771043300628662,-2.671764850616455,0.05664248764514923,-0.009310216642916203,0.8564246892929077,0.39379727840423584,-0.6028267741203308,-0.5247726440429688,-0.4540236294269562
1701576,9.268420219421387,-0.5604199767112732,3.213411808013916,0.2946549355983734,-0.5490210652351379,0.2529318332672119,0.7510329484939575,-0.2574598491191864,-0.5228652954101562,-0.3102836310863495,9.339988708496094,0.1645878404378891,-2.6891820430755615,-0.02626582235097885,-0.010808558203279972,0.8969758749008179,0.3937927484512329,-0.6028783321380615,-0.524714469909668,-0.45402610301971436
1701742,9.261154174804688,-0.551823079586029,3.195283889770508,0.2839232087135315,-0.5169283747673035,0.3314859867095947,0.750982403755188,-0.257519394159317,-0.5228684544563293,-0.3103513717651367,9.380908012390137,0.15402980148792267,-2.7185819149017334,-0.1614624559879303,-0.06862923502922058,0.8261056542396545,0.393793523311615,-0.6029043197631836,-0.5246939063072205,-0.45401468873023987
1701909,9.261067390441895,-0.5575417280197144,3.2304275035858154,0.17606808245182037,-0.6053945422172546,0.35698339343070984,0.7509323954582214,-0.25757896900177,-0.5228840112686157,-0.31039658188819885,9.357209205627441,0.168771430850029,-2.6888163089752197,-0.3141781687736511,0.0032720223534852266,0.8738860487937927,0.39377525448799133,-0.6029539108276367,-0.5246363282203674,-0.4540311396121979
1702076,9.265695571899414,-0.5494413375854492,3.222266435623169,0.03249610960483551,-0.6281898617744446,0.3147096335887909,0.7508885860443115,-0.25762617588043213,-0.5229097008705139,-0.31042027473449707,9.343412399291992,0.1744816154241562,-2.7130162715911865,-0.5262385010719299,0.12831322848796844,0.6594309210777283,0.3937460780143738,-0.6029757857322693,-0.5245941877365112,-0.45407634973526
1702242,9.279294967651367,-0.5421138405799866,3.2018423080444336,0.12413834035396576,-0.6427506804466248,0.28691983222961426,0.7508458495140076,-0.2576618790626526,-0.5229417085647583,-0.310439795255661,9.351433753967285,0.164805069565773,-2.722532033920288,-0.713019073009491,0.4026252329349518,0.6040818691253662,0.39372366666793823,-0.6029784083366394,-0.5245376229286194,-0.45415759086608887
1702409,9.27193832397461,-0.5290143489837646,3.2152318954467773,0.1533368080854416,-0.45709702372550964,0.2689013183116913,0.7508172988891602,-0.25768470764160156,-0.5229551196098328,-0.31046730279922485,9.35592269897461,0.13869348168373108,-2.721837282180786,-0.8270597457885742,0.5938880443572998,0.5632040500640869,0.3937007486820221,-0.6029734015464783,-0.5244646668434143,-0.45426851511001587
1702576,9.281466484069824,-0.5469024181365967,3.208054780960083,0.015169120393693447,-0.31575334072113037,0.2884694039821625,0.7507903575897217,-0.25772565603256226,-0.5229418277740479,-0.3105209767818451,9.346491813659668,0.14545366168022156,-2.7059144973754883,-0.7416156530380249,0.5270133018493652,0.5332627296447754,0.39364415407180786,-0.6030041575431824,-0.5243588089942932,-0.4543987512588501
1702742,9.277740478515625,-0.5477998852729797,3.1940395832061768,0.030626384541392326,-0.1712593138217926,0.2535977363586426,0.7507886290550232,-0.25772973895072937,-0.5229275226593018,-0.3105458915233612,9.352585792541504,0.15851756930351257,-2.6982452869415283,-0.9338645339012146,0.6288110017776489,0.4007042944431305,0.3935960829257965,-0.6029983758926392,-0.5242820382118225,-0.4545367658138275
1702909,9.25759220123291,-0.5528959631919861,3.1738803386688232,0.08282506465911865,-0.2716995179653168,0.278903067111969,0.7507719993591309,-0.2577522099018097,-0.5229166150093079,-0.3105859160423279,9.322696685791016,0.14764776825904846,-2.7140913009643555,-0.9054857492446899,0.4970848560333252,0.22979073226451874,0.393524706363678,-0.6029909253120422,-0.5242246389389038,-0.45467451214790344
1703076,9.270698547363281,-0.5263676643371582,3.163630962371826,0.2922729253768921,-0.46416616439819336,0.2457858771085739,0.7507501840591431,-0.257752001285553,-0.5229403376579285,-0.3105989098548889,9.343052864074707,0.12192032486200333,-2.7238857746124268,-0.56219881772995,0.2531111240386963,0.5088155269622803,0.39346572756767273,-0.6030211448669434,-0.5241562724113464,-0.45476430654525757
1703242,9.305273056030273,-0.5623836517333984,3.132296323776245,0.13574090600013733,-0.321170449256897,0.3874240815639496,0.7507443428039551,-0.2577652633190155,-0.5229400992393494,-0.3106023371219635,9.320164680480957,0.153079554438591,-2.699686050415039,-0.28709274530410767,0.043189410120248795,0.6464709043502808,0.3934173882007599,-0.6030669808387756,-0.5240981578826904,-0.45481225848197937
1703409,9.275956153869629,-0.6055949330329895,3.165419101715088,0.3858872950077057,-0.16275589168071747,0.5971280932426453,0.7507492899894714,-0.2577935755252838,-0.5229095816612244,-0.3106183111667633,9.354942321777344,0.15184950828552246,-2.714298725128174,-0.2958011031150818,-0.2988874018192291,0.640170156955719,0.3933887183666229,-0.6030810475349426,-0.5241233110427856,-0.45478951930999756
1703576,9.260835647583008,-0.5317391157150269,3.1659305095672607,0.6582143306732178,-0.10489680618047714,0.21662579476833344,0.7507634162902832,-0.2577405571937561,-0.5229093432426453,-0.3106282353401184,9.414809226989746,0.1816820651292801,-2.714287757873535,-0.26164647936820984,-0.29900261759757996,0.4078246057033539,0.39335259795188904,-0.603068470954895,-0.5241792798042297,-0.4547727704048157
1703742,9.311113357543945,-0.537647008895874,3.1827492713928223,0.21726611256599426,-0.14621008932590485,-0.07911762595176697,0.7507399916648865,-0.257722407579422,-0.5229011178016663,-0.31071358919143677,9.466582298278809,0.19375890493392944,-2.700737476348877,-0.5025851726531982,0.37066057324409485,0.25950145721435547,0.39330002665519714,-0.603054940700531,-0.5241462588310242,-0.454874187707901
1703909,9.30669116973877,-0.5438957214355469,3.2079689502716064,0.9725205302238464,-0.14215047657489777,0.04883700981736183,0.7507547736167908,-0.25762462615966797,-0.5229251980781555,-0.31071844696998596,9.377421379089355,0.15397842228412628,-2.7062671184539795,-0.42673322558403015,0.7171108722686768,0.33090969920158386,0.3932951092720032,-0.6030086278915405,-0.5241048336029053,-0.45498767495155334
1704076,9.277783393859863,-0.5441914796829224,3.2337281703948975,0.7272406220436096,-0.29298368096351624,0.2718724012374878,0.7507442831993103,-0.2576022148132324,-0.5229337811470032,-0.31074821949005127,9.308721542358398,0.14906755089759827,-2.6679835319519043,-0.09882660210132599,0.7321197986602783,0.7280346155166626,0.3933381736278534,-0.6029808521270752,-0.5240401029586792,-0.45506182312965393
1704242,9.261983871459961,-0.5799106359481812,3.2226884365081787,0.39882174134254456,-0.2606860399246216,0.6688052415847778,0.7507542967796326,-0.2576231360435486,-0.5229193568229675,-0.31073126196861267,9.28934383392334,0.1379249095916748,-2.6662158966064453,0.16637367010116577,0.42074620723724365,0.8277959823608398,0.3934200704097748,-0.6029282808303833,-0.5240459442138672,-0.4550539255142212
1704409,9.241848945617676,-0.5781545639038086,3.2243611812591553,0.6703035831451416,-0.2998863160610199,0.6804717779159546,0.7507699131965637,-0.25762081146240234,-0.5229185223579407,-0.31069669127464294,9.349407196044922,0.15686528384685516,-2.6740682125091553,0.40043535828590393,0.21238689124584198,1.048667073249817,0.39349544048309326,-0.6029217839241028,-0.5240262746810913,-0.45502007007598877
1704576,9.230803489685059,-0.5648713111877441,3.1845574378967285,0.5524210929870605,-0.22197245061397552,0.6626068949699402,0.750778317451477,-0.25764039158821106,-0.5228972434997559,-0.31069594621658325,9.365018844604492,0.14229148626327515,-2.667508125305176,0.682930588722229,0.17561988532543182,0.945806622505188,0.3935984969139099,-0.6028786897659302,-0.5240539312362671,-0.4549563229084015
1704742,9.238962173461914,-0.5578292608261108,3.208524465560913,0.4139844477176666,-0.017672760412096977,0.7419165968894958,0.7508121132850647,-0.2576524019241333,-0.5228539109230042,-0.3106771409511566,9.380258560180664,0.14075054228305817,-2.640036106109619,0.8079590201377869,0.4760056436061859,0.9449101686477661,0.3937220871448517,-0.6028235554695129,-0.5240547060966492,-0.4549213945865631
1704909,9.237371444702148,-0.5611314177513123,3.2117996215820312,0.6861962080001831,0.06745744496583939,0.7936927080154419,0.7508622407913208,-0.25763943791389465,-0.5228090286254883,-0.31064239144325256,9.371400833129883,0.14105036854743958,-2.6481845378875732,1.0055482387542725,0.4514174461364746,1.0659302473068237,0.39388856291770935,-0.6027454137802124,-0.5240856409072876,-0.45484551787376404
1705076,9.256650924682617,-0.5664714574813843,3.2376229763031006,0.7687970995903015,0.01460564136505127,0.8446747660636902,0.7509152889251709,-0.2576211392879486,-0.5227727293968201,-0.31059059500694275,9.361543655395508,0.14901545643806458,-2.671590566635132,1.1346489191055298,0.34539365768432617,1.1267602443695068,0.39407068490982056,-0.6026614308357239,-0.5241366624832153,-0.4547399580478668
1705242,9.261635780334473,-0.5714568495750427,3.2139711380004883,0.7387535572052002,-0.09492066502571106,1.0593477487564087,0.7509660124778748,-0.25763198733329773,-0.522736132144928,-0.31052038073539734,9.336921691894531,0.1577409952878952,-2.658963203430176,0.9649903774261475,-0.16294799745082855,1.0440183877944946,0.3941443860530853,-0.602670431137085,-0.524147629737854,-0.45465150475502014
1705409,9.2813138961792,-0.5469180345535278,3.221163034439087,0.6939824223518372,-0.16522753238677979,1.022887945175171,0.7510234117507935,-0.25762200355529785,-0.5227192640304565,-0.31041818857192993,9.35186767578125,0.14897280931472778,-2.677670478820801,0.7076851725578308,-0.3883909583091736,0.9986198544502258,0.39420410990715027,-0.60267174243927,-0.5241981148719788,-0.4545398950576782
1705576,9.273040771484375,-0.5295301079750061,3.197442054748535,0.43726643919944763,-0.19397778809070587,0.8993067145347595,0.7510755062103271,-0.2576111853122711,-0.5227086544036865,-0.31031909584999084,9.372095108032227,0.1438521444797516,-2.706444263458252,0.48089760541915894,-0.46047791838645935,0.9930106997489929,0.39421704411506653,-0.6027140021324158,-0.5242104530334473,-0.45445820689201355
1705742,9.277576446533203,-0.5611326694488525,3.1897709369659424,0.4113335907459259,-0.05189133062958717,0.8641661405563354,0.7511388063430786,-0.2575884759426117,-0.5226854681968689,-0.31022346019744873,9.329593658447266,0.1287214457988739,-2.6953229904174805,0.24659264087677002,-0.6012324690818787,0.9441544413566589,0.394222229719162,-0.6027441620826721,-0.5242560505867004,-0.45436105132102966
1705909,9.270207405090332,-0.5435011982917786,3.229419231414795,0.276790052652359,-0.07361090183258057,0.7501254677772522,0.7511661052703857,-0.2576139271259308,-0.522642195224762,-0.31020912528038025,9.359596252441406,0.10679343342781067,-2.6972298622131348,0.227997824549675,-0.7714928388595581,1.160376787185669,0.3942328095436096,-0.6027963757514954,-0.5242995619773865,-0.45423248410224915
1706076,9.274067878723145,-0.5683272480964661,3.146883487701416,0.027424801141023636,-0.10137507319450378,0.6932269334793091,0.751178503036499,-0.2576649785041809,-0.522591769695282,-0.3102218508720398,9.352283477783203,0.1560467928647995,-2.7119786739349365,0.02707902528345585,-0.8480108380317688,0.7975602746009827,0.3941640257835388,-0.6028737425804138,-0.5243234634399414,-0.45416197180747986
1706242,9.261467933654785,-0.5785767436027527,3.184144973754883,0.5580687522888184,-0.3614080250263214,0.588611900806427,0.7511705160140991,-0.25768816471099854,-0.5225847363471985,-0.3102335035800934,9.353394508361816,0.1322338581085205,-2.6966304779052734,-0.34938281774520874,-0.8393281102180481,0.37981709837913513,0.3940364718437195,-0.6029378771781921,-0.5243614315986633,-0.4541435241699219
1706409,9.264236450195312,-0.5152745842933655,3.1772053241729736,0.712167501449585,-0.4761016368865967,0.225154846906662,0.7511531710624695,-0.25765562057495117,-0.5226191282272339,-0.3102450668811798,9.3825101852417,0.10536370426416397,-2.706146717071533,-0.31953126192092896,-0.7475707530975342,0.36088934540748596,0.39391541481018066,-0.6029945611953735,-0.524395763874054,-0.4541335999965668
1706576,9.25765609741211,-0.5242147445678711,3.176612615585327,0.22803626954555511,-0.28423696756362915,0.49329420924186707,0.7511367201805115,-0.25769928097724915,-0.5225947499275208,-0.310289204120636,9.371953964233398,0.10045018047094345,-2.6939027309417725,0.011122314259409904,-0.6281002163887024,0.6701626777648926,0.3938933312892914,-0.6030016541481018,-0.5244722962379456,-0.4540550112724304
1706742,9.268574714660645,-0.621065616607666,3.1946651935577393,0.344804584980011,-0.3388559818267822,0.49937722086906433,0.7511351704597473,-0.25770798325538635,-0.5225939154624939,-0.31028714776039124,9.347111701965332,0.14489947259426117,-2.7112996578216553,0.12156426906585693,-0.5853910446166992,0.7297378182411194,0.39383766055107117,-0.6030612587928772,-0.5244812965393066,-0.4540136754512787
1706909,9.258208274841309,-0.5885376930236816,3.2296690940856934,0.5872799754142761,-0.4060637354850769,0.4894266426563263,0.7511318325996399,-0.25770244002342224,-0.5226067900657654,-0.3102783262729645,9.332794189453125,0.1347641795873642,-2.7077908515930176,0.06516510993242264,-0.5859289765357971,0.6247513294219971,0.39378494024276733,-0.6030995845794678,-0.5245153307914734,-0.4539691209793091
1707076,9.256772994995117,-0.5691140294075012,3.213458299636841,0.3804061710834503,-0.31613752245903015,0.2931821346282959,0.7511286735534668,-0.25768381357192993,-0.5226158499717712,-0.3102863132953644,9.357173919677734,0.1468464434146881,-2.7002434730529785,-0.029441798105835915,-0.5933693051338196,0.39258500933647156,0.39372363686561584,-0.603107750415802,-0.5245854258537292,-0.45393046736717224
1707242,9.26412582397461,-0.5642110705375671,3.190720796585083,0.2774047255516052,-0.22543016076087952,0.21432065963745117,0.7511280179023743,-0.2576614022254944,-0.5226154923439026,-0.31030717492103577,9.377276420593262,0.13271304965019226,-2.7123851776123047,0.02067585103213787,-0.4010692834854126,0.3117642402648926,0.39366650581359863,-0.6031046509742737,-0.524642825126648,-0.4539179503917694
1707409,9.272540092468262,-0.5726508498191833,3.1951334476470947,0.2413932979106903,-0.13441546261310577,0.24355758726596832,0.7511342763900757,-0.2576407790184021,-0.5226024389266968,-0.31033098697662354,9.385143280029297,0.15116630494594574,-2.713454484939575,0.06579262763261795,-0.23091129958629608,0.34945330023765564,0.3936121463775635,-0.6031089425086975,-0.5246684551239014,-0.4539297819137573
1707576,9.271464347839355,-0.5611319541931152,3.2147207260131836,0.4323231875896454,-0.12422160059213638,0.1669371873140335,0.7511410713195801,-0.25759950280189514,-0.522596538066864,-0.31035882234573364,9.380040168762207,0.15518589317798615,-2.716007709503174,0.026925353333353996,0.03405848890542984,0.20817363262176514,0.39358729124069214,-0.6030617952346802,-0.5247185230255127,-0.45395612716674805
1707742,9.265073776245117,-0.5574734807014465,3.216684103012085,0.4520321190357208,-0.2061309963464737,0.12383099645376205,0.7511340379714966,-0.25756731629371643,-0.5225964188575745,-0.31040266156196594,9.372234344482422,0.15309028327465057,-2.707489252090454,-0.02004193887114525,0.28520384430885315,0.346443772315979,0.3935697376728058,-0.6030298471450806,-0.5247173309326172,-0.45401522517204285
1707909,9.283783912658691,-0.5446957349777222,3.2267796993255615,0.4848548471927643,-0.16827544569969177,0.22464260458946228,0.7511528134346008,-0.25750845670700073,-0.5226041674613953,-0.31039300560951233,9.35224437713623,0.17668986320495605,-2.6820874214172363,-0.09793015569448471,0.2956666052341461,0.46214911341667175,0.39355847239494324,-0.6030054688453674,-0.5247060060501099,-0.45407038927078247
1708076,9.268200874328613,-0.5574593544006348,3.2358386516571045,0.28496047854423523,-0.1135154739022255,0.33814525604248047,0.7511562705039978,-0.25750666856765747,-0.5225778818130493,-0.3104303777217865,9.328200340270996,0.189621239900589,-2.6958415508270264,-0.14404581487178802,0.17404469847679138,0.4529413878917694,0.3935275077819824,-0.6029961705207825,-0.5246933698654175,-0.4541243314743042
1708242,9.25195598602295,-0.5481324195861816,3.21781063079834,0.1793721467256546,-0.07355967909097672,0.32025477290153503,0.751150369644165,-0.25752630829811096,-0.5225362181663513,-0.31049853563308716,9.345413208007812,0.16111190617084503,-2.691110134124756,-0.22526367008686066,0.17093275487422943,0.5462228655815125,0.3934936225414276,-0.6029998660087585,-0.5246659517288208,-0.4541802406311035
1708409,9.266850471496582,-0.539982259273529,3.2047252655029297,0.12207651883363724,-0.05929340049624443,0.24012544751167297,0.7511475682258606,-0.2575320303440094,-0.5224998593330383,-0.3105616271495819,9.362889289855957,0.15537190437316895,-2.6873910427093506,-0.36357226967811584,0.04172948747873306,0.6643741726875305,0.39345309138298035,-0.6030200123786926,-0.5246369242668152,-0.4542221128940582
1708576,9.242056846618652,-0.5527350306510925,3.193438768386841,0.054420579224824905,-0.09416507929563522,0.2655588388442993,0.7511404752731323,-0.2575487196445465,-0.5224631428718567,-0.3106265962123871,9.343565940856934,0.14372412860393524,-2.6835074424743652,-0.3999679386615753,0.07097919285297394,0.6817780137062073,0.39339613914489746,-0.6030597686767578,-0.5245808362960815,-0.45428332686424255
1708742,9.260889053344727,-0.5452929139137268,3.2034378051757812,0.14492304623126984,-0.11761350929737091,0.34864646196365356,0.7511433959007263,-0.257554829120636,-0.5224339962005615,-0.3106635808944702,9.356156349182129,0.1541595757007599,-2.6973111629486084,-0.1778930127620697,-0.021988503634929657,0.6474058628082275,0.3933594524860382,-0.6030786633491516,-0.5245614647865295,-0.4543125033378601
1708909,9.2664213180542,-0.5506787300109863,3.21781063079834,0.10838653892278671,-0.1918519139289856,0.44564175605773926,0.7511522173881531,-0.2575610876083374,-0.5224149227142334,-0.31066927313804626,9.35062026977539,0.13124322891235352,-2.69500470161438,0.00829211063683033,-0.027981871739029884,0.5812737941741943,0.3933321237564087,-0.6030849814414978,-0.5245572328567505,-0.4543326795101166
1709076,9.268027305603027,-0.5534287691116333,3.1983985900878906,0.26776155829429626,-0.20048339664936066,0.3634505867958069,0.7511543035507202,-0.25755828619003296,-0.5223997235298157,-0.3106922209262848,9.33838939666748,0.15516090393066406,-2.6944074630737305,0.14289964735507965,-0.2877714931964874,0.5933502316474915,0.3933089077472687,-0.6030892133712769,-0.5245903730392456,-0.4543089270591736
1709242,9.276373863220215,-0.5521198511123657,3.2145237922668457,0.24102190136909485,-0.19478456676006317,0.3965934216976166,0.7511612772941589,-0.25755375623703003,-0.5223848223686218,-0.3107041120529175,9.341193199157715,0.142368882894516,-2.7090272903442383,0.30515608191490173,-0.38634192943573,0.6518239378929138,0.39329349994659424,-0.6030974984169006,-0.5246318578720093,-0.4542633295059204
1709409,9.278505325317383,-0.5573804974555969,3.2005767822265625,0.2905312478542328,-0.21280311048030853,0.5128622651100159,0.751174807548523,-0.25755175948143005,-0.5223705768585205,-0.31069695949554443,9.35580825805664,0.16972388327121735,-2.7177131175994873,0.42307695746421814,-0.3500231206417084,0.6918181777000427,0.39329662919044495,-0.6030957698822021,-0.5246801972389221,-0.45420706272125244
1709576,9.278462409973145,-0.54925537109375,3.2073428630828857,0.32773369550704956,-0.14002461731433868,0.47617214918136597,0.7511857748031616,-0.257552832365036,-0.522344708442688,-0.3107127249240875,9.354276657104492,0.1574636846780777,-2.71272349357605,0.4574107825756073,-0.3913748264312744,0.6888726949691772,0.3932909071445465,-0.6031033396720886,-0.5247231721878052,-0.45415225625038147
1709742,9.261099815368652,-0.5690889954566956,3.217156171798706,0.49540722370147705,-0.172488734126091,0.5193935632705688,0.7511923313140869,-0.2575577199459076,-0.5223195552825928,-0.3107355535030365,9.359837532043457,0.15775224566459656,-2.702718734741211,0.3712496757507324,-0.3274967670440674,0.8689556121826172,0.39329633116722107,-0.6031224727630615,-0.5247443914413452,-0.4540975093841553
1709909,9.27121353149414,-0.5491158962249756,3.2089200019836426,0.47102394700050354,-0.08010371029376984,0.5243880152702332,0.7512221932411194,-0.25753235816955566,-0.5222974419593811,-0.3107212483882904,9.35842227935791,0.1513092964887619,-2.7003438472747803,0.2709246873855591,-0.21750301122665405,0.7101824283599854,0.39327383041381836,-0.6031477451324463,-0.5247434973716736,-0.45408451557159424
1710076,9.26477336883545,-0.5390273928642273,3.231106758117676,0.3903823792934418,-0.1607452929019928,0.5268211960792542,0.7512354850769043,-0.25753262639045715,-0.5222738981246948,-0.3107283413410187,9.390599250793457,0.1680316925048828,-2.708211898803711,0.18044787645339966,-0.047396302223205566,0.7762376666069031,0.39327678084373474,-0.6031532883644104,-0.5247430801391602,-0.4540751576423645
1710242,9.25399398803711,-0.5439339876174927,3.2248449325561523,0.37497633695602417,-0.13659252226352692,0.5159357786178589,0.7512419819831848,-0.2575451731681824,-0.5222408175468445,-0.31075793504714966,9.355100631713867,0.14927446842193604,-2.7267866134643555,0.14699766039848328,0.20428046584129333,0.7815394401550293,0.39328014850616455,-0.6031628847122192,-0.5247039794921875,-0.45410487055778503
1710409,9.266510963439941,-0.5501567125320435,3.2266221046447754,0.4701274633407593,0.014836154878139496,0.5382317304611206,0.7512835264205933,-0.2575095593929291,-0.5222108960151672,-0.3107374310493469,9.354693412780762,0.12877261638641357,-2.7252891063690186,0.15612860023975372,0.3653331398963928,0.8485551476478577,0.3933320939540863,-0.6031305193901062,-0.5246925950050354,-0.45411595702171326
1710576,9.259740829467773,-0.557155191898346,3.216970205307007,0.3465333878993988,-0.04530886560678482,0.5457233190536499,0.75129634141922,-0.25752487778663635,-0.5221644043922424,-0.3107720911502838,9.337841033935547,0.15516890585422516,-2.7171366214752197,0.17919284105300903,0.30755090713500977,0.8165136575698853,0.39335188269615173,-0.603128969669342,-0.5246527791023254,-0.4541468322277069
1710742,9.240161895751953,-0.5415129065513611,3.2196450233459473,0.3925466239452362,-0.06645214557647705,0.4638395309448242,0.7513049244880676,-0.25753048062324524,-0.5221247673034668,-0.310812771320343,9.334001541137695,0.12480608373880386,-2.7221198081970215,0.12237107008695602,0.12963226437568665,0.7451053857803345,0.3933629095554352,-0.6031203269958496,-0.5246455073356628,-0.454157292842865
1710909,9.263739585876465,-0.541580855846405,3.205519199371338,0.16849954426288605,-0.044527675956487656,0.4396739900112152,0.7513208389282227,-0.25753268599510193,-0.5220860242843628,-0.31083789467811584,9.350757598876953,0.1133916974067688,-2.7099034786224365,0.32524925470352173,0.18612107634544373,0.9536568522453308,0.3934045433998108,-0.6031187772750854,-0.5246222615242004,-0.45414984226226807
1711076,9.2720365524292,-0.576863706111908,3.205104112625122,0.2112087458372116,0.024671435356140137,0.6526308655738831,0.7513436079025269,-0.2575589418411255,-0.5220257043838501,-0.3108624517917633,9.337457656860352,0.1492149382829666,-2.709967851638794,0.3590964376926422,-0.039866164326667786,0.8972832560539246,0.39345642924308777,-0.6030932664871216,-0.5246575474739075,-0.45409801602363586
1711242,9.259645462036133,-0.5667572617530823,3.1932601928710938,0.46053555607795715,0.08815250545740128,0.5727447867393494,0.7513750791549683,-0.2575521171092987,-0.5219711661338806,-0.31088370084762573,9.373665809631348,0.15377692878246307,-2.7558932304382324,0.11703083664178848,0.003566568251699209,0.6537065505981445,0.393455445766449,-0.6030814051628113,-0.5246709585189819,-0.45409929752349854
1711409,9.264286994934082,-0.5254524350166321,3.1795341968536377,0.10372503101825714,0.1040836051106453,0.258950799703598,0.7513834238052368,-0.25755417346954346,-0.5219133496284485,-0.3109588027000427,9.394543647766113,0.19390173256397247,-2.7262325286865234,-0.1884966343641281,0.15382346510887146,0.27600881457328796,0.39339977502822876,-0.6030636429786682,-0.5246708989143372,-0.45417118072509766
1711576,9.296762466430664,-0.5569334626197815,3.226543664932251,0.26237010955810547,0.0944020077586174,0.10937263816595078,0.7514036893844604,-0.2575047016143799,-0.5218811631202698,-0.311004638671875,9.404863357543945,0.18243281543254852,-2.7258362770080566,-0.548931360244751,0.7622275352478027,-0.004405383951961994,0.39336827397346497,-0.6029731035232544,-0.5246740579605103,-0.45431482791900635
1711742,9.288330078125,-0.5130046010017395,3.2183029651641846,0.9686915874481201,0.05276856943964958,0.08667978644371033,0.7514358162879944,-0.25739535689353943,-0.521877646446228,-0.31102344393730164,9.374192237854004,0.14755164086818695,-2.710646152496338,-0.5976082682609558,1.3658804893493652,0.39859122037887573,0.39340969920158386,-0.6028705835342407,-0.5246108770370483,-0.45448803901672363
1711909,9.259039878845215,-0.5415740609169006,3.23653507232666,0.3948774039745331,0.16379964351654053,0.37578317523002625,0.7514602541923523,-0.25737833976745605,-0.5218188166618347,-0.3110770285129547,9.329572677612305,0.13399986922740936,-2.701967239379883,-0.4793033003807068,1.4724805355072021,0.7242823243141174,0.3934764862060547,-0.6027956008911133,-0.5245015621185303,-0.4546560049057007
1712076,9.254179954528809,-0.5857829451560974,3.25110125541687,0.4462180733680725,0.10098447650671005,0.5730137825012207,0.7514711022377014,-0.25740674138069153,-0.521744966506958,-0.31115129590034485,9.327930450439453,0.14944392442703247,-2.7134201526641846,-0.2976323664188385,1.321954607963562,0.9172354936599731,0.39357081055641174,-0.6027229428291321,-0.5244096517562866,-0.45477649569511414
1712242,9.239614486694336,-0.5724506378173828,3.2523281574249268,0.48672452569007874,-0.049829501658678055,0.4681168794631958,0.7514909505844116,-0.25739026069641113,-0.5217128396034241,-0.3111709654331207,9.33836555480957,0.13099068403244019,-2.671518087387085,-0.03297635167837143,1.1935453414916992,0.86772620677948,0.3936779797077179,-0.6026368141174316,-0.5243505239486694,-0.4548659026622772
1712409,9.230630874633789,-0.5796424150466919,3.206195116043091,0.10896282643079758,0.08926665782928467,0.5042435526847839,0.7515197992324829,-0.25739291310310364,-0.5216560363769531,-0.31119421124458313,9.359369277954102,0.09895271062850952,-2.6862151622772217,0.36821457743644714,1.2082598209381104,0.7184298038482666,0.39378073811531067,-0.6025500297546387,-0.5242896676063538,-0.4549620449542999
1712576,9.244837760925293,-0.5846953392028809,3.1843338012695312,0.34516310691833496,0.2153579741716385,0.6417965888977051,0.7515820860862732,-0.25735992193222046,-0.5215981602668762,-0.31116804480552673,9.37998104095459,0.10310392826795578,-2.6614575386047363,0.7347193956375122,1.14693021774292,0.8277319669723511,0.39392513036727905,-0.6024463772773743,-0.524256706237793,-0.45501232147216797
1712742,9.2561674118042,-0.5850027799606323,3.224360227584839,0.7380363345146179,0.3101634085178375,0.7540058493614197,0.751652181148529,-0.25732073187828064,-0.5215274095535278,-0.31114986538887024,9.373432159423828,0.11107970774173737,-2.6743316650390625,1.1727734804153442,1.0998541116714478,0.9791542887687683,0.39411187171936035,-0.6023359298706055,-0.5242375731468201,-0.4550188481807709
1712909,9.265067100524902,-0.5946524739265442,3.20019793510437,0.774406373500824,0.23013652861118317,0.9542075395584106,0.7517349720001221,-0.25728219747543335,-0.5214667320251465,-0.31108349561691284,9.343121528625488,0.14462541043758392,-2.6747231483459473,1.3824900388717651,0.9451020359992981,1.045465350151062,0.39433667063713074,-0.6021965146064758,-0.5242732763290405,-0.45496776700019836
1713076,9.272089004516602,-0.5817224383354187,3.2208917140960693,0.8971168398857117,0.16217321157455444,0.9014965891838074,0.7518140077590942,-0.2572307586669922,-0.5214203000068665,-0.3110126554965973,9.344616889953613,0.13700881600379944,-2.6713755130767822,1.2679119110107422,0.7112967371940613,0.947087287902832,0.3945164084434509,-0.6020848751068115,-0.5243076086044312,-0.4549201726913452
1713242,9.269692420959473,-0.5605259537696838,3.222529888153076,0.9882340431213379,0.1709071546792984,0.8244920372962952,0.7518987655639648,-0.2571546733379364,-0.5213842391967773,-0.31093132495880127,9.374725341796875,0.146729975938797,-2.65830659866333,1.1444075107574463,0.6182329654693604,0.8240438103675842,0.39466753602027893,-0.6019791960716248,-0.5243473649024963,-0.45488306879997253
1713409,9.279037475585938,-0.5697005391120911,3.2396316528320312,0.7551199793815613,0.3228800594806671,0.7497797608375549,0.7519814968109131,-0.2570938467979431,-0.5213226079940796,-0.3108848035335541,9.3875732421875,0.16306042671203613,-2.6591603755950928,0.8267843723297119,0.8409096598625183,0.8699929714202881,0.39479246735572815,-0.6019009947776794,-0.5243251323699951,-0.45490357279777527
1713576,9.260331153869629,-0.5724555850028992,3.2487967014312744,0.7035232186317444,0.3480958044528961,0.7314153909683228,0.7520629167556763,-0.257036954164505,-0.5212560892105103,-0.3108464181423187,9.346112251281738,0.13514560461044312,-2.6691198348999023,0.42380690574645996,0.7749314308166504,0.6723781824111938,0.3948744833469391,-0.6018227338790894,-0.524311900138855,-0.4549511969089508
1713743,9.225632667541504,-0.5277999639511108,3.2529356479644775,0.5598231554031372,0.28567764163017273,0.6547694802284241,0.752129077911377,-0.25699564814567566,-0.5211912989616394,-0.310829222202301,9.360816955566406,0.11750622093677521,-2.6505045890808105,0.26572534441947937,0.7589746713638306,0.9110885262489319,0.39496496319770813,-0.6017649173736572,-0.5242775082588196,-0.4549887180328369
1713909,9.25801944732666,-0.5475707054138184,3.2330238819122314,0.13110502064228058,0.17839884757995605,0.5825544595718384,0.7521631121635437,-0.25700822472572327,-0.5211174488067627,-0.31086045503616333,9.322868347167969,0.1750839501619339,-2.6535494327545166,-0.009451085701584816,0.5192526578903198,0.6092044115066528,0.394970566034317,-0.6017407178878784,-0.5242356657981873,-0.4550640285015106
1714076,9.222776412963867,-0.5819959044456482,3.2476673126220703,0.7002063393592834,-0.15352250635623932,0.5340055227279663,0.7521954774856567,-0.2569621205329895,-0.521111249923706,-0.31083032488822937,9.36862564086914,0.12906134128570557,-2.6652863025665283,-0.4727591872215271,0.26835063099861145,0.2796074450016022,0.39491474628448486,-0.6017120480537415,-0.5242329835891724,-0.4551534950733185
1714243,9.244402885437012,-0.509348452091217,3.2011919021606445,0.767081081867218,-0.05944707244634628,0.23091767728328705,0.752206563949585,-0.25691068172454834,-0.5210942625999451,-0.3108745217323303,9.372838973999023,0.12077901512384415,-2.6558921337127686,-0.45926129817962646,0.3097151517868042,0.3958890736103058,0.3948781192302704,-0.6016800999641418,-0.5242288112640381,-0.4552324712276459
1714409,9.257428169250488,-0.531682014465332,3.2327659130096436,0.11731255799531937,0.07953383028507233,0.4080294966697693,0.7522363066673279,-0.2568962275981903,-0.521047055721283,-0.31089380383491516,9.381643295288086,0.13171172142028809,-2.651332139968872,-0.3072243332862854,0.3622596561908722,0.6016743779182434,0.3948606252670288,-0.6016650795936584,-0.5241976380348206,-0.4553034007549286
1714576,9.25594711303711,-0.6046043038368225,3.23673939704895,0.32791298627853394,0.019689762964844704,0.49079692363739014,0.7522491216659546,-0.25690725445747375,-0.5209928154945374,-0.31094422936439514,9.350373268127441,0.13294526934623718,-2.6496872901916504,-0.2915109395980835,0.43523016571998596,0.8579805493354797,0.39487454295158386,-0.6016550064086914,-0.5241509675979614,-0.4553581774234772
1714743,9.245965957641602,-0.5817954540252686,3.244699478149414,0.39923158288002014,-0.028289230540394783,0.4010500907897949,0.7522672414779663,-0.2568891942501068,-0.5209588408470154,-0.3109724223613739,9.345516204833984,0.1272048056125641,-2.6487905979156494,-0.300577849149704,0.3768845200538635,0.7416605949401855,0.3948640525341034,-0.6016536355018616,-0.5241019129753113,-0.455425500869751
1714909,9.26465129852295,-0.5679231882095337,3.2456655502319336,0.19219128787517548,-0.0917959213256836,0.1987353414297104,0.7522526383399963,-0.2568996548652649,-0.5209206938743591,-0.31106311082839966,9.34525203704834,0.12892942130565643,-2.642409563064575,-0.1370791643857956,0.12192285060882568,0.5079061985015869,0.3948444724082947,-0.6016292572021484,-0.5241137742996216,-0.4554612636566162
1715076,9.239907264709473,-0.565570056438446,3.2349977493286133,0.15633352100849152,-0.0806800052523613,0.2504858374595642,0.7522552013397217,-0.25689205527305603,-0.5208905339241028,-0.31111380457878113,9.370674133300781,0.11822939664125443,-2.6616995334625244,-0.06844993680715561,-0.0047127362340688705,0.3287966251373291,0.3947899043560028,-0.6016173362731934,-0.5241275429725647,-0.4555084705352783
1715243,9.254222869873047,-0.5553420782089233,3.245933771133423,0.2664937376976013,-0.06827065348625183,0.18866954743862152,0.752256453037262,-0.25687316060066223,-0.5208631753921509,-0.31117233633995056,9.390570640563965,0.14020882546901703,-2.654693841934204,-0.012473384849727154,0.02442811243236065,0.18887443840503693,0.39475691318511963,-0.601563572883606,-0.524185836315155,-0.45554086565971375
1715409,9.278347969055176,-0.564196765422821,3.2661144733428955,0.49809661507606506,-0.10667689144611359,0.16269826889038086,0.7522719502449036,-0.25681227445602417,-0.5208596587181091,-0.311190664768219,9.37069320678711,0.1632431298494339,-2.6629762649536133,-0.02225743606686592,0.0972578227519989,0.20640632510185242,0.39471903443336487,-0.6015179753303528,-0.5242249369621277,-0.4555889964103699
1715576,9.260363578796387,-0.5651694536209106,3.2546632289886475,0.6404775977134705,-0.08203747868537903,0.19902989268302917,0.7522871494293213,-0.25675296783447266,-0.5208507776260376,-0.3112177550792694,9.387762069702148,0.1515095978975296,-2.6756718158721924,-0.05646319314837456,0.21448713541030884,0.2946164906024933,0.3946853578090668,-0.6014816761016846,-0.5242374539375305,-0.4556516408920288
1715743,9.262309074401855,-0.5508038997650146,3.2365784645080566,0.5396659970283508,-0.12419598549604416,0.23351739346981049,0.7523092031478882,-0.25668865442276,-0.5208507776260376,-0.31121745705604553,9.376611709594727,0.1776159107685089,-2.6659982204437256,-0.07267603278160095,0.19941408932209015,0.45666804909706116,0.3946698009967804,-0.6014488339424133,-0.5242483019828796,-0.4556960165500641
1715909,9.251980781555176,-0.5528424978256226,3.2498998641967773,0.4423889219760895,-0.13458192348480225,0.32742634415626526,0.7523243427276611,-0.2566535770893097,-0.5208384990692139,-0.3112301528453827,9.3609619140625,0.16538527607917786,-2.6726927757263184,-0.278576523065567,0.2544045150279999,0.6187707781791687,0.3946583569049835,-0.6014283895492554,-0.5242376923561096,-0.45574501156806946
1716076,9.254079818725586,-0.5579634308815002,3.2549564838409424,0.2690294086933136,-0.06768155843019485,0.27940255403518677,0.7523254752159119,-0.25664839148521423,-0.5208040475845337,-0.31128957867622375,9.365833282470703,0.1653781235218048,-2.6593499183654785,-0.1768685132265091,0.21448716521263123,0.5348508358001709,0.39463138580322266,-0.6014154553413391,-0.5242235660552979,-0.45580172538757324
1716243,9.252663612365723,-0.5550273656845093,3.2368180751800537,0.37475863099098206,-0.06386526674032211,0.24978145956993103,0.7523502111434937,-0.25659462809562683,-0.5207922458648682,-0.3112940490245819,9.356656074523926,0.15591548383235931,-2.6699962615966797,-0.18806123733520508,0.08326049149036407,0.6872848868370056,0.3946291208267212,-0.6013955473899841,-0.5242355465888977,-0.45581620931625366
1716409,9.250042915344238,-0.5546985864639282,3.232344388961792,0.23563042283058167,-0.26473286747932434,0.34109070897102356,0.7523539662361145,-0.25657975673675537,-0.520788848400116,-0.3113026022911072,9.366351127624512,0.13577428460121155,-2.63438081741333,-0.1548287570476532,-0.03268180042505264,0.7076212167739868,0.39459460973739624,-0.6014128923416138,-0.5242197513580322,-0.45584145188331604
1716576,9.252567291259766,-0.5591362714767456,3.242457389831543,0.3553057909011841,-0.24332065880298615,0.33863192796707153,0.7523574829101562,-0.25656071305274963,-0.5207836627960205,-0.31131836771965027,9.379362106323242,0.12779219448566437,-2.6455886363983154,0.04277961328625679,-0.07316267490386963,0.6914212107658386,0.3945832848548889,-0.6014091372489929,-0.5242336988449097,-0.45583999156951904
1716743,9.253239631652832,-0.549030065536499,3.238280773162842,0.41087251901626587,-0.16353707015514374,0.3869246244430542,0.7523869276046753,-0.25651058554649353,-0.5207831263542175,-0.31128937005996704,9.351758003234863,0.1327809989452362,-2.6664741039276123,0.18964281678199768,-0.08896570652723312,0.7498949766159058,0.3945900797843933,-0.601399838924408,-0.52425616979599,-0.45582056045532227
1716909,9.261364936828613,-0.5685669183731079,3.251652240753174,0.3022618591785431,-0.11186345666646957,0.532097339630127,0.7523856163024902,-0.2565411329269409,-0.5207364559173584,-0.3113458752632141,9.366634368896484,0.14549799263477325,-2.6490862369537354,0.2831035554409027,-0.08070561289787292,0.6912931203842163,0.3946057856082916,-0.6013754606246948,-0.5242950916290283,-0.4557945430278778
1717076,9.259940147399902,-0.566943347454071,3.2469139099121094,0.2769565284252167,-0.12256957590579987,0.4765690863132477,0.7524031400680542,-0.25653305649757385,-0.5207105875015259,-0.3113531768321991,9.361408233642578,0.14642885327339172,-2.6634161472320557,0.4714721143245697,-0.1059725433588028,0.7815266847610474,0.394620805978775,-0.6013720631599426,-0.5243128538131714,-0.45576560497283936
1717243,9.25243854522705,-0.5837550163269043,3.248784065246582,0.4014342427253723,-0.1430085003376007,0.4709983170032501,0.7524160742759705,-0.25652414560317993,-0.5206867456436157,-0.3113691806793213,9.373496055603027,0.13003289699554443,-2.6537768840789795,0.538474977016449,-0.234317809343338,0.7965101599693298,0.39464452862739563,-0.6013618111610413,-0.5243557691574097,-0.4557090699672699
1717409,9.24615478515625,-0.5726044178009033,3.254305839538574,0.48388150334358215,-0.19966378808021545,0.5545469522476196,0.7524235248565674,-0.2565283477306366,-0.5206629633903503,-0.3113873302936554,9.363988876342773,0.13206055760383606,-2.6612355709075928,0.5883941650390625,-0.2692791223526001,0.8408328294754028,0.39466774463653564,-0.6013607382774353,-0.5243929028511047,-0.455647736787796
1717576,9.263059616088867,-0.5675119161605835,3.2183828353881836,0.5584784746170044,-0.1817733198404312,0.5705036520957947,0.7524412274360657,-0.25651639699935913,-0.5206443667411804,-0.3113858997821808,9.386861801147461,0.15703994035720825,-2.665754795074463,0.564753532409668,-0.19199278950691223,0.7451182007789612,0.39469993114471436,-0.6013352274894714,-0.5244478583335876,-0.4555901885032654
1717743,9.263774871826172,-0.5641753077507019,3.240222692489624,0.4956376850605011,-0.030850490555167198,0.6153642535209656,0.7524711489677429,-0.25650614500045776,-0.5206056833267212,-0.3113865852355957,9.37718391418457,0.1535373032093048,-2.6605515480041504,0.36415496468544006,-0.05784628167748451,0.5536377429962158,0.39470914006233215,-0.6013006567955017,-0.5244951844215393,-0.4555733799934387
1717909,9.24655532836914,-0.5441199541091919,3.2417104244232178,0.4217194616794586,-0.10320636630058289,0.5450317859649658,0.7524908185005188,-0.2564992904663086,-0.5205755233764648,-0.3113950490951538,9.364946365356445,0.15421320497989655,-2.658716917037964,0.2540587782859802,0.0499255545437336,0.5955913066864014,0.3947092890739441,-0.6012800335884094,-0.5245118737220764,-0.45558127760887146
1718076,9.252306938171387,-0.5499385595321655,3.248487710952759,0.45102038979530334,-0.1577998250722885,0.4587169587612152,0.7525038719177246,-0.2564857006072998,-0.5205557942390442,-0.31140780448913574,9.351871490478516,0.1691402941942215,-2.6599936485290527,0.1936640441417694,0.13393521308898926,0.65606290102005,0.3947342336177826,-0.6012405157089233,-0.5245393514633179,-0.45558011531829834
1718243,9.240930557250977,-0.5597694516181946,3.253436803817749,0.48886317014694214,-0.1607324779033661,0.49256423115730286,0.752528965473175,-0.2564546465873718,-0.520544707775116,-0.31139129400253296,9.381518363952637,0.1734246015548706,-2.6702823638916016,0.07026202976703644,0.03832300007343292,0.8122490644454956,0.3947574198246002,-0.6012191772460938,-0.5245589017868042,-0.4555657207965851
1718409,9.25649356842041,-0.5641860365867615,3.2636396884918213,0.1719444841146469,-0.09720019996166229,0.5031167268753052,0.7525367736816406,-0.2564738690853119,-0.520503044128418,-0.3114263713359833,9.364928245544434,0.1729954481124878,-2.66005802154541,-0.17766250669956207,0.1267252415418625,0.7349756956100464,0.3947444558143616,-0.6012176871299744,-0.5245434641838074,-0.4555967152118683
1718576,9.244341850280762,-0.5513474345207214,3.251809597015381,0.2759448289871216,-0.02084873616695404,0.4003969132900238,0.7525684833526611,-0.25644010305404663,-0.520476758480072,-0.31142133474349976,9.371504783630371,0.11508592963218689,-2.679187297821045,-0.16704602539539337,0.08744815737009048,0.7448365092277527,0.3947350084781647,-0.6012133955955505,-0.5245366096496582,-0.45561859011650085
1718743,9.263263702392578,-0.563424289226532,3.221215009689331,0.10994891077280045,-0.08736491948366165,0.4196704626083374,0.7525866031646729,-0.2564341723918915,-0.52044677734375,-0.3114323616027832,9.354280471801758,0.13626569509506226,-2.681541681289673,0.0073060221038758755,0.09975505620241165,0.9493666291236877,0.3947654664516449,-0.6012020111083984,-0.5245363712310791,-0.4556073546409607
1718909,9.24182415008545,-0.589673638343811,3.222813606262207,0.2565687894821167,-0.043221425265073776,0.5587345361709595,0.7526031136512756,-0.25644755363464355,-0.5204002857208252,-0.3114590644836426,9.387218475341797,0.12243729084730148,-2.6880974769592285,-0.029403384774923325,-0.01564936153590679,0.8447517156600952,0.39476972818374634,-0.6012011170387268,-0.5245397090911865,-0.45560094714164734
1719076,9.260159492492676,-0.5444632768630981,3.247718334197998,0.292260080575943,-0.01759592443704605,0.43410322070121765,0.7526337504386902,-0.25641992688179016,-0.5203706622123718,-0.31145721673965454,9.395283699035645,0.15598715841770172,-2.6849803924560547,-0.12121210247278214,0.1751844584941864,0.5425986051559448,0.3947731554508209,-0.6011558175086975,-0.5245687961578369,-0.4556242525577545
1719243,9.26844310760498,-0.5476887822151184,3.2483723163604736,-0.04195360094308853,-0.04128767177462578,0.02839807979762554,0.752629280090332,-0.2564030885696411,-0.520341694355011,-0.3115304410457611,9.428742408752441,0.17929315567016602,-2.6616923809051514,-0.39752188324928284,0.46877002716064453,0.0035025363322347403,0.39473140239715576,-0.6010743379592896,-0.5245999097824097,-0.4557320773601532
1719409,9.274374961853027,-0.5560215711593628,3.2755842208862305,0.7477179169654846,0.00797195266932249,0.013184135779738426,0.7526391744613647,-0.2563256621360779,-0.5203291177749634,-0.3115912079811096,9.418642044067383,0.15242153406143188,-2.677835702896118,-0.561519980430603,0.9991833567619324,0.03270101174712181,0.3947054147720337,-0.600983202457428,-0.5245710611343384,-0.45590806007385254
1719576,9.266447067260742,-0.5088728666305542,3.2587080001831055,0.5365796089172363,0.03842545300722122,0.13566406071186066,0.7526584267616272,-0.2562643885612488,-0.5203064680099487,-0.3116329610347748,9.360422134399414,0.1423647105693817,-2.641960382461548,-0.2755414545536041,1.1336501836776733,0.46652892231941223,0.39473092555999756,-0.6009133458137512,-0.5244998335838318,-0.45606011152267456
1719743,9.233420372009277,-0.5766777396202087,3.304222345352173,0.32814347743988037,-0.0569114163517952,0.46775826811790466,0.7526818513870239,-0.2562475800514221,-0.5202762484550476,-0.31164050102233887,9.339604377746582,0.1565588265657425,-2.6121480464935303,-0.11295200139284134,0.9765930771827698,0.7784916162490845,0.3947780132293701,-0.600868821144104,-0.5244202613830566,-0.45616915822029114
1719909,9.251537322998047,-0.5969297885894775,3.272480010986328,0.5739229321479797,-0.16372919082641602,0.4883509576320648,0.7527052164077759,-0.2562142610549927,-0.5202658772468567,-0.3116292655467987,9.339216232299805,0.16895458102226257,-2.603111743927002,-0.09958218038082123,0.9555778503417969,0.9263536930084229,0.39485907554626465,-0.6008104681968689,-0.5243598222732544,-0.45624563097953796
1720076,9.222517013549805,-0.5725114941596985,3.2728989124298096,0.5183945894241333,-0.13405685126781464,0.42878857254981995,0.7527179718017578,-0.25619420409202576,-0.5202454328536987,-0.31164902448654175,9.368056297302246,0.12317758798599243,-2.6251466274261475,0.019395215436816216,0.8644093871116638,0.9624035358428955,0.39493435621261597,-0.6007667183876038,-0.5242942571640015,-0.45631319284439087
1720243,9.226496696472168,-0.565991997718811,3.237046957015991,0.23437540233135223,-0.17873820662498474,0.4681040942668915,0.752715528011322,-0.25621506571769714,-0.5202129483222961,-0.3116920590400696,9.383325576782227,0.12659814953804016,-2.64306640625,0.38525983691215515,0.7759944200515747,1.0633049011230469,0.39505496621131897,-0.6007012128829956,-0.5242657661437988,-0.45632776618003845
1720409,9.233677864074707,-0.5802110433578491,3.2569162845611572,0.45542579889297485,-0.2271718531847,0.5755621790885925,0.7527367472648621,-0.2561992406845093,-0.5202031135559082,-0.3116701543331146,9.371526718139648,0.12632615864276886,-2.6502761840820312,0.7033568024635315,0.7145366668701172,1.1653969287872314,0.39517655968666077,-0.6006600856781006,-0.524217426776886,-0.4563322961330414
1720576,9.237180709838867,-0.5957844853401184,3.2658653259277344,0.5971664786338806,-0.1813507229089737,0.7804252505302429,0.7527660727500916,-0.25619810819625854,-0.5201787948608398,-0.3116409182548523,9.38800048828125,0.13165193796157837,-2.641050100326538,0.8998190760612488,0.5821702480316162,1.324144721031189,0.3953370153903961,-0.6006054282188416,-0.5242026448249817,-0.45628228783607483
1720743,9.257680892944336,-0.5965451598167419,3.2745110988616943,0.7505865693092346,-0.2465478479862213,1.0209158658981323,0.7528173327445984,-0.25618475675582886,-0.5201677083969116,-0.3115465044975281,9.387495994567871,0.15652233362197876,-2.6401920318603516,1.0215816497802734,0.4515966773033142,1.3972431421279907,0.3955005407333374,-0.6005606651306152,-0.5241938233375549,-0.4562094807624817
1720909,9.255290031433105,-0.5780602693557739,3.236079692840576,0.7556963562965393,-0.2580479681491852,1.0581694841384888,0.7528563141822815,-0.2561957538127899,-0.5201459527015686,-0.3114795982837677,9.391372680664062,0.14941273629665375,-2.6435208320617676,0.9157757759094238,0.37569352984428406,1.4402085542678833,0.3956591486930847,-0.6005224585533142,-0.5241877436637878,-0.4561292231082916
1721076,9.267486572265625,-0.5507103204727173,3.244028329849243,0.5157052874565125,-0.33154356479644775,0.9782323241233826,0.7528775334358215,-0.25622978806495667,-0.5201247930526733,-0.31143540143966675,9.39950180053711,0.13366937637329102,-2.6340904235839844,0.773266613483429,0.33852946758270264,1.3292542695999146,0.3957815170288086,-0.6005011796951294,-0.524167001247406,-0.45607489347457886
1721243,9.25814437866211,-0.5732380747795105,3.253114700317383,0.4079526662826538,-0.3793112635612488,0.9290429949760437,0.752885103225708,-0.2562803328037262,-0.5201029181480408,-0.31141215562820435,9.358553886413574,0.14420944452285767,-2.6087677478790283,0.7168930172920227,0.45345360040664673,1.0842559337615967,0.3958985209465027,-0.6004486680030823,-0.5241666436195374,-0.4560428559780121
1721409,9.25835132598877,-0.5617432594299316,3.268000602722168,0.4420815706253052,-0.4038866460323334,0.8411786556243896,0.7528936266899109,-0.25631242990493774,-0.5200931429862976,-0.3113812804222107,9.357145309448242,0.1281460076570511,-2.6314241886138916,0.4970336854457855,0.16067487001419067,1.190164566040039,0.39599186182022095,-0.6004246473312378,-0.5241726636886597,-0.45598646998405457
1721576,9.246753692626953,-0.5583111047744751,3.241363286972046,0.241585373878479,-0.4567256271839142,0.8350443840026855,0.7529011964797974,-0.2563510537147522,-0.5200889110565186,-0.3113383650779724,9.342107772827148,0.11780479550361633,-2.637221097946167,0.6369430422782898,0.0751284509897232,1.2683089971542358,0.39607521891593933,-0.6004276871681213,-0.5241588950157166,-0.4559258818626404
1721743,9.259235382080078,-0.5922369956970215,3.235764980316162,0.07806109637022018,-0.4321886897087097,0.9163903594017029,0.7529051303863525,-0.25641772150993347,-0.5200690627098083,-0.3113071918487549,9.36413860321045,0.17390286922454834,-2.640259027481079,0.42009302973747253,-0.23579049110412598,0.9965709447860718,0.39610350131988525,-0.6004377007484436,-0.5241788029670715,-0.4558652341365814
1721909,9.239398002624512,-0.5474885702133179,3.255668878555298,0.9922807216644287,-0.6312505602836609,0.7663255929946899,0.7529235482215881,-0.25637832283973694,-0.5201199650764465,-0.3112095594406128,9.402395248413086,0.13738976418972015,-2.630811929702759,0.20316633582115173,-0.19130125641822815,0.8714401721954346,0.3961104154586792,-0.6004435420036316,-0.5241976380348206,-0.45582982897758484
1722076,9.229432106018066,-0.5268479585647583,3.253518581390381,0.4076325297355652,-0.5240742564201355,0.5369510054588318,0.7529160380363464,-0.2563832700252533,-0.5201398730278015,-0.3111906051635742,9.40189266204834,0.10760646313428879,-2.626784086227417,0.2031407356262207,0.061604950577020645,0.9412475824356079,0.39614683389663696,-0.6004325747489929,-0.5242018699645996,-0.45580771565437317
1722243,9.24866008758545,-0.5608610510826111,3.2405824661254883,0.10462148487567902,-0.5359585285186768,0.7564902901649475,0.7529129385948181,-0.25642818212509155,-0.5201444029808044,-0.3111535608768463,9.3800630569458,0.13087865710258484,-2.613948345184326,0.1657973825931549,0.11038433015346527,1.212780475616455,0.39619311690330505,-0.6004507541656494,-0.5241659879684448,-0.4557848274707794
1722409,9.253978729248047,-0.5876812934875488,3.2760086059570312,0.47185635566711426,-0.6669034957885742,0.7719091773033142,0.7529132962226868,-0.2564413547515869,-0.5201786756515503,-0.3110845386981964,9.365029335021973,0.12239489704370499,-2.6269118785858154,0.14005663990974426,0.04368886351585388,1.1941345930099487,0.39623674750328064,-0.6004666090011597,-0.5241417288780212,-0.4557540714740753
1722576,9.251119613647461,-0.5574933290481567,3.2833123207092285,0.18719682097434998,-0.7023003101348877,0.6715714335441589,0.7528753280639648,-0.25651228427886963,-0.5201914310455322,-0.31109681725502014,9.350046157836914,0.11996426433324814,-2.6353132724761963,0.032777853310108185,-0.13684865832328796,1.110137701034546,0.3962617814540863,-0.6004829406738281,-0.5241410136222839,-0.4557115435600281
1722743,9.247065544128418,-0.5687242746353149,3.2571563720703125,0.14739467203617096,-0.7830314040184021,0.5608220100402832,0.7528390288352966,-0.2565610110759735,-0.520226240158081,-0.3110862672328949,9.377729415893555,0.098075732588768,-2.6398234367370605,0.02062462642788887,-0.44590431451797485,1.0475786924362183,0.3962371051311493,-0.600537896156311,-0.5241371989250183,-0.45566514134407043
1722909,9.25106143951416,-0.5663624405860901,3.246717691421509,0.19042402505874634,-0.684601902961731,0.5011700987815857,0.7528129816055298,-0.2565891742706299,-0.5202576518058777,-0.311073362827301,9.384462356567383,0.10212796181440353,-2.6613945960998535,0.18179254233837128,-0.5419391393661499,0.999081015586853,0.3962363600730896,-0.6005653738975525,-0.5241780281066895,-0.4555826485157013
1723076,9.253865242004395,-0.5734115839004517,3.2354001998901367,0.04811985790729523,-0.7464821338653564,0.5343257784843445,0.7527680397033691,-0.2566547691822052,-0.5202800035476685,-0.3110906183719635,9.409636497497559,0.10421726852655411,-2.6146512031555176,0.21826502680778503,-0.39846959710121155,1.0540715456008911,0.39626169204711914,-0.6005760431289673,-0.5242189168930054,-0.4554992914199829
1723243,9.272446632385254,-0.5837163329124451,3.25242280960083,0.30449017882347107,-0.6997645497322083,0.4521090090274811,0.7527249455451965,-0.2566955089569092,-0.5203061103820801,-0.3111175298690796,9.39709186553955,0.10940767824649811,-2.6273748874664307,0.2514975070953369,-0.20422285795211792,1.0171892642974854,0.3962809443473816,-0.6005929708480835,-0.5242264866828918,-0.4554515480995178
1723409,9.2704439163208,-0.5888957977294922,3.2495152950286865,0.26645535230636597,-0.6705916523933411,0.5379883646965027,0.752692461013794,-0.25673651695251465,-0.5203286409378052,-0.311124712228775,9.373392105102539,0.10401570796966553,-2.593329429626465,0.27751994132995605,-0.1708366870880127,0.936406672000885,0.39630112051963806,-0.6005977392196655,-0.5242435336112976,-0.45540815591812134
1723576,9.246374130249023,-0.5792749524116516,3.2541375160217285,0.2216074913740158,-0.7223550081253052,0.5057932138442993,0.7526565790176392,-0.2567766308784485,-0.5203589797019958,-0.31112751364707947,9.36589241027832,0.10230205208063126,-2.6127381324768066,0.2940914034843445,-0.1655348837375641,1.0445820093154907,0.39633315801620483,-0.60060715675354,-0.5242541432380676,-0.45535552501678467
1723743,9.231218338012695,-0.5816205143928528,3.258023262023926,0.12860776484012604,-0.7574059367179871,0.6086921691894531,0.7526268362998962,-0.25682392716407776,-0.5203912258148193,-0.3111066222190857,9.364374160766602,0.09762081503868103,-2.637333631515503,0.23278741538524628,-0.2281707227230072,0.9634537100791931,0.3963484466075897,-0.600619375705719,-0.5242697596549988,-0.4553081691265106
1723909,9.232590675354004,-0.594088077545166,3.21348237991333,0.2371928095817566,-0.7506442070007324,0.5468247532844543,0.7526008486747742,-0.25685209035873413,-0.5204311013221741,-0.31107965111732483,9.381006240844727,0.09682893007993698,-2.641439914703369,0.23417052626609802,-0.2809329032897949,1.1668570041656494,0.3963828682899475,-0.600639820098877,-0.5242831707000732,-0.4552357792854309
1724076,9.225345611572266,-0.584040105342865,3.2373850345611572,0.15034015476703644,-0.8626101613044739,0.5902767181396484,0.7525486946105957,-0.25692394375801086,-0.5204648375511169,-0.3110900819301605,9.380053520202637,0.10332156717777252,-2.6300857067108154,0.30843454599380493,-0.3193775713443756,1.0253340005874634,0.3963990807533264,-0.600662112236023,-0.5242994427680969,-0.4551734924316406
1724243,9.254321098327637,-0.5918133854866028,3.2391629219055176,0.178053081035614,-0.8381883502006531,0.6562036871910095,0.7525088787078857,-0.25698646903038025,-0.5204998254776001,-0.31107622385025024,9.391009330749512,0.08894626796245575,-2.6563503742218018,0.2725127041339874,-0.3829226493835449,1.0944370031356812,0.3964092433452606,-0.6006984710693359,-0.5243080854415894,-0.4551067054271698
1724409,9.22752857208252,-0.5781347751617432,3.2475337982177734,0.24272513389587402,-0.8472040295600891,0.6304886341094971,0.7524780035018921,-0.25702688097953796,-0.5205464363098145,-0.311039537191391,9.368890762329102,0.09465585649013519,-2.6590209007263184,0.2433142066001892,-0.4594021439552307,1.1309478282928467,0.39641034603118896,-0.6007470488548279,-0.5243128538131714,-0.45503613352775574
1724576,9.274679183959961,-0.5877901911735535,3.2372050285339355,0.06785444170236588,-0.837791383266449,0.6465862393379211,0.7524347901344299,-0.25709888339042664,-0.5205776691436768,-0.31103232502937317,9.383374214172363,0.10108213126659393,-2.640183448791504,0.28233522176742554,-0.4504121243953705,1.2102705240249634,0.39643898606300354,-0.6007808446884155,-0.5243337154388428,-0.4549424648284912
1724743,9.25217056274414,-0.6138449311256409,3.2234857082366943,0.12085992842912674,-0.9170626997947693,0.5881124138832092,0.7523890733718872,-0.2571575939655304,-0.5206254720687866,-0.311014324426651,9.391067504882812,0.10073801875114441,-2.6700940132141113,0.330192506313324,-0.3039587140083313,1.203752040863037,0.39647144079208374,-0.6008124351501465,-0.5243375301361084,-0.4548681974411011
1724909,9.270259857177734,-0.590765118598938,3.2175323963165283,0.019087864086031914,-0.9101601839065552,0.6179640293121338,0.7523402571678162,-0.25723111629486084,-0.5206659436225891,-0.31100359559059143,9.359549522399902,0.08518476039171219,-2.691343069076538,0.34243538975715637,-0.31227001547813416,1.4605449438095093,0.39652061462402344,-0.6008644700050354,-0.5243191123008728,-0.45477789640426636
1725076,9.269818305969238,-0.5984243154525757,3.2308192253112793,-0.06486416608095169,-0.8440665602684021,0.6432949900627136,0.7522947192192078,-0.25731292366981506,-0.5206944942474365,-0.31099826097488403,9.36852741241455,0.0954623892903328,-2.660174608230591,0.22990597784519196,-0.2347916215658188,1.441028118133545,0.39657989144325256,-0.6008989810943604,-0.5243105888366699,-0.4546903371810913
1725243,9.265658378601074,-0.5970802307128906,3.2185990810394287,-0.04758839309215546,-0.8144325613975525,0.6217930316925049,0.7522411346435547,-0.25740545988082886,-0.5207136869430542,-0.3110193908214569,9.39655590057373,0.09099511802196503,-2.6536319255828857,0.06382045149803162,-0.14629974961280823,1.2338982820510864,0.39660966396331787,-0.6009318232536316,-0.5242922306060791,-0.45464199781417847
1725409,9.276812553405762,-0.5914226174354553,3.216801643371582,0.04171668365597725,-0.6460035443305969,0.47298336029052734,0.7521985769271851,-0.2574666440486908,-0.5207253694534302,-0.3110520541667938,9.38896369934082,0.07833484560251236,-2.646625518798828,0.029678717255592346,0.13270579278469086,1.140334963798523,0.3966365158557892,-0.6009560227394104,-0.5242463946342468,-0.4546394944190979
1725576,9.2525053024292,-0.5680407285690308,3.238124132156372,0.16456802189350128,-0.5860570669174194,0.6178615689277649,0.7521886229515076,-0.25749626755714417,-0.5207441449165344,-0.31102022528648376,9.35631275177002,0.09410935640335083,-2.6613619327545166,-0.10092685371637344,0.2849733233451843,1.102095365524292,0.39666393399238586,-0.6009732484817505,-0.5241882801055908,-0.4546598196029663
1725743,9.261783599853516,-0.5829790234565735,3.237755060195923,-0.07758086174726486,-0.4916357398033142,0.5398836731910706,0.752167820930481,-0.25755029916763306,-0.5207404494285583,-0.31103208661079407,9.360050201416016,0.11547978967428207,-2.672030448913574,-0.3914644718170166,0.21622879803180695,0.9308359026908875,0.39665502309799194,-0.6009921431541443,-0.5241376757621765,-0.45470115542411804
1725909,9.256815910339355,-0.5784443616867065,3.22465181350708,-0.3852534294128418,-0.2789863049983978,0.591249942779541,0.7521498203277588,-0.2576383650302887,-0.5206945538520813,-0.3110794425010681,9.3467435836792,0.11206935346126556,-2.653712749481201,-0.7347642183303833,0.22947056591510773,0.8163215517997742,0.3966192603111267,-0.6010112166404724,-0.5240854024887085,-0.4547674357891083
1726076,9.241939544677734,-0.5493448376655579,3.2272019386291504,-0.2711104452610016,-0.21172739565372467,0.5167170763015747,0.7521412372589111,-0.2577000856399536,-0.5206518769264221,-0.3111203908920288,9.37220573425293,0.055633794516325,-2.661515712738037,-0.8534791469573975,-0.001203796942718327,0.8450974225997925,0.39655765891075134,-0.6010535359382629,-0.52403724193573,-0.45482075214385986
1726243,9.251998901367188,-0.5681344270706177,3.1902883052825928,-0.5397363901138306,-0.16504822671413422,0.34618762135505676,0.7521162033081055,-0.2577792704105377,-0.5205966234207153,-0.31120777130126953,9.337658882141113,0.08654498308897018,-2.67279314994812,-0.7645006775856018,-0.12061019986867905,1.191470742225647,0.39651942253112793,-0.6011235117912292,-0.5239731669425964,-0.45483511686325073
1726409,9.255462646484375,-0.6237404942512512,3.197636604309082,-0.36911740899086,-0.1231074407696724,0.4977763891220093,0.7521123290061951,-0.2578420341014862,-0.5205427408218384,-0.31125500798225403,9.379006385803223,0.07768739014863968,-2.688894510269165,-0.8307479023933411,-0.34748753905296326,0.8803277611732483,0.3964195251464844,-0.6012075543403625,-0.5239232182502747,-0.4548686742782593
1726576,9.255921363830566,-0.5807403922080994,3.1840763092041016,-0.15882433950901031,-0.19110915064811707,0.25010159611701965,0.7520991563796997,-0.25786733627319336,-0.5205146670341492,-0.31131285429000854,9.417425155639648,0.096784807741642,-2.6736671924591064,-0.915141761302948,-0.24679113924503326,0.5625637173652649,0.3963104784488678,-0.6012548804283142,-0.5239024758338928,-0.45492520928382874
1726743,9.29173755645752,-0.5537936091423035,3.188567876815796,-0.3540442883968353,-0.022090952843427658,-0.05021369084715843,0.7520803809165955,-0.2578798830509186,-0.5204727053642273,-0.3114180862903595,9.477049827575684,0.12065695226192474,-2.7074873447418213,-1.0911649465560913,0.24114997684955597,0.3578798174858093,0.3961949646472931,-0.6012786030769348,-0.5238432884216309,-0.45506250858306885
1726909,9.309386253356934,-0.5726974010467529,3.2314462661743164,0.042702771723270416,-0.1889961063861847,-0.1602330356836319,0.7520555853843689,-0.2578529119491577,-0.5204688906669617,-0.31150680780410767,9.430639266967773,0.07595865428447723,-2.6737465858459473,-1.0610829591751099,0.9257262945175171,0.3694695830345154,0.3961411714553833,-0.6012495756149292,-0.5237532258033752,-0.4552512764930725
1727076,9.287997245788574,-0.5641753077507019,3.271678924560547,0.19009104371070862,-0.07933533936738968,0.05168002471327782,0.7520496845245361,-0.2578280568122864,-0.5204483270645142,-0.3115760087966919,9.34924602508545,0.0720481127500534,-2.6518423557281494,-0.7973361015319824,1.2229359149932861,0.6772574186325073,0.39614516496658325,-0.6012170910835266,-0.523627519607544,-0.4554353952407837
1727243,9.272704124450684,-0.5975449681282043,3.24434232711792,0.005231393501162529,-0.1885863095521927,0.36004412174224854,0.7520413398742676,-0.25785326957702637,-0.5204187035560608,-0.3116247057914734,9.29638957977295,0.07211683690547943,-2.6336166858673096,-0.5013685822486877,0.8907776474952698,0.7711535692214966,0.39616984128952026,-0.6011836528778076,-0.5235475897789001,-0.455549955368042
1727409,9.253318786621094,-0.623515248298645,3.2354624271392822,-0.11715248972177505,-0.24115636944770813,0.27192363142967224,0.7520238161087036,-0.2578829228878021,-0.5203951001167297,-0.31168174743652344,9.343812942504883,0.06934700906276703,-2.6375083923339844,-0.253335177898407,0.807715654373169,0.8053977489471436,0.39621275663375854,-0.6011426448822021,-0.523487389087677,-0.4556358754634857
