sampleTimeFine,D4:22:CD:00:A9:12_acc_x,D4:22:CD:00:A9:12_acc_y,D4:22:CD:00:A9:12_acc_z,D4:22:CD:00:A9:12_gyro_x,D4:22:CD:00:A9:12_gyro_y,D4:22:CD:00:A9:12_gyro_z,D4:22:CD:00:A9:12_quat_w,D4:22:CD:00:A9:12_quat_x,D4:22:CD:00:A9:12_quat_y,D4:22:CD:00:A9:12_quat_z,D4:22:CD:00:A1:93_acc_x,D4:22:CD:00:A1:93_acc_y,D4:22:CD:00:A1:93_acc_z,D4:22:CD:00:A1:93_gyro_x,D4:22:CD:00:A1:93_gyro_y,D4:22:CD:00:A1:93_gyro_z,D4:22:CD:00:A1:93_quat_w,D4:22:CD:00:A1:93_quat_x,D4:22:CD:00:A1:93_quat_y,D4:22:CD:00:A1:93_quat_z
252040,0.0,0.0,0.0,0.0,0.0,0.0,0.7527198791503906,-0.22760429978370667,-0.5389668941497803,-0.30186688899993896,0.0,0.0,0.0,0.0,0.0,0.0,0.4819369614124298,-0.5451422333717346,-0.5256548523902893,-0.44073086977005005
252207,9.295896530151367,-0.21340659260749817,3.1229729652404785,0.502796471118927,-0.1310729831457138,0.6308087110519409,0.7526476979255676,-0.2281801998615265,-0.5386797785758972,-0.3021247684955597,9.6569242477417,-0.6301027536392212,-1.4298068284988403,-0.052301131188869476,0.47569823265075684,0.12940174341201782,0.4826054275035858,-0.5445140600204468,-0.5261050462722778,-0.44023868441581726
252374,9.299934387207031,-0.1844428926706314,3.101379871368408,0.43133702874183655,-0.25250279903411865,0.3328946828842163,0.7527838349342346,-0.22865210473537445,-0.5382465720176697,-0.3022010028362274,9.663866996765137,-0.6219596862792969,-1.427303671836853,0.03195824474096298,0.4622131586074829,0.0851173996925354,0.4828459620475769,-0.5445106029510498,-0.5259595513343811,-0.4401528239250183
252540,9.310677528381348,-0.16864320635795593,3.112898826599121,0.41402292251586914,-0.2937520444393158,0.26805612444877625,0.7529520988464355,-0.22864840924739838,-0.5381596088409424,-0.3019395172595978,9.651572227478027,-0.5933571457862854,-1.4275826215744019,0.02093197964131832,0.335660845041275,0.16207076609134674,0.48294082283973694,-0.54460209608078,-0.5257453918457031,-0.4401913285255432
253374,9.328694343566895,-0.18542635440826416,3.102020025253296,0.4659782350063324,-0.4255293905735016,0.16207076609134674,0.7527455687522888,-0.22867931425571442,-0.5383032560348511,-0.30217471718788147,9.659342765808105,-0.5803290605545044,-1.4249826669692993,-0.07828521728515625,0.1389809101819992,0.14931564033031464,0.48285946249961853,-0.5446776151657104,-0.525614321231842,-0.44034379720687866
253540,9.321194648742676,-0.16855022311210632,3.0953361988067627,0.5366308689117432,-0.5173252820968628,0.2801581025123596,0.7526549696922302,-0.22875730693340302,-0.5383476614952087,-0.3022625148296356,9.666037559509277,-0.5693464875221252,-1.421553134918213,-0.1948101967573166,0.027565669268369675,0.18540392816066742,0.4827165901660919,-0.5447184443473816,-0.5255457162857056,-0.44053196907043457
253707,9.312312126159668,-0.17674507200717926,3.0982754230499268,0.5347227454185486,-0.6461315751075745,0.28926342725753784,0.7526366114616394,-0.2286902219057083,-0.5384721159934998,-0.3021368086338043,9.645153045654297,-0.5883649587631226,-1.433876395225525,-0.33820289373397827,-0.046474240720272064,0.36088934540748596,0.4825495481491089,-0.5447651743888855,-0.5254802107810974,-0.4407353103160858
253874,9.317276000976562,-0.1881839632987976,3.104809284210205,0.4322335124015808,-0.530746340751648,0.19246023893356323,0.7525942325592041,-0.22867806255817413,-0.5385534763336182,-0.30210673809051514,9.652945518493652,-0.5843239426612854,-1.4222288131713867,-0.20659202337265015,-0.3005650043487549,0.5172163844108582,0.48236706852912903,-0.5448890924453735,-0.5253968238830566,-0.44088107347488403
254040,9.322938919067383,-0.16705575585365295,3.1146295070648193,0.4246136546134949,-0.6149224042892456,0.16057240962982178,0.7525419592857361,-0.22868871688842773,-0.5386300086975098,-0.30209270119667053,9.670122146606445,-0.5952025055885315,-1.4172652959823608,-0.08828697353601456,-0.2995789349079132,0.48521333932876587,0.4823564291000366,-0.5448330044746399,-0.5254940986633301,-0.44084620475769043
254207,9.297453880310059,-0.1540716588497162,3.080296516418457,0.44094181060791016,-0.9045252799987793,0.2085321843624115,0.752463698387146,-0.2287270575761795,-0.5387238264083862,-0.3020915389060974,9.677928924560547,-0.5709629654884338,-1.4042764902114868,-0.1279098242521286,-0.20874348282814026,0.3610173761844635,0.4824181795120239,-0.5447072386741638,-0.5256404876708984,-0.4407595694065094
254374,9.309123039245605,-0.16334259510040283,3.0750491619110107,0.4995948374271393,-0.6947700381278992,0.4116920828819275,0.7524166703224182,-0.2287481278181076,-0.5388011932373047,-0.3020543158054352,9.624385833740234,-0.6028519868850708,-1.4456603527069092,-0.1104675754904747,-0.27012431621551514,0.4013318419456482,0.48247191309928894,-0.5445966720581055,-0.5257618427276611,-0.4406924247741699
254540,9.326455116271973,-0.17503388226032257,3.066122055053711,0.3771405816078186,-0.7209334373474121,0.05644398182630539,0.752362847328186,-0.22872576117515564,-0.538905143737793,-0.3020199239253998,9.643160820007324,-0.6057987809181213,-1.4520832300186157,0.19002701342105865,-0.34705206751823425,0.7138962745666504,0.48247718811035156,-0.5446222424507141,-0.5257755517959595,-0.4406387209892273
254707,9.319271087646484,-0.13926070928573608,3.0852017402648926,0.5306503176689148,-0.4472745358943939,0.28140029311180115,0.7523313760757446,-0.22871696949005127,-0.5389747023582458,-0.3019808530807495,9.619193077087402,-0.5517944693565369,-1.4379321336746216,0.20074594020843506,-0.4094574451446533,0.508687436580658,0.48241370916366577,-0.5447146892547607,-0.5257447957992554,-0.44063055515289307
254874,9.334290504455566,-0.16569964587688446,3.101349353790283,0.6090507507324219,-0.37132012844085693,0.5076500773429871,0.752346932888031,-0.22865648567676544,-0.5390549302101135,-0.30184492468833923,9.662571907043457,-0.5579562783241272,-1.4700751304626465,-0.0898621529340744,-0.5174789428710938,0.28643321990966797,0.48233431577682495,-0.5447657108306885,-0.5257785320281982,-0.44061407446861267
255040,9.32936954498291,-0.16494573652744293,3.1024746894836426,0.32325148582458496,-0.5172228217124939,0.40167751908302307,0.7523033022880554,-0.22869041562080383,-0.539110541343689,-0.30182841420173645,9.68308162689209,-0.5954921841621399,-1.4650541543960571,-0.10233554244041443,-0.35838568210601807,0.5426626205444336,0.4822503626346588,-0.5448561310768127,-0.5257623791694641,-0.4406138062477112
255207,9.320987701416016,-0.1626097559928894,3.083634853363037,0.20256443321704865,-0.5429508090019226,0.22336193919181824,0.7522811889648438,-0.22866646945476532,-0.5391908288002014,-0.30175817012786865,9.685099601745605,-0.5863907337188721,-1.4698964357376099,0.12178196758031845,-0.09880097210407257,0.7944994568824768,0.48233968019485474,-0.5448015928268433,-0.5258625149726868,-0.44046369194984436
255374,9.32071304321289,-0.1655459851026535,3.0914669036865234,0.09858968108892441,-0.5016759037971497,0.2065087854862213,0.752242922782898,-0.22867955267429352,-0.539250373840332,-0.301737517118454,9.662055015563965,-0.6011975407600403,-1.4671601057052612,0.1926266998052597,-0.036113906651735306,0.9275317788124084,0.48238950967788696,-0.5448231101036072,-0.5258778929710388,-0.440364271402359
255540,9.3184232711792,-0.1722332090139389,3.0676283836364746,0.4218987226486206,-0.42455607652664185,0.10348169505596161,0.7522194385528564,-0.22864407300949097,-0.5393182635307312,-0.30170127749443054,9.63714599609375,-0.6096789836883545,-1.462593674659729,0.2232338786125183,-0.12208292633295059,0.7116424441337585,0.48240718245506287,-0.5448566675186157,-0.5258936285972595,-0.4402846097946167
255707,9.327707290649414,-0.16542427241802216,3.071007490158081,0.6970688104629517,-0.39548569917678833,0.01761513389647007,0.7522105574607849,-0.2285599559545517,-0.5394042730331421,-0.30163341760635376,9.646349906921387,-0.6056914925575256,-1.4584808349609375,0.24947410821914673,-0.19040483236312866,0.4145863652229309,0.4823964238166809,-0.5448870062828064,-0.5259219408035278,-0.4402250647544861
255874,9.31640625,-0.15218192338943481,3.0824153423309326,0.7271637320518494,-0.3698473870754242,0.029435398057103157,0.7521905303001404,-0.22849924862384796,-0.5394781231880188,-0.3015972673892975,9.638687133789062,-0.5991327166557312,-1.4487394094467163,0.25257325172424316,-0.18158122897148132,0.08176214247941971,0.4823877811431885,-0.5448702573776245,-0.5259959697723389,-0.44016653299331665
256040,9.30998706817627,-0.1441672444343567,3.093130350112915,0.6231505274772644,-0.492160826921463,0.0017864858964458108,0.7521712779998779,-0.2284262627363205,-0.5395721793174744,-0.3015323877334595,9.67149543762207,-0.5885293483734131,-1.4328579902648926,0.3075636923313141,-0.05857623741030693,-0.18803562223911285,0.48235443234443665,-0.5448505878448486,-0.5260524749755859,-0.44016000628471375
256207,9.314897537231445,-0.13088203966617584,3.074780225753784,0.4291727840900421,-0.5373929142951965,-0.10083719342947006,0.7521151304244995,-0.2284087836742401,-0.5396467447280884,-0.30155205726623535,9.660615921020508,-0.5548878908157349,-1.4212884902954102,0.20878832042217255,-0.02681649476289749,-0.16219240427017212,0.4823523759841919,-0.5447974801063538,-0.5261335372924805,-0.44013118743896484
256374,9.337520599365234,-0.1255926787853241,3.097968339920044,0.15297824144363403,-0.485898494720459,-0.10935341566801071,0.7520888447761536,-0.22835291922092438,-0.5397316813468933,-0.3015080392360687,9.648486137390137,-0.5256415605545044,-1.442155361175537,-0.20915329456329346,-0.03684386610984802,-0.14375127851963043,0.4822877049446106,-0.544807493686676,-0.5261474251747131,-0.44017308950424194
256540,9.330224990844727,-0.13851723074913025,3.084042549133301,0.13497252762317657,-0.44445714354515076,0.14136289060115814,0.7520575523376465,-0.22834892570972443,-0.539787769317627,-0.30148857831954956,9.664292335510254,-0.5176810622215271,-1.4278007745742798,-0.6137571334838867,-0.18295152485370636,0.029870811849832535,0.48218417167663574,-0.5448687076568604,-0.5261294841766357,-0.4402320683002472
256707,9.332791328430176,-0.16856832802295685,3.073760509490967,0.04358641058206558,-0.32830357551574707,0.2592325210571289,0.7520272731781006,-0.22837769985198975,-0.5398150086402893,-0.30149349570274353,9.65492057800293,-0.5389471054077148,-1.4443693161010742,-1.0291694402694702,-0.25791987776756287,0.2631128430366516,0.48207005858421326,-0.5449597239494324,-0.5260906219482422,-0.4402908980846405
256874,9.325590133666992,-0.18130989372730255,3.0792288780212402,0.047300249338150024,-0.30855613946914673,0.33964356780052185,0.7519906759262085,-0.2284349948167801,-0.5398281216621399,-0.3015179932117462,9.654764175415039,-0.5715886950492859,-1.4627013206481934,-1.2651904821395874,-0.3008851706981659,0.7694887518882751,0.4819628596305847,-0.5451109409332275,-0.5259960293769836,-0.4403342008590698
257040,9.308588981628418,-0.18334856629371643,3.0940988063812256,0.34065526723861694,-0.31502336263656616,0.4363827407360077,0.7519788146018982,-0.2284521907567978,-0.5398580431938171,-0.3014810085296631,9.651336669921875,-0.5921459794044495,-1.4454859495162964,-0.9241061210632324,-0.33858707547187805,1.0428658723831177,0.4819112718105316,-0.5452470779418945,-0.5259199142456055,-0.44031307101249695
257207,9.333173751831055,-0.17991262674331665,3.086583375930786,0.5911859273910522,-0.40519291162490845,0.6481869220733643,0.7519532442092896,-0.22851073741912842,-0.5398797988891602,-0.3014616370201111,9.65485668182373,-0.6218451857566833,-1.4224438667297363,-0.43375104665756226,-0.2534760534763336,1.0114006996154785,0.481906533241272,-0.5453415513038635,-0.5258699059486389,-0.4402608275413513
257374,9.318965911865234,-0.1838422566652298,3.083871603012085,0.7226943373680115,-0.4224558472633362,0.5722709894180298,0.7519606351852417,-0.22849297523498535,-0.5399352312088013,-0.30135732889175415,9.659751892089844,-0.646567702293396,-1.4422158002853394,0.21403895318508148,-0.3510732650756836,0.8847459554672241,0.48200735449790955,-0.545311450958252,-0.525953471660614,-0.4400879442691803
257540,9.33882999420166,-0.1932225376367569,3.1071949005126953,0.6887190341949463,-0.4505273997783661,0.5247209668159485,0.7519677877426147,-0.22847002744674683,-0.5399959683418274,-0.3012479841709137,9.648538589477539,-0.6523520946502686,-1.4353537559509277,0.9111077785491943,-0.2936367988586426,0.9049736261367798,0.48207613825798035,-0.5453495383262634,-0.5259511470794678,-0.43996816873550415
257707,9.320141792297363,-0.17479127645492554,3.0932583808898926,0.6374552845954895,-0.4796874523162842,0.4553745985031128,0.7519698739051819,-0.22844889760017395,-0.5400583744049072,-0.30114680528640747,9.634930610656738,-0.6259560585021973,-1.4392807483673096,1.5577067136764526,-0.330070823431015,0.9847634434700012,0.4821942448616028,-0.545363187789917,-0.5259720683097839,-0.43979695439338684
257874,9.322160720825195,-0.17146418988704681,3.081223487854004,0.6885141134262085,-0.5302725434303284,0.5027709007263184,0.7519639134407043,-0.22844384610652924,-0.540119469165802,-0.30105605721473694,9.65109634399414,-0.5958585739135742,-1.4423872232437134,1.850434422492981,-0.5421056747436523,0.9179784059524536,0.4822998642921448,-0.5453863143920898,-0.5260083675384521,-0.4396086633205414
258040,9.327788352966309,-0.14694634079933167,3.084012508392334,0.5372327566146851,-0.5294016599655151,0.5037185549736023,0.7519479393959045,-0.22846542298793793,-0.5401692390441895,-0.30099016427993774,9.655099868774414,-0.5645706057548523,-1.433444619178772,1.7382760047912598,-0.5002031326293945,0.9139057993888855,0.48242637515068054,-0.5453829169273376,-0.5260668992996216,-0.4394042491912842
258207,9.330239295959473,-0.15993157029151917,3.066025495529175,0.48388150334358215,-0.5839695334434509,0.3362114727497101,0.7519094944000244,-0.22849753499031067,-0.5402215123176575,-0.30096811056137085,9.653508186340332,-0.5432685613632202,-1.439139485359192,1.3601559400558472,-0.5363554954528809,0.8159117698669434,0.48253798484802246,-0.5453696846961975,-0.5261423587799072,-0.43920761346817017
258374,9.334531784057617,-0.14879173040390015,3.0684897899627686,0.4497910737991333,-0.573494017124176,0.467502236366272,0.7519007325172424,-0.22849904000759125,-0.5402860641479492,-0.30087265372276306,9.656068801879883,-0.5417351126670837,-1.4565684795379639,0.8090090751647949,-0.5630567073822021,0.921730637550354,0.4826030731201172,-0.5454105138778687,-0.5261695384979248,-0.43905285000801086
258540,9.319764137268066,-0.14924228191375732,3.083552598953247,0.35293659567832947,-0.47132495045661926,0.513489842414856,0.7518942356109619,-0.2285178303718567,-0.5403308868408203,-0.3007941246032715,9.638680458068848,-0.539280354976654,-1.4721661806106567,0.22308020293712616,-0.5985431671142578,0.8631543517112732,0.4825668931007385,-0.5455450415611267,-0.5261098146438599,-0.4389970600605011
258707,9.315852165222168,-0.1581825315952301,3.075594902038574,0.21470485627651215,-0.5104354619979858,0.49438270926475525,0.751843273639679,-0.2286163866519928,-0.5403467416763306,-0.3008181154727936,9.658940315246582,-0.5669398903846741,-1.450112223625183,-0.40893232822418213,-0.49910181760787964,0.8640764355659485,0.4824916124343872,-0.5457102656364441,-0.5260113477706909,-0.438992440700531
258874,9.325017929077148,-0.16026027500629425,3.09255313873291,0.248321533203125,-0.5183626413345337,0.5147704482078552,0.7518193125724792,-0.22866719961166382,-0.5403836369514465,-0.30077308416366577,9.644937515258789,-0.6044902801513672,-1.459147334098816,-0.6082631349563599,-0.3640076816082001,0.9979923367500305,0.48246538639068604,-0.5458349585533142,-0.5259377956390381,-0.43895435333251953
259040,9.325886726379395,-0.16112244129180908,3.08089542388916,0.32659393548965454,-0.420931875705719,0.376410573720932,0.7518094778060913,-0.22867725789546967,-0.5404244065284729,-0.30071699619293213,9.649188995361328,-0.6055095195770264,-1.4770933389663696,-0.6707069277763367,-0.379721075296402,0.8838621973991394,0.48241880536079407,-0.5459659695625305,-0.5258604884147644,-0.4389353096485138
259207,9.338644027709961,-0.17137514054775238,3.0999667644500732,0.2847299873828888,-0.49814143776893616,0.39453163743019104,0.7517745494842529,-0.2287299633026123,-0.5404568314552307,-0.30070602893829346,9.65809154510498,-0.6308621168136597,-1.4578216075897217,-0.6925033330917358,-0.355785995721817,0.5723221302032471,0.48237478733062744,-0.5460470914840698,-0.5258326530456543,-0.43891605734825134
259374,9.308209419250488,-0.1611405909061432,3.0602002143859863,0.14197759330272675,-0.4102386236190796,0.2906465232372284,0.7517637014389038,-0.2287396788597107,-0.5404958724975586,-0.3006555736064911,9.641057968139648,-0.6209657788276672,-1.4798307418823242,-0.4594918489456177,-0.3985976278781891,0.42146337032318115,0.4823381304740906,-0.5461031794548035,-0.5258342027664185,-0.43888458609580994
259540,9.343643188476562,-0.15618757903575897,3.076925754547119,0.44104427099227905,-0.4712224304676056,0.13511338829994202,0.7517297267913818,-0.22874557971954346,-0.540543794631958,-0.3006497323513031,9.648958206176758,-0.6277352571487427,-1.476791262626648,-0.33072397112846375,-0.4960026741027832,0.30314546823501587,0.48226305842399597,-0.5461891889572144,-0.5258175730705261,-0.43887990713119507
259707,9.323415756225586,-0.18379202485084534,3.0615732669830322,0.41899171471595764,-0.3920791745185852,0.16327454149723053,0.7517027258872986,-0.22875188291072845,-0.5405815839767456,-0.30064451694488525,9.634352684020996,-0.6139456033706665,-1.4913679361343384,-0.12732072174549103,-0.4782530963420868,0.1712144911289215,0.4822050929069519,-0.5462415814399719,-0.5258321762084961,-0.4388609528541565
259874,9.320744514465332,-0.19440919160842896,3.03664231300354,0.5169219374656677,-0.45048898458480835,0.5260528922080994,0.7516947984695435,-0.2287711501121521,-0.5406213402748108,-0.30057811737060547,9.639892578125,-0.6180078387260437,-1.4760472774505615,0.1111270934343338,-0.4082920253276825,0.2124253213405609,0.4822006821632385,-0.5462446212768555,-0.5258873105049133,-0.4387960135936737
260040,9.331984519958496,-0.14306259155273438,3.0488955974578857,0.4923081398010254,-0.14047284424304962,0.4348587989807129,0.7517120242118835,-0.22876301407814026,-0.5406339764595032,-0.3005184531211853,9.624418258666992,-0.5955744385719299,-1.500952124595642,0.2907233238220215,-0.28035658597946167,0.5527412295341492,0.4822407364845276,-0.5462555289268494,-0.5259154438972473,-0.43870481848716736
260207,9.381479263305664,-0.16872872412204742,3.055783748626709,0.1764138787984848,0.1245865747332573,0.17791222035884857,0.7517416477203369,-0.22873236238956451,-0.5406236052513123,-0.3004862070083618,9.676812171936035,-0.5825909376144409,-1.5184837579727173,0.37146735191345215,-0.3881988823413849,0.7500229477882385,0.48228922486305237,-0.5462851524353027,-0.5259391069412231,-0.4385862350463867
260374,9.367914199829102,-0.1683177649974823,3.057621479034424,0.1102050393819809,0.10850179195404053,0.06821302324533463,0.7517381906509399,-0.22874559462070465,-0.5405977368354797,-0.3005318343639374,9.680363655090332,-0.5612821578979492,-1.4887644052505493,0.18460991978645325,-0.19927959144115448,0.6529253125190735,0.482273668050766,-0.5463763475418091,-0.5258759260177612,-0.4385654628276825
260540,9.34487247467041,-0.18374910950660706,3.084249973297119,0.275675892829895,0.31194350123405457,0.48997732996940613,0.7517580986022949,-0.2287944108247757,-0.5405306816101074,-0.30056533217430115,9.667189598083496,-0.5522021651268005,-1.4851487874984741,-0.29860565066337585,-0.08263937383890152,0.3180777132511139,0.48226088285446167,-0.5464028120040894,-0.5258685946464539,-0.4385553002357483
260707,9.323505401611328,-0.1850365400314331,3.081639289855957,0.2215818464756012,0.12972190976142883,0.5158973932266235,0.751792848110199,-0.22880639135837555,-0.5405024290084839,-0.300520122051239,9.654804229736328,-0.6111060380935669,-1.4871841669082642,-0.4641917645931244,0.14370645582675934,0.435832142829895,0.4822086989879608,-0.5464949607849121,-0.5257636904716492,-0.4386236369609833
260874,9.300406455993652,-0.1813172698020935,3.085301637649536,0.22916322946548462,0.005039298441261053,0.28378230333328247,0.7517979741096497,-0.22882352769374847,-0.5404874682426453,-0.30052098631858826,9.640242576599121,-0.6166561245918274,-1.4758542776107788,-0.23434339463710785,0.28346213698387146,0.6844033002853394,0.48223236203193665,-0.54654461145401,-0.5256819128990173,-0.4386337399482727
261040,9.307293891906738,-0.1606682687997818,3.0661327838897705,0.12748081982135773,-0.1064848080277443,0.19595636427402496,0.7518026232719421,-0.22882261872291565,-0.5404941439628601,-0.3004980683326721,9.634900093078613,-0.5842029452323914,-1.4530736207962036,-0.14816945791244507,0.3761160969734192,0.760793149471283,0.48225468397140503,-0.5466131567955017,-0.5255669951438904,-0.4386615753173828
261207,9.300349235534668,-0.1624670922756195,3.098891019821167,0.28447380661964417,-0.09066895395517349,0.17928248643875122,0.7518041729927063,-0.2288181334733963,-0.5404998660087585,-0.30048730969429016,9.648700714111328,-0.5796245336532593,-1.452365756034851,-0.2958010733127594,0.44044235348701477,0.5608220100402832,0.48227041959762573,-0.5466567873954773,-0.5254696607589722,-0.4387063980102539
261374,9.317307472229004,-0.15594394505023956,3.0846145153045654,0.35904520750045776,-0.07229185104370117,0.279543399810791,0.751815140247345,-0.2288113683462143,-0.5405031442642212,-0.300459086894989,9.653406143188477,-0.5928063988685608,-1.4339661598205566,-0.2700987160205841,0.5182665586471558,0.19377927482128143,0.48228132724761963,-0.5466521978378296,-0.525411069393158,-0.43877023458480835
261540,9.31694221496582,-0.17101065814495087,3.0821399688720703,0.29945728182792664,-0.01220445241779089,0.32387903332710266,0.7518342137336731,-0.2288057804107666,-0.5404982566833496,-0.300424724817276,9.647029876708984,-0.5989825129508972,-1.4565856456756592,-0.3061998188495636,0.5739485621452332,0.3084601163864136,0.4823129177093506,-0.5466413497924805,-0.5253506302833557,-0.43882137537002563
261707,9.320775985717773,-0.17044204473495483,3.0735034942626953,0.217214897274971,-0.07102400809526443,0.29845836758613586,0.7518290281295776,-0.22883853316307068,-0.5404844880104065,-0.30043748021125793,9.648285865783691,-0.5843987464904785,-1.4556915760040283,-0.147887721657753,0.4946644604206085,0.41015535593032837,0.48233702778816223,-0.5466568470001221,-0.5252717733383179,-0.43887001276016235
261874,9.328007698059082,-0.17432579398155212,3.084754228591919,0.19952933490276337,-0.04851045086979866,0.3068465292453766,0.7518358826637268,-0.22885356843471527,-0.5404753088951111,-0.3004252016544342,9.645625114440918,-0.5718963146209717,-1.4497050046920776,-0.10968638211488724,0.3200434744358063,0.5845586061477661,0.48239371180534363,-0.5466560125350952,-0.5252330303192139,-0.4388551414012909
262040,9.336833953857422,-0.15555787086486816,3.077204704284668,0.1949702501296997,-0.06825784593820572,0.39056161046028137,0.751839280128479,-0.22888708114624023,-0.5404606461524963,-0.3004177212715149,9.6551513671875,-0.5600733757019043,-1.4540536403656006,-0.16365234553813934,0.30048176646232605,0.584014356136322,0.48243850469589233,-0.5466666221618652,-0.5251850485801697,-0.43884995579719543
262207,9.340598106384277,-0.17751958966255188,3.0615272521972656,0.30853697657585144,-0.19842158257961273,0.5290879011154175,0.751826822757721,-0.228952094912529,-0.5404489636421204,-0.30042049288749695,9.663348197937012,-0.5756942629814148,-1.4411042928695679,-0.2139812856912613,0.05475354567170143,0.6091532111167908,0.4824247360229492,-0.5467426180839539,-0.5251029133796692,-0.43886902928352356
262374,9.33746337890625,-0.16612555086612701,3.0826191902160645,0.40001270174980164,-0.188189297914505,0.41421493887901306,0.7518227100372314,-0.22898031771183014,-0.5404515862464905,-0.3004043698310852,9.647802352905273,-0.5922950506210327,-1.4537426233291626,-0.10275813937187195,-0.09285882860422134,0.6343433260917664,0.4824163019657135,-0.5468142032623291,-0.5250437259674072,-0.4388597011566162
262540,9.3245849609375,-0.16565707325935364,3.100306987762451,0.33589136600494385,-0.19272276759147644,0.362848699092865,0.7518328428268433,-0.2289774864912033,-0.5404680371284485,-0.3003513514995575,9.653417587280273,-0.5937183499336243,-1.4615458250045776,0.06026027724146843,-0.12481067329645157,0.718813955783844,0.4824655055999756,-0.5468328595161438,-0.5250425934791565,-0.43878382444381714
262707,9.313573837280273,-0.15719576179981232,3.1057465076446533,0.3516303300857544,-0.4383612871170044,0.3229568898677826,0.7518209218978882,-0.2289838045835495,-0.5405114889144897,-0.30029821395874023,9.673019409179688,-0.5861654281616211,-1.4580127000808716,0.07781778275966644,-0.10146470367908478,0.6739404797554016,0.4824959337711334,-0.5468682050704956,-0.5250205993652344,-0.43873271346092224
262874,9.291333198547363,-0.14667098224163055,3.0672414302825928,0.3723381757736206,-0.39435875415802,0.5188172459602356,0.7518194317817688,-0.2290053814649582,-0.5405422449111938,-0.30023032426834106,9.623273849487305,-0.5863513946533203,-1.4577909708023071,0.13889126479625702,0.01901102438569069,0.6526692509651184,0.48250123858451843,-0.5469347834587097,-0.5249486565589905,-0.43872979283332825
263040,9.3239164352417,-0.15973129868507385,3.0695159435272217,0.19082099199295044,-0.3225151002407074,0.2564919590950012,0.7517995238304138,-0.22903446853160858,-0.5405609011650085,-0.30022433400154114,9.64519214630127,-0.6156691312789917,-1.4657443761825562,0.1804862767457962,-0.10998092591762543,0.7772108912467957,0.482537180185318,-0.5469810962677002,-0.5249151587486267,-0.43867263197898865
263207,9.321237564086914,-0.14147117733955383,3.092543125152588,0.2567608952522278,-0.2245081067085266,-0.003585777711123228,0.7517763376235962,-0.229034885764122,-0.540579080581665,-0.30024927854537964,9.633569717407227,-0.5708199143409729,-1.470085859298706,0.3166433572769165,-0.06675949692726135,0.7035871744155884,0.48259177803993225,-0.5469986200332642,-0.5249044895172119,-0.4386034607887268
263374,9.348002433776855,-0.15047602355480194,3.0781664848327637,0.3254285156726837,-0.07759367674589157,0.41831299662590027,0.751777172088623,-0.2290688455104828,-0.5405637621879578,-0.300248920917511,9.624665260314941,-0.5442451238632202,-1.466795563697815,0.02033008076250553,-0.24343588948249817,0.2736396789550781,0.48256292939186096,-0.5470374822616577,-0.5248985886573792,-0.4385937452316284
263540,9.344114303588867,-0.16752386093139648,3.0683679580688477,0.35002952814102173,-0.18957237899303436,0.43521732091903687,0.7517731785774231,-0.2291015237569809,-0.54056316614151,-0.3002348840236664,9.670089721679688,-0.5761124491691589,-1.4556666612625122,-0.31817373633384705,-0.3007059097290039,0.15139025449752808,0.4825133681297302,-0.5470712184906006,-0.524909257888794,-0.43859344720840454
263707,9.327993392944336,-0.18108510971069336,3.099724292755127,0.27424156665802,-0.2940594255924225,0.3191278278827667,0.7517422437667847,-0.22915811836719513,-0.5405661463737488,-0.3002638518810272,9.677038192749023,-0.5891515612602234,-1.466649055480957,-0.29970699548721313,-0.1936960220336914,0.4236660599708557,0.48250436782836914,-0.5471007227897644,-0.5249093770980835,-0.4385664463043213
263874,9.312623023986816,-0.1610974371433258,3.0912091732025146,-0.15619903802871704,-0.38334524631500244,0.3144022822380066,0.7516675591468811,-0.22930555045604706,-0.5405428409576416,-0.30038052797317505,9.662961959838867,-0.5719499588012695,-1.4820947647094727,-0.2577534019947052,-0.10178487002849579,0.6876946091651917,0.48251646757125854,-0.5471488237380981,-0.5248770117759705,-0.4385318458080292
264041,9.31319522857666,-0.16706252098083496,3.0934622287750244,0.01260785199701786,-0.3347451686859131,0.24488943815231323,0.7516505122184753,-0.22933438420295715,-0.5405626893043518,-0.30036529898643494,9.654446601867676,-0.5726670622825623,-1.4607336521148682,-0.32553738355636597,-0.03061998263001442,0.8559443950653076,0.4824880063533783,-0.5472708344459534,-0.5247585773468018,-0.4385526478290558
264207,9.325328826904297,-0.16320736706256866,3.066190004348755,0.3044901192188263,-0.4021833539009094,0.18015331029891968,0.7516117691993713,-0.22937139868736267,-0.5405865907669067,-0.3003908097743988,9.636058807373047,-0.5788770914077759,-1.4582486152648926,-0.34176304936408997,-0.10640795528888702,0.5600280165672302,0.48247599601745605,-0.5473246574401855,-0.5247218012809753,-0.4385426640510559
264374,9.313377380371094,-0.15303631126880646,3.0902721881866455,0.5041667222976685,-0.24220648407936096,0.14099149405956268,0.7516016960144043,-0.22935636341571808,-0.5406116247177124,-0.300382524728775,9.629467010498047,-0.6093642711639404,-1.464868187904358,-0.356259822845459,-0.2940337657928467,0.41187140345573425,0.4824472665786743,-0.5473702549934387,-0.5247192978858948,-0.4385204017162323
264541,9.312762260437012,-0.16850730776786804,3.075777769088745,0.5728856325149536,-0.2821366786956787,0.0551249235868454,0.7515803575515747,-0.22934098541736603,-0.5406413674354553,-0.3003942668437958,9.647533416748047,-0.6153435111045837,-1.4731651544570923,-0.14756755530834198,-0.3932829797267914,0.22430960834026337,0.4823715388774872,-0.5474461317062378,-0.5246966481208801,-0.4385360777378082
264707,9.321466445922852,-0.15194588899612427,3.1125805377960205,0.3654868006706238,-0.3941025733947754,0.05781426280736923,0.7515559792518616,-0.22933025658130646,-0.540683925151825,-0.3003869652748108,9.659147262573242,-0.5892555117607117,-1.4714055061340332,-0.04856167361140251,-0.2945460379123688,0.07724149525165558,0.482350617647171,-0.5474391579627991,-0.5247463583946228,-0.4385084807872772
264874,9.325933456420898,-0.12698397040367126,3.0996811389923096,0.3078070282936096,-0.5644270181655884,-0.03464117646217346,0.7515160441398621,-0.22931928932666779,-0.5407479405403137,-0.3003799319267273,9.665491104125977,-0.5691177845001221,-1.4661198854446411,-0.06380122900009155,-0.2338823527097702,0.07380940020084381,0.4822945296764374,-0.5474746823310852,-0.5247434377670288,-0.43852922320365906
265041,9.320380210876465,-0.14248299598693848,3.075270175933838,0.24029192328453064,-0.7130447030067444,0.11076851189136505,0.7514649033546448,-0.22933989763259888,-0.5408173203468323,-0.300367146730423,9.669724464416504,-0.5307058691978455,-1.4723320007324219,-0.29412341117858887,-0.1815427988767624,0.10647838562726974,0.48224472999572754,-0.5475029349327087,-0.5247429609298706,-0.43854930996894836
265207,9.323319435119629,-0.15976348519325256,3.067667007446289,0.3062574565410614,-0.5682945847511292,0.24478699266910553,0.7514030933380127,-0.22941133379936218,-0.5408462882041931,-0.3004152476787567,9.639248847961426,-0.5395493507385254,-1.4775495529174805,-0.5844689607620239,-0.28677257895469666,0.24248182773590088,0.48216524720191956,-0.5475757122039795,-0.5247130990028381,-0.4385814666748047
265374,9.32300090789795,-0.1636687070131302,3.0763392448425293,0.1234724149107933,-0.6904159188270569,0.3714417517185211,0.7513458132743835,-0.22949162125587463,-0.5408875346183777,-0.30042287707328796,9.641942977905273,-0.5568004250526428,-1.475282907485962,-0.7757830619812012,-0.4537161886692047,0.6317949295043945,0.482092946767807,-0.5476889610290527,-0.5246657133102417,-0.4385761320590973
265541,9.320258140563965,-0.170649453997612,3.0738790035247803,0.20640632510185242,-0.6155499815940857,0.4068385362625122,0.751278817653656,-0.22959837317466736,-0.5409075021743774,-0.30047285556793213,9.646798133850098,-0.561229407787323,-1.4820696115493774,-0.7012372612953186,-0.501010000705719,0.9085529446601868,0.4820370674133301,-0.5478247404098511,-0.5246007442474365,-0.438545823097229
265707,9.335599899291992,-0.15657669305801392,3.078127384185791,0.37281203269958496,-0.5823431015014648,0.4023178517818451,0.7512466907501221,-0.22963660955429077,-0.5409517884254456,-0.30044424533843994,9.631438255310059,-0.5875619649887085,-1.4613189697265625,-0.4948374032974243,-0.5135218501091003,1.0652514696121216,0.48200422525405884,-0.5479609966278076,-0.524535059928894,-0.4384903013706207
265874,9.320158004760742,-0.14996005594730377,3.1051242351531982,0.5388720035552979,-0.5402231216430664,0.37893348932266235,0.7512311935424805,-0.2296372503042221,-0.5410060286521912,-0.3003849685192108,9.661937713623047,-0.600768506526947,-1.452977180480957,-0.23631557822227478,-0.5509035587310791,0.8006978034973145,0.482016921043396,-0.5480074286460876,-0.5245659947395325,-0.43838149309158325
266041,9.31271743774414,-0.1833231896162033,3.1142404079437256,0.6146855354309082,-0.8058395385742188,0.41166651248931885,0.7511547803878784,-0.2297230362892151,-0.5410571694374084,-0.30041787028312683,9.70041561126709,-0.6154438257217407,-1.4764765501022339,0.10941104590892792,-0.31000328063964844,0.6041587591171265,0.48204001784324646,-0.5480266213417053,-0.5245885252952576,-0.43830496072769165
266207,9.318008422851562,-0.21009095013141632,3.091036081314087,0.8270404934883118,-0.9448269009590149,0.5611550807952881,0.7511059641838074,-0.2297591269016266,-0.5411460399627686,-0.30035245418548584,9.672922134399414,-0.6289886832237244,-1.4552264213562012,0.6454848647117615,-0.023730164393782616,0.7033567428588867,0.4821169674396515,-0.548018217086792,-0.5245953798294067,-0.4382225573062897
266374,9.367353439331055,-0.23866203427314758,3.0845391750335693,1.2210279703140259,-0.7974643111228943,0.6412844061851501,0.7510913014411926,-0.22974254190921783,-0.5412368774414062,-0.30023810267448425,9.647963523864746,-0.6321527361869812,-1.470259666442871,1.1519887447357178,-0.09767403453588486,0.9908208847045898,0.48222512006759644,-0.5480276346206665,-0.5245887041091919,-0.43810001015663147
266541,9.356493949890137,-0.17906494438648224,3.037708044052124,1.1467254161834717,-0.8681424856185913,0.31424862146377563,0.7510833740234375,-0.22965939342975616,-0.5413652062416077,-0.3000902831554413,9.64113712310791,-0.6243889927864075,-1.4544659852981567,1.4825588464736938,-0.25786861777305603,1.386549711227417,0.48240920901298523,-0.5480102300643921,-0.5246285200119019,-0.4378710687160492
266707,9.313299179077148,-0.1680823266506195,3.043239116668701,1.2468838691711426,-0.7410138249397278,0.4163152277469635,0.7510619759559631,-0.22962439060211182,-0.5414566993713379,-0.3000054359436035,9.614506721496582,-0.6052265763282776,-1.4676131010055542,1.6392831802368164,-0.595264732837677,1.4359313249588013,0.48254817724227905,-0.5480491518974304,-0.5246535539627075,-0.4376389682292938
266874,9.305928230285645,-0.13956061005592346,3.0342652797698975,1.374934434890747,-0.6950646638870239,0.3978612720966339,0.7510519623756409,-0.22956424951553345,-0.5415526628494263,-0.2999035716056824,9.597570419311523,-0.5786649584770203,-1.463569164276123,1.3767273426055908,-1.0150952339172363,1.0855365991592407,0.4825943410396576,-0.548127293586731,-0.5246976017951965,-0.43743762373924255
267041,9.323360443115234,-0.12477196753025055,3.0362191200256348,1.0175349712371826,-0.8971359729766846,0.333406925201416,0.7510128617286682,-0.2295435220003128,-0.5416586399078369,-0.29982587695121765,9.613938331604004,-0.5829603672027588,-1.4594470262527466,1.1730166673660278,-1.2426255941390991,0.7152793407440186,0.4826326370239258,-0.54814612865448,-0.5248365998268127,-0.4372049868106842
267207,9.327779769897461,-0.13260045647621155,3.048557996749878,0.5750626921653748,-0.9070096611976624,0.07628101855516434,0.7509315609931946,-0.22957824170589447,-0.5417435765266418,-0.29984939098358154,9.6317720413208,-0.5818451642990112,-1.5107094049453735,0.7706668972969055,-1.1439528465270996,0.3751043677330017,0.4825739562511444,-0.5482214689254761,-0.524906575679779,-0.4370913505554199
267374,9.337959289550781,-0.14031372964382172,3.023935317993164,0.427840918302536,-0.9268723726272583,-0.01678912155330181,0.7508422136306763,-0.22961758077144623,-0.5418294668197632,-0.29988765716552734,9.625582695007324,-0.5725606083869934,-1.529918909072876,0.3210615813732147,-1.1486399173736572,0.1281595379114151,0.4824918210506439,-0.5482746362686157,-0.525005042552948,-0.4369968771934509
267541,9.36064624786377,-0.15107344090938568,3.0354843139648438,0.1458195000886917,-0.7210486531257629,0.012185241095721722,0.750770092010498,-0.2296636700630188,-0.5418871641159058,-0.2999287545681,9.629846572875977,-0.5467608571052551,-1.539592981338501,-0.21928314864635468,-1.1631367206573486,0.12353646010160446,0.48233819007873535,-0.5483981966972351,-0.5250376462936401,-0.4369722604751587
267707,9.350624084472656,-0.14132060110569,3.039461612701416,0.19132046401500702,-0.583021879196167,0.17775852978229523,0.7507110238075256,-0.22972328960895538,-0.5419215559959412,-0.2999688684940338,9.64797592163086,-0.5273399949073792,-1.5540752410888672,-0.8371766209602356,-0.9710670113563538,0.16175058484077454,0.482186496257782,-0.5485132932662964,-0.5250596404075623,-0.4369688034057617
267874,9.33588981628418,-0.15741749107837677,3.0529937744140625,0.1976083666086197,-0.5149816870689392,0.2619602680206299,0.7506622672080994,-0.22978347539901733,-0.5419468879699707,-0.2999986410140991,9.689227104187012,-0.530698835849762,-1.5432158708572388,-1.268340826034546,-0.6364115476608276,0.24348074197769165,0.48198097944259644,-0.5487026572227478,-0.524962842464447,-0.43707412481307983
268041,9.34851360321045,-0.16918320953845978,3.043731451034546,0.2958330810070038,-0.4870254695415497,0.33863189816474915,0.7506155967712402,-0.2298506796360016,-0.5419651865959167,-0.30003103613853455,9.680704116821289,-0.5624955892562866,-1.5456775426864624,-1.5374277830123901,-0.2089868187904358,0.30230027437210083,0.4818132817745209,-0.5488587617874146,-0.5248454213142395,-0.4372040033340454
268207,9.34186840057373,-0.1704348921775818,3.0541954040527344,0.32211169600486755,-0.5234594941139221,0.3412315845489502,0.7505777478218079,-0.22989678382873535,-0.5419970750808716,-0.30003291368484497,9.653633117675781,-0.5904533863067627,-1.529537558555603,-1.4413161277770996,0.01303046103566885,0.3918422758579254,0.4817045331001282,-0.5489654541015625,-0.5247490406036377,-0.4373056888580322
268374,9.335563659667969,-0.1580469012260437,3.034862518310547,0.36624234914779663,-0.49135392904281616,0.3500038981437683,0.7505384087562561,-0.2299485206604004,-0.5420220494270325,-0.30004629492759705,9.631083488464355,-0.5996840000152588,-1.5257344245910645,-1.257173776626587,0.07570474594831467,0.4528645873069763,0.48160630464553833,-0.5490745902061462,-0.5246399641036987,-0.4374077320098877
268541,9.348170280456543,-0.14578767120838165,3.0345370769500732,0.3860410153865814,-0.3432614207267761,0.23478521406650543,0.7504934072494507,-0.23000559210777283,-0.5420257449150085,-0.3001084625720978,9.617768287658691,-0.6319018602371216,-1.5369716882705688,-0.7095230221748352,-0.02495957724750042,0.5319437980651855,0.4815281331539154,-0.5491827130317688,-0.5245404243469238,-0.4374774992465973
268707,9.35945987701416,-0.16051806509494781,3.0287506580352783,0.6039282083511353,-0.056988250464200974,0.2749459147453308,0.7504904270172119,-0.23001010715961456,-0.5420146584510803,-0.3001323640346527,9.609317779541016,-0.624866783618927,-1.5093778371810913,-0.22778654098510742,-0.2766939699649811,0.46131670475006104,0.4815119802951813,-0.5492109060287476,-0.5245549082756042,-0.43744251132011414
268874,9.334766387939453,-0.1863311231136322,3.021258592605591,0.47799062728881836,-0.3594486117362976,0.3658197522163391,0.7504708766937256,-0.23003515601158142,-0.5420340299606323,-0.3001275658607483,9.649023056030273,-0.6391682624816895,-1.5242979526519775,0.2902239263057709,-0.30532902479171753,0.3766155540943146,0.4815179109573364,-0.5492120981216431,-0.5245964527130127,-0.43738439679145813
269041,9.33472728729248,-0.1611725091934204,3.041442632675171,0.5749730467796326,0.09889703243970871,0.5275126695632935,0.7505097389221191,-0.23002031445503235,-0.5420114994049072,-0.3000824749469757,9.602970123291016,-0.6345081925392151,-1.5221810340881348,0.8766650557518005,-0.290473610162735,0.6238420605659485,0.48158586025238037,-0.5491924285888672,-0.5246524214744568,-0.4372672736644745
269207,9.32830810546875,-0.14032350480556488,3.054781675338745,0.3452911972999573,0.2442234754562378,0.2845122516155243,0.7505298852920532,-0.2300264537334442,-0.5419619679450989,-0.3001165986061096,9.649700164794922,-0.584787905216217,-1.5337196588516235,1.2074275016784668,-0.28869351744651794,0.858108639717102,0.48165690898895264,-0.5492135882377625,-0.5246620774269104,-0.437150776386261
269374,9.373861312866211,-0.12056825309991837,3.034111499786377,0.4151882827281952,0.4555283188819885,0.1677311658859253,0.7505680918693542,-0.2299988865852356,-0.5418993234634399,-0.3001554608345032,9.672076225280762,-0.5439243316650391,-1.5506110191345215,1.0033327341079712,-0.17649713158607483,0.6658598184585571,0.4817386269569397,-0.5491899847984314,-0.5247055888175964,-0.4370381832122803
269541,9.36995792388916,-0.1421477347612381,3.067406415939331,0.5813634991645813,0.583156406879425,0.7504841685295105,0.750626266002655,-0.2300313413143158,-0.5417944192886353,-0.30017438530921936,9.676484107971191,-0.5056290626525879,-1.5552493333816528,0.43584489822387695,0.052678920328617096,0.06708605587482452,0.48175445199012756,-0.5491443276405334,-0.5247467160224915,-0.4370286464691162
269707,9.324892044067383,-0.14423523843288422,3.1041595935821533,0.49883928894996643,0.4855463206768036,0.7943586111068726,0.7506981492042542,-0.23003964126110077,-0.5417123436927795,-0.3001368045806885,9.662222862243652,-0.5595547556877136,-1.5277451276779175,-0.07504520565271378,0.34007900953292847,0.09263473004102707,0.48174378275871277,-0.5491272807121277,-0.5247243642807007,-0.43708881735801697
269874,9.29788875579834,-0.1495140790939331,3.0881693363189697,0.32833561301231384,0.2387295812368393,0.44338786602020264,0.750728189945221,-0.23005220293998718,-0.5416595935821533,-0.3001468777656555,9.67724895477295,-0.574171781539917,-1.5195896625518799,-0.18977728486061096,0.755977988243103,0.5967310667037964,0.4817873537540436,-0.549129843711853,-0.5246257781982422,-0.4371558725833893
270041,9.313895225524902,-0.1351662427186966,3.074022054672241,0.026144161820411682,0.20565074682235718,0.4316187798976898,0.7507434487342834,-0.2301013469696045,-0.5415958166122437,-0.3001860976219177,9.658535957336426,-0.551266610622406,-1.5249103307724,-0.03953320160508156,1.0626003742218018,1.0680559873580933,0.48186248540878296,-0.5491783618927002,-0.5244354605674744,-0.4372403919696808
270207,9.313570022583008,-0.1454300433397293,3.0841569900512695,0.18878480792045593,0.1451919823884964,0.3822631239891052,0.7507762908935547,-0.23009638488292694,-0.5415618419647217,-0.30016905069351196,9.642248153686523,-0.5482776761054993,-1.5148332118988037,-0.28328925371170044,1.211948037147522,0.8598374724388123,0.4819793403148651,-0.5491409301757812,-0.5243179798126221,-0.4372994899749756
270374,9.306650161743164,-0.15012560784816742,3.074233055114746,0.3895627558231354,0.26315125823020935,0.6063358187675476,0.7508341670036316,-0.23008321225643158,-0.5415152907371521,-0.3001180589199066,9.625530242919922,-0.5724145770072937,-1.4652395248413086,-0.3209143280982971,1.187731385231018,0.6306167244911194,0.48201799392700195,-0.5491607189178467,-0.5241435170173645,-0.4374412000179291
270541,9.334600448608398,-0.15763942897319794,3.0741798877716064,0.47837477922439575,0.22491151094436646,0.6632344126701355,0.7508702874183655,-0.23011118173599243,-0.5414555668830872,-0.30011460185050964,9.640974998474121,-0.5927635431289673,-1.4697381258010864,-0.22312504053115845,1.2174419164657593,0.48512375354766846,0.48208388686180115,-0.5491278171539307,-0.5240191221237183,-0.4375589191913605
270707,9.33057975769043,-0.17367152869701385,3.057935953140259,0.3804958462715149,0.2061758190393448,0.6552176475524902,0.7508952617645264,-0.2301604300737381,-0.5413890480995178,-0.30013424158096313,9.620711326599121,-0.5976149439811707,-1.4503557682037354,0.3114183843135834,0.5933758020401001,0.6809840202331543,0.482254296541214,-0.5490465760231018,-0.5239101648330688,-0.43760359287261963
270874,9.341073036193848,-0.1608615219593048,3.068349838256836,0.4197601079940796,0.25448137521743774,0.7099775671958923,0.7509535551071167,-0.2301602065563202,-0.5413370728492737,-0.3000817596912384,9.647634506225586,-0.5800157189369202,-1.4690946340560913,0.5498085618019104,0.2492179423570633,0.777185320854187,0.482315331697464,-0.5490557551383972,-0.5238652229309082,-0.43757864832878113
271041,9.337743759155273,-0.17686469852924347,3.074208974838257,0.571771502494812,0.028116343542933464,0.6408233642578125,0.7509913444519043,-0.23015707731246948,-0.5413147211074829,-0.3000301718711853,9.632938385009766,-0.5755265355110168,-1.4597418308258057,0.5326352715492249,-0.11416861414909363,0.906683087348938,0.48242858052253723,-0.5490105152130127,-0.523927628993988,-0.4374357759952545
271207,9.35659408569336,-0.17397098243236542,3.0685760974884033,0.5767403841018677,-0.0347820483148098,0.734706699848175,0.7510311007499695,-0.2301585078239441,-0.5412982106208801,-0.2999591529369354,9.653787612915039,-0.5833550691604614,-1.473624348640442,0.5827977657318115,-0.3972913920879364,0.9581518769264221,0.48247501254081726,-0.549045741558075,-0.5239434242248535,-0.4373215138912201
271374,9.334920883178711,-0.16473889350891113,3.0718798637390137,0.6352782249450684,-0.06610637903213501,0.7308903932571411,0.7510693669319153,-0.23015636205673218,-0.541286826133728,-0.2998856008052826,9.639927864074707,-0.5882028937339783,-1.48518967628479,0.7311977744102478,-0.4777921140193939,1.0768795013427734,0.4825425148010254,-0.5490751266479492,-0.5239746570587158,-0.4371727406978607
271541,9.32569408416748,-0.15610788762569427,3.0786571502685547,0.6111637353897095,-0.09061773121356964,0.7322733998298645,0.7510865330696106,-0.2301909327507019,-0.5412627458572388,-0.29985952377319336,9.649526596069336,-0.5823532342910767,-1.4868443012237549,0.7316715121269226,-0.5388014912605286,1.0551599264144897,0.48259520530700684,-0.5491167306900024,-0.5240011215209961,-0.43703046441078186
271707,9.34335708618164,-0.1562613695859909,3.1019747257232666,0.5822086334228516,-0.12132734805345535,0.6367253065109253,0.7511138319969177,-0.2301904261112213,-0.541257381439209,-0.2998013198375702,9.665146827697754,-0.578345537185669,-1.4899241924285889,0.6827001571655273,-0.29298368096351624,0.9319884777069092,0.48266202211380005,-0.549126923084259,-0.5240276455879211,-0.4369121491909027
271874,9.322052955627441,-0.1521182805299759,3.070188045501709,0.5611422061920166,-0.25982803106307983,0.730711042881012,0.7511201500892639,-0.23023049533367157,-0.5412519574165344,-0.2997646927833557,9.625347137451172,-0.5989969372749329,-1.5043061971664429,0.4870958924293518,-0.0908738449215889,0.9738140106201172,0.4826953411102295,-0.5491841435432434,-0.523978590965271,-0.4368623197078705
272041,9.309828758239746,-0.1551962047815323,3.055999994277954,0.5051784515380859,-0.22120407223701477,0.7845873832702637,0.751148521900177,-0.23024483025074005,-0.5412524938583374,-0.2996814548969269,9.633016586303711,-0.6085621118545532,-1.4954701662063599,0.5628839135169983,-0.09310216456651688,1.120408296585083,0.4827713072299957,-0.5492129921913147,-0.5239591598510742,-0.436765193939209
272207,9.328475952148438,-0.14507600665092468,3.05197811126709,0.5138996243476868,-0.2583425045013428,0.41134631633758545,0.7511486411094666,-0.23024730384349823,-0.5412626266479492,-0.2996608316898346,9.621012687683105,-0.5627856254577637,-1.5002301931381226,0.44459161162376404,-0.20098283886909485,0.7791959643363953,0.48280173540115356,-0.5492384433746338,-0.523959219455719,-0.4366994798183441
272374,9.321362495422363,-0.14091622829437256,3.086611032485962,0.6433333158493042,0.01636011153459549,0.5547389984130859,0.7511709332466125,-0.23025254905223846,-0.5412359237670898,-0.2996489703655243,9.650394439697266,-0.5617470145225525,-1.504681944847107,0.05456145480275154,-0.15262608230113983,0.44810059666633606,0.4828116297721863,-0.5492278933525085,-0.5239948034286499,-0.43665897846221924
272541,9.363207817077637,-0.1677365005016327,3.0716469287872314,0.43980205059051514,-0.07003791630268097,0.8367988467216492,0.7511964440345764,-0.23029790818691254,-0.541203498840332,-0.2996090352535248,9.681118965148926,-0.598142147064209,-1.519670009613037,-0.08767227828502655,-0.01859482005238533,0.7036513090133667,0.48278120160102844,-0.5493046641349792,-0.5239213109016418,-0.43668439984321594
272707,9.3375883102417,-0.19481025636196136,3.0953967571258545,0.3372360169887543,-0.08603305369615555,0.6499542593955994,0.7512058615684509,-0.23034586012363434,-0.5411720275878906,-0.29960519075393677,9.6732816696167,-0.6101296544075012,-1.5015794038772583,-0.06371158361434937,0.16099503636360168,0.981741189956665,0.48281171917915344,-0.5493550896644592,-0.5238513350486755,-0.43667125701904297
272874,9.315325736999512,-0.18766863644123077,3.073460578918457,0.10976962000131607,-0.17698372900485992,0.6135457754135132,0.7512100338935852,-0.23040026426315308,-0.5411497354507446,-0.299593061208725,9.660572052001953,-0.6100872755050659,-1.4836198091506958,0.0007619778625667095,0.30500248074531555,1.2036112546920776,0.48283451795578003,-0.5494541525840759,-0.5237092971801758,-0.43669167160987854
273041,9.323851585388184,-0.1731778383255005,3.089996814727783,0.12589281797409058,-0.1562502682209015,0.46611911058425903,0.751196563243866,-0.23046472668647766,-0.5411201119422913,-0.29963064193725586,9.636988639831543,-0.6090380549430847,-1.502415657043457,-0.0010885396040976048,0.3343033790588379,1.0251034498214722,0.48287785053253174,-0.5495010018348694,-0.5236185789108276,-0.4366936981678009
273207,9.317687034606934,-0.1754452884197235,3.072313070297241,0.47551894187927246,-0.2013414204120636,0.41878682374954224,0.7511884570121765,-0.23049099743366241,-0.5411110520362854,-0.2996474504470825,9.624361038208008,-0.6397227048873901,-1.5014100074768066,0.13435779511928558,0.2873040437698364,0.7700393199920654,0.4829266369342804,-0.5495038628578186,-0.5235794186592102,-0.43668317794799805
273374,9.31680679321289,-0.16905805468559265,3.0797581672668457,0.7010515928268433,-0.20636151731014252,0.3744128346443176,0.7512058615684509,-0.23045173287391663,-0.5411297678947449,-0.29960042238235474,9.633151054382324,-0.6376770734786987,-1.4811935424804688,0.2716546952724457,0.21293756365776062,0.5746912956237793,0.4829733073711395,-0.549480140209198,-0.5235770344734192,-0.4366639256477356
273541,9.320718765258789,-0.1605326533317566,3.0909698009490967,0.8629494309425354,-0.19856242835521698,0.21777836978435516,0.7512028813362122,-0.23041778802871704,-0.5411442518234253,-0.2996077835559845,9.633880615234375,-0.6075296998023987,-1.4705007076263428,0.45012402534484863,0.17645229399204254,0.1845715343952179,0.4829906225204468,-0.5494362711906433,-0.5235984325408936,-0.4366743266582489
273707,9.322800636291504,-0.16542461514472961,3.08497953414917,0.7539033889770508,-0.1911219358444214,0.15980401635169983,0.7512067556381226,-0.23036853969097137,-0.5411644577980042,-0.2995997965335846,9.657837867736816,-0.5716710686683655,-1.4654690027236938,0.4516094923019409,0.26640409231185913,0.07415516674518585,0.483018159866333,-0.5493648052215576,-0.5236366391181946,-0.43668797612190247
273874,9.318744659423828,-0.13897499442100525,3.075162887573242,0.44126197695732117,-0.3063022792339325,0.06962171941995621,0.7511829137802124,-0.23035874962806702,-0.5411829948425293,-0.2996336817741394,9.645432472229004,-0.5464340448379517,-1.4915683269500732,0.12134655565023422,0.260244220495224,0.14779166877269745,0.483004093170166,-0.5493453145027161,-0.5236237645149231,-0.43674343824386597
274041,9.315662384033203,-0.14645284414291382,3.0647666454315186,0.26293355226516724,-0.445532888174057,-0.021028023213148117,0.7511338591575623,-0.2303752899169922,-0.5412082672119141,-0.29969778656959534,9.627686500549316,-0.5373716354370117,-1.4737943410873413,-0.4577757716178894,0.1600729525089264,0.17500516772270203,0.48295292258262634,-0.5493554472923279,-0.5235998630523682,-0.43681600689888
274207,9.331586837768555,-0.15450645983219147,3.0628464221954346,0.039526794105768204,-0.4627702534198761,0.10811760276556015,0.7510921359062195,-0.23040740191936493,-0.5412298440933228,-0.29973891377449036,9.631182670593262,-0.5550341606140137,-1.4840607643127441,-0.88041090965271,-0.21638888120651245,0.37862613797187805,0.48284366726875305,-0.5494437217712402,-0.5235495567321777,-0.43688610196113586
274374,9.32431697845459,-0.17911434173583984,3.050050735473633,0.17700296640396118,-0.5179784297943115,0.18478921055793762,0.7510548830032349,-0.23043136298656464,-0.5412613153457642,-0.29975688457489014,9.632150650024414,-0.5821123719215393,-1.5089139938354492,-1.0975555181503296,-0.27730870246887207,0.6846339106559753,0.4827275574207306,-0.5495787262916565,-0.5234605073928833,-0.43695127964019775
274541,9.330900192260742,-0.17102853953838348,3.07765531539917,0.2563638985157013,-0.5162239670753479,0.24857763946056366,0.7510257959365845,-0.23044592142105103,-0.5412963032722473,-0.299755334854126,9.643892288208008,-0.5977135300636292,-1.5028542280197144,-0.991057813167572,-0.3665945529937744,0.7259855270385742,0.4826444387435913,-0.5496795177459717,-0.5234194397926331,-0.4369657337665558
274707,9.333518028259277,-0.17104999721050262,3.0649561882019043,0.36452633142471313,-0.4166801869869232,0.25793907046318054,0.7509893178939819,-0.23048073053359985,-0.541309118270874,-0.29979702830314636,9.666569709777832,-0.6367038488388062,-1.491912603378296,-0.7300388216972351,-0.2567545175552368,0.576433002948761,0.4825432598590851,-0.549788773059845,-0.5233508944511414,-0.43702220916748047
274874,9.325042724609375,-0.1704348921775818,3.0911877155303955,0.5439944863319397,-0.4552016854286194,0.24541446566581726,0.7509702444076538,-0.23046910762786865,-0.5413461923599243,-0.2997869551181793,9.655667304992676,-0.6527328491210938,-1.4856748580932617,-0.24848157167434692,-0.08915780484676361,0.38300588726997375,0.4824860990047455,-0.5498320460319519,-0.5233238339424133,-0.43706297874450684
275041,9.319063186645508,-0.18536913394927979,3.082186460494995,0.6616336107254028,-0.4182169735431671,0.1947653740644455,0.7509444952011108,-0.23045974969863892,-0.5413765907287598,-0.29980361461639404,9.65822696685791,-0.6455661654472351,-1.51908278465271,0.37149304151535034,-0.03523026779294014,0.2459651678800583,0.4824868440628052,-0.549802303314209,-0.5233602523803711,-0.43705621361732483
275207,9.313789367675781,-0.17278115451335907,3.08479642868042,0.8196767568588257,-0.44463643431663513,0.157639741897583,0.7509149312973022,-0.23044168949127197,-0.5414131283760071,-0.29982542991638184,9.651446342468262,-0.6161481738090515,-1.503113865852356,0.8141444325447083,0.19978545606136322,0.1294785887002945,0.48257777094841003,-0.549663782119751,-0.5234753489494324,-0.43699198961257935
275374,9.31713581085205,-0.1659431755542755,3.101229667663574,0.6265571117401123,-0.402887761592865,0.10626069456338882,0.750880241394043,-0.23043836653232574,-0.5414382219314575,-0.29986968636512756,9.657379150390625,-0.5740256905555725,-1.4895002841949463,1.0090186595916748,0.37972745299339294,0.10833531618118286,0.4826655983924866,-0.5495355725288391,-0.5235522985458374,-0.4369640350341797
275541,9.325733184814453,-0.13874651491641998,3.08125638961792,0.5654579401016235,-0.4966174066066742,0.05524018779397011,0.7508583068847656,-0.23039734363555908,-0.5414913296699524,-0.29986003041267395,9.640055656433105,-0.542677640914917,-1.4806795120239258,0.9095262289047241,0.38944751024246216,0.1680513173341751,0.4827364385128021,-0.549434244632721,-0.5236003398895264,-0.43695563077926636
275707,9.32116985321045,-0.14140719175338745,3.0511984825134277,0.49694398045539856,-0.5157372951507568,0.1798843890428543,0.7508277297019958,-0.2303929626941681,-0.5415310859680176,-0.29986822605133057,9.647974014282227,-0.5210930109024048,-1.4998760223388672,0.5267186760902405,0.3518736660480499,0.36829134821891785,0.48280420899391174,-0.5493545532226562,-0.5236349105834961,-0.43693944811820984
275874,9.331222534179688,-0.14375637471675873,3.047025203704834,0.586396336555481,-0.5268787741661072,0.16565652191638947,0.7508052587509155,-0.23036572337150574,-0.5415817499160767,-0.2998540699481964,9.638593673706055,-0.5222943425178528,-1.5020785331726074,0.019151896238327026,0.16149447858333588,0.6026860475540161,0.48284217715263367,-0.5493267178535461,-0.5236467719078064,-0.4369184374809265
276041,9.33918285369873,-0.14591284096240997,3.046334981918335,0.47359800338745117,-0.42884621024131775,0.20371699333190918,0.7507817149162292,-0.2303609997034073,-0.5416103601455688,-0.2998649477958679,9.643507957458496,-0.5447100400924683,-1.517824649810791,-0.3356032073497772,0.017756003886461258,0.6827641129493713,0.4828256666660309,-0.5493621230125427,-0.5236152410507202,-0.43693000078201294
276207,9.339879989624023,-0.14619892835617065,3.0352773666381836,0.5642797946929932,-0.3176998794078827,0.2866765260696411,0.7507748007774353,-0.23034603893756866,-0.5416289567947388,-0.2998603582382202,9.649580001831055,-0.5720351338386536,-1.5087929964065552,-0.39834150671958923,-0.08202466368675232,0.7862778306007385,0.48276981711387634,-0.549455463886261,-0.5235365033149719,-0.43696868419647217
276374,9.337627410888672,-0.13867083191871643,3.057102680206299,0.5710030794143677,-0.2553842067718506,0.3281690776348114,0.7507707476615906,-0.2303377091884613,-0.5416366457939148,-0.29986298084259033,9.658053398132324,-0.5993801951408386,-1.4897717237472534,-0.42271196842193604,-0.11966253072023392,0.770308256149292,0.48270556330680847,-0.5495535731315613,-0.5234586596488953,-0.4370095729827881
276541,9.340280532836914,-0.1419215351343155,3.0514557361602783,0.5091228485107422,-0.15787667036056519,0.3555362820625305,0.7507765293121338,-0.2303280532360077,-0.5416325926780701,-0.29986312985420227,9.66004753112793,-0.5948842167854309,-1.4918792247772217,-0.22627539932727814,0.18627476692199707,0.6337670087814331,0.48269200325012207,-0.549582839012146,-0.5234094262123108,-0.4370467960834503
276707,9.32516098022461,-0.1404305100440979,3.07421875,0.46519702672958374,-0.14052407443523407,0.3877570331096649,0.750789225101471,-0.23031404614448547,-0.5416282415390015,-0.29984989762306213,9.655034065246582,-0.6106087565422058,-1.506967306137085,-0.010987848043441772,0.33211344480514526,0.4206821620464325,0.48269879817962646,-0.5495641827583313,-0.5233883261680603,-0.4370877742767334
276874,9.31910228729248,-0.1538091003894806,3.043431043624878,0.44888174533843994,-0.19210804998874664,0.40900278091430664,0.7507967352867126,-0.23030802607536316,-0.5416268110275269,-0.2998383641242981,9.65207576751709,-0.5966508388519287,-1.5155072212219238,0.1792568564414978,0.5240293741226196,0.4830362796783447,0.48274457454681396,-0.5495176315307617,-0.5233686566352844,-0.4371192157268524
277041,9.331476211547852,-0.1663365513086319,3.0701346397399902,0.5051656365394592,-0.10898203402757645,0.4471016526222229,0.7508246302604675,-0.23027639091014862,-0.5416254997253418,-0.29979512095451355,9.652580261230469,-0.5769363045692444,-1.4757583141326904,0.491168349981308,0.6082823276519775,0.571925163269043,0.4828416407108307,-0.5494332909584045,-0.523374617099762,-0.4371110498905182
277207,9.323817253112793,-0.15432296693325043,3.069774866104126,0.7285595536231995,-0.1157693862915039,0.6461890935897827,0.7508485913276672,-0.23027265071868896,-0.5416120290756226,-0.29976218938827515,9.643645286560059,-0.5610198378562927,-1.480242133140564,0.36657536029815674,0.732337474822998,0.5414204001426697,0.48289862275123596,-0.54939204454422,-0.5233184695243835,-0.43716710805892944
277374,9.333747863769531,-0.15923908352851868,3.0661263465881348,0.7515854835510254,-0.09906992316246033,0.6246232986450195,0.7508777379989624,-0.23025652766227722,-0.5416014790534973,-0.2997206747531891,9.622268676757812,-0.553388774394989,-1.458478569984436,0.5011828541755676,0.8243895769119263,0.6767195463180542,0.4829960763454437,-0.5493278503417969,-0.5232728123664856,-0.4371947944164276
277541,9.324443817138672,-0.14199711382389069,3.039811849594116,0.7538776993751526,-0.15459823608398438,0.6211143136024475,0.7509026527404785,-0.23024116456508636,-0.5415975451469421,-0.29967713356018066,9.606209754943848,-0.5703538656234741,-1.4846035242080688,0.39725932478904724,0.4522882401943207,0.9650415778160095,0.48306307196617126,-0.5493298768997192,-0.5232093930244446,-0.43719416856765747
277707,9.352787017822266,-0.1591397374868393,3.053114175796509,1.0226318836212158,0.03507019206881523,0.7404183149337769,0.7509558796882629,-0.23019912838935852,-0.5415799021720886,-0.2996079623699188,9.610908508300781,-0.5870581269264221,-1.457414150238037,0.5004657506942749,0.20397312939167023,0.978680431842804,0.48316076397895813,-0.5492922067642212,-0.5232216119766235,-0.43711891770362854
277874,9.319073677062988,-0.16450724005699158,3.0557918548583984,1.0273703336715698,0.07841969281435013,0.6936624050140381,0.7510077357292175,-0.23015621304512024,-0.5415569543838501,-0.29955247044563293,9.645462036132812,-0.6012316346168518,-1.4676766395568848,0.6219468116760254,0.17512044310569763,1.0893529653549194,0.48325932025909424,-0.5492720007896423,-0.5232181549072266,-0.43703967332839966
278041,9.321043014526367,-0.15681999921798706,3.045466899871826,0.9376874566078186,0.11370118707418442,1.065136194229126,0.7510859966278076,-0.23013174533843994,-0.5415219664573669,-0.29943835735321045,9.634441375732422,-0.5976552963256836,-1.4759416580200195,0.7713072896003723,0.04288206622004509,1.2858023643493652,0.4833984076976776,-0.5492323040962219,-0.5232519507408142,-0.4368951916694641
278207,9.303960800170898,-0.13556087017059326,3.0754053592681885,0.551358163356781,0.3565607964992523,1.110381007194519,0.751163899898529,-0.23015767335891724,-0.5414354205131531,-0.2993795573711395,9.683215141296387,-0.5832913517951965,-1.477495551109314,0.7891209125518799,0.07890632003545761,1.3047044277191162,0.48351261019706726,-0.5492268204689026,-0.5232438445091248,-0.4367854595184326
278374,9.356980323791504,-0.14151833951473236,3.1035964488983154,0.2565560042858124,0.35720109939575195,0.7150104641914368,0.7512322664260864,-0.23015187680721283,-0.5413631200790405,-0.2993432581424713,9.7081880569458,-0.5405003428459167,-1.4883736371994019,0.60105961561203,0.29552575945854187,1.012540578842163,0.48359397053718567,-0.5492165684700012,-0.5232125520706177,-0.43674561381340027
278541,9.380541801452637,-0.13042785227298737,3.100196123123169,0.1812930852174759,0.3979252874851227,0.6867597103118896,0.7512899041175842,-0.2301691323518753,-0.5412756204605103,-0.29934367537498474,9.667375564575195,-0.5694037079811096,-1.495977520942688,-0.0316188782453537,0.5723990201950073,0.5320590138435364,0.4836418032646179,-0.5491635203361511,-0.5231955051422119,-0.43677979707717896
278707,9.319360733032227,-0.1641562581062317,3.1145546436309814,0.4010244309902191,0.31874361634254456,1.2448219060897827,0.7513821125030518,-0.23019179701805115,-0.5411950349807739,-0.29924026131629944,9.651006698608398,-0.625457227230072,-1.4889861345291138,-0.1312650889158249,0.5887526869773865,0.4722917377948761,0.48367422819137573,-0.5491170287132263,-0.5231705904006958,-0.43683239817619324
278874,9.299556732177734,-0.18296684324741364,3.096513509750366,0.48727521300315857,0.403060644865036,1.2022793292999268,0.7514768242835999,-0.23020868003368378,-0.541105329990387,-0.29915183782577515,9.649908065795898,-0.6417452096939087,-1.4708911180496216,0.2645087242126465,0.6601096987724304,0.718173623085022,0.48372307419776917,-0.5491003394126892,-0.5230992436408997,-0.43688446283340454
279041,9.291889190673828,-0.18680423498153687,3.0836098194122314,0.25764453411102295,0.1001136302947998,0.8384508490562439,0.7515103816986084,-0.23026031255722046,-0.5410395860671997,-0.2991466224193573,9.642645835876465,-0.6103169322013855,-1.4560699462890625,0.5695047378540039,0.6978242993354797,0.7316331267356873,0.48380133509635925,-0.5490583777427673,-0.5230463147163391,-0.4369138181209564
279207,9.300950050354004,-0.1520853340625763,3.114654541015625,0.28262972831726074,-0.11784403026103973,0.5828618407249451,0.7515257000923157,-0.23028182983398438,-0.5410141944885254,-0.2991374731063843,9.634101867675781,-0.6044910550117493,-1.4435077905654907,0.47500672936439514,0.7208245992660522,0.445821076631546,0.4838947057723999,-0.5489524602890015,-0.5230594277381897,-0.4369279146194458
279374,9.313822746276855,-0.16517803072929382,3.0992915630340576,0.4088234603404999,-0.26002010703086853,0.5870109796524048,0.7515444159507751,-0.23027707636356354,-0.5410175323486328,-0.29908812046051025,9.618001937866211,-0.5975198745727539,-1.4249862432479858,0.3672540485858917,0.45563071966171265,0.20871147513389587,0.4839455783367157,-0.5488516688346863,-0.5231042504310608,-0.4369445741176605
279541,9.309288024902344,-0.17106887698173523,3.078827381134033,0.5298306941986084,-0.13979409635066986,0.7643917202949524,0.751566469669342,-0.23030084371566772,-0.540992259979248,-0.29905974864959717,9.632135391235352,-0.5830863118171692,-1.4553768634796143,0.2716546654701233,0.27352437376976013,0.26765909790992737,0.4839504361152649,-0.5488069653511047,-0.5231148600578308,-0.43698248267173767
279707,9.324426651000977,-0.18704767525196075,3.0751991271972656,0.5089563131332397,-0.019977904856204987,0.7034719586372375,0.7516051530838013,-0.23029787838459015,-0.5409631729125977,-0.2990175485610962,9.6380615234375,-0.5732051134109497,-1.4529305696487427,0.2733835279941559,0.0845026969909668,0.6179767847061157,0.4839361310005188,-0.5488328337669373,-0.5230768918991089,-0.4370112419128418
279874,9.321288108825684,-0.2018161118030548,3.103318214416504,0.43857264518737793,-0.047024916857481,0.6357392072677612,0.7516235113143921,-0.23032203316688538,-0.5409258008003235,-0.29902052879333496,9.686925888061523,-0.5700075626373291,-1.4631016254425049,0.10524898022413254,-0.13184136152267456,0.9006897807121277,0.48395025730133057,-0.5488566160202026,-0.5230733752250671,-0.4369700849056244
280041,9.322356224060059,-0.20172756910324097,3.07167387008667,0.5677375793457031,-0.2109462022781372,0.7160991430282593,0.7516345977783203,-0.23035043478012085,-0.5409068465232849,-0.2990052402019501,9.66795539855957,-0.5842239260673523,-1.4585933685302734,0.01676991395652294,-0.05788470059633255,0.955295979976654,0.48395079374313354,-0.5489037036895752,-0.5230358242988586,-0.43695542216300964
280207,9.334029197692871,-0.18552884459495544,3.098510980606079,0.5674685835838318,-0.31439584493637085,0.7856630682945251,0.7516461610794067,-0.2303784042596817,-0.5409013032913208,-0.29896456003189087,9.659676551818848,-0.5993188619613647,-1.462365984916687,-0.1257583498954773,-0.1698378026485443,1.010107159614563,0.48392999172210693,-0.5489776730537415,-0.5229865312576294,-0.4369446039199829
280374,9.33115005493164,-0.1804608553647995,3.1102960109710693,0.6229584217071533,-0.44955408573150635,0.7732537984848022,0.7516530752182007,-0.23039668798446655,-0.5409168004989624,-0.29890522360801697,9.64149284362793,-0.6249985694885254,-1.4752200841903687,0.01831948384642601,-0.405961275100708,1.0846915245056152,0.48391473293304443,-0.5490530133247375,-0.5229665637016296,-0.43689051270484924
280541,9.325922012329102,-0.1812012791633606,3.074608087539673,0.6119194030761719,-0.45148783922195435,0.7645198106765747,0.751674473285675,-0.23038718104362488,-0.5409442782402039,-0.2988087832927704,9.65868091583252,-0.6300603151321411,-1.4723210334777832,0.1614304482936859,-0.5272887349128723,1.1256334781646729,0.48390844464302063,-0.5491235256195068,-0.5229672193527222,-0.43680810928344727
280708,9.324926376342773,-0.18663212656974792,3.0854601860046387,0.49672630429267883,-0.407690167427063,0.5754213333129883,0.751663088798523,-0.230418398976326,-0.5409483909606934,-0.2988060712814331,9.674242973327637,-0.6247726678848267,-1.4567617177963257,0.30781984329223633,-0.5743520259857178,1.0573242902755737,0.483917236328125,-0.5491675138473511,-0.5230010151863098,-0.43670251965522766
280874,9.313076972961426,-0.18992522358894348,3.0689616203308105,0.32752877473831177,-0.6067264080047607,0.4711904227733612,0.7516225576400757,-0.23047401010990143,-0.5409678816795349,-0.29882943630218506,9.636130332946777,-0.614020586013794,-1.4516769647598267,0.3083961009979248,-0.3595382571220398,0.9687042832374573,0.4839160144329071,-0.5492162108421326,-0.5229995250701904,-0.4366444945335388
281041,9.306299209594727,-0.19059357047080994,3.0593817234039307,0.36108139157295227,-0.7917268872261047,0.5842959880828857,0.7515864372253418,-0.2305188775062561,-0.5410156846046448,-0.2987992763519287,9.62052059173584,-0.6131677031517029,-1.4742858409881592,0.36615273356437683,-0.5966734886169434,1.0894808769226074,0.48390084505081177,-0.5492945313453674,-0.5229985117912292,-0.43656399846076965
281208,9.313469886779785,-0.18874864280223846,3.0588409900665283,0.2794281244277954,-0.6058299541473389,0.5028477311134338,0.751552402973175,-0.23057028651237488,-0.5410370826721191,-0.2988063097000122,9.629162788391113,-0.5910804867744446,-1.473398208618164,0.41666093468666077,-0.6822198033332825,1.0986502170562744,0.4838997721672058,-0.5493557453155518,-0.5230271816253662,-0.4364539086818695
281374,9.318466186523438,-0.1641729474067688,3.054295539855957,0.3370439112186432,-0.5603033900260925,0.21973773837089539,0.7515093088150024,-0.23059561848640442,-0.5410633683204651,-0.29884758591651917,9.64373779296875,-0.5708569288253784,-1.5077260732650757,0.002926250919699669,-0.7610173225402832,0.686593234539032,0.4838263988494873,-0.5494276881217957,-0.523059606552124,-0.4364059567451477
281541,9.328058242797852,-0.18468637764453888,3.0842525959014893,0.35586923360824585,-0.3529301881790161,0.6815218329429626,0.7515151500701904,-0.23062309622764587,-0.5410625338554382,-0.2988131642341614,9.69018268585205,-0.6106992363929749,-1.4902093410491943,-0.2391713708639145,-0.5109861493110657,0.8054553270339966,0.48374003171920776,-0.5495331883430481,-0.5230242013931274,-0.43641090393066406
281708,9.348301887512207,-0.1951134204864502,3.0746841430664062,0.3216378688812256,-0.46977540850639343,0.7392786145210266,0.7515057921409607,-0.23067839443683624,-0.5410645008087158,-0.29879042506217957,9.682567596435547,-0.6419221758842468,-1.4912453889846802,-0.2883733808994293,-0.12429843842983246,1.071590542793274,0.48373204469680786,-0.5495941638946533,-0.5229847431182861,-0.4363905191421509
281874,9.324864387512207,-0.20398296415805817,3.1109354496002197,0.26170414686203003,-0.6027308106422424,0.47043484449386597,0.7514784336090088,-0.23071326315402985,-0.5410925149917603,-0.29878175258636475,9.680214881896973,-0.6179016828536987,-1.5017528533935547,-0.16639290750026703,0.14963580667972565,1.196324348449707,0.4837588965892792,-0.5496428608894348,-0.5229191780090332,-0.43637800216674805
282041,9.33021354675293,-0.1867137849330902,3.0963125228881836,0.0009028476197272539,-0.6614992022514343,0.36516666412353516,0.7514361143112183,-0.23076488077640533,-0.5411213040351868,-0.2987960875034332,9.66335391998291,-0.6197405457496643,-1.4813416004180908,-0.1393330842256546,0.37976589798927307,1.1252362728118896,0.4838092029094696,-0.5496585965156555,-0.5228567123413086,-0.43637707829475403
282208,9.328615188598633,-0.17502674460411072,3.087643623352051,0.03153563290834427,-0.6284331679344177,0.2435319423675537,0.7513852119445801,-0.23081588745117188,-0.5411454439163208,-0.2988409698009491,9.640228271484375,-0.6344156265258789,-1.4846123456954956,-0.022129373624920845,0.35649675130844116,0.7241030335426331,0.4838217794895172,-0.5496612787246704,-0.5228093862533569,-0.4364165663719177
283708,9.316778182983398,-0.19501058757305145,3.082608461380005,0.22488589584827423,-0.4492979645729065,0.5111974477767944,0.7510789036750793,-0.23091480135917664,-0.5413886308670044,-0.29909372329711914,9.63401985168457,-0.6350557208061218,-1.479841709136963,0.038527898490428925,0.24818064272403717,0.4881075620651245,0.48382753133773804,-0.5496342182159424,-0.5228079557418823,-0.4364458918571472
283874,9.343761444091797,-0.18069328367710114,3.0592103004455566,0.4975588023662567,-0.4436247944831848,0.6481613516807556,0.7510911226272583,-0.23090876638889313,-0.5414109230041504,-0.2990277111530304,9.654776573181152,-0.6243345141410828,-1.4802426099777222,0.1775280088186264,0.29961097240448,0.2228112667798996,0.48385101556777954,-0.5495502948760986,-0.5228584408760071,-0.4364650547504425
284041,9.333780288696289,-0.19389314949512482,3.0600175857543945,0.514488697052002,-0.38581690192222595,0.6828665733337402,0.7511029243469238,-0.23091411590576172,-0.5414206385612488,-0.29897621273994446,9.658284187316895,-0.5954957604408264,-1.4727178812026978,0.2657637596130371,0.4434134364128113,0.305732399225235,0.4838811755180359,-0.5494768619537354,-0.5228768587112427,-0.43650200963020325
284208,9.319639205932617,-0.19525311887264252,3.071666955947876,0.6809583902359009,-0.5463829040527344,0.7618561387062073,0.7511057257652283,-0.23092471063137054,-0.5414479374885559,-0.29891180992126465,9.632171630859375,-0.5641002058982849,-1.473061203956604,0.13155321776866913,0.37903591990470886,0.2623828649520874,0.4839208722114563,-0.5493796467781067,-0.5229312777519226,-0.43651509284973145
284374,9.327802658081055,-0.20929059386253357,3.0525898933410645,0.8095470070838928,-0.5561413764953613,0.7516879439353943,0.7511098384857178,-0.23092423379421234,-0.5414804816246033,-0.29884272813796997,9.647215843200684,-0.5437942743301392,-1.4612022638320923,-0.3468727767467499,0.25653037428855896,0.20991528034210205,0.48391836881637573,-0.5493086576461792,-0.522980272769928,-0.4365485608577728
284541,9.30925464630127,-0.1882302165031433,3.062716245651245,0.7463861107826233,-0.39763715863227844,0.7845233678817749,0.7511296272277832,-0.23091939091682434,-0.5414950251579285,-0.29877063632011414,9.645414352416992,-0.5499389171600342,-1.4752691984176636,-0.8126397728919983,0.1618274450302124,0.22442488372325897,0.4838046133518219,-0.5493583083152771,-0.5229177474975586,-0.43668708205223083
284708,9.337454795837402,-0.18179009854793549,3.0350215435028076,0.6658469438552856,-0.4313434958457947,0.8839263319969177,0.751142144203186,-0.23094409704208374,-0.5415010452270508,-0.29870879650115967,9.640694618225098,-0.5775408744812012,-1.493837833404541,-0.9067280292510986,0.15053224563598633,0.5507563948631287,0.4837593734264374,-0.5493713021278381,-0.5228987336158752,-0.4367435872554779
284874,9.351462364196777,-0.17825639247894287,3.0438973903656006,0.6616848707199097,-0.3793368935585022,0.8554706573486328,0.7511647939682007,-0.23095113039016724,-0.5415083765983582,-0.2986331880092621,9.64647388458252,-0.6033152937889099,-1.4712737798690796,-0.9017719626426697,0.05118057504296303,0.7496901154518127,0.48368433117866516,-0.5494475364685059,-0.522825300693512,-0.4368189573287964
285041,9.323795318603516,-0.18111734092235565,3.0798346996307373,0.636879026889801,-0.3029341995716095,0.7792728543281555,0.7511813640594482,-0.23096589744091034,-0.5415025353431702,-0.2985909581184387,9.659690856933594,-0.6572061777114868,-1.4614657163619995,0.5238885879516602,0.14393697679042816,0.9942786693572998,0.4837278425693512,-0.5495231747627258,-0.5227193236351013,-0.43680205941200256
285208,9.342529296875,-0.17088283598423004,3.045940637588501,0.4909377694129944,-0.41108378767967224,0.8851428627967834,0.7511889934539795,-0.23100966215133667,-0.5414984226226807,-0.29854533076286316,9.643732070922852,-0.6459668874740601,-1.4702109098434448,1.092234492301941,-0.04820310324430466,0.9637611508369446,0.4838162064552307,-0.549483597278595,-0.5227603316307068,-0.4367051124572754
285374,9.332978248596191,-0.18790486454963684,3.070991277694702,0.3584689795970917,-0.3857785165309906,0.8301268219947815,0.7511947751045227,-0.2310568243265152,-0.5414900183677673,-0.29850950837135315,9.649080276489258,-0.5888366103172302,-1.4887328147888184,1.6817489862442017,-0.27084147930145264,1.1246087551116943,0.48420536518096924,-0.5492908358573914,-0.52301025390625,-0.43621698021888733
285541,9.340910911560059,-0.17629392445087433,3.076314926147461,0.300135999917984,-0.38620108366012573,0.7720627784729004,0.7512128353118896,-0.23107385635375977,-0.5414954423904419,-0.2984406352043152,9.664904594421387,-0.5825138092041016,-1.4976905584335327,1.3104928731918335,-0.2507867217063904,1.2674379348754883,0.484315425157547,-0.5492703318595886,-0.5230565071105957,-0.4360649585723877
285708,9.321829795837402,-0.19098228216171265,3.061615228652954,0.3674717843532562,-0.4188828766345978,0.7022809386253357,0.7512109279632568,-0.231111079454422,-0.5414952635765076,-0.29841721057891846,9.678363800048828,-0.5916522145271301,-1.4806318283081055,0.9515310525894165,-0.06998670101165771,1.3485023975372314,0.4844488799571991,-0.5492289662361145,-0.5231058597564697,-0.4359096884727478
285874,9.320011138916016,-0.18210405111312866,3.039919137954712,0.4531078636646271,-0.25962311029434204,0.615671694278717,0.7512315511703491,-0.23110464215278625,-0.5414934754371643,-0.2983734905719757,9.650850296020508,-0.5978485941886902,-1.472536563873291,0.6407337188720703,-0.059062886983156204,1.3827593326568604,0.4845096170902252,-0.5492722988128662,-0.5230652689933777,-0.43583622574806213
286041,9.356678009033203,-0.18789051473140717,3.033982515335083,0.6856199502944946,-0.16365234553813934,0.38048306107521057,0.7512438893318176,-0.23107530176639557,-0.5414878726005554,-0.29837566614151,9.660575866699219,-0.6137663125991821,-1.474532127380371,0.23858870565891266,-0.07083192467689514,1.3974354267120361,0.4845561385154724,-0.5493236184120178,-0.5230230689048767,-0.43577054142951965
286208,9.308489799499512,-0.21251589059829712,3.039078950881958,0.6133792996406555,-0.09010547399520874,0.5942594408988953,0.751275897026062,-0.23105408251285553,-0.541469931602478,-0.29834380745887756,9.634795188903809,-0.6267609000205994,-1.4732433557510376,0.08469479531049728,-0.0800653025507927,1.2081190347671509,0.48459523916244507,-0.5493500828742981,-0.5230105519294739,-0.43570855259895325
286374,9.291730880737305,-0.1902083456516266,3.0380167961120605,0.625430166721344,-0.19705131649971008,0.7355903387069702,0.751298189163208,-0.2310618758201599,-0.5414530038833618,-0.29831233620643616,9.603459358215332,-0.6432189345359802,-1.459553599357605,-0.11265746504068375,-0.33369505405426025,1.0319933891296387,0.4845742881298065,-0.5494099259376526,-0.5229992866516113,-0.4356699287891388
286541,9.342233657836914,-0.17146483063697815,3.0487310886383057,0.5408185720443726,0.1430405229330063,0.4769148826599121,0.7513281106948853,-0.231052964925766,-0.5413997769355774,-0.2983400225639343,9.636825561523438,-0.6576647162437439,-1.4848989248275757,-0.13705353438854218,-0.526443362236023,0.8611821532249451,0.4845340847969055,-0.5494607090950012,-0.5230245590209961,-0.4356203079223633
286708,9.374152183532715,-0.178764209151268,3.0609939098358154,0.1920119971036911,0.2593349516391754,0.18668456375598907,0.7513502836227417,-0.2310408502817154,-0.5413345694541931,-0.29841211438179016,9.639423370361328,-0.678159773349762,-1.4844622611999512,-0.017954502254724503,-0.6098127365112305,0.5759592056274414,0.48446643352508545,-0.5495017170906067,-0.5230696201324463,-0.43558967113494873
286874,9.365997314453125,-0.191924050450325,3.0721018314361572,0.2945268452167511,0.26836344599723816,0.2533928155899048,0.7513918280601501,-0.23099800944328308,-0.5412816405296326,-0.29843664169311523,9.650763511657715,-0.6718370318412781,-1.477399230003357,0.22270241379737854,-0.4138883650302887,0.48615461587905884,0.4844229519367218,-0.5495119094848633,-0.5231173634529114,-0.43556782603263855
287041,9.328508377075195,-0.2202693372964859,3.0788962841033936,0.4607148766517639,0.25572362542152405,0.5614112019538879,0.7514475584030151,-0.23096951842308044,-0.5412232875823975,-0.2984241247177124,9.630365371704102,-0.6504977941513062,-1.504152774810791,0.40653112530708313,-0.37924718856811523,0.6066303849220276,0.4844076335430145,-0.5495124459266663,-0.5231688022613525,-0.43552249670028687
287208,9.305384635925293,-0.23572927713394165,3.07214093208313,0.4029453694820404,0.18828535079956055,0.3762184977531433,0.7514790296554565,-0.23095333576202393,-0.5411680936813354,-0.29845768213272095,9.671356201171875,-0.6354562640190125,-1.515124797821045,0.3115848898887634,-0.2002144604921341,0.6151209473609924,0.4844203591346741,-0.5494827628135681,-0.5232295393943787,-0.4354725778102875
287374,9.31279468536377,-0.19882997870445251,3.090958833694458,0.3599032461643219,0.01776880957186222,-0.008938831277191639,0.7514771223068237,-0.23092283308506012,-0.5411404967308044,-0.29853639006614685,9.707032203674316,-0.6064353585243225,-1.4974616765975952,0.17144499719142914,0.09208405017852783,0.28857186436653137,0.4843958020210266,-0.5494529008865356,-0.523250937461853,-0.43551188707351685
287541,9.314260482788086,-0.18516170978546143,3.07749080657959,0.4002816379070282,-0.03220796585083008,-0.009630374610424042,0.7514789700508118,-0.2308773696422577,-0.5411255955696106,-0.2985934317111969,9.65972900390625,-0.6159731149673462,-1.4894260168075562,-0.35115012526512146,0.21785521507263184,0.09071376919746399,0.48433181643486023,-0.5494298934936523,-0.5232537984848022,-0.4356086552143097
287708,9.302970886230469,-0.18703921139240265,3.0781595706939697,0.4465894103050232,-0.08306197822093964,0.002055418910458684,0.7514795660972595,-0.23082900047302246,-0.5411182641983032,-0.29864266514778137,9.629915237426758,-0.6714505553245544,-1.4869794845581055,-0.3802845776081085,0.25764453411102295,0.4223598539829254,0.48429304361343384,-0.5494269132614136,-0.5232304930686951,-0.43568354845046997
287874,9.313627243041992,-0.18728235363960266,3.080287456512451,0.47175392508506775,-0.05180168151855469,0.16495218873023987,0.7514824867248535,-0.23080500960350037,-0.5410957932472229,-0.29869458079338074,9.632237434387207,-0.6516563892364502,-1.4604192972183228,-0.027981871739029884,0.1996573954820633,0.7198641300201416,0.48432961106300354,-0.5493863821029663,-0.5232523679733276,-0.4356677234172821
288041,9.327760696411133,-0.1925966441631317,3.074075698852539,0.34208959341049194,-0.11117193102836609,0.03103618696331978,0.7514805793762207,-0.2307678610086441,-0.5410874485969543,-0.2987433075904846,9.633522987365723,-0.6386390924453735,-1.461356282234192,-0.04635898396372795,0.20666247606277466,0.6799723505973816,0.48433518409729004,-0.5493763089179993,-0.5232405066490173,-0.43568849563598633
288208,9.330621719360352,-0.18682068586349487,3.064545154571533,0.1707918792963028,-0.10777824372053146,0.01867806166410446,0.7514644265174866,-0.23076418042182922,-0.5410642027854919,-0.29882898926734924,9.644773483276367,-0.6435778141021729,-1.4870156049728394,-0.14670953154563904,0.26642969250679016,0.3467383086681366,0.4843388795852661,-0.5493170619010925,-0.5232740044593811,-0.4357188940048218
288374,9.334173202514648,-0.1767755001783371,3.080444812774658,0.13889126479625702,-0.25384747982025146,0.006819380912929773,0.7514302730560303,-0.23077841103076935,-0.5410520434379578,-0.29892587661743164,9.64128303527832,-0.6542099118232727,-1.4679865837097168,-0.07322670519351959,0.2594374418258667,-0.08558483421802521,0.4842812716960907,-0.5492675304412842,-0.5232953429222107,-0.43581974506378174
288541,9.343603134155273,-0.20596808195114136,3.0764036178588867,0.12322910130023956,-0.3630984127521515,0.05242278799414635,0.7513986825942993,-0.23078420758247375,-0.5410578846931458,-0.2989901602268219,9.619622230529785,-0.6412175297737122,-1.4713375568389893,0.08153162151575089,0.1729433387517929,-0.09198800474405289,0.484244704246521,-0.5491932034492493,-0.5233537554740906,-0.43588390946388245
288708,9.342347145080566,-0.1933227777481079,3.046663522720337,0.0975523591041565,-0.3323887884616852,0.006012580823153257,0.7513650059700012,-0.23079076409339905,-0.5410592555999756,-0.2990671694278717,9.635854721069336,-0.6333105564117432,-1.4939355850219727,0.005756454076617956,0.0101746441796422,0.0771646574139595,0.48422059416770935,-0.5491228699684143,-0.523431658744812,-0.43590569496154785
288874,9.337960243225098,-0.17990826070308685,3.0881049633026123,0.18947634100914001,-0.2989386320114136,0.048708949238061905,0.7513434886932373,-0.2307804375886917,-0.5410637855529785,-0.29912084341049194,9.664068222045898,-0.6024014353752136,-1.4693809747695923,-0.1112871766090393,-0.010514012537896633,0.16085414588451385,0.484199196100235,-0.5490583777427673,-0.523508608341217,-0.435918390750885
289041,9.326841354370117,-0.18964269757270813,3.1062936782836914,0.13675260543823242,-0.27761605381965637,-0.018927784636616707,0.7513247728347778,-0.2307586669921875,-0.5410708785057068,-0.2991717457771301,9.6671142578125,-0.601657509803772,-1.4756468534469604,-0.4148489236831665,-0.08015494793653488,0.08699994534254074,0.484122633934021,-0.5490390062332153,-0.5235494375228882,-0.4359786808490753
289208,9.306474685668945,-0.18838030099868774,3.071239709854126,0.2850501239299774,-0.5979284048080444,0.00369463162496686,0.7512872219085693,-0.23073667287826538,-0.5411181449890137,-0.29919740557670593,9.65266227722168,-0.5921162366867065,-1.4952266216278076,-0.640368640422821,-0.1644207239151001,0.12993963062763214,0.484015554189682,-0.5490545034408569,-0.5235670804977417,-0.4360569417476654
289374,9.30306339263916,-0.1984862983226776,3.0765798091888428,0.28558799624443054,-0.4247097671031952,0.1274423748254776,0.7512558102607727,-0.2307410091161728,-0.5411313772201538,-0.29924947023391724,9.641536712646484,-0.617199718952179,-1.4663021564483643,-0.6616144180297852,-0.32388538122177124,0.3621443510055542,0.4838983118534088,-0.5491122007369995,-0.5235618352890015,-0.4361206889152527
289541,9.329044342041016,-0.17945775389671326,3.0650529861450195,0.23337648808956146,-0.5643758177757263,-0.30128219723701477,0.7511926293373108,-0.23072394728660583,-0.5411714911460876,-0.2993486821651459,9.674988746643066,-0.6334750652313232,-1.4865936040878296,-0.6125788688659668,-0.3355903625488281,0.37719181180000305,0.483786940574646,-0.5491660237312317,-0.5235618948936462,-0.4361765682697296
289708,9.318462371826172,-0.1725233942270279,3.0671162605285645,0.1953928917646408,-0.4511548578739166,-0.25656241178512573,0.7511545419692993,-0.2306804209947586,-0.5412092804908752,-0.29940927028656006,9.660147666931152,-0.6304066777229309,-1.4747205972671509,-0.5535800457000732,-0.09581709653139114,0.20539464056491852,0.48369571566581726,-0.5491772890090942,-0.5235734581947327,-0.4362495243549347
289874,9.359467506408691,-0.177555114030838,3.0451512336730957,0.26010337471961975,-0.4241334795951843,0.1328466683626175,0.7511322498321533,-0.230669766664505,-0.5412291884422302,-0.29943719506263733,9.636788368225098,-0.6309645771980286,-1.4886893033981323,-0.31604787707328796,-0.026496337726712227,0.2589123547077179,0.48364415764808655,-0.5491573810577393,-0.523606538772583,-0.43629205226898193
290041,9.344154357910156,-0.17375002801418304,3.074368953704834,0.23933145403862,-0.40918847918510437,-0.05159677565097809,0.7510989904403687,-0.23065230250358582,-0.5412501692771912,-0.2994963526725769,9.647380828857422,-0.6566953659057617,-1.4681367874145508,0.1409018486738205,0.004270917270332575,0.3029021620750427,0.4836304187774658,-0.5491110682487488,-0.523658037185669,-0.4363037347793579
290208,9.331966400146484,-0.17542727291584015,3.0692012310028076,-0.11970096081495285,-0.4798155128955841,-0.006467206869274378,0.7510545253753662,-0.23067177832126617,-0.5412656664848328,-0.29956480860710144,9.614744186401367,-0.5985172986984253,-1.4773166179656982,0.19308774173259735,0.05556035041809082,0.039680469781160355,0.48360562324523926,-0.549041211605072,-0.5237264633178711,-0.43633708357810974
290374,9.325450897216797,-0.17171189188957214,3.062704086303711,-0.2345995008945465,-0.4072675108909607,-0.13850067555904388,0.7509907484054565,-0.2307196706533432,-0.541259229183197,-0.2996993660926819,9.638626098632812,-0.5983245372772217,-1.4779284000396729,-0.1497446447610855,-0.33215826749801636,-0.23959402740001678,0.4835191071033478,-0.5489827394485474,-0.5238400101661682,-0.43637028336524963
290541,9.315508842468262,-0.16431957483291626,3.060607671737671,-0.01929916813969612,-0.30805671215057373,-0.14784930646419525,0.7509407997131348,-0.230740487575531,-0.5412508845329285,-0.29982343316078186,9.650144577026367,-0.6129404902458191,-1.4915430545806885,-0.23532947897911072,-0.5342040657997131,-0.15712110698223114,0.4834171235561371,-0.5489470362663269,-0.5239588022232056,-0.4363853633403778
290708,9.333464622497559,-0.16509918868541718,3.0826048851013184,0.3123916685581207,-0.3094398081302643,-0.18091529607772827,0.7509055137634277,-0.23071305453777313,-0.5412626266479492,-0.2999117076396942,9.652462005615234,-0.6099579334259033,-1.497801423072815,-0.20902523398399353,-0.47351476550102234,0.11170338094234467,0.4833041727542877,-0.5489685535430908,-0.524006724357605,-0.43642592430114746
290874,9.325189590454102,-0.1768043041229248,3.0714757442474365,0.36393722891807556,-0.49921709299087524,-0.23813407123088837,0.7508628964424133,-0.2306676208972931,-0.5413064956665039,-0.2999742329120636,9.644969940185547,-0.578140377998352,-1.5009878873825073,-0.2629271447658539,-0.5209494829177856,0.2964733839035034,0.4832073152065277,-0.5489957928657532,-0.5240563154220581,-0.4364393651485443
291041,9.318201065063477,-0.16640092432498932,3.0449938774108887,0.30509206652641296,-0.5686147212982178,-0.13447949290275574,0.7508156299591064,-0.23064324259757996,-0.5413503646850586,-0.30003252625465393,9.624375343322754,-0.5738954544067383,-1.4831640720367432,-0.41213393211364746,-0.4877426326274872,0.32895031571388245,0.48310720920562744,-0.5490286350250244,-0.5240974426269531,-0.43645960092544556
291208,9.332807540893555,-0.14751490950584412,3.0643014907836914,0.1532471776008606,-0.5772078037261963,-0.2752980887889862,0.7507554888725281,-0.23062604665756226,-0.5413925051689148,-0.3001200258731842,9.655806541442871,-0.5823174118995667,-1.4632874727249146,-0.5929980278015137,-0.5305286645889282,0.19424670934677124,0.48297807574272156,-0.5490697026252747,-0.5241374969482422,-0.4365028142929077
291374,9.364672660827637,-0.15622659027576447,3.033224105834961,0.02893594652414322,-0.584366500377655,-0.14515997469425201,0.750702440738678,-0.23062153160572052,-0.5414308905601501,-0.30018702149391174,9.653914451599121,-0.5871896147727966,-1.5056447982788086,-0.7737852931022644,-0.3881092667579651,0.0100978072732687,0.48282474279403687,-0.5491108298301697,-0.5241590142250061,-0.4365948438644409
291541,9.35627269744873,-0.17045263946056366,3.0577855110168457,-0.09951813519001007,-0.5389807820320129,-0.011256780475378036,0.7506452798843384,-0.23065729439258575,-0.5414465069770813,-0.30027449131011963,9.657637596130371,-0.5995227694511414,-1.47213876247406,-0.7057835459709167,-0.17826437950134277,-0.09007985889911652,0.4827006757259369,-0.5491088032722473,-0.5241972804069519,-0.4366886019706726
291708,9.334090232849121,-0.18857340514659882,3.055608034133911,-0.05641196668148041,-0.5210006833076477,0.16127675771713257,0.7505922913551331,-0.2307119369506836,-0.5414513945579529,-0.30035600066185,9.63964557647705,-0.5850567817687988,-1.4954161643981934,-0.5712528824806213,-0.09115558862686157,-0.12992043793201447,0.48257118463516235,-0.5491136908531189,-0.5242132544517517,-0.43680626153945923
291874,9.329005241394043,-0.17843486368656158,3.0377378463745117,0.07601208239793777,-0.5763753652572632,0.339182585477829,0.7505529522895813,-0.230757936835289,-0.5414669513702393,-0.3003907799720764,9.652412414550781,-0.5636066794395447,-1.499872088432312,-0.6654947400093079,-0.15356093645095825,-0.06281514465808868,0.4824497699737549,-0.5491141676902771,-0.5242446660995483,-0.43690213561058044
292041,9.328206062316895,-0.19009363651275635,3.06239914894104,0.29547449946403503,-0.6018344163894653,0.3817252814769745,0.75051349401474,-0.23079819977283478,-0.5414872765541077,-0.30042189359664917,9.645546913146973,-0.547660231590271,-1.4894499778747559,-0.9197904467582703,-0.23698149621486664,-0.04445083811879158,0.4823125898838043,-0.5491271018981934,-0.5242772698402405,-0.43699827790260315
292208,9.33520793914795,-0.1873728334903717,3.051220178604126,0.41648173332214355,-0.6974338293075562,0.4194015562534332,0.7504833936691284,-0.23081141710281372,-0.5415315628051758,-0.30040717124938965,9.649316787719727,-0.5603713393211365,-1.5010353326797485,-0.901387631893158,-0.436862975358963,0.2367957979440689,0.4821649491786957,-0.5491900444030762,-0.5242837071418762,-0.43707412481307983
292374,9.335573196411133,-0.17362813651561737,3.0403454303741455,0.550205647945404,-0.681938111782074,0.4277256727218628,0.7504637241363525,-0.23080235719680786,-0.5415830612182617,-0.30037030577659607,9.660299301147461,-0.5699524879455566,-1.4767122268676758,-0.8761335611343384,-0.4323680102825165,0.5890088677406311,0.48205554485321045,-0.5492611527442932,-0.5242816805839539,-0.43710801005363464
292541,9.335686683654785,-0.15208005905151367,3.053339719772339,0.5332755446434021,-0.6310712695121765,0.43624189496040344,0.7504419684410095,-0.23080456256866455,-0.5416231155395508,-0.3003506064414978,9.650019645690918,-0.5898826718330383,-1.4864503145217896,-0.6461571455001831,-0.43110010027885437,0.7972400784492493,0.48196449875831604,-0.5493483543395996,-0.5242591500282288,-0.4371258020401001
292708,9.327313423156738,-0.17426319420337677,3.0629801750183105,0.5926586985588074,-0.7093053460121155,0.42128413915634155,0.7504026293754578,-0.23082593083381653,-0.5416644215583801,-0.3003580570220947,9.645848274230957,-0.6190431714057922,-1.4866220951080322,-0.30727553367614746,-0.4509371519088745,0.8181528449058533,0.48186826705932617,-0.5494531989097595,-0.5242161750793457,-0.43715161085128784
292874,9.337940216064453,-0.15921099483966827,3.041999101638794,0.5091356635093689,-0.7003281116485596,0.41482973098754883,0.7503839135169983,-0.2308126986026764,-0.541720449924469,-0.30031388998031616,9.631863594055176,-0.6260800957679749,-1.4989598989486694,0.10049781948328018,-0.5792055726051331,0.8606442809104919,0.48183873295783997,-0.549491286277771,-0.5242581963539124,-0.4370858669281006
293041,9.34140396118164,-0.16426317393779755,3.0434422492980957,0.4408009350299835,-0.6524322628974915,0.42524123191833496,0.7503564357757568,-0.2308260202407837,-0.5417588949203491,-0.300303190946579,9.636858940124512,-0.6459624767303467,-1.4832448959350586,0.5947973728179932,-0.6068673133850098,0.7677727937698364,0.4818356931209564,-0.549495279788971,-0.5243350267410278,-0.43699216842651367
293208,9.332598686218262,-0.1538691371679306,3.018631935119629,0.4430420398712158,-0.7180135846138,0.4821142554283142,0.7503296732902527,-0.23083972930908203,-0.541805624961853,-0.3002750277519226,9.625763893127441,-0.6103861331939697,-1.5061092376708984,0.9569993615150452,-0.6639580726623535,0.7527379989624023,0.48184552788734436,-0.549490213394165,-0.5244244337081909,-0.4368803799152374
293374,9.343482971191406,-0.15435479581356049,3.0385358333587646,0.41014257073402405,-0.6290735602378845,0.5069073438644409,0.7503085732460022,-0.23085729777812958,-0.5418394804000854,-0.30025312304496765,9.66108512878418,-0.5941048860549927,-1.5049299001693726,1.1295137405395508,-0.5986328721046448,0.7577581405639648,0.4818860590457916,-0.5494548082351685,-0.5245357751846313,-0.4367464482784271
293541,9.336790084838867,-0.15051236748695374,3.0473554134368896,0.24223850667476654,-0.5588178634643555,0.5902253985404968,0.7503005862236023,-0.23087860643863678,-0.541863739490509,-0.30021294951438904,9.640396118164062,-0.5648288130760193,-1.5068858861923218,1.1806879043579102,-0.6054842472076416,0.798187792301178,0.48192304372787476,-0.5494313836097717,-0.5246347188949585,-0.436616450548172
293708,9.338244438171387,-0.1556292325258255,3.058981418609619,0.2484111487865448,-0.5606235265731812,0.5756646394729614,0.7502872347831726,-0.2309073656797409,-0.5418848395347595,-0.3001863360404968,9.640267372131348,-0.5628359913825989,-1.516610860824585,0.9388397932052612,-0.6831034421920776,0.9725334644317627,0.4819524586200714,-0.5494349598884583,-0.5247184038162231,-0.436478853225708
293874,9.330145835876465,-0.15903393924236298,3.0398905277252197,0.2500503957271576,-0.43580007553100586,0.475877583026886,0.7502745389938354,-0.23093126714229584,-0.5418918132781982,-0.3001871407032013,9.625675201416016,-0.5332549214363098,-1.5173496007919312,0.5559556484222412,-0.724557638168335,0.9847122430801392,0.48195144534111023,-0.5494651198387146,-0.5247838497161865,-0.4363631010055542
294041,9.344738006591797,-0.16553880274295807,3.041964292526245,0.23346616327762604,-0.42436397075653076,0.5444555282592773,0.7502604126930237,-0.23097103834152222,-0.5418905019760132,-0.3001943826675415,9.638708114624023,-0.5453757643699646,-1.5001952648162842,-0.09713616222143173,-0.7396690845489502,1.1089850664138794,0.4819100797176361,-0.5495448708534241,-0.5248063802719116,-0.4362812638282776
294208,9.324971199035645,-0.18557654321193695,3.03411865234375,0.22296494245529175,-0.5897195935249329,0.5011060833930969,0.7502443790435791,-0.23099106550216675,-0.5419191122055054,-0.3001672327518463,9.645812034606934,-0.577190637588501,-1.5176469087600708,-0.49396654963493347,-0.6462468504905701,1.168278455734253,0.4818551540374756,-0.549642026424408,-0.5248017907142639,-0.43622496724128723
294374,9.35414981842041,-0.18025515973567963,3.008455753326416,0.3449070155620575,-0.4185115098953247,0.3715314269065857,0.7502303123474121,-0.23099850118160248,-0.541930615901947,-0.30017581582069397,9.653366088867188,-0.6018164157867432,-1.5246436595916748,-0.573647677898407,-0.535740852355957,1.0733321905136108,0.4817900061607361,-0.549737811088562,-0.5247843265533447,-0.43619751930236816
294541,9.367817878723145,-0.1891493946313858,3.0049402713775635,0.5984726548194885,-0.2524515688419342,0.38114893436431885,0.7502439618110657,-0.23096099495887756,-0.5419398546218872,-0.30015408992767334,9.667410850524902,-0.6414180397987366,-1.5219515562057495,-0.5431044697761536,-0.28645244240760803,0.9432709217071533,0.4817245900630951,-0.5498224496841431,-0.5247434973716736,-0.4362122416496277
294708,9.34650707244873,-0.20223094522953033,3.007840633392334,0.5156668424606323,-0.38356295228004456,0.4829978346824646,0.7502493262290955,-0.23094506561756134,-0.5419570803642273,-0.3001214861869812,9.63985824584961,-0.6391450762748718,-1.5436596870422363,-0.4154379665851593,-0.17172034084796906,0.7711406946182251,0.48168548941612244,-0.5498553514480591,-0.5247407555580139,-0.436217337846756
294874,9.315762519836426,-0.1752890944480896,3.008023262023926,0.56462562084198,-0.12757684290409088,0.682584822177887,0.7502887845039368,-0.23092180490493774,-0.5419449210166931,-0.3000626266002655,9.61208724975586,-0.6456699371337891,-1.5350404977798462,-0.09851924329996109,-0.15897801518440247,0.6888214945793152,0.4816657304763794,-0.5498611330986023,-0.5247616171836853,-0.4362068176269531
295041,9.353798866271973,-0.1644161343574524,3.0375733375549316,0.3728761076927185,0.07110726833343506,0.40300944447517395,0.7503114938735962,-0.2309146672487259,-0.5419007539749146,-0.3000909984111786,9.626867294311523,-0.6208617687225342,-1.524379849433899,0.016885172575712204,-0.22609609365463257,0.6030829548835754,0.48163336515426636,-0.5498709082603455,-0.5247859358787537,-0.4362007975578308
295208,9.398040771484375,-0.15611964464187622,3.0441503524780273,0.24510712921619415,0.20992808043956757,0.13657331466674805,0.7503395080566406,-0.23087547719478607,-0.5418532490730286,-0.3001369833946228,9.653027534484863,-0.6385818719863892,-1.5336421728134155,0.2964477837085724,-0.15144787728786469,0.5128110647201538,0.48164644837379456,-0.5498214364051819,-0.5248600244522095,-0.43615949153900146
295374,9.378972053527832,-0.1610187292098999,3.0412423610687256,0.4123836159706116,0.3069489598274231,0.5495012402534485,0.7503814101219177,-0.23087872564792633,-0.541774332523346,-0.300172358751297,9.613574981689453,-0.6291863918304443,-1.5273443460464478,0.6719300150871277,-0.11183785647153854,0.6217930912971497,0.4816807508468628,-0.5497739911079407,-0.5249224901199341,-0.43610626459121704
295541,9.34177303314209,-0.1893063187599182,3.0433878898620605,0.41046273708343506,0.18665896356105804,0.718890905380249,0.7504397630691528,-0.23086576163768768,-0.5417183041572571,-0.3001372814178467,9.646994590759277,-0.6136505603790283,-1.5336862802505493,0.7934877872467041,-0.11153049021959305,0.937341570854187,0.48175984621047974,-0.5497244596481323,-0.5249860286712646,-0.43600478768348694
295708,9.31221866607666,-0.18039819598197937,3.0527255535125732,0.40941259264945984,0.1109221950173378,0.3997950255870819,0.7504910826683044,-0.23080725967884064,-0.5416916608810425,-0.30010223388671875,9.668525695800781,-0.5853674411773682,-1.552704095840454,0.7581038475036621,-0.07668441534042358,0.8432533144950867,0.4818308353424072,-0.5496702790260315,-0.5250503420829773,-0.43591731786727905
295874,9.322589874267578,-0.18020163476467133,3.043355703353882,0.18791398406028748,0.07588402181863785,0.3288094103336334,0.7505063414573669,-0.23081111907958984,-0.541642963886261,-0.3001488447189331,9.675844192504883,-0.5560609698295593,-1.542854905128479,0.17412152886390686,0.10618385672569275,0.33454668521881104,0.48183122277259827,-0.5496132969856262,-0.5250981450080872,-0.43593108654022217
296041,9.317131996154785,-0.15916268527507782,3.0527470111846924,0.1918070912361145,0.08050711452960968,0.23808924853801727,0.750524640083313,-0.23079527914524078,-0.5416023135185242,-0.30018872022628784,9.662385940551758,-0.5894626975059509,-1.539689540863037,-0.2511581778526306,0.26622486114501953,0.31771913170814514,0.48178529739379883,-0.5496031641960144,-0.5250788331031799,-0.43601784110069275
296208,9.333550453186035,-0.17380724847316742,3.038170576095581,0.5215961933135986,0.04333028197288513,0.47765758633613586,0.750559389591217,-0.23076747357845306,-0.5415704250335693,-0.3001807630062103,9.644096374511719,-0.6314050555229187,-1.5214977264404297,-0.26400288939476013,0.4230642020702362,0.6907553672790527,0.4817824363708496,-0.5496023893356323,-0.525028645992279,-0.4360824525356293
296374,9.348111152648926,-0.1772300750017166,3.0476136207580566,0.5464405417442322,0.2324032187461853,0.6096911430358887,0.7506217956542969,-0.23072795569896698,-0.5415194630622864,-0.300147145986557,9.623632431030273,-0.6115146279335022,-1.5160902738571167,-0.011346423998475075,0.5670714974403381,1.04780912399292,0.4818287789821625,-0.5496076941490173,-0.5249497890472412,-0.4361194968223572
296541,9.353094100952148,-0.1829337328672409,3.02461314201355,0.42673957347869873,0.21125994622707367,0.43277135491371155,0.7506639957427979,-0.23070110380649567,-0.5414661169052124,-0.3001585006713867,9.611248970031738,-0.5964430570602417,-1.5223437547683716,-0.07727351039648056,0.648481547832489,0.9406071305274963,0.4818927049636841,-0.5495755672454834,-0.524900496006012,-0.4361487627029419
296708,9.34957218170166,-0.18427856266498566,3.0514698028564453,0.5551872253417969,0.15418203175067902,0.523068904876709,0.7507128715515137,-0.23066435754299164,-0.5414241552352905,-0.30014026165008545,9.627803802490234,-0.613071084022522,-1.5218929052352905,-0.2532327473163605,0.643691897392273,0.546555757522583,0.4819115996360779,-0.5495332479476929,-0.5248637795448303,-0.4362255036830902
296874,9.346059799194336,-0.178488627076149,3.067366123199463,0.5052552819252014,0.08582174777984619,0.5471320152282715,0.7507490515708923,-0.2306504100561142,-0.5413811802864075,-0.30013802647590637,9.627314567565918,-0.6287437081336975,-1.5095313787460327,-0.15557152032852173,0.5675838589668274,0.26977214217185974,0.48191961646080017,-0.5494616031646729,-0.5248674154281616,-0.43630239367485046
297041,9.345813751220703,-0.18791183829307556,3.042572498321533,0.38880714774131775,-0.020759090781211853,0.5351837277412415,0.7507642507553101,-0.23066796362400055,-0.5413385629653931,-0.300163209438324,9.636818885803223,-0.6301348209381104,-1.4953336715698242,0.07633225619792938,0.4415949881076813,0.39699044823646545,0.4819560647010803,-0.5493776798248291,-0.5248990654945374,-0.43632978200912476
297208,9.338260650634766,-0.18665656447410583,3.051337957382202,0.4311065375804901,0.022353483363986015,0.5558403730392456,0.7507938146591187,-0.23066511750221252,-0.5412992238998413,-0.3001626133918762,9.637797355651855,-0.5924988389015198,-1.5065524578094482,0.2712448835372925,0.31445351243019104,0.5711055397987366,0.481991708278656,-0.5493240356445312,-0.5249139070510864,-0.43634021282196045
297375,9.338311195373535,-0.1739681363105774,3.0653929710388184,0.4224494397640228,0.03982134535908699,0.5687747597694397,0.7508299350738525,-0.23065350949764252,-0.5412615537643433,-0.30014893412590027,9.654779434204102,-0.5964112281799316,-1.5210860967636108,0.39433950185775757,0.40167754888534546,0.5366820693016052,0.4820283055305481,-0.5492690801620483,-0.5249167680740356,-0.43636539578437805
297541,9.326287269592285,-0.16939420998096466,3.0704171657562256,0.3533720076084137,-0.03693351149559021,0.45218583941459656,0.7508587837219238,-0.23063291609287262,-0.5412378311157227,-0.30013546347618103,9.661494255065918,-0.6018396615982056,-1.506404995918274,0.3867453932762146,0.3098176419734955,0.7418014407157898,0.48209720849990845,-0.5492030382156372,-0.5249443054199219,-0.4363391399383545
297708,9.324678421020508,-0.17076747119426727,3.04945707321167,0.4398532807826996,-0.16234609484672546,0.3862202763557434,0.7508691549301147,-0.23061898350715637,-0.5412268042564392,-0.30014023184776306,9.655292510986328,-0.6129530668258667,-1.5090430974960327,0.33516138792037964,0.32066458463668823,0.7430307865142822,0.4821355938911438,-0.5491737723350525,-0.524931788444519,-0.436348557472229
297875,9.318172454833984,-0.18451084196567535,3.0401158332824707,0.39921870827674866,-0.07106242328882217,0.5246953368186951,0.7508941888809204,-0.23061122000217438,-0.5412017107009888,-0.3001287579536438,9.631309509277344,-0.6167594790458679,-1.506422996520996,0.35974955558776855,0.2448509931564331,0.8088809847831726,0.4821978807449341,-0.5491241216659546,-0.5249512195587158,-0.43631893396377563
298041,9.336676597595215,-0.17759104073047638,3.0261077880859375,0.24578584730625153,-0.06204675883054733,0.04988713189959526,0.7508931756019592,-0.23058395087718964,-0.5411841869354248,-0.3001839220523834,9.658949851989746,-0.603713870048523,-1.5008684396743774,0.385080486536026,0.3054122030735016,0.7879682779312134,0.4822586178779602,-0.5490753650665283,-0.5249611735343933,-0.4363012909889221
298208,9.351567268371582,-0.14897048473358154,3.0365684032440186,0.39150935411453247,0.19461171329021454,0.22580797970294952,0.7509194016456604,-0.23055356740951538,-0.5411348342895508,-0.30023035407066345,9.660553932189941,-0.59757399559021,-1.4910558462142944,0.35110530257225037,0.519495964050293,0.6691125631332397,0.48232993483543396,-0.5490015745162964,-0.524968147277832,-0.43630701303482056
298375,9.358119010925293,-0.18445362150669098,3.050973415374756,0.31373634934425354,0.06868685036897659,0.32537731528282166,0.7509445548057556,-0.23053166270256042,-0.5410985350608826,-0.30024975538253784,9.630982398986816,-0.6299518346786499,-1.532823920249939,0.18125467002391815,0.5640107989311218,0.6342792510986328,0.482369065284729,-0.5489584803581238,-0.5249378085136414,-0.4363541007041931
298541,9.341121673583984,-0.1891920119524002,3.0591015815734863,0.19185832142829895,-0.05442698299884796,0.18645405769348145,0.7509446144104004,-0.23052731156349182,-0.5410708785057068,-0.30030304193496704,9.627894401550293,-0.6303066611289978,-1.4925775527954102,0.409771203994751,0.6354703307151794,0.6536296606063843,0.4824382960796356,-0.548890233039856,-0.5249223113059998,-0.4363820552825928
298708,9.335535049438477,-0.18015144765377045,3.06229567527771,0.058787547051906586,0.01004658080637455,0.205471470952034,0.7509500980377197,-0.2305288165807724,-0.5410328507423401,-0.30035629868507385,9.612194061279297,-0.5751041769981384,-1.5145773887634277,0.2633817791938782,0.36963605880737305,0.30753806233406067,0.4824472963809967,-0.5488315224647522,-0.5249341726303101,-0.4364319145679474
298875,9.321863174438477,-0.17702941596508026,3.0518136024475098,0.05060429126024246,0.058723513036966324,0.17741276323795319,0.7509540319442749,-0.2305339276790619,-0.5409870743751526,-0.3004249036312103,9.642520904541016,-0.5806223154067993,-1.5197020769119263,-0.07714545726776123,0.1884518563747406,0.07382221519947052,0.4824015498161316,-0.5487879514694214,-0.5249587297439575,-0.43650785088539124
299041,9.32079029083252,-0.1994665414094925,3.067945957183838,0.21288633346557617,-0.034743621945381165,0.07115847617387772,0.7509541511535645,-0.2305118888616562,-0.5409643650054932,-0.30048227310180664,9.656464576721191,-0.600169837474823,-1.502779483795166,-0.2827129662036896,0.22293932735919952,0.1216282993555069,0.4823457598686218,-0.5487581491470337,-0.5249663591384888,-0.4365975558757782
299208,9.326448440551758,-0.19037236273288727,3.050386667251587,0.4117561876773834,-0.06417263299226761,0.10487760603427887,0.7509552836418152,-0.2304815649986267,-0.5409483909606934,-0.300531804561615,9.652594566345215,-0.5996620059013367,-1.4958773851394653,-0.39111870527267456,0.21347545087337494,0.3646543622016907,0.4823191463947296,-0.5487273335456848,-0.5249776840209961,-0.4366520643234253
299375,9.332291603088379,-0.1686682403087616,3.0619165897369385,0.5162815451622009,-0.2122524231672287,0.037887584418058395,0.75094074010849,-0.2304496169090271,-0.5409517288208008,-0.3005867898464203,9.644941329956055,-0.5953670144081116,-1.514763355255127,-0.383434921503067,0.17755363881587982,0.5446604490280151,0.4822831451892853,-0.5487351417541504,-0.5249530673027039,-0.4367116391658783
299541,9.328582763671875,-0.1625886857509613,3.0421829223632812,0.5338903069496155,-0.22207491099834442,0.06496021151542664,0.7509410977363586,-0.23039229214191437,-0.5409672260284424,-0.3006015121936798,9.655105590820312,-0.6097970008850098,-1.5046924352645874,-0.458685040473938,0.1935487687587738,0.5570058226585388,0.4822448790073395,-0.5487452745437622,-0.5249250531196594,-0.43677499890327454
299708,9.339741706848145,-0.15464980900287628,3.054806709289551,0.3442666828632355,-0.3427235186100006,-0.040954701602458954,0.7509205937385559,-0.23035357892513275,-0.540990948677063,-0.300639808177948,9.644841194152832,-0.6153329610824585,-1.4631372690200806,-0.3018200695514679,0.2833980917930603,0.5647280216217041,0.48222672939300537,-0.5487393140792847,-0.5248996615409851,-0.4368327856063843
299875,9.330689430236816,-0.15491056442260742,3.073896884918213,0.20796871185302734,-0.3601657748222351,-0.10329601168632507,0.7508813738822937,-0.2303439974784851,-0.5410046577453613,-0.30072033405303955,9.615501403808594,-0.6238159537315369,-1.4959169626235962,-0.1267828643321991,0.30691057443618774,0.3698793947696686,0.4822142422199249,-0.5487027764320374,-0.524901270866394,-0.4368906617164612
300041,9.340835571289062,-0.1651490330696106,3.0621848106384277,0.10900125652551651,-0.3649682104587555,0.032688207924366,0.7508471608161926,-0.23035065829753876,-0.5410122871398926,-0.30078667402267456,9.639299392700195,-0.6073256134986877,-1.465733528137207,-0.05852501839399338,0.16857637465000153,0.043253444135189056,0.48217034339904785,-0.548651933670044,-0.5249357223510742,-0.43696141242980957
300208,9.33309555053711,-0.18256567418575287,3.0635147094726562,0.08260736614465714,-0.3647248148918152,0.20958229899406433,0.7508221864700317,-0.2303699254989624,-0.5410147309303284,-0.3008303940296173,9.630894660949707,-0.5857757329940796,-1.4682695865631104,-0.024690641090273857,-0.003073523985221982,-0.008913218975067139,0.4821197986602783,-0.5485972166061401,-0.5249974131584167,-0.43701180815696716
300375,9.32876968383789,-0.19622619450092316,3.063765525817871,0.14730504155158997,-0.49339020252227783,0.23889601230621338,0.7507936358451843,-0.23038482666015625,-0.5410354733467102,-0.3008531332015991,9.645106315612793,-0.5567765235900879,-1.480453610420227,-0.1735900491476059,-0.23768582940101624,-0.11637129634618759,0.48202353715896606,-0.5485705137252808,-0.5250630974769592,-0.43707260489463806
300541,9.320272445678711,-0.18280141055583954,3.0772011280059814,0.38616904616355896,-0.4486576318740845,0.3875008821487427,0.750778079032898,-0.23039226233959198,-0.5410528182983398,-0.3008546233177185,9.647358894348145,-0.5448096990585327,-1.4694777727127075,-0.5391472578048706,-0.2342921644449234,0.08720483630895615,0.481922447681427,-0.548570990562439,-0.5251033306121826,-0.43713507056236267
300708,9.324549674987793,-0.19128060340881348,3.056455612182617,0.3846963346004486,-0.5438344478607178,0.38045740127563477,0.7507542967796326,-0.23040446639060974,-0.5410802960395813,-0.3008553087711334,9.644454002380371,-0.5579919815063477,-1.4934877157211304,-0.7470328211784363,-0.3476027250289917,0.22100557386875153,0.48181381821632385,-0.548592209815979,-0.525139331817627,-0.4371849596500397
300875,9.327652931213379,-0.1831626147031784,3.0509841442108154,0.5153851509094238,-0.5065807700157166,0.41289591789245605,0.7507404088973999,-0.2304011583328247,-0.5411092638969421,-0.30084046721458435,9.654336929321289,-0.568652331829071,-1.47409987449646,-0.7804318070411682,-0.34993353486061096,0.6008931994438171,0.4817045331001282,-0.548671543598175,-0.5251151323318481,-0.4372349679470062
301041,9.33293342590332,-0.17121486365795135,3.051786422729492,0.5349019765853882,-0.6159341931343079,0.25838732719421387,0.750718891620636,-0.23037555813789368,-0.541161835193634,-0.3008192181587219,9.648051261901855,-0.5953609347343445,-1.4939682483673096,-0.7887430787086487,-0.2989386022090912,0.788582980632782,0.48162442445755005,-0.5487455129623413,-0.5250893235206604,-0.43726134300231934
301208,9.327393531799316,-0.17012012004852295,3.039914846420288,0.5213144421577454,-0.6343881487846375,0.29345107078552246,0.7506953477859497,-0.23035819828510284,-0.5412132740020752,-0.3007985055446625,9.638154983520508,-0.6266398429870605,-1.4994443655014038,-0.4846947193145752,-0.29961735010147095,0.8099183440208435,0.48155713081359863,-0.5488158464431763,-0.5250642895698547,-0.43727725744247437
301375,9.338146209716797,-0.16832134127616882,3.0661864280700684,0.3834540843963623,-0.6778272390365601,0.2678256034851074,0.7506527304649353,-0.23037390410900116,-0.5412564873695374,-0.30081498622894287,9.643961906433105,-0.65853351354599,-1.503237247467041,0.042190518230199814,-0.1748194694519043,0.5687875747680664,0.48153167963027954,-0.5488166809082031,-0.5250896215438843,-0.437273770570755
301541,9.346850395202637,-0.16366513073444366,3.0380561351776123,0.4507899284362793,-0.6648672819137573,0.2044725865125656,0.7506160736083984,-0.2303667664527893,-0.5413076877593994,-0.3008197844028473,9.645410537719727,-0.6361143589019775,-1.4982845783233643,0.5047174096107483,-0.18506456911563873,0.43594732880592346,0.48152899742126465,-0.5487807989120483,-0.525150716304779,-0.4372483491897583
301708,9.360411643981934,-0.15090879797935486,3.0275955200195312,0.3380044102668762,-0.6759960055351257,0.25559553503990173,0.7505701184272766,-0.23038890957832336,-0.5413482785224915,-0.3008445203304291,9.650705337524414,-0.6139982342720032,-1.5113192796707153,0.9921911954879761,-0.21873247623443604,0.46503061056137085,0.4815554916858673,-0.5487276911735535,-0.5252295136451721,-0.437191367149353
301875,9.353194236755371,-0.15250736474990845,3.017721652984619,0.3423328995704651,-0.6738572120666504,0.323277086019516,0.7505258321762085,-0.2304186373949051,-0.5413855314254761,-0.3008653223514557,9.627601623535156,-0.584320604801178,-1.4983333349227905,1.0413419008255005,-0.3138708472251892,0.4964573085308075,0.48160097002983093,-0.5486540794372559,-0.5253424048423767,-0.4370979964733124
302041,9.347029685974121,-0.1587943285703659,3.0288829803466797,0.40437963604927063,-0.593100368976593,0.3338679075241089,0.7504974603652954,-0.2304256707429886,-0.5414220690727234,-0.30086493492126465,9.649740219116211,-0.5561211705207825,-1.5118353366851807,0.8150793313980103,-0.4248378276824951,0.4279305636882782,0.48161837458610535,-0.5485947132110596,-0.5254578590393066,-0.4370146095752716
302208,9.342061996459961,-0.16330035030841827,3.0377378463745117,0.3515278697013855,-0.47150418162345886,0.3970160484313965,0.7504780888557434,-0.2304408848285675,-0.5414398908615112,-0.3008694648742676,9.657934188842773,-0.5373215675354004,-1.5242797136306763,0.3898956775665283,-0.37936246395111084,0.5350428819656372,0.48160794377326965,-0.5485755205154419,-0.5255289077758789,-0.4369645118713379
302375,9.35061264038086,-0.18070603907108307,3.021062135696411,0.3426658809185028,-0.45475345849990845,0.4049687385559082,0.7504624128341675,-0.23045334219932556,-0.5414568185806274,-0.3008688986301422,9.648398399353027,-0.5470554828643799,-1.5115201473236084,0.005128942895680666,-0.4189085364341736,0.8234675526618958,0.48158109188079834,-0.5486087203025818,-0.5255546569824219,-0.43692147731781006
302541,9.335428237915039,-0.17194047570228577,3.039318561553955,0.35385861992836,-0.4910082221031189,0.3651922643184662,0.7504352331161499,-0.23047564923763275,-0.5414743423461914,-0.3008880019187927,9.634706497192383,-0.5555426478385925,-1.5207555294036865,-0.4472233057022095,-0.42720699310302734,0.9710862040519714,0.48152217268943787,-0.5486915707588196,-0.5255339741706848,-0.4369073212146759
302708,9.343396186828613,-0.17048853635787964,3.0174927711486816,0.38027817010879517,-0.40672969818115234,0.22838202118873596,0.7504148483276367,-0.23047110438346863,-0.5414924621582031,-0.3009095788002014,9.647428512573242,-0.5864813923835754,-1.5001509189605713,-0.8126654028892517,-0.5012661218643188,0.78658527135849,0.4814198911190033,-0.548786997795105,-0.5255134105682373,-0.43692493438720703
302875,9.336665153503418,-0.1798403114080429,3.029587507247925,0.4291471540927887,-0.3742271363735199,0.30301743745803833,0.7504019141197205,-0.2304655909538269,-0.541506826877594,-0.3009200692176819,9.643741607666016,-0.6100651025772095,-1.5277009010314941,-0.790945827960968,-0.44527682662010193,0.7586162090301514,0.4813125431537628,-0.5488858222961426,-0.5254815816879272,-0.43695729970932007
303041,9.335606575012207,-0.18015114963054657,3.044128179550171,0.29097944498062134,-0.30297261476516724,0.29041600227355957,0.7503960132598877,-0.2304593324661255,-0.5415129661560059,-0.30092892050743103,9.644691467285156,-0.6189338564872742,-1.5267690420150757,-0.29208725690841675,-0.27096953988075256,0.3465590476989746,0.4811592102050781,-0.5489413142204285,-0.5255256295204163,-0.43700355291366577
303208,9.31982135772705,-0.16692662239074707,3.0426764488220215,0.4210919737815857,-0.3005777895450592,0.2857672870159149,0.7503910064697266,-0.23044492304325104,-0.5415218472480774,-0.30093610286712646,9.624653816223145,-0.5978667736053467,-1.5293078422546387,-0.09540729969739914,-0.26217159628868103,0.2557748556137085,0.4810940623283386,-0.5489364266395569,-0.5255706310272217,-0.43702733516693115
303375,9.334490776062012,-0.1787567287683487,3.027066469192505,0.6017255187034607,-0.31804564595222473,0.41021937131881714,0.7503902316093445,-0.23043186962604523,-0.5415319800376892,-0.3009301424026489,9.655610084533691,-0.617246150970459,-1.515911340713501,0.12065501511096954,-0.26858755946159363,0.4151882231235504,0.48105064034461975,-0.5489358305931091,-0.5256099700927734,-0.4370286464691162
303541,9.327381134033203,-0.1700236201286316,3.028604030609131,0.5314058661460876,-0.32890549302101135,0.5369381904602051,0.7503965497016907,-0.23042792081832886,-0.5415398478507996,-0.3009030222892761,9.650130271911621,-0.5764417052268982,-1.5150208473205566,0.17898793518543243,-0.1744353026151657,0.5854614973068237,0.48103293776512146,-0.5489343404769897,-0.5256368517875671,-0.43701767921447754
303708,9.323275566101074,-0.15540245175361633,3.0289008617401123,0.6021097302436829,-0.354646235704422,0.5308551788330078,0.7504079341888428,-0.230408176779747,-0.5415576100349426,-0.30085787177085876,9.64946174621582,-0.5609066486358643,-1.511863112449646,0.148854598402977,-0.12507961690425873,0.6996685266494751,0.4810202419757843,-0.5489450097084045,-0.5256445407867432,-0.43700888752937317
