sampleTimeFine,D4:22:CD:00:A9:12_acc_x,D4:22:CD:00:A9:12_acc_y,D4:22:CD:00:A9:12_acc_z,D4:22:CD:00:A9:12_gyro_x,D4:22:CD:00:A9:12_gyro_y,D4:22:CD:00:A9:12_gyro_z,D4:22:CD:00:A9:12_quat_w,D4:22:CD:00:A9:12_quat_x,D4:22:CD:00:A9:12_quat_y,D4:22:CD:00:A9:12_quat_z,D4:22:CD:00:A1:93_acc_x,D4:22:CD:00:A1:93_acc_y,D4:22:CD:00:A1:93_acc_z,D4:22:CD:00:A1:93_gyro_x,D4:22:CD:00:A1:93_gyro_y,D4:22:CD:00:A1:93_gyro_z,D4:22:CD:00:A1:93_quat_w,D4:22:CD:00:A1:93_quat_x,D4:22:CD:00:A1:93_quat_y,D4:22:CD:00:A1:93_quat_z
1782889,-0.41892385482788086,0.1526476889848709,-0.3965960144996643,-0.621823787689209,0.448087215423584,-0.638340413570404,0.7296869158744812,-0.2394130676984787,-0.5610783696174622,-0.30891624093055725,-0.23046886920928955,-0.43337053060531616,0.09697776287794113,0.0211066585034132,-0.007475205231457949,-0.7350650429725647,0.3888443112373352,-0.6196954250335693,-0.5556874871253967,-0.3949543535709381
1783056,9.491647720336914,-0.026328038424253464,2.4994757175445557,0.5885605812072754,-0.3925530016422272,0.29498785734176636,0.7298370599746704,-0.23926877975463867,-0.5610342621803284,-0.3087539076805115,8.915459632873535,-0.42876580357551575,-3.7668514251708984,-0.08541834354400635,0.39647814631462097,0.23796117305755615,0.38891229033470154,-0.6195349097251892,-0.5559201836585999,-0.3948118984699249
1783223,9.471528053283691,-0.0009133161511272192,2.503840684890747,0.760639488697052,-0.3140372931957245,0.24915394186973572,0.7299143671989441,-0.23903410136699677,-0.5612518191337585,-0.3083573281764984,8.919082641601562,-0.44512295722961426,-3.7126896381378174,-0.14308534562587738,0.36441105604171753,0.20819923281669617,0.38895174860954285,-0.6195303201675415,-0.5561583042144775,-0.39444491267204285
1783389,9.48294448852539,-0.02757214941084385,2.5226688385009766,0.786700427532196,-0.3460659682750702,0.28612586855888367,0.7299867868423462,-0.23862417042255402,-0.5615114569664001,-0.3080304265022278,8.92702865600586,-0.4146183133125305,-3.7381415367126465,-0.0018441141583025455,0.31383880972862244,0.2809520959854126,0.3891759514808655,-0.6195873618125916,-0.5560224652290344,-0.39432549476623535
1783889,9.483328819274902,-0.008354020304977894,2.5377304553985596,0.7425826787948608,-0.23780111968517303,0.2252701073884964,0.7302356958389282,-0.2380772978067398,-0.5615557432174683,-0.3077828288078308,8.96026611328125,-0.3865272104740143,-3.7225635051727295,-0.176445871591568,0.4482414126396179,0.11627525091171265,0.3894300162792206,-0.6193546056747437,-0.5562012195587158,-0.3941883146762848
1784056,9.493914604187012,-0.00011464412091299891,2.533735513687134,0.6814194321632385,-0.2076805680990219,0.24736103415489197,0.7302922010421753,-0.23797638714313507,-0.5615271329879761,-0.30777907371520996,8.93449592590332,-0.3850681185722351,-3.745454788208008,-0.45091158151626587,0.46150878071784973,0.06616400927305222,0.38940343260765076,-0.6193163394927979,-0.5560973286628723,-0.39442121982574463
1784223,9.496333122253418,-0.009189578704535961,2.5162546634674072,0.7755206227302551,-0.20374903082847595,0.32017794251441956,0.7303661704063416,-0.2378331869840622,-0.5615329742431641,-0.30770328640937805,8.923842430114746,-0.3995267152786255,-3.728982925415039,-0.5976083278656006,0.4255742132663727,0.2569786012172699,0.38921672105789185,-0.6194390058517456,-0.555876612663269,-0.3947240710258484
1784389,9.491658210754395,-0.014930665493011475,2.5212976932525635,0.6450622081756592,-0.11571817100048065,0.4047894775867462,0.7304060459136963,-0.23777061700820923,-0.5615235567092896,-0.3076743483543396,8.924318313598633,-0.39645475149154663,-3.701317310333252,-0.6182394027709961,0.16940878331661224,0.36657536029815674,0.3891274929046631,-0.6194537878036499,-0.5558178424835205,-0.394871324300766
1784556,9.49264907836914,-0.020130470395088196,2.5473861694335938,0.48692941665649414,-0.16092459857463837,0.3383758068084717,0.7304701805114746,-0.23766052722930908,-0.5615534782409668,-0.3075525760650635,8.945486068725586,-0.42198777198791504,-3.7070493698120117,-0.5586897730827332,0.05399797111749649,0.712871789932251,0.3891269862651825,-0.6194307804107666,-0.5557929277420044,-0.3949430584907532
1784723,9.495906829833984,-0.008718508295714855,2.530184268951416,0.36188825964927673,-0.24027274549007416,0.33505895733833313,0.7304819822311401,-0.23766347765922546,-0.561538577079773,-0.30754953622817993,8.946819305419922,-0.42610153555870056,-3.7177894115448,-0.389415442943573,-0.00522499019280076,0.7220411896705627,0.38911908864974976,-0.6194841265678406,-0.5556793212890625,-0.3950271010398865
1784889,9.493926048278809,-0.014283372089266777,2.519491672515869,0.4117688834667206,-0.42085498571395874,0.3467511236667633,0.7304310202598572,-0.23775748908519745,-0.5615144371986389,-0.3076418340206146,8.913613319396973,-0.44746920466423035,-3.717585563659668,-0.12410634011030197,-0.14591556787490845,0.6607117056846619,0.3891960382461548,-0.6194512844085693,-0.5556824803352356,-0.39499837160110474
1785056,9.495084762573242,-0.021561190485954285,2.5027196407318115,0.5500518679618835,-0.2756054699420929,0.3894987106323242,0.7304352521896362,-0.23776358366012573,-0.5615187883377075,-0.30761900544166565,8.92513370513916,-0.44233396649360657,-3.719538450241089,0.2815668284893036,-0.45447176694869995,0.6429235339164734,0.38925454020500183,-0.6194863319396973,-0.5556577444076538,-0.39492037892341614
1785223,9.514338493347168,-0.006418823264539242,2.5246124267578125,0.878188967704773,-0.19717937707901,0.48868387937545776,0.7304744124412537,-0.2377125322818756,-0.5615501999855042,-0.30750834941864014,8.909327507019043,-0.43088504672050476,-3.7302162647247314,0.4852518141269684,-0.5991579294204712,0.4789383113384247,0.38925373554229736,-0.6195987462997437,-0.5555705428123474,-0.394867479801178
1785389,9.482743263244629,-0.005024799611419439,2.5277397632598877,0.7822054028511047,-0.09093788266181946,0.5585681200027466,0.7305068373680115,-0.23769564926624298,-0.5615566968917847,-0.3074326813220978,8.929182052612305,-0.41968005895614624,-3.7333056926727295,0.6412972211837769,-0.7515918612480164,0.16625843942165375,0.38925549387931824,-0.6196550726890564,-0.5555748343467712,-0.3947713077068329
1785556,9.48376750946045,0.005512102507054806,2.542775869369507,0.8673803806304932,-0.3137427568435669,0.5354014039039612,0.7305273413658142,-0.23766840994358063,-0.5615943670272827,-0.3073362112045288,8.949684143066406,-0.42836320400238037,-3.7173056602478027,0.5376425981521606,-0.7004690170288086,-0.009758438915014267,0.3892052471637726,-0.6197423338890076,-0.5555446147918701,-0.3947265148162842
1785723,9.491144180297852,0.013522676192224026,2.5429728031158447,0.8531910181045532,-0.2869262397289276,0.4832155704498291,0.7305367588996887,-0.23765479028224945,-0.5616186261177063,-0.3072797954082489,8.949480056762695,-0.3944735527038574,-3.7257285118103027,0.4927178919315338,-0.5458579063415527,0.22413033246994019,0.3892764747142792,-0.6197022795677185,-0.5556338429450989,-0.3945934772491455
1785889,9.479913711547852,0.01488575804978609,2.5249979496002197,0.7112838625907898,-0.336806982755661,0.4987112283706665,0.7306009531021118,-0.23754096031188965,-0.561689019203186,-0.3070865571498871,8.938553810119629,-0.3659355938434601,-3.7318038940429688,0.29731860756874084,-0.3907729685306549,0.32647866010665894,0.3893207013607025,-0.619696855545044,-0.5556668639183044,-0.3945118188858032
1786056,9.504714012145996,0.033370133489370346,2.5306172370910645,0.7519184350967407,-0.24648381769657135,0.37461772561073303,0.7306561470031738,-0.23742565512657166,-0.5617498755455017,-0.30693310499191284,8.935951232910156,-0.35575059056282043,-3.740176200866699,-0.270879864692688,-0.3736892640590668,0.4762488603591919,0.38931819796562195,-0.6197206974029541,-0.5556710362434387,-0.3944709599018097
1786223,9.509965896606445,0.008340057916939259,2.531010389328003,0.26041072607040405,-0.1865757256746292,0.31765514612197876,0.7306541204452515,-0.23742492496967316,-0.5617560148239136,-0.30692702531814575,8.94932746887207,-0.3758784532546997,-3.7613682746887207,-0.6622034907341003,-0.5074771642684937,0.5638827681541443,0.3892366290092468,-0.6198155879974365,-0.5556179881095886,-0.3944770097732544
1786389,9.506721496582031,-0.018252961337566376,2.505573034286499,0.2682097554206848,-0.14215047657489777,0.3932381570339203,0.7306597828865051,-0.23742637038230896,-0.56175696849823,-0.30691084265708923,8.960824966430664,-0.4247264564037323,-3.733976364135742,-0.85791015625,-0.21441669762134552,0.8273221254348755,0.38918793201446533,-0.619900107383728,-0.5555474162101746,-0.3944915533065796
1786556,9.452713966369629,-0.00011105296289315447,2.466750144958496,0.5021305680274963,-0.2387744039297104,0.395799458026886,0.7306415438652039,-0.23745356500148773,-0.5617634654045105,-0.306921124458313,8.905816078186035,-0.4345701336860657,-3.7471070289611816,-0.4492851495742798,-0.17825156450271606,0.9051591753959656,0.38918954133987427,-0.6199654340744019,-0.555490255355835,-0.39446818828582764
1786723,9.503402709960938,0.023495500907301903,2.5132651329040527,0.23450347781181335,0.10139427334070206,0.39414742588996887,0.7306613326072693,-0.23745431005954742,-0.5617451667785645,-0.3069068491458893,8.880782127380371,-0.4207293689250946,-3.7591137886047363,-0.4845026135444641,-0.1703372448682785,0.6802924275398254,0.3891694247722626,-0.6200291514396667,-0.5554377436637878,-0.3944614827632904
1786889,9.564616203308105,0.004863641690462828,2.546034336090088,-0.5298627018928528,-0.2314363420009613,-0.13782192766666412,0.7306104898452759,-0.2374921590089798,-0.5617544054985046,-0.30698198080062866,8.943870544433594,-0.4636417329311371,-3.798563003540039,-0.27137938141822815,-0.49559298157691956,0.7060846090316772,0.38912323117256165,-0.620131254196167,-0.5553863644599915,-0.3944188952445984
1787056,9.506878852844238,-0.01989099383354187,2.5227856636047363,0.32996195554733276,0.07902157306671143,-0.08432980626821518,0.730610728263855,-0.23744213581085205,-0.5617609024047852,-0.307008296251297,8.970747947692871,-0.4066612720489502,-3.7685463428497314,0.045033521950244904,-0.258483350276947,0.12016837298870087,0.38908305764198303,-0.6201730966567993,-0.5553776621818542,-0.3944052457809448
1787223,9.478472709655762,-0.016188068315386772,2.561762809753418,0.7366915941238403,0.1716242879629135,0.5298691391944885,0.7306604385375977,-0.23739825189113617,-0.5617532730102539,-0.3069378137588501,8.981037139892578,-0.4025556743144989,-3.762439012527466,-0.2636571526527405,0.1839568167924881,-0.29005104303359985,0.389046847820282,-0.6201448440551758,-0.5553957223892212,-0.3944600820541382
1787389,9.487335205078125,-0.0025725732557475567,2.5411159992218018,0.5412923097610474,-0.3157789409160614,0.580146849155426,0.7306739687919617,-0.23739255964756012,-0.5617865920066833,-0.30684879422187805,8.96448802947998,-0.4362545907497406,-3.7681524753570557,-0.15845295786857605,0.5753316879272461,-0.024933960288763046,0.38905584812164307,-0.620123565196991,-0.5553569793701172,-0.3945389688014984
1787556,9.493757247924805,-0.020623987540602684,2.5229642391204834,0.6778720617294312,-0.133826345205307,0.3688932955265045,0.7307024598121643,-0.2373402714729309,-0.5618155002593994,-0.30676838755607605,8.941285133361816,-0.4234672784805298,-3.7480456829071045,0.16114872694015503,0.8194335699081421,0.14167027175426483,0.38918957114219666,-0.6199936866760254,-0.5554084181785583,-0.3945387005805969
1787723,9.490950584411621,-0.01961907371878624,2.5299484729766846,0.5814018249511719,-0.12142980098724365,0.39278993010520935,0.7307190299034119,-0.2373216599225998,-0.5618292689323425,-0.30671796202659607,8.923433303833008,-0.37273383140563965,-3.733170747756958,0.16445273160934448,0.9219099283218384,0.40277889370918274,0.3893069624900818,-0.6199366450309753,-0.555365800857544,-0.3945724666118622
1787889,9.472067832946777,-0.013491413556039333,2.525101900100708,0.6528100371360779,-0.22444407641887665,0.5204564332962036,0.7307281494140625,-0.23732627928256989,-0.5618460178375244,-0.30666226148605347,8.903633117675781,-0.36455824971199036,-3.732085943222046,-0.059703197330236435,0.829268753528595,0.5016183257102966,0.389367014169693,-0.6199508309364319,-0.5552554726600647,-0.39464619755744934
1788056,9.476028442382812,-0.0024112544488161802,2.5026614665985107,0.7498694062232971,0.08903615176677704,0.6022506356239319,0.7307562232017517,-0.237339586019516,-0.5618197321891785,-0.30663323402404785,8.892756462097168,-0.3912830054759979,-3.721388816833496,-0.09962058812379837,0.6455104351043701,0.7074547410011292,0.38942262530326843,-0.6199865341186523,-0.5551438331604004,-0.39469262957572937
1788223,9.479899406433105,-0.009516287595033646,2.5129830837249756,0.41289594769477844,0.3535897433757782,0.5193551778793335,0.7308125495910645,-0.2373288869857788,-0.5617720484733582,-0.30659469962120056,8.901965141296387,-0.41484010219573975,-3.7287702560424805,-0.0037906791549175978,0.5274358987808228,0.7301476001739502,0.38947010040283203,-0.6200365424156189,-0.5550295114517212,-0.3947279751300812
1788389,9.502058029174805,0.0015234643360599875,2.536489486694336,0.04061533510684967,0.41368988156318665,0.3917270004749298,0.7308451533317566,-0.23736336827278137,-0.5616984963417053,-0.3066250681877136,8.945734024047852,-0.43496859073638916,-3.719621181488037,0.17291772365570068,0.48908087611198425,0.9040066003799438,0.38955968618392944,-0.62006676197052,-0.554940938949585,-0.39471644163131714
1788556,9.526582717895508,0.0007440164918079972,2.523672342300415,0.11432868242263794,0.29742103815078735,0.35809752345085144,0.7308831214904785,-0.23736710846424103,-0.5616521239280701,-0.30661651492118835,8.966673851013184,-0.4146575331687927,-3.734776258468628,0.2535080909729004,0.7016791105270386,0.875397264957428,0.389678955078125,-0.6200717687606812,-0.5548529624938965,-0.3947145342826843
1788723,9.525124549865723,0.0011229290394112468,2.5411956310272217,0.12061659246683121,0.21014578640460968,0.44931715726852417,0.7309076189994812,-0.2374003678560257,-0.5616049766540527,-0.3066188097000122,8.956307411193848,-0.40921127796173096,-3.7472336292266846,0.2856135666370392,0.7109892964363098,0.5083543658256531,0.389771968126297,-0.6200579404830933,-0.5547838807106018,-0.39474156498908997
1788890,9.509746551513672,-0.015366808511316776,2.531250476837158,0.35248836874961853,0.2384350299835205,0.5075860619544983,0.7309907674789429,-0.23732833564281464,-0.5615987181663513,-0.3064877390861511,8.947602272033691,-0.4148936867713928,-3.7470390796661377,0.1853783130645752,0.6229328513145447,0.45641186833381653,0.3898545205593109,-0.6200380325317383,-0.5547330975532532,-0.39476263523101807
1789056,9.503889083862305,-0.011300815269351006,2.5538089275360107,0.6017255187034607,0.16830742359161377,0.5185354351997375,0.7310248613357544,-0.23733064532279968,-0.5615699887275696,-0.30645743012428284,8.965422630310059,-0.41543370485305786,-3.723625659942627,0.08724325150251389,0.5682113170623779,0.3404375910758972,0.38992470502853394,-0.620006799697876,-0.5547026991844177,-0.3947851359844208
1789223,9.485087394714355,-0.0019433309789747,2.509138345718384,0.6608012318611145,-0.02941618487238884,0.7058026790618896,0.7310664057731628,-0.23732763528823853,-0.5615673661231995,-0.30636516213417053,8.923559188842773,-0.402652382850647,-3.7046284675598145,0.09025274962186813,0.7004112601280212,0.4249851107597351,0.39004114270210266,-0.6199328303337097,-0.5547031164169312,-0.3947857618331909
1789390,9.506793022155762,-0.004520325921475887,2.5245449542999268,0.3633737564086914,0.11722292006015778,0.4764922559261322,0.7311107516288757,-0.23730948567390442,-0.5615538954734802,-0.3062981367111206,8.89909553527832,-0.44903573393821716,-3.7099251747131348,0.1102050393819809,0.20839130878448486,0.651708722114563,0.3900918662548065,-0.6199614405632019,-0.5546473860740662,-0.39476901292800903
1789556,9.497798919677734,0.002303077606484294,2.5101864337921143,0.5122348070144653,-0.1471962034702301,0.0025292541831731796,0.7311083078384399,-0.23726481199264526,-0.5615851879119873,-0.30628111958503723,8.904232025146484,-0.41380149126052856,-3.7055132389068604,0.4738669991493225,0.055842094123363495,0.787430465221405,0.3901923596858978,-0.6199616193771362,-0.5546397566795349,-0.3946802616119385
1789723,9.472271919250488,-0.004624036140739918,2.5042998790740967,0.6687283515930176,0.1576269567012787,0.3322671353816986,0.731158971786499,-0.23720112442970276,-0.5615872144699097,-0.30620598793029785,8.904895782470703,-0.36378610134124756,-3.6991822719573975,0.020445339381694794,-0.1973842829465866,0.2529446482658386,0.3901844918727875,-0.6199817061424255,-0.5546427965164185,-0.3946518898010254
1789890,9.479217529296875,0.01323933806270361,2.544504165649414,0.525143563747406,0.2545454204082489,0.47704294323921204,0.7312042713165283,-0.23718665540218353,-0.5615571141242981,-0.3061641752719879,8.903011322021484,-0.41605237126350403,-3.714388370513916,-0.32196441292762756,-0.28555595874786377,0.0832860916852951,0.39011406898498535,-0.6200310587882996,-0.5546254515647888,-0.3946681320667267
1790056,9.504117965698242,-0.010642793029546738,2.5622916221618652,0.3071666955947876,0.20939020812511444,0.25662001967430115,0.7312117218971252,-0.23720991611480713,-0.5615161657333374,-0.30620336532592773,8.954222679138184,-0.442537784576416,-3.7455549240112305,-0.05948549136519432,-0.616958737373352,0.09287805110216141,0.390037477016449,-0.6200910806655884,-0.5546349883079529,-0.3946363925933838
1790223,9.495495796203613,-0.01998400129377842,2.562978506088257,0.04649345576763153,0.3609533905982971,0.12707100808620453,0.7311930060386658,-0.23728853464126587,-0.5614321231842041,-0.30634135007858276,8.987996101379395,-0.4133094251155853,-3.7321012020111084,0.09089305996894836,-0.4357359707355499,0.4108212888240814,0.39001959562301636,-0.6201414465904236,-0.5546329021453857,-0.39457792043685913
1790390,9.487577438354492,-0.004745627287775278,2.5941343307495117,0.06046517565846443,0.0017352603608742356,0.0812370702624321,0.7311780452728271,-0.23731543123722076,-0.5614140629768372,-0.30638912320137024,8.988482475280762,-0.39501357078552246,-3.71576189994812,0.14511515200138092,0.02031727135181427,0.5948997139930725,0.39006152749061584,-0.6201669573783875,-0.5546025037765503,-0.3945389688014984
1790556,9.481376647949219,-0.0033437537495046854,2.555060625076294,0.5564294457435608,-0.009758437983691692,0.05334484949707985,0.7311736345291138,-0.23729752004146576,-0.5614145994186401,-0.3064127564430237,8.966130256652832,-0.40264537930488586,-3.7010207176208496,-0.05994652211666107,0.23575849831104279,0.3629383146762848,0.39009591937065125,-0.6201629638671875,-0.5545792579650879,-0.3945437967777252
1790723,9.467594146728516,-0.0004399665631353855,2.577547550201416,0.6721092462539673,-0.10378266125917435,0.027911441400647163,0.7311488389968872,-0.237298384308815,-0.5614182949066162,-0.306464284658432,8.93442440032959,-0.4105664789676666,-3.709968090057373,-0.08724965900182724,0.29273396730422974,0.34812140464782715,0.39012470841407776,-0.620166003704071,-0.5545405149459839,-0.39456531405448914
1790890,9.489176750183105,0.0015055832918733358,2.5648844242095947,0.647546648979187,-0.031542032957077026,0.08456671983003616,0.7311589121818542,-0.2372540831565857,-0.5614309310913086,-0.3064512312412262,8.924017906188965,-0.4098440706729889,-3.6901917457580566,-0.14244504272937775,0.2952183783054352,0.18409767746925354,0.3901593089103699,-0.6201303601264954,-0.5545446872711182,-0.39458125829696655
1791056,9.491482734680176,0.017158642411231995,2.5585904121398926,0.6777952313423157,0.024210402742028236,0.14675435423851013,0.7311897873878479,-0.23718693852424622,-0.5614458918571472,-0.3064023554325104,8.925007820129395,-0.41620972752571106,-3.7135980129241943,-0.10949428379535675,0.18338052928447723,0.01452880259603262,0.39016297459602356,-0.6201074123382568,-0.5545472502708435,-0.39461013674736023
1791223,9.486712455749512,0.017373215407133102,2.571532726287842,0.39510786533355713,0.1563078910112381,0.0767548531293869,0.7312010526657104,-0.23716968297958374,-0.5614230036735535,-0.30643075704574585,8.938794136047363,-0.39345452189445496,-3.721529483795166,-0.12249274551868439,0.13527987897396088,-0.10239957273006439,0.39015376567840576,-0.6200803518295288,-0.5545602440834045,-0.3946434259414673
1791390,9.477489471435547,0.0067125409841537476,2.543348550796509,0.40575000643730164,-0.0386623740196228,0.1441802978515625,0.7312003970146179,-0.2371642142534256,-0.5614189505577087,-0.3064438998699188,8.943758010864258,-0.3860229551792145,-3.689122438430786,-0.2474699169397354,0.20136064291000366,-0.04965021461248398,0.39014750719070435,-0.6200518012046814,-0.5545678734779358,-0.394683837890625
1791556,9.483003616333008,0.003665612544864416,2.5694620609283447,0.4335269629955292,0.13502375781536102,0.29475733637809753,0.731234073638916,-0.23713719844818115,-0.5614023804664612,-0.3064146935939789,8.939717292785645,-0.36733362078666687,-3.7145423889160156,-0.4684947431087494,0.11267667263746262,0.016603432595729828,0.39012113213539124,-0.6200411915779114,-0.5545666813850403,-0.39472803473472595
1791723,9.479921340942383,-0.004520325921475887,2.5556936264038086,0.35148945450782776,0.0746161937713623,0.25966793298721313,0.7312382459640503,-0.2371562123298645,-0.5613735914230347,-0.3064429461956024,8.946036338806152,-0.38114863634109497,-3.712331771850586,-0.5485855937004089,0.0588003508746624,0.20685455203056335,0.39004451036453247,-0.6201223134994507,-0.5544698238372803,-0.39481228590011597
1791890,9.494365692138672,-0.007695998065173626,2.5449399948120117,0.3252620995044708,0.03571050614118576,0.30437496304512024,0.7312479019165039,-0.23716974258422852,-0.5613518357276917,-0.30644914507865906,8.961750030517578,-0.38728198409080505,-3.697279453277588,-0.49869200587272644,-0.10316794365644455,0.5247081518173218,0.39000222086906433,-0.6202004551887512,-0.5543956160545349,-0.39483577013015747
1792056,9.4940185546875,-0.001058557303622365,2.5520100593566895,0.47685083746910095,-0.03990458324551582,0.37524527311325073,0.7312652468681335,-0.2371666133403778,-0.5613468289375305,-0.3064197301864624,8.969199180603027,-0.39321115612983704,-3.722395420074463,-0.4316380023956299,0.018998220562934875,0.6281450390815735,0.390023797750473,-0.6202166080474854,-0.5543749332427979,-0.39481809735298157
1792223,9.479195594787598,0.002442549681290984,2.5651168823242188,0.2928107976913452,-0.20181527733802795,0.4208999276161194,0.7312740683555603,-0.23717737197875977,-0.5613561272621155,-0.30637291073799133,8.952923774719238,-0.42222490906715393,-3.7189409732818604,-0.3872639834880829,0.07402709871530533,0.7146263122558594,0.39001360535621643,-0.6202970147132874,-0.5542754530906677,-0.3948417007923126
1792390,9.489179611206055,0.012473811395466328,2.549582004547119,0.16811536252498627,-0.2980293929576874,0.4423377513885498,0.7312606573104858,-0.2372281849384308,-0.5613604784011841,-0.3063579499721527,8.92870807647705,-0.4427752196788788,-3.7036468982696533,0.054126035422086716,0.09502951800823212,0.833827793598175,0.39006614685058594,-0.6203412413597107,-0.5542110204696655,-0.3948104977607727
1792556,9.490063667297363,0.0013982970267534256,2.550722599029541,0.5599256157875061,-0.24211683869361877,0.4478316009044647,0.7312762141227722,-0.23721514642238617,-0.5613845586776733,-0.3062865138053894,8.908618927001953,-0.41722896695137024,-3.7189481258392334,0.44817736744880676,-0.057154737412929535,0.6921640038490295,0.3901117742061615,-0.6203927397727966,-0.5541543960571289,-0.3947639763355255
1792723,9.478976249694824,0.01121426746249199,2.5631067752838135,0.6092044115066528,-0.12055899202823639,0.587587296962738,0.731266438961029,-0.23728211224079132,-0.5613598227500916,-0.3063035309314728,8.888522148132324,-0.4177187383174896,-3.712944269180298,0.5179719924926758,-0.3169827461242676,0.5980628728866577,0.39014825224876404,-0.6204323768615723,-0.5541423559188843,-0.3946824371814728
1792890,9.47610092163086,0.021609336137771606,2.549334764480591,0.6597639918327332,-0.08458594977855682,0.5137972235679626,0.7312855124473572,-0.23728550970554352,-0.5613570809364319,-0.3062603175640106,8.915303230285645,-0.3888540267944336,-3.717428684234619,0.5175238847732544,-0.7286813259124756,0.2952440083026886,0.39016103744506836,-0.6204338073730469,-0.554223358631134,-0.3945538103580475
1793056,9.492807388305664,0.03375433385372162,2.575371265411377,0.8442521691322327,0.05740445852279663,0.5046150088310242,0.7313451766967773,-0.23721949756145477,-0.5613658428192139,-0.30615299940109253,8.946617126464844,-0.3859066367149353,-3.7001848220825195,0.5292800664901733,-0.6480525135993958,0.19877375662326813,0.390158474445343,-0.6204458475112915,-0.5542829632759094,-0.3944540321826935
1793223,9.471810340881348,0.024959774687886238,2.5740091800689697,0.6996940970420837,-0.1554306596517563,0.5081238746643066,0.7313727736473083,-0.2371961623430252,-0.5613828301429749,-0.306073933839798,8.95444393157959,-0.3446428179740906,-3.7141594886779785,0.31824415922164917,-0.5439112186431885,0.22560301423072815,0.3901335597038269,-0.6204838752746582,-0.5543015003204346,-0.3943925201892853
1793390,9.484155654907227,0.03042994812130928,2.5640082359313965,0.5980501174926758,-0.3089531660079956,0.4719715118408203,0.7313693165779114,-0.23721174895763397,-0.5614022016525269,-0.30603447556495667,8.963319778442383,-0.3576314449310303,-3.732870101928711,0.11284314095973969,-0.3349885046482086,0.37208208441734314,0.3900904059410095,-0.6205671429634094,-0.5542452335357666,-0.39438316226005554
1793556,9.529176712036133,0.017552025616168976,2.5826797485351562,0.13543353974819183,-0.17150261998176575,0.5472344756126404,0.731372058391571,-0.2372622936964035,-0.561389684677124,-0.3060119152069092,8.959457397460938,-0.35246026515960693,-3.73755145072937,-0.2543853223323822,-0.3691301941871643,0.5552896857261658,0.39007195830345154,-0.6206157803535461,-0.5542343258857727,-0.3943402171134949
1793723,9.475150108337402,0.010074175894260406,2.5746867656707764,0.23020052909851074,-0.11599990725517273,0.6100496649742126,0.7313846349716187,-0.23730622231960297,-0.5613726377487183,-0.3059787452220917,8.951362609863281,-0.39082467555999756,-3.7225255966186523,-0.5125228762626648,-0.2952631711959839,0.8396162986755371,0.3900448977947235,-0.6207072734832764,-0.5541682243347168,-0.3943159282207489
1793890,9.451898574829102,0.007170474156737328,2.5138731002807617,0.18464836478233337,-0.43629953265190125,0.4783235490322113,0.7313401103019714,-0.23740217089653015,-0.5613734722137451,-0.306009441614151,8.935776710510254,-0.41241857409477234,-3.7359845638275146,-0.3148825168609619,-0.09470295161008835,1.1221883296966553,0.39006438851356506,-0.6208035945892334,-0.5540711879730225,-0.3942814767360687
1794056,9.535226821899414,0.007971365936100483,2.560110330581665,-0.33378466963768005,-0.015277974307537079,0.4458722472190857,0.7313182353973389,-0.23751713335514069,-0.5613142251968384,-0.30608126521110535,8.869980812072754,-0.41494452953338623,-3.74280047416687,-0.3475131094455719,-0.29248422384262085,1.2183001041412354,0.39003556966781616,-0.6209699511528015,-0.5539199709892273,-0.3942606449127197
1794223,9.503080368041992,0.03007948026061058,2.5621235370635986,-0.4441241919994354,-0.2914853096008301,-0.024575384333729744,0.7312690019607544,-0.23758086562156677,-0.5613113045692444,-0.30615466833114624,8.934337615966797,-0.44176459312438965,-3.750309467315674,0.13708557188510895,-0.6921191215515137,1.1349307298660278,0.3900519609451294,-0.6210704445838928,-0.5538883209228516,-0.39413025975227356
1794390,9.534497261047363,0.00049351662164554,2.5820467472076416,0.0831836387515068,0.23378629982471466,0.03736251965165138,0.7312559485435486,-0.23762035369873047,-0.5612525939941406,-0.30626291036605835,8.956646919250488,-0.3981606066226959,-3.7539663314819336,0.21777836978435516,-0.44536641240119934,0.5711183547973633,0.3900805413722992,-0.6210831999778748,-0.553925096988678,-0.39403006434440613
1794556,9.465004920959473,-0.021157870069146156,2.592003107070923,0.5145270824432373,0.01782003603875637,0.8159245252609253,0.7312880158424377,-0.2376629114151001,-0.5612190961837769,-0.30621448159217834,8.99357795715332,-0.4187881648540497,-3.750779867172241,0.017448652535676956,-0.15928539633750916,0.04226735979318619,0.3900551199913025,-0.6210882067680359,-0.553937554359436,-0.3940299451351166
1794723,9.48384952545166,0.011309150606393814,2.596177101135254,0.5342104434967041,-0.312026709318161,0.6328065395355225,0.7312650084495544,-0.23774248361587524,-0.5612106323242188,-0.30622345209121704,8.975247383117676,-0.43059659004211426,-3.7266974449157715,0.1352926790714264,0.29802295565605164,-0.05340247601270676,0.39005693793296814,-0.6210736036300659,-0.553915798664093,-0.3940819501876831
1794890,9.480746269226074,0.016135485842823982,2.583141326904297,0.2880212068557739,-0.18672938644886017,0.28703510761260986,0.7312541604042053,-0.23776698112487793,-0.5612092614173889,-0.3062328100204468,8.958924293518066,-0.39899352192878723,-3.7325870990753174,0.3563046455383301,0.4625333249568939,0.12504759430885315,0.3901212811470032,-0.6210246682167053,-0.5539109110832214,-0.3941021263599396
1795056,9.464592933654785,0.004462735261768103,2.552772045135498,0.28558799624443054,-0.35686174035072327,0.40160071849823,0.7312222719192505,-0.2378310263156891,-0.5612120032310486,-0.306254118680954,8.93283462524414,-0.3413575291633606,-3.729167938232422,0.29751068353652954,0.7377673983573914,0.38410723209381104,0.39021655917167664,-0.6209850311279297,-0.5538626313209534,-0.3941381871700287
1795223,9.475488662719727,-0.007359369192272425,2.5504660606384277,0.7623811960220337,-0.44016703963279724,0.7187756299972534,0.7312124967575073,-0.2378767728805542,-0.5612327456474304,-0.3062039315700531,8.918664932250977,-0.344833642244339,-3.7098536491394043,-0.042786020785570145,0.7342456579208374,0.5672380924224854,0.39030399918556213,-0.6209599375724792,-0.5538007020950317,-0.3941781222820282
1795390,9.461908340454102,0.028890421614050865,2.5524916648864746,0.7081718444824219,-0.13125227391719818,0.7353085279464722,0.7312350869178772,-0.2379007786512375,-0.5612239837646484,-0.3061474561691284,8.913068771362305,-0.38195571303367615,-3.719245672225952,-0.22763286530971527,0.6837501525878906,0.82526034116745,0.3903695046901703,-0.6209901571273804,-0.553683876991272,-0.3942297101020813
1795556,9.45438003540039,-0.003697798354551196,2.5664186477661133,0.26765912771224976,0.0017096478259190917,0.5554305911064148,0.7312386631965637,-0.2379627525806427,-0.5611825585365295,-0.30616670846939087,8.902328491210938,-0.43023210763931274,-3.7113726139068604,-0.1818629801273346,0.6523107290267944,1.0429812669754028,0.3904842138290405,-0.6209869980812073,-0.5536081790924072,-0.39422735571861267
1795723,9.483709335327148,0.002710728906095028,2.5676167011260986,0.03223998844623566,0.06855878978967667,0.6203331351280212,0.7312393188476562,-0.23805765807628632,-0.5611186623573303,-0.30620846152305603,8.928657531738281,-0.4255577325820923,-3.7137162685394287,0.16933196783065796,0.3758087754249573,1.1480059623718262,0.3905642628669739,-0.6210594177246094,-0.5534788966178894,-0.3942157030105591
1795890,9.497933387756348,0.006437207106500864,2.5743792057037354,0.01951047219336033,0.07733113318681717,0.5516014695167542,0.7312424778938293,-0.23813824355602264,-0.5610595941543579,-0.30624645948410034,8.956340789794922,-0.4248124063014984,-3.7206478118896484,0.3875649571418762,0.3974642753601074,1.070694088935852,0.39067503809928894,-0.6210922598838806,-0.5533899664878845,-0.39417901635169983
1796056,9.512883186340332,0.005074637942016125,2.579303741455078,0.019651344045996666,-0.06057403236627579,0.523209810256958,0.7312561869621277,-0.23818053305149078,-0.5610337853431702,-0.30622798204421997,8.960078239440918,-0.4318331778049469,-3.7293264865875244,0.442632257938385,0.43195176124572754,0.8674444556236267,0.3908063471317291,-0.6210693120956421,-0.5533590912818909,-0.3941282331943512
1796223,9.504558563232422,-0.01571747101843357,2.5649707317352295,0.23075121641159058,-0.08023178577423096,0.6104979515075684,0.731278121471405,-0.23821070790290833,-0.5610153079032898,-0.30618610978126526,8.934475898742676,-0.4234001636505127,-3.7105917930603027,0.4866988956928253,0.4519425332546234,0.6066688299179077,0.3909149765968323,-0.621040403842926,-0.5533322095870972,-0.3941037654876709
1796390,9.505154609680176,-0.011436711065471172,2.5859947204589844,0.4138948619365692,-0.06180344894528389,0.5644078850746155,0.7313026785850525,-0.23822267353534698,-0.5610020756721497,-0.3061424791812897,8.943805694580078,-0.41239383816719055,-3.7146387100219727,0.44073688983917236,0.22993159294128418,0.5561989545822144,0.39097830653190613,-0.6210511922836304,-0.5532878637313843,-0.39408624172210693
1796556,9.467426300048828,-0.020480699837207794,2.5330650806427,0.6062973737716675,-0.2689845561981201,0.7018455266952515,0.7313337922096252,-0.23821550607681274,-0.5610224008560181,-0.3060363829135895,8.962639808654785,-0.3882937431335449,-3.709066390991211,0.359941691160202,0.14768922328948975,0.4811665415763855,0.3910309970378876,-0.621054470539093,-0.5532624125480652,-0.3940645456314087
1796723,9.494280815124512,-0.02450503781437874,2.527682065963745,0.5184970498085022,-0.03236164525151253,0.7949989438056946,0.7313607335090637,-0.2382594347000122,-0.5609915852546692,-0.30599433183670044,8.906387329101562,-0.4078986346721649,-3.7153468132019043,0.0722598284482956,0.12840285897254944,0.6123932003974915,0.3910865783691406,-0.6210529208183289,-0.5532465577125549,-0.39403417706489563
1796890,9.478376388549805,0.02814832702279091,2.557642698287964,0.3882564902305603,-0.4951062798500061,0.32066455483436584,0.7313297390937805,-0.23828895390033722,-0.5610253214836121,-0.30598345398902893,8.930684089660645,-0.438186377286911,-3.7166264057159424,0.2435319423675537,-0.26696115732192993,0.9111781716346741,0.39117029309272766,-0.6210494637489319,-0.5532798171043396,-0.3939098119735718
1797056,9.491071701049805,0.009777350351214409,2.51295804977417,0.6682929396629333,-0.11810015141963959,0.20858341455459595,0.731338620185852,-0.23825418949127197,-0.5610389113426208,-0.3059644401073456,8.876357078552246,-0.36596760153770447,-3.7039637565612793,0.2550320327281952,-0.22352203726768494,0.6183739304542542,0.3911985456943512,-0.6210799813270569,-0.5532695055007935,-0.39384812116622925
1797223,9.491999626159668,0.003996220882982016,2.569986343383789,0.7402645945549011,0.17627298831939697,0.5644845962524414,0.7313870191574097,-0.23823201656341553,-0.5610105395317078,-0.30591800808906555,8.89772891998291,-0.3883260488510132,-3.7191126346588135,-0.19947168231010437,-0.652649998664856,0.25266286730766296,0.39115262031555176,-0.6210987567901611,-0.5533275604248047,-0.39378243684768677
1797390,9.49734115600586,0.016836784780025482,2.5696587562561035,0.4542475938796997,-0.09667512774467468,0.5379627346992493,0.7313709259033203,-0.23830729722976685,-0.5609748363494873,-0.30596330761909485,8.958145141601562,-0.4543232321739197,-3.7384958267211914,-0.29790130257606506,-0.8127676844596863,0.12211494147777557,0.39102354645729065,-0.621196985244751,-0.5533167123794556,-0.39377105236053467
1797556,9.493284225463867,-0.008142982609570026,2.587017774581909,0.10787428170442581,0.02082952670753002,0.25925812125205994,0.7313639521598816,-0.2383468598127365,-0.5609397292137146,-0.3060136139392853,8.990528106689453,-0.4403991997241974,-3.725599765777588,0.09386414289474487,-0.5274551510810852,0.27303776144981384,0.39099422097206116,-0.6212227940559387,-0.5533501505851746,-0.39371258020401
1797723,9.494518280029297,-0.013192573562264442,2.580730676651001,-0.08549519628286362,-0.16703322529792786,0.1974291056394577,0.7313377261161804,-0.23840053379535675,-0.5609219670295715,-0.3060671389102936,8.995401382446289,-0.3997698426246643,-3.728660821914673,0.15520654618740082,-0.03487168624997139,0.6401957869529724,0.3910391330718994,-0.6212349534034729,-0.5533384680747986,-0.3936649262905121
1797890,9.464990615844727,-0.008965551853179932,2.580526828765869,0.35141265392303467,-0.4195488393306732,0.23652689158916473,0.7313160300254822,-0.23840703070163727,-0.560955286026001,-0.3060527741909027,8.986990928649902,-0.37749728560447693,-3.7343506813049316,-0.02164273150265217,0.38098248839378357,0.6678063273429871,0.39113426208496094,-0.6211912035942078,-0.5533404350280762,-0.39363667368888855
1798056,9.451662063598633,0.0076706185936927795,2.5781056880950928,0.6235091090202332,-0.3762377202510834,0.26404768228530884,0.7313053011894226,-0.23839087784290314,-0.5609922409057617,-0.30602312088012695,8.932859420776367,-0.40632542967796326,-3.7178666591644287,-0.1634090095758438,0.6747986078262329,0.5916853547096252,0.391156405210495,-0.6212433576583862,-0.5531997084617615,-0.3937302529811859
1798223,9.479216575622559,0.009276681579649448,2.5535943508148193,0.6879763007164001,-0.26219719648361206,0.2885206341743469,0.7312764525413513,-0.23842118680477142,-0.5609946846961975,-0.30606409907341003,8.904513359069824,-0.4189562499523163,-3.7069320678710938,-0.21284151077270508,0.5483742952346802,0.5719507336616516,0.3911835849285126,-0.6212738156318665,-0.5530990958213806,-0.3937966227531433
1798390,9.484888076782227,-0.00600802805274725,2.571260929107666,0.5944643020629883,-0.023871032521128654,0.19249863922595978,0.7312965989112854,-0.23837460577487946,-0.5609999895095825,-0.30604228377342224,8.904162406921387,-0.424127459526062,-3.706331253051758,-0.10992970317602158,0.4579358398914337,0.5264114141464233,0.39125630259513855,-0.6212345957756042,-0.5530872941017151,-0.3938029408454895
1798556,9.474041938781738,0.005181924439966679,2.593726634979248,0.4539146423339844,0.05485599860548973,0.2430196851491928,0.7313023209571838,-0.23837710916996002,-0.5609744191169739,-0.3060736060142517,8.938204765319824,-0.4247458577156067,-3.7077298164367676,-0.09489505738019943,0.44149255752563477,0.3071795105934143,0.3912814259529114,-0.6212269067764282,-0.5530415773391724,-0.3938539922237396
1798723,9.467143058776855,0.03650239482522011,2.5785489082336426,0.2828730344772339,-0.021015217527747154,0.2022954821586609,0.7312994599342346,-0.23838789761066437,-0.5609545111656189,-0.3061085045337677,8.948378562927246,-0.3934972286224365,-3.713751792907715,0.003809889080002904,0.3705325424671173,0.19234497845172882,0.3912954330444336,-0.6212198138237,-0.5530033111572266,-0.39390531182289124
1798890,9.497200965881348,0.011021871119737625,2.5842676162719727,0.4191710352897644,-0.029031991958618164,0.26786401867866516,0.7313031554222107,-0.23839040100574493,-0.5609386563301086,-0.30612674355506897,8.959604263305664,-0.3800971806049347,-3.701978921890259,-0.12049494683742523,0.40280452370643616,0.17766888439655304,0.3913015127182007,-0.6212130784988403,-0.5529612898826599,-0.39396873116493225
1799056,9.502007484436035,0.013357134535908699,2.583348512649536,0.4242679476737976,-0.09620130062103271,0.42431914806365967,0.7313034534454346,-0.23841740190982819,-0.5609204173088074,-0.30613842606544495,8.945184707641602,-0.3719434440135956,-3.718014717102051,-0.2892442047595978,0.31413334608078003,0.15331120789051056,0.3912985324859619,-0.6211980581283569,-0.5529404878616333,-0.3940245807170868
1799223,9.493478775024414,0.0009227095870301127,2.5617835521698,0.27048933506011963,-0.04510396718978882,0.48739051818847656,0.7313088774681091,-0.2384568750858307,-0.5608903169631958,-0.30614978075027466,8.942843437194824,-0.3864196240901947,-3.695552110671997,-0.3646223545074463,0.2191614806652069,0.49072012305259705,0.3913060426712036,-0.6212111115455627,-0.5529001355171204,-0.3940531015396118
1799390,9.484272956848145,0.005067485850304365,2.594245195388794,0.19778765738010406,-0.12418317794799805,0.5902125835418701,0.7313227653503418,-0.2384922057390213,-0.560871958732605,-0.30612286925315857,8.952796936035156,-0.39513036608695984,-3.7087719440460205,-0.2659366726875305,0.24319900572299957,0.9339735507965088,0.39133214950561523,-0.6212764382362366,-0.552797257900238,-0.39406853914260864
1799556,9.474892616271973,-0.006397834978997707,2.5666725635528564,0.151108518242836,-0.25231069326400757,0.5758823156356812,0.7313172221183777,-0.2385493516921997,-0.5608599185943604,-0.30611374974250793,8.949955940246582,-0.40378430485725403,-3.677490234375,-0.104948028922081,0.30210819840431213,1.1819428205490112,0.3913882374763489,-0.6213537454605103,-0.5526725649833679,-0.3940659165382385
1799723,9.477364540100098,-0.019404303282499313,2.5532007217407227,0.28060632944107056,-0.32042765617370605,0.7011027932167053,0.731318473815918,-0.2386011779308319,-0.560858428478241,-0.3060729205608368,8.91816234588623,-0.4221743941307068,-3.6928491592407227,0.045007914304733276,0.060080986469984055,1.2308374643325806,0.39142271876335144,-0.6214658617973328,-0.55253666639328,-0.39404550194740295
1799890,9.476449966430664,-0.020226815715432167,2.5485992431640625,0.4392257630825043,-0.20468388497829437,0.699386715888977,0.7313244342803955,-0.23865023255348206,-0.5608433485031128,-0.30604806542396545,8.911251068115234,-0.4529676139354706,-3.6789417266845703,0.33956676721572876,-0.16357551515102386,1.0996493101119995,0.391491562128067,-0.6215162873268127,-0.552495539188385,-0.393955260515213
1800056,9.47622299194336,0.001144386362284422,2.572716474533081,0.3948005139827728,-0.09997916966676712,0.7216697931289673,0.7313281893730164,-0.2387194037437439,-0.5608066320419312,-0.30605262517929077,8.916107177734375,-0.46407291293144226,-3.6838762760162354,0.721823513507843,-0.392924427986145,1.05950129032135,0.3915913701057434,-0.6215307712554932,-0.5525200963020325,-0.3937988877296448
1800223,9.46914291381836,0.006043790373951197,2.564666271209717,0.40893876552581787,-0.027098234742879868,0.7183785438537598,0.7313157320022583,-0.23882494866847992,-0.5607447624206543,-0.3061133921146393,8.926074981689453,-0.4281211495399475,-3.6918022632598877,1.0405607223510742,-0.6094542145729065,0.7082487344741821,0.3916627764701843,-0.6215390563011169,-0.5525750517845154,-0.3936372697353363
1800390,9.478541374206543,0.016290711238980293,2.5957372188568115,0.6028909087181091,0.05419006943702698,0.6237269043922424,0.7313396334648132,-0.2388480305671692,-0.5607075691223145,-0.3061061501502991,8.950896263122559,-0.4108411967754364,-3.731015205383301,1.1367876529693604,-0.5925881862640381,0.5988824963569641,0.39176225662231445,-0.6214974522590637,-0.5526837706565857,-0.3934512734413147
1800556,9.484565734863281,-0.0016727002803236246,2.5860555171966553,0.7300195097923279,0.08536072075366974,0.6375577449798584,0.7313918471336365,-0.23881889879703522,-0.5606883764266968,-0.3060392439365387,8.941359519958496,-0.38340306282043457,-3.724691390991211,0.8079333901405334,-0.4464421272277832,0.19845359027385712,0.3918059468269348,-0.6214545965194702,-0.552778422832489,-0.3933425843715668
1800723,9.480588912963867,0.010624400340020657,2.599367618560791,0.7217850685119629,-0.007120330352336168,0.6448317170143127,0.7314125895500183,-0.2388395220041275,-0.5606591701507568,-0.3060273826122284,8.951690673828125,-0.382328599691391,-3.722724676132202,0.42534369230270386,-0.4172820746898651,0.30659040808677673,0.391822874546051,-0.6214407682418823,-0.5528395771980286,-0.393261581659317
1800890,9.469925880432129,0.021899696439504623,2.58388090133667,0.7039970755577087,-0.0747634619474411,0.5296642184257507,0.7314283847808838,-0.23884379863739014,-0.5606449246406555,-0.30601224303245544,8.978571891784668,-0.3828113377094269,-3.715575695037842,-0.049534961581230164,-0.17531894147396088,0.359122097492218,0.391804575920105,-0.6214641332626343,-0.5528327822685242,-0.3932526707649231
1801056,9.464056968688965,0.0236635971814394,2.6112678050994873,0.6109077334403992,-0.17026042938232422,0.4116153120994568,0.7314422726631165,-0.23882542550563812,-0.5606521964073181,-0.3059799373149872,8.958810806274414,-0.3725406527519226,-3.7142202854156494,-0.5438856482505798,0.07237508147954941,0.6171315312385559,0.3917946517467499,-0.6214947700500488,-0.5527910590171814,-0.39327272772789
1801223,9.464739799499512,0.031227679923176765,2.5492241382598877,0.6457409262657166,-0.24360238015651703,0.3371463716030121,0.7314550876617432,-0.23878777027130127,-0.5606763362884521,-0.30593448877334595,8.936604499816895,-0.39856669306755066,-3.729145050048828,-0.7597494721412659,0.1379563957452774,0.7219899296760559,0.391745388507843,-0.6215842366218567,-0.552676260471344,-0.39334142208099365
1801390,9.517149925231934,0.007048704661428928,2.6084606647491455,0.047044120728969574,-0.14346952736377716,0.40450772643089294,0.7314517498016357,-0.23882605135440826,-0.5606558918952942,-0.3059500753879547,8.945775032043457,-0.3762221038341522,-3.7199738025665283,-1.0950454473495483,0.1711120456457138,0.7742782831192017,0.3916781544685364,-0.6216855645179749,-0.5525467395782471,-0.39343032240867615
1801556,9.48791790008545,-0.030186764895915985,2.563847303390503,0.11247176676988602,-0.2922152578830719,0.6147624254226685,0.7314231395721436,-0.23892688751220703,-0.5606268048286438,-0.3059931993484497,8.96944808959961,-0.4497043788433075,-3.7187514305114746,-1.1125515699386597,0.12547022104263306,0.9248554110527039,0.39162635803222656,-0.6217841506004333,-0.5524261593818665,-0.3934955894947052
1801723,9.441648483276367,-0.009008466266095638,2.5160012245178223,0.20749486982822418,-0.48167240619659424,0.5919671058654785,0.7314048409461975,-0.2389804720878601,-0.5606414675712585,-0.30596789717674255,8.947253227233887,-0.48581817746162415,-3.7102808952331543,-0.607738196849823,0.4403143525123596,1.0876624584197998,0.3916582763195038,-0.6218441128730774,-0.55230712890625,-0.3935359716415405
1801890,9.534433364868164,-0.028030313551425934,2.568260431289673,-0.07971952110528946,-0.0008580253925174475,0.724897027015686,0.7314221858978271,-0.23905308544635773,-0.5605884194374084,-0.3059670925140381,8.851493835449219,-0.4594402313232422,-3.732451915740967,-0.12109684199094772,0.3770637512207031,1.0057659149169922,0.3917332589626312,-0.6218612790107727,-0.5522407293319702,-0.39352747797966003
1802056,9.479598999023438,0.003518987912684679,2.5792644023895264,-0.4168722629547119,-0.3045862019062042,0.21141362190246582,0.7313549518585205,-0.23917940258979797,-0.560550332069397,-0.30609866976737976,8.937967300415039,-0.5048359632492065,-3.7422943115234375,0.5310216546058655,-0.18345095217227936,1.1773710250854492,0.39180344343185425,-0.6219272613525391,-0.5521829128265381,-0.3934344947338104
1802223,9.50735092163086,-0.012888651341199875,2.586230754852295,0.22711420059204102,0.4708831310272217,-0.010014564730226994,0.7313660979270935,-0.23917929828166962,-0.560468316078186,-0.306222528219223,8.943306922912598,-0.41513288021087646,-3.7201874256134033,0.7517391443252563,-0.1148473396897316,0.5688132047653198,0.39188575744628906,-0.6218975186347961,-0.5522237420082092,-0.3933423161506653
1802390,9.48432445526123,-0.019696669653058052,2.605900764465332,0.6920487284660339,0.09431235492229462,0.7838445901870728,0.7314041256904602,-0.23920047283172607,-0.560423731803894,-0.3061969578266144,8.983007431030273,-0.4284403622150421,-3.739332437515259,0.2939377427101135,0.16239091753959656,-0.015265165828168392,0.3919202387332916,-0.6218241453170776,-0.5522832274436951,-0.3933403789997101
1802556,9.483343124389648,0.024581581354141235,2.589783191680908,0.7487680315971375,-0.22973309457302094,0.7016918659210205,0.7314242124557495,-0.2392047643661499,-0.5604264736175537,-0.30614036321640015,8.989001274108887,-0.44298455119132996,-3.73907470703125,0.34667426347732544,0.5753957033157349,-0.09677758067846298,0.391962468624115,-0.6217522621154785,-0.5522900819778442,-0.393402099609375
1802723,9.488421440124512,0.015538620762526989,2.611478805541992,0.36008256673812866,-0.21451915800571442,0.3755013942718506,0.7314255833625793,-0.23920761048793793,-0.5604280829429626,-0.30613192915916443,8.983182907104492,-0.42208850383758545,-3.732614278793335,0.3771149814128876,0.7722932696342468,0.003976371604949236,0.39205634593963623,-0.621636688709259,-0.5523225665092468,-0.39344552159309387
1802890,9.459239959716797,-0.008178786374628544,2.601154327392578,0.15785746276378632,-0.29995033144950867,0.3946724832057953,0.7314271330833435,-0.23921291530132294,-0.5604391694068909,-0.30610373616218567,8.955377578735352,-0.361155241727829,-3.698120594024658,0.1764010637998581,0.9091675877571106,0.37547579407691956,0.3921477794647217,-0.6215775609016418,-0.5522762537002563,-0.39351317286491394
1803056,9.464136123657227,-0.010503320954740047,2.5926895141601562,0.4422224462032318,-0.4489906132221222,0.5534840226173401,0.7314201593399048,-0.2392321079969406,-0.5604621767997742,-0.30606335401535034,8.961565971374512,-0.35775086283683777,-3.676664113998413,-0.421572208404541,1.0058939456939697,0.5405880808830261,0.3921888768672943,-0.6215776801109314,-0.5521551370620728,-0.3936419188976288
1803223,9.463563919067383,0.005847098771482706,2.5778732299804688,0.41564926505088806,-0.11935515701770782,0.48376625776290894,0.7314143180847168,-0.23927319049835205,-0.5604338645935059,-0.3060968816280365,8.917789459228516,-0.3893924057483673,-3.6754355430603027,-0.6420463919639587,1.1315369606018066,0.8519615530967712,0.39223068952560425,-0.6216171383857727,-0.5519756078720093,-0.3937898278236389
1803390,9.453961372375488,-0.025441138073801994,2.567094564437866,-0.09397298842668533,0.022814510390162468,0.36291271448135376,0.7314281463623047,-0.2392948418855667,-0.5603965520858765,-0.3061152994632721,8.929256439208984,-0.4474182426929474,-3.6869328022003174,-0.5048774480819702,0.8714783787727356,1.134187936782837,0.39229798316955566,-0.6216601729393005,-0.5518226027488708,-0.3938690721988678
1803556,9.475975036621094,-0.015130855143070221,2.5721981525421143,0.12240949273109436,0.11587825417518616,0.4742255210876465,0.7314583659172058,-0.23930522799491882,-0.5603519082069397,-0.3061167597770691,8.961371421813965,-0.45368239283561707,-3.6788549423217773,-0.21086937189102173,0.7519568800926208,1.1244168281555176,0.39239245653152466,-0.6216771602630615,-0.5517116785049438,-0.3939036428928375
1803723,9.472343444824219,-0.012241357937455177,2.6065831184387207,0.042088065296411514,0.001978580839931965,0.47481459379196167,0.731453001499176,-0.2393726259469986,-0.5602968335151672,-0.3061777651309967,8.966355323791504,-0.4740718901157379,-3.6658618450164795,0.10848898440599442,0.8662790656089783,0.9526194930076599,0.39251604676246643,-0.6216546893119812,-0.5516287684440613,-0.3939320147037506
1803890,9.485217094421387,0.0005543121369555593,2.591616630554199,0.2440890371799469,-0.16276870667934418,0.416360080242157,0.7314387559890747,-0.23942072689533234,-0.5602699518203735,-0.3062233626842499,8.956233024597168,-0.452084481716156,-3.69140625,0.5125805139541626,0.8965020179748535,0.5726935267448425,0.39263781905174255,-0.6216037273406982,-0.5515707731246948,-0.3939721882343292
1804056,9.508641242980957,-0.013460843823850155,2.570488452911377,0.46932071447372437,-0.045680247247219086,0.44774195551872253,0.7314541339874268,-0.23942232131958008,-0.5602478384971619,-0.30622580647468567,8.944729804992676,-0.45723333954811096,-3.6754891872406006,0.5743071436882019,0.7280858159065247,0.17862938344478607,0.3927311301231384,-0.6215240359306335,-0.5515652894973755,-0.3940126299858093
1804223,9.491872787475586,-0.012198450043797493,2.588923454284668,0.5363619327545166,0.004245305433869362,0.35128459334373474,0.7314819693565369,-0.23938727378845215,-0.5602352023124695,-0.30620986223220825,8.945889472961426,-0.4131699502468109,-3.683565139770508,0.6694455146789551,0.40157511830329895,-0.026393884792923927,0.3927985429763794,-0.6214350461959839,-0.5516093373298645,-0.3940241038799286
1804390,9.46027946472168,0.0033498131670057774,2.55391263961792,0.7435045838356018,-0.35664400458335876,0.3735419809818268,0.7314870357513428,-0.23935094475746155,-0.5602678656578064,-0.30616647005081177,8.971806526184082,-0.39772433042526245,-3.673433542251587,0.510326623916626,0.2987144887447357,0.09679678827524185,0.39288055896759033,-0.6213283538818359,-0.5516876578330994,-0.3940010070800781
1804556,9.5005521774292,-0.029035227373242378,2.5520780086517334,0.46106061339378357,-0.114642433822155,0.5297026038169861,0.7315260767936707,-0.23931434750556946,-0.5602707862854004,-0.30609628558158875,8.910635948181152,-0.3901534676551819,-3.6563611030578613,0.1477276235818863,0.2770973742008209,0.44224801659584045,0.3929304778575897,-0.6212959289550781,-0.551686704158783,-0.39400357007980347
1804723,9.472883224487305,0.018095608800649643,2.5715720653533936,0.232095867395401,-0.4512317180633545,0.24248182773590088,0.7314904928207397,-0.23934228718280792,-0.5602881908416748,-0.3061276078224182,8.922128677368164,-0.4333227276802063,-3.686054229736328,0.10912930220365524,-0.3332212269306183,0.8058331608772278,0.392947256565094,-0.6213304996490479,-0.5516847372055054,-0.39393505454063416
1804890,9.476105690002441,0.01823865808546543,2.5416676998138428,0.648980975151062,-0.07783699780702591,-0.09156540781259537,0.7314762473106384,-0.23929744958877563,-0.560289204120636,-0.30619490146636963,8.87523078918457,-0.38710299134254456,-3.679302215576172,0.1559109091758728,-0.45876187086105347,0.6795241236686707,0.39293092489242554,-0.6213866472244263,-0.5516729950904846,-0.39387911558151245
1805056,9.481523513793945,0.005949691869318485,2.590240240097046,0.8232753276824951,0.04856807366013527,0.4330402910709381,0.7315322756767273,-0.23921436071395874,-0.5602911710739136,-0.30612245202064514,8.906167030334473,-0.3728726804256439,-3.695482015609741,-0.37815868854522705,-1.055332899093628,0.176913321018219,0.39282163977622986,-0.6214208602905273,-0.5517635941505432,-0.39380747079849243
1805223,9.485993385314941,0.018767936155200005,2.57850980758667,0.3714929521083832,-0.21115107834339142,0.4453728199005127,0.73153156042099,-0.2392287701368332,-0.5602838397026062,-0.306126207113266,8.956559181213379,-0.44958776235580444,-3.6904871463775635,-0.515916645526886,-1.095724105834961,0.13547196984291077,0.3926670551300049,-0.6214991211891174,-0.5518097281455994,-0.39377346634864807
1805390,9.48559856414795,0.0013017228338867426,2.592174768447876,0.0702236220240593,-0.011551328003406525,0.23482364416122437,0.7315389513969421,-0.23922745883464813,-0.5602585077285767,-0.3061560392379761,9.001480102539062,-0.43793579936027527,-3.715113639831543,-0.08102576434612274,-0.8378810286521912,0.16189146041870117,0.3925502896308899,-0.6215726137161255,-0.5518261790275574,-0.393750935792923
1805557,9.477742195129395,-0.005078098736703396,2.610337495803833,-0.12069983780384064,-0.3195696473121643,0.19009104371070862,0.7314797043800354,-0.2393168956041336,-0.5602323412895203,-0.3062755763530731,8.997186660766602,-0.4055919647216797,-3.6972153186798096,0.09861529618501663,-0.4860137403011322,0.3833900988101959,0.3925238251686096,-0.6215868592262268,-0.5518660545349121,-0.39369887113571167
1805723,9.467147827148438,-0.018645845353603363,2.6052634716033936,0.32037001848220825,-0.4736684560775757,0.28948110342025757,0.731468141078949,-0.239299938082695,-0.5602707266807556,-0.3062463104724884,8.984026908874512,-0.37414634227752686,-3.7115700244903564,-0.13234080374240875,0.02933294139802456,0.35638144612312317,0.3924887180328369,-0.6216205358505249,-0.5518221855163574,-0.3937422037124634
1805890,9.462154388427734,0.013226188719272614,2.5936636924743652,0.8528196215629578,-0.3335413634777069,0.34442034363746643,0.7314679622650146,-0.2392633557319641,-0.5602986812591553,-0.30622398853302,8.956750869750977,-0.3917234539985657,-3.7342326641082764,-0.2362131029367447,0.29151734709739685,0.33526381850242615,0.39248040318489075,-0.6216194033622742,-0.5517868399620056,-0.39380189776420593
1806057,9.466670989990234,0.009501982480287552,2.5795540809631348,0.6998350620269775,-0.3313259184360504,0.25950148701667786,0.7314656376838684,-0.23922324180603027,-0.5603277683258057,-0.3062075972557068,8.937896728515625,-0.41354188323020935,-3.7027549743652344,-0.35131654143333435,0.3356095850467682,0.4617137014865875,0.39247021079063416,-0.6216338872909546,-0.5517296195030212,-0.39386922121047974
1806223,9.47343921661377,0.008717802353203297,2.579841375350952,0.7466422915458679,-0.225327730178833,0.3128783404827118,0.7314819693565369,-0.23916655778884888,-0.5603504776954651,-0.3061714768409729,8.934835433959961,-0.4222821295261383,-3.7037456035614014,-0.2440633922815323,0.3630920350551605,0.4093998074531555,0.39248520135879517,-0.6216133236885071,-0.5517082810401917,-0.39391666650772095
1806390,9.475479125976562,0.01623598113656044,2.5924856662750244,0.4470376670360565,-0.0800653025507927,0.3179752826690674,0.731494128704071,-0.239145889878273,-0.5603395104408264,-0.306178480386734,8.942052841186523,-0.4008964002132416,-3.702751398086548,-0.2201155424118042,0.47754234075546265,0.5204051733016968,0.39252451062202454,-0.6215839982032776,-0.5516829490661621,-0.3939593434333801
1806557,9.471778869628906,0.025079859420657158,2.600085735321045,0.2566456198692322,-0.04523202404379845,0.2886871099472046,0.7315158247947693,-0.23911455273628235,-0.5603287220001221,-0.30617085099220276,8.956450462341309,-0.38477104902267456,-3.702132225036621,-0.15312552452087402,0.5270389318466187,0.4427987337112427,0.3925614655017853,-0.6215519309043884,-0.551654040813446,-0.394013375043869
1806723,9.478269577026367,0.02188654989004135,2.59655499458313,0.3102273941040039,-0.14052407443523407,0.44094181060791016,0.731537938117981,-0.23909422755241394,-0.5603249669075012,-0.30614060163497925,8.952659606933594,-0.38073328137397766,-3.690971851348877,-0.33713996410369873,0.6619153618812561,0.397617906332016,0.392572283744812,-0.6215434670448303,-0.5515829920768738,-0.3941154479980469
1806890,9.492090225219727,0.0015877517871558666,2.583981990814209,0.3102017939090729,-0.0712929517030716,0.49659818410873413,0.7315563559532166,-0.23909714818000793,-0.5603020191192627,-0.3061363697052002,8.95186996459961,-0.37956663966178894,-3.6974568367004395,-0.3343353569507599,0.573910117149353,0.559733510017395,0.392585813999176,-0.6215511560440063,-0.551504373550415,-0.39419981837272644
1807057,9.495144844055176,-0.011790755204856396,2.588533878326416,0.37058374285697937,-0.030696818605065346,0.6275559067726135,0.7315669655799866,-0.23913715779781342,-0.5602574944496155,-0.3061612546443939,8.968998908996582,-0.3916877508163452,-3.6988072395324707,-0.3380875885486603,0.49171897768974304,0.6613519191741943,0.3925955295562744,-0.6215738654136658,-0.5514189600944519,-0.3942737579345703
1807223,9.479569435119629,-0.012835110537707806,2.582969903945923,0.5043331980705261,-0.11635848879814148,0.6549871563911438,0.7315841913223267,-0.2391546219587326,-0.5602332949638367,-0.3061508536338806,8.9611234664917,-0.41937509179115295,-3.6919167041778564,-0.26302963495254517,0.5387055277824402,0.9970703721046448,0.3926488757133484,-0.6215970516204834,-0.5513271689414978,-0.39431244134902954
1807390,9.488829612731934,-0.014601573348045349,2.5586116313934326,0.3223422169685364,-0.12368372082710266,0.6572410464286804,0.7315809726715088,-0.23921702802181244,-0.5601904392242432,-0.30618828535079956,8.9464750289917,-0.43339109420776367,-3.695903778076172,0.001914549502544105,0.3799964189529419,1.1316394805908203,0.39272013306617737,-0.6216257214546204,-0.5512465834617615,-0.3943089544773102
1807557,9.474238395690918,0.004763508215546608,2.551945686340332,0.35315433144569397,-0.1085209995508194,0.6633496880531311,0.7316069602966309,-0.2392267882823944,-0.5601688027381897,-0.30615830421447754,8.940736770629883,-0.4484400749206543,-3.6686205863952637,0.3623364567756653,0.30132701992988586,1.211179494857788,0.39281827211380005,-0.6216499209403992,-0.551177978515625,-0.39426887035369873
1807723,9.463822364807129,-0.012025270611047745,2.5641884803771973,0.5387182831764221,-0.030043695122003555,0.6974145770072937,0.7316367626190186,-0.23923499882221222,-0.5601373910903931,-0.3061380684375763,8.93628215789795,-0.4558398723602295,-3.6784610748291016,0.4867245554924011,0.11489217728376389,0.9586001038551331,0.3928834795951843,-0.6216779947280884,-0.5511263608932495,-0.3942318856716156
1807890,9.471620559692383,0.001215910422615707,2.592864751815796,0.5027709007263184,-0.0015751809114590287,0.6397219896316528,0.7316576242446899,-0.23925435543060303,-0.5600976347923279,-0.30614566802978516,8.935035705566406,-0.4602925479412079,-3.695469379425049,0.6390047669410706,0.11728694289922714,0.7313129305839539,0.39296504855155945,-0.6216573715209961,-0.5511284470558167,-0.3941799998283386
1808057,9.466206550598145,-0.004795693792402744,2.591212511062622,0.5310088396072388,0.058761924505233765,0.6340487003326416,0.7316911816596985,-0.23925486207008362,-0.5600582361221313,-0.3061375319957733,8.932574272155762,-0.4449050724506378,-3.6812496185302734,0.8385917544364929,0.025670327246189117,0.5979732275009155,0.39306193590164185,-0.6216023564338684,-0.5511799454689026,-0.3940984606742859
1808223,9.471084594726562,-0.00024675831082277,2.594477653503418,0.5385518074035645,0.08077604323625565,0.47087031602859497,0.7317303419113159,-0.23921968042850494,-0.5600311756134033,-0.30612054467201233,8.950895309448242,-0.4227457642555237,-3.672572612762451,0.7368196845054626,-0.07300899177789688,0.4151882231235504,0.39313018321990967,-0.6215460300445557,-0.5512453317642212,-0.3940277397632599
1808390,9.47497844696045,-0.00967006478458643,2.622203826904297,0.5171780586242676,0.07890632003545761,0.5530998110771179,0.7317660450935364,-0.23920509219169617,-0.5599952340126038,-0.30611246824264526,8.976698875427246,-0.3838235139846802,-3.6712450981140137,0.5661238431930542,0.12710942327976227,0.4671051800251007,0.3932107388973236,-0.6214785575866699,-0.5513004660606384,-0.39397650957107544
1808557,9.47260570526123,0.008988925255835056,2.5993635654449463,0.6701114773750305,-0.1153596043586731,0.5373993515968323,0.7318052053451538,-0.23915493488311768,-0.559998631477356,-0.30605190992355347,8.980417251586914,-0.38537219166755676,-3.6859219074249268,0.09258349984884262,0.3601721525192261,0.37697410583496094,0.3932414650917053,-0.6214443445205688,-0.551292359828949,-0.3940109312534332
1808723,9.487563133239746,0.006526578217744827,2.6288092136383057,0.6141348481178284,-0.06432628631591797,0.49378079175949097,0.731833279132843,-0.2391250729560852,-0.5599863529205322,-0.30603039264678955,8.944995880126953,-0.39400482177734375,-3.6770060062408447,-0.211970716714859,0.49022072553634644,0.5971025228500366,0.39327308535575867,-0.6214308142662048,-0.5512475371360779,-0.39406368136405945
1808890,9.481527328491211,-0.012395018711686134,2.610459804534912,0.5088282823562622,0.07383500784635544,0.27041247487068176,0.7318519353866577,-0.23909540474414825,-0.5599562525749207,-0.30606433749198914,8.945207595825195,-0.41646522283554077,-3.680349588394165,-0.503238320350647,0.45808953046798706,0.5811841487884521,0.39326584339141846,-0.6214461922645569,-0.5511757731437683,-0.3941471576690674
1809057,9.46536636352539,-0.016529230400919914,2.5988404750823975,0.5167554020881653,0.12425360083580017,0.15247879922389984,0.7318717837333679,-0.23904910683631897,-0.5599265098571777,-0.3061071038246155,8.981877326965332,-0.4322221279144287,-3.6934001445770264,-0.6546221375465393,0.43536463379859924,0.6178807616233826,0.39326441287994385,-0.6214466691017151,-0.5511252284049988,-0.3942185342311859
1809223,9.472718238830566,-0.01089312694966793,2.594881772994995,0.4950999319553375,0.09509355574846268,0.22666598856449127,0.7318887710571289,-0.23901793360710144,-0.5598936676979065,-0.3061507046222687,8.94987678527832,-0.4472968876361847,-3.6985745429992676,-0.5629798769950867,0.45470863580703735,0.5986520051956177,0.39323025941848755,-0.621496319770813,-0.5510148406028748,-0.39432841539382935
1809390,9.484720230102539,-0.01245593000203371,2.6220321655273438,0.43748417496681213,0.03376394510269165,0.05465110391378403,0.7319018840789795,-0.23896226286888123,-0.5598791837692261,-0.3061896562576294,8.969120025634766,-0.44551393389701843,-3.6727206707000732,-0.5003952980041504,0.5290495157241821,0.4527108669281006,0.3932366669178009,-0.6214747428894043,-0.5509766340255737,-0.3944093883037567
1809557,9.458281517028809,-0.0064763533882796764,2.6221251487731934,0.4887222945690155,-0.1105700209736824,0.1950727105140686,0.7319045662879944,-0.2389315515756607,-0.5598715543746948,-0.3062213063240051,8.955463409423828,-0.45000818371772766,-3.6840834617614746,-0.3584497570991516,0.4904640018939972,0.3726711571216583,0.39322492480278015,-0.6214724779129028,-0.5509195327758789,-0.39450445771217346
1809723,9.46536636352539,0.006683931220322847,2.608074426651001,0.571041464805603,-0.12557905912399292,0.2624084949493408,0.7319067716598511,-0.23890717327594757,-0.5598623752593994,-0.3062516152858734,8.9539794921875,-0.41738271713256836,-3.662311553955078,-0.10654882341623306,0.6298226118087769,0.24047121405601501,0.39325201511383057,-0.6214196085929871,-0.5509012937545776,-0.39458635449409485
1809890,9.456887245178223,0.010674978606402874,2.583266258239746,0.6765786409378052,-0.19518156349658966,0.3108164966106415,0.7319222688674927,-0.23885466158390045,-0.5598739981651306,-0.3062344789505005,8.952255249023438,-0.4062821865081787,-3.6682982444763184,-0.009860888123512268,0.5249002575874329,0.168243408203125,0.3932688534259796,-0.6213697791099548,-0.5508912801742554,-0.39466187357902527
1810057,9.514986038208008,-0.0007867655949667096,2.6370487213134766,0.23395279049873352,-0.04451487213373184,0.29375842213630676,0.7319211363792419,-0.2388639897108078,-0.5598402619361877,-0.30629128217697144,8.94665241241455,-0.36938613653182983,-3.6667282581329346,-0.09174469858407974,0.31885892152786255,0.273242712020874,0.3932819366455078,-0.6213250756263733,-0.5509017705917358,-0.39470478892326355
1810223,9.484895706176758,-0.022469310089945793,2.5798866748809814,0.3063342869281769,-0.29186952114105225,0.539614737033844,0.731914222240448,-0.23889461159706116,-0.5598280429840088,-0.30630627274513245,8.971125602722168,-0.4195248484611511,-3.680128574371338,-0.23628994822502136,0.025298941880464554,0.5110821723937988,0.3932725787162781,-0.6213222146034241,-0.5509017705917358,-0.3947184085845947
1810390,9.433688163757324,-0.010024108923971653,2.557227849960327,0.34468287229537964,-0.5014325976371765,0.5124716758728027,0.7318723201751709,-0.2389618456363678,-0.5598261952400208,-0.30635762214660645,8.97569751739502,-0.42721015214920044,-3.6542866230010986,0.07473145425319672,0.005948549136519432,0.8006977438926697,0.3932884931564331,-0.6213504672050476,-0.5508663654327393,-0.3947076201438904
1810557,9.519980430603027,0.004262767732143402,2.5927467346191406,0.06841792166233063,-0.12013635784387589,0.5627942085266113,0.7318547964096069,-0.2390437126159668,-0.559770405292511,-0.3064371943473816,8.871658325195312,-0.41494688391685486,-3.633639335632324,0.2080327421426773,-0.0696665346622467,1.010542631149292,0.3933286964893341,-0.6213819980621338,-0.5508356690406799,-0.3946608304977417
1810723,9.468839645385742,0.013655786402523518,2.5722994804382324,-0.5723669528961182,-0.6739469170570374,0.20308949053287506,0.7317999005317688,-0.23910482227802277,-0.559794545173645,-0.30647677183151245,8.945073127746582,-0.4813014566898346,-3.663886785507202,0.46533796191215515,-0.8977636098861694,1.2429906129837036,0.3933268189430237,-0.6214826107025146,-0.5508257150650024,-0.3945181965827942
1810890,9.518094062805176,0.008690292946994305,2.5923354625701904,0.011660180054605007,0.14952053129673004,-0.16883890330791473,0.7317821383476257,-0.23909789323806763,-0.5597430467605591,-0.3066183924674988,8.966331481933594,-0.40424594283103943,-3.6778202056884766,0.6525924205780029,-0.8579742908477783,0.8660870790481567,0.39333459734916687,-0.6215245127677917,-0.5508760213851929,-0.39437392354011536
1811057,9.466843605041504,-0.010614112950861454,2.6225361824035645,0.3523474931716919,-0.10241237282752991,0.629361629486084,0.7318002581596375,-0.23911447823047638,-0.5597130060195923,-0.3066170811653137,8.99405288696289,-0.41588786244392395,-3.6534671783447266,0.08168529719114304,-0.6951158046722412,0.1960844248533249,0.3932768702507019,-0.6215197443962097,-0.5509635806083679,-0.3943169116973877
1811223,9.449432373046875,0.03270174562931061,2.6515488624572754,0.5356319546699524,-0.5560516119003296,0.6855046153068542,0.7317900657653809,-0.23913651704788208,-0.5597370266914368,-0.30658024549484253,8.999425888061523,-0.4323384165763855,-3.6840837001800537,-0.019273554906249046,-0.4485935866832733,-0.03932829946279526,0.3932074308395386,-0.6214991211891174,-0.5510392189025879,-0.3943130373954773
1811390,9.464064598083496,0.02872428670525551,2.656067132949829,0.08315803855657578,-0.45476633310317993,0.26713407039642334,0.731734037399292,-0.23920413851737976,-0.5597283244132996,-0.30667710304260254,9.003133773803711,-0.4148936867713928,-3.684755802154541,-0.019811421632766724,-0.2166322022676468,0.008573850616812706,0.39318060874938965,-0.6214396357536316,-0.5511308908462524,-0.3943054676055908
1811557,9.43299388885498,-0.007188176736235619,2.646686553955078,0.023813406005501747,-0.6348491311073303,0.2106708437204361,0.7316967248916626,-0.23921211063861847,-0.5597680807113647,-0.30668753385543823,8.990781784057617,-0.3606569170951843,-3.666595935821533,-0.11788246035575867,0.004373368341475725,0.3003024756908417,0.39314764738082886,-0.6214398145675659,-0.5511277318000793,-0.3943420946598053
1811723,9.430980682373047,0.004440316464751959,2.6222310066223145,0.4454752802848816,-0.9695559144020081,0.443541556596756,0.7316591739654541,-0.2392059564590454,-0.5598548054695129,-0.306623637676239,8.982902526855469,-0.3269924521446228,-3.6504929065704346,-0.6797099113464355,0.3485824763774872,0.3678944706916809,0.3931071162223816,-0.6214402914047241,-0.5510867834091187,-0.3944390118122101
1811890,9.44476318359375,0.022276736795902252,2.618664026260376,0.5906223654747009,-0.7873599529266357,0.5083544254302979,0.7316179871559143,-0.23922917246818542,-0.5599048733711243,-0.3066122531890869,8.93718433380127,-0.4027731120586395,-3.6612634658813477,-0.8913347125053406,0.5007603168487549,0.49285876750946045,0.393069326877594,-0.6214504837989807,-0.551017701625824,-0.39455705881118774
1812057,9.455998420715332,-0.0010980544611811638,2.5991692543029785,0.057775843888521194,-0.6350284218788147,0.4795401692390442,0.7315799593925476,-0.23928099870681763,-0.5599240064620972,-0.3066276013851166,8.91319751739502,-0.4320877492427826,-3.655266761779785,-0.7260560393333435,0.44158217310905457,0.935497522354126,0.39303112030029297,-0.6215392351150513,-0.5508648753166199,-0.3946690261363983
1812223,9.48256778717041,-0.0035940883681178093,2.6053850650787354,0.13134832680225372,-0.5048519372940063,0.41748061776161194,0.7315534353256226,-0.23931249976158142,-0.5599353313446045,-0.3066459596157074,8.946331024169922,-0.4579574167728424,-3.681600332260132,-0.3505610227584839,0.28081122040748596,1.0680047273635864,0.39306482672691345,-0.6215648651123047,-0.5508015155792236,-0.3946833610534668
1812390,9.488582611083984,-0.00623332941904664,2.5855906009674072,-0.0938449427485466,-0.37756961584091187,0.43311718106269836,0.7315452098846436,-0.23933491110801697,-0.5599347949028015,-0.3066488206386566,8.985063552856445,-0.4616871476173401,-3.675443410873413,0.15698663890361786,0.24892345070838928,0.9018167853355408,0.3931071162223816,-0.6215859055519104,-0.5507426261901855,-0.3946901559829712
1812557,9.509675025939941,-0.005489478353410959,2.5955755710601807,-0.04290127009153366,-0.40172237157821655,0.39699041843414307,0.7315256595611572,-0.23936784267425537,-0.5599324703216553,-0.3066740036010742,8.976930618286133,-0.4461855888366699,-3.686422348022461,0.456053227186203,0.2146536260843277,0.6748241782188416,0.39317142963409424,-0.6215579509735107,-0.5507417917251587,-0.3946714699268341
1812723,9.495859146118164,0.0018831441411748528,2.622116804122925,0.3287709951400757,-0.4687892496585846,0.6476491093635559,0.7315256595611572,-0.2393830269575119,-0.559945821762085,-0.3066377341747284,8.954136848449707,-0.4364260137081146,-3.6865689754486084,0.5582735538482666,0.01907505840063095,0.3923545181751251,0.3932095766067505,-0.6215177178382874,-0.5507775545120239,-0.39464688301086426
1812890,9.510382652282715,0.0063999369740486145,2.605637311935425,0.4425554573535919,-0.557447612285614,0.5880868434906006,0.7314864993095398,-0.23944592475891113,-0.5599486827850342,-0.3066767454147339,8.967461585998535,-0.42929866909980774,-3.669188976287842,0.6006113290786743,-0.1540219634771347,0.29516714811325073,0.3932274878025055,-0.6214827299118042,-0.5508283376693726,-0.39461350440979004
1813057,9.453636169433594,0.003264424856752157,2.5760996341705322,0.4679632782936096,-0.801959216594696,0.5787893533706665,0.7314479947090149,-0.23947958648204803,-0.5599949359893799,-0.30665796995162964,8.975186347961426,-0.4014686644077301,-3.6698851585388184,0.6515933871269226,-0.1956169605255127,0.4417229890823364,0.393271267414093,-0.6214372515678406,-0.5508960485458374,-0.39454683661460876
1813223,9.49767780303955,0.0021287044510245323,2.5634357929229736,0.2966526746749878,-0.6513053178787231,0.7175846099853516,0.7314216494560242,-0.23953616619110107,-0.5600126385688782,-0.30664435029029846,8.904999732971191,-0.38839399814605713,-3.6560747623443604,0.3045157790184021,-0.10540906339883804,0.38022691011428833,0.3933027982711792,-0.6213794350624084,-0.5509695410728455,-0.3945035934448242
1813390,9.484101295471191,0.013541503809392452,2.5743789672851562,0.04312538728117943,-0.8850085139274597,0.49679034948349,0.7313671112060547,-0.23959431052207947,-0.5600594878196716,-0.3066434860229492,8.890620231628418,-0.43160754442214966,-3.6921420097351074,0.21546043455600739,-0.794966995716095,0.7465142607688904,0.3932817280292511,-0.6214093565940857,-0.5510287284851074,-0.39439496397972107
1813557,9.472646713256836,0.0026070550084114075,2.5002338886260986,0.12965789437294006,-0.5057355761528015,0.06102866306900978,0.7313236594200134,-0.23959654569625854,-0.5600824356079102,-0.3067033886909485,8.895350456237793,-0.4018497169017792,-3.685866594314575,0.24952532351016998,-0.9264882802963257,0.8306775093078613,0.3932465612888336,-0.6214655637741089,-0.5510738492012024,-0.39427849650382996
1813723,9.468802452087402,0.008579321205615997,2.5835952758789062,0.4511996805667877,-0.274888277053833,0.49909543991088867,0.7313524484634399,-0.23954792320728302,-0.5600990056991577,-0.3066425025463104,8.911484718322754,-0.38195106387138367,-3.692887544631958,-0.4139012098312378,-1.1545180082321167,0.48654526472091675,0.39312490820884705,-0.6215298175811768,-0.5511428117752075,-0.3942018747329712
1813890,9.50199031829834,0.001480549806728959,2.586216449737549,0.15319596230983734,-0.5188364386558533,0.5818756818771362,0.7313199639320374,-0.2396118938922882,-0.5600972771644592,-0.3066731095314026,8.97249984741211,-0.4503239691257477,-3.7238893508911133,-0.6830650568008423,-1.370855689048767,0.3535000681877136,0.39294496178627014,-0.6216226816177368,-0.5512079000473022,-0.39414405822753906
1814057,9.507843971252441,-0.003257924923673272,2.6190569400787354,-0.0033296511974185705,-0.40202975273132324,0.3562150299549103,0.7313024997711182,-0.23963046073913574,-0.5601008534431458,-0.3066937029361725,9.00037670135498,-0.47399792075157166,-3.7382237911224365,-0.16174420714378357,-1.0325632095336914,0.2961532771587372,0.3928098678588867,-0.6216973066329956,-0.5512477159500122,-0.39410513639450073
1814223,9.498246192932129,-0.003039842937141657,2.634967088699341,-0.19242821633815765,-0.5313866138458252,0.3511180877685547,0.7312690019607544,-0.239671990275383,-0.5601108074188232,-0.30672311782836914,9.023396492004395,-0.4420333802700043,-3.7361068725585938,-0.045526571571826935,-0.5323215126991272,0.5397171974182129,0.3927551507949829,-0.6217343211174011,-0.551268994808197,-0.3940713703632355
1814390,9.478551864624023,-0.03425033017992973,2.5894665718078613,0.3143254518508911,-0.7348027229309082,0.3972081243991852,0.7312279343605042,-0.23969271779060364,-0.5601539611816406,-0.30672600865364075,9.011591911315918,-0.4190063178539276,-3.73930025100708,-0.10565238445997238,0.06863562762737274,0.5038465857505798,0.3927452266216278,-0.6217320561408997,-0.5512620806694031,-0.3940944969654083
1814557,9.449612617492676,0.0001816065050661564,2.5955100059509277,0.701704740524292,-0.6685811281204224,0.3478909134864807,0.7312203645706177,-0.23963457345962524,-0.5602225661277771,-0.30666428804397583,8.957695007324219,-0.42490705847740173,-3.7145814895629883,-0.2214474081993103,0.5557251572608948,0.3363651931285858,0.3927611708641052,-0.6216853260993958,-0.5512473583221436,-0.39417314529418945
1814723,9.455363273620605,0.0021286029368638992,2.5819954872131348,0.5900077223777771,-0.631007194519043,0.344215452671051,0.7312037944793701,-0.23960065841674805,-0.560275673866272,-0.30663323402404785,8.962730407714844,-0.45016929507255554,-3.7016632556915283,-0.2202179729938507,0.7458866238594055,0.32464733719825745,0.39280635118484497,-0.621606171131134,-0.5512467622756958,-0.39425379037857056
1814890,9.480669975280762,0.0031422472093254328,2.5794453620910645,0.6343945264816284,-0.6522786021232605,0.4283275306224823,0.7311857342720032,-0.2395789623260498,-0.5603257417678833,-0.3066013753414154,8.950413703918457,-0.4285384714603424,-3.6923956871032715,-0.07971952110528946,1.0044852495193481,0.432502418756485,0.3928612172603607,-0.6215539574623108,-0.551181972026825,-0.39437204599380493
1815057,9.474775314331055,0.021439362317323685,2.568521499633789,0.20206500589847565,-0.5453199744224548,0.3997950553894043,0.7311531901359558,-0.23960846662521362,-0.5603408813476562,-0.30662840604782104,8.949893951416016,-0.4109218120574951,-3.6734859943389893,-0.09527923911809921,1.1105858087539673,0.5683650374412537,0.39295122027397156,-0.6214792728424072,-0.5511307120323181,-0.39447182416915894
1815223,9.465669631958008,0.015320472419261932,2.5739572048187256,-0.13202065229415894,-0.4820438027381897,0.28273218870162964,0.7311037182807922,-0.23967069387435913,-0.5603341460227966,-0.3067101836204529,8.945317268371582,-0.39816814661026,-3.665933132171631,-0.2420528382062912,1.025141954421997,0.6604682803153992,0.3930272161960602,-0.621423065662384,-0.551069974899292,-0.3945695757865906
1815390,9.466205596923828,0.012716888450086117,2.586530923843384,-0.02189885638654232,-0.48833170533180237,0.3753092288970947,0.7310716509819031,-0.23971042037010193,-0.5603378415107727,-0.306748628616333,8.951018333435059,-0.38415467739105225,-3.6710045337677,-0.5007795691490173,0.9335637092590332,0.6444860100746155,0.39307379722595215,-0.6213828921318054,-0.5510038733482361,-0.39467859268188477
1815557,9.496667861938477,-0.004259414970874786,2.5761425495147705,0.12903037667274475,-0.44955408573150635,0.4640316963195801,0.7310500741004944,-0.23974241316318512,-0.5603397488594055,-0.3067716360092163,8.926523208618164,-0.3903827667236328,-3.6675784587860107,-0.756266176700592,0.7747393250465393,0.6219851970672607,0.39307764172554016,-0.6213716864585876,-0.5509262084960938,-0.3948008716106415
1815723,9.490409851074219,-0.008064347319304943,2.586177110671997,0.2737036943435669,-0.35875704884529114,0.533083438873291,0.7310411334037781,-0.2397664189338684,-0.560333251953125,-0.30678609013557434,8.945401191711426,-0.41061627864837646,-3.6757521629333496,-0.8735722899436951,0.5370150208473206,0.7438760995864868,0.3930319547653198,-0.6214260458946228,-0.5508032441139221,-0.39493221044540405
1815890,9.483804702758789,-0.011508473195135593,2.5803377628326416,0.2280874401330948,-0.4803660809993744,0.5332755446434021,0.731016993522644,-0.23980744183063507,-0.5603346824645996,-0.30680903792381287,8.952527046203613,-0.4622499942779541,-3.642003297805786,-0.6327361464500427,0.33701828122138977,0.807408332824707,0.3930036723613739,-0.6214722990989685,-0.5507126450538635,-0.39501404762268066
1816057,9.487871170043945,-0.03354482352733612,2.581674814224243,0.1970064789056778,-0.35970479249954224,0.6036081314086914,0.7310212254524231,-0.23982173204421997,-0.5603325963020325,-0.3067912757396698,8.93658447265625,-0.46015775203704834,-3.65566349029541,-0.09278199821710587,0.07402709871530533,0.815143346786499,0.3930134177207947,-0.6214905977249146,-0.5506818294525146,-0.39501824975013733
1816223,9.4788236618042,-0.017383944243192673,2.5697696208953857,0.09682240337133408,-0.4091116487979889,0.6492114067077637,0.7310207486152649,-0.23985150456428528,-0.5603302121162415,-0.3067733645439148,8.941763877868652,-0.44568806886672974,-3.6592795848846436,0.26080775260925293,-0.20171283185482025,0.7961772084236145,0.39303696155548096,-0.62149578332901,-0.5506972670555115,-0.39496517181396484
1816390,9.464396476745605,-0.009630726650357246,2.5522139072418213,-0.088018037378788,-0.4054618179798126,0.5925817489624023,0.7309960722923279,-0.23992477357387543,-0.5603085160255432,-0.30681464076042175,8.925954818725586,-0.4524235129356384,-3.672870397567749,0.5901229381561279,-0.3833068013191223,0.7638922929763794,0.39306944608688354,-0.6214967370033264,-0.5507372617721558,-0.3948756456375122
1816557,9.473456382751465,-0.02976115420460701,2.574972629547119,-0.07208693772554398,-0.3445420265197754,0.4213096797466278,0.7309691309928894,-0.23997965455055237,-0.5602870583534241,-0.3068749010562897,8.922633171081543,-0.46456390619277954,-3.6720423698425293,0.8479276895523071,-0.6608717441558838,0.759730339050293,0.3931181728839874,-0.6214766502380371,-0.5508337020874023,-0.3947242200374603
1816723,9.465784072875977,-0.004902980290353298,2.5719082355499268,-0.0015239556087180972,-0.3231554329395294,0.4103347063064575,0.7309515476226807,-0.2400149703025818,-0.5602713823318481,-0.3069179952144623,8.947100639343262,-0.41908374428749084,-3.670815944671631,0.8812496662139893,-0.8942801356315613,0.641745388507843,0.3931400179862976,-0.6214650273323059,-0.550948441028595,-0.3945605456829071
1816890,9.470555305480957,-0.0028250485192984343,2.576521158218384,0.09415867924690247,-0.2918951213359833,0.39168858528137207,0.7309327721595764,-0.2400485724210739,-0.5602521300315857,-0.3069714903831482,8.967198371887207,-0.40832263231277466,-3.6824920177459717,0.5394994616508484,-0.7080501914024353,0.475147545337677,0.39314475655555725,-0.6214377284049988,-0.5510609149932861,-0.3944418430328369
1817057,9.46131420135498,0.006633864715695381,2.5897068977355957,0.30793511867523193,-0.24840477108955383,0.2994316816329956,0.7309525609016418,-0.23999212682247162,-0.5602664351463318,-0.30694252252578735,8.984030723571777,-0.391680508852005,-3.6766088008880615,0.13362784683704376,-0.5662711262702942,0.43593454360961914,0.39310818910598755,-0.6214411854743958,-0.5511239171028137,-0.39438489079475403
1817223,9.457874298095703,0.0005618449649773538,2.5967555046081543,0.24766840040683746,-0.4411275088787079,0.28875115513801575,0.7309394478797913,-0.23997630178928375,-0.5602871179580688,-0.3069482743740082,8.987794876098633,-0.4072832465171814,-3.6759157180786133,-0.2611983120441437,-0.20282694697380066,0.4739565849304199,0.3930708169937134,-0.6214432716369629,-0.5511466264724731,-0.39438697695732117
1817390,9.491768836975098,-0.02008398063480854,2.6075809001922607,0.36661380529403687,-0.5230497717857361,0.18810606002807617,0.7309244275093079,-0.23993386328220367,-0.560329258441925,-0.30694034695625305,8.967565536499023,-0.4205726981163025,-3.6869730949401855,-0.5373672246932983,-0.044476453214883804,0.4822039306163788,0.3930186927318573,-0.6214560866355896,-0.5511400699615479,-0.394428014755249
1817557,9.47867202758789,-0.005171597003936768,2.58103084564209,0.2762393355369568,-0.47871413826942444,0.14959734678268433,0.730888307094574,-0.23993246257305145,-0.5603476166725159,-0.3069938123226166,8.968350410461426,-0.4284955561161041,-3.7024452686309814,-0.6878035068511963,0.0667530968785286,0.4783620238304138,0.3929561674594879,-0.6214783191680908,-0.5511100888252258,-0.39449724555015564
1817723,9.480847358703613,-0.009723708033561707,2.5877506732940674,0.3673437237739563,-0.5028284788131714,0.0504378043115139,0.7308412790298462,-0.23992879688739777,-0.5603695511817932,-0.30706867575645447,8.969049453735352,-0.44573837518692017,-3.690735101699829,-0.639049768447876,0.11376521736383438,0.4927179515361786,0.392901211977005,-0.6214973330497742,-0.5510774850845337,-0.3945672810077667
1817890,9.496805191040039,0.0011727085802704096,2.5823075771331787,0.4483567178249359,-0.48465630412101746,-0.0017288574017584324,0.7308032512664795,-0.2398984730243683,-0.5604006052017212,-0.30712610483169556,8.954916000366211,-0.42448532581329346,-3.7057838439941406,-0.38877514004707336,0.24716894328594208,0.2874705195426941,0.3928810954093933,-0.621460497379303,-0.5510903000831604,-0.3946273922920227
1818057,9.492591857910156,-0.011822941713035107,2.5540270805358887,0.6065919995307922,-0.46873801946640015,0.12942735850811005,0.7308008670806885,-0.23981936275959015,-0.5604508519172668,-0.3071019649505615,8.948797225952148,-0.4189741313457489,-3.67216420173645,-0.3466678559780121,0.18229196965694427,0.014746510423719883,0.39283129572868347,-0.6214200258255005,-0.5511146783828735,-0.39470669627189636
1818223,9.471344947814941,-0.009276681579649448,2.5815138816833496,0.6752980351448059,-0.4205605089664459,0.19545689225196838,0.7307963967323303,-0.23975661396980286,-0.5604879260063171,-0.307094007730484,8.96072769165039,-0.4209873080253601,-3.68273663520813,-0.2508123219013214,0.2119770646095276,-0.10202818363904953,0.3927863836288452,-0.6213622093200684,-0.551154375076294,-0.394787073135376
1818390,9.478286743164062,0.003358884248882532,2.5774741172790527,0.737434446811676,-0.5126253366470337,0.2547246813774109,0.730780303478241,-0.23971284925937653,-0.560528039932251,-0.3070933520793915,8.964058876037598,-0.4217171370983124,-3.673214912414551,-0.014317499473690987,0.20183447003364563,-0.02355087548494339,0.3927755355834961,-0.621285617351532,-0.5512150526046753,-0.3948337137699127
1818557,9.476088523864746,0.00864635780453682,2.559779405593872,0.5865244269371033,-0.5527604222297668,0.4203619956970215,0.7307736873626709,-0.23968039453029633,-0.5605685114860535,-0.3070603311061859,8.947223663330078,-0.3776009976863861,-3.6952664852142334,0.01826825737953186,0.16500341892242432,-0.0007171555189415812,0.39274823665618896,-0.6212344765663147,-0.5512504577636719,-0.3948918282985687
1818723,9.49290657043457,0.01828128844499588,2.5679924488067627,0.5063310265541077,-0.3722549378871918,0.24486380815505981,0.7307700514793396,-0.2396361529827118,-0.5605915188789368,-0.30706143379211426,8.932686805725098,-0.35583263635635376,-3.7037813663482666,-0.12381178885698318,0.18494288623332977,0.24381369352340698,0.3927331268787384,-0.6211966872215271,-0.5512699484825134,-0.394939124584198
1818890,9.51345157623291,-0.025401800870895386,2.5862808227539062,-0.04139012098312378,-0.46474239230155945,0.44259384274482727,0.7307478189468384,-0.2396717369556427,-0.5605924129486084,-0.3070850074291229,8.975350379943848,-0.36052101850509644,-3.6870625019073486,-0.4758327007293701,-0.14937324821949005,0.39975661039352417,0.3926641643047333,-0.6212154030799866,-0.5512690544128418,-0.3949795365333557
1819057,9.434331893920898,-0.015899818390607834,2.5628280639648438,0.17734874784946442,-0.5513262748718262,0.6056827306747437,0.730729341506958,-0.23970907926559448,-0.5606030821800232,-0.30708035826683044,8.961432456970215,-0.4279511868953705,-3.684617042541504,-0.45557308197021484,0.07283611595630646,0.854971170425415,0.3926341235637665,-0.6212660670280457,-0.5512046217918396,-0.39501965045928955
1819223,9.480995178222656,0.017630452290177345,2.501230001449585,0.35270607471466064,-0.684563398361206,0.5823110938072205,0.7307019233703613,-0.2397378534078598,-0.5606337785720825,-0.3070671558380127,8.939008712768555,-0.4085626006126404,-3.664858102798462,0.09979347884654999,0.08641084283590317,1.2614063024520874,0.3926917314529419,-0.6212981343269348,-0.5511561632156372,-0.3949795961380005
1819390,9.542366981506348,0.004834501538425684,2.553600311279297,-0.6366292238235474,-0.4278985559940338,0.6071810126304626,0.7306680679321289,-0.23985053598880768,-0.5605977177619934,-0.30712562799453735,8.854023933410645,-0.4527053236961365,-3.6926443576812744,0.10805357247591019,-0.40693458914756775,1.2168657779693604,0.39270979166030884,-0.6213524341583252,-0.5511428117752075,-0.39489492774009705
1819557,9.53372859954834,0.02148585394024849,2.5493388175964355,-0.5347803235054016,-0.3202739655971527,0.1210264042019844,0.7306185364723206,-0.2399192899465561,-0.560566782951355,-0.30724596977233887,8.96211051940918,-0.4503938555717468,-3.701967716217041,0.6186299324035645,-0.8495219945907593,1.217966914176941,0.3927292227745056,-0.6214156746864319,-0.5511696338653564,-0.39473843574523926
1819723,9.492307662963867,-0.004412977956235409,2.5966808795928955,0.11070450395345688,0.09558019787073135,0.48616108298301697,0.7306371927261353,-0.23993858695030212,-0.5605044364929199,-0.30730029940605164,9.011384963989258,-0.41085317730903625,-3.696716547012329,0.5011957287788391,-0.7081014513969421,0.4584992825984955,0.39272916316986084,-0.6213855147361755,-0.5512862801551819,-0.3946231007575989
1819890,9.455798149108887,0.002997042378410697,2.5881662368774414,0.6151977777481079,-0.22034603357315063,0.8773181438446045,0.7306773066520691,-0.23992791771888733,-0.5604943037033081,-0.30723196268081665,9.023736953735352,-0.42237842082977295,-3.6826529502868652,0.05110373720526695,-0.08137153834104538,-0.07270164042711258,0.3926737606525421,-0.6213484406471252,-0.5513360500335693,-0.39466696977615356
1820057,9.463465690612793,0.01233051810413599,2.608267068862915,0.5965262651443481,-0.4082280397415161,0.6577790379524231,0.7306830883026123,-0.23992577195167542,-0.5605036616325378,-0.30720284581184387,8.97315502166748,-0.4240666627883911,-3.6816840171813965,0.22845889627933502,0.40829843282699585,-0.09440840780735016,0.39268308877944946,-0.6212571859359741,-0.5513864159584045,-0.3947310745716095
1820223,9.448171615600586,0.018256573006510735,2.592015504837036,0.5905455946922302,-0.44198551774024963,0.43393674492836,0.7306716442108154,-0.23991544544696808,-0.5605204701423645,-0.3072076141834259,8.968730926513672,-0.38022592663764954,-3.6799209117889404,0.2920423746109009,0.62583988904953,-0.011436069384217262,0.39271533489227295,-0.6211633086204529,-0.5514124631881714,-0.3948102295398712
1820390,9.449949264526367,-0.008393037132918835,2.5942695140838623,0.3922392725944519,-0.4614511728286743,0.4905664026737213,0.7306544780731201,-0.239931121468544,-0.5605283975601196,-0.30722153186798096,8.921850204467773,-0.3464522361755371,-3.642606735229492,-0.06463364511728287,0.692689061164856,0.23705193400382996,0.3927311599254608,-0.6211105585098267,-0.5513864159584045,-0.39491382241249084
1820557,9.456610679626465,-0.004555417224764824,2.5690457820892334,0.6985800862312317,-0.44639095664024353,0.4507899284362793,0.7306481599807739,-0.23990924656391144,-0.5605500936508179,-0.30721378326416016,8.940561294555664,-0.35795703530311584,-3.6692187786102295,-0.5102691054344177,0.6883605718612671,0.3852342665195465,0.3927214741706848,-0.6210858821868896,-0.551332414150238,-0.3950376808643341
1820723,9.444931983947754,0.012591825798153877,2.596569776535034,0.36099177598953247,-0.15148630738258362,0.4569241404533386,0.7306614518165588,-0.23989740014076233,-0.5605309009552002,-0.30722662806510925,8.951904296875,-0.410395085811615,-3.6683387756347656,-0.6910690069198608,0.6418094635009766,0.7402262091636658,0.39272236824035645,-0.6210877895355225,-0.5512557625770569,-0.39514073729515076
1820890,9.472801208496094,0.004269991535693407,2.5813815593719482,0.10381466150283813,-0.4660358130931854,0.37788334488868713,0.7306364178657532,-0.23992101848125458,-0.5605359077453613,-0.30725881457328796,8.986309051513672,-0.4266711473464966,-3.664494752883911,-0.28861668705940247,0.6832507252693176,0.9690629839897156,0.39276689291000366,-0.6210950016975403,-0.5511649250984192,-0.3952118158340454
1821057,9.496346473693848,0.0012802821584045887,2.5883371829986572,0.11349625140428543,-0.5301060080528259,0.40778619050979614,0.7306066155433655,-0.23995116353034973,-0.5605459809303284,-0.3072874844074249,8.972681045532227,-0.42170214653015137,-3.653787612915039,-0.02531815506517887,0.8279113173484802,1.0502808094024658,0.3928452432155609,-0.6210950613021851,-0.551062285900116,-0.3952772319316864
1821223,9.506878852844238,0.008722369559109211,2.5779805183410645,-0.012140418402850628,-0.6871247291564941,0.39635008573532104,0.7305538654327393,-0.24001044034957886,-0.5605632662773132,-0.30733516812324524,8.979804039001465,-0.428775429725647,-3.6523451805114746,0.062450163066387177,0.5603609681129456,0.8650240302085876,0.3929077982902527,-0.621078610420227,-0.5510103106498718,-0.3953132629394531
1821390,9.505359649658203,6.48525747237727e-05,2.562192916870117,0.14660069346427917,-0.8803724646568298,0.5537530183792114,0.7304943203926086,-0.240080788731575,-0.5605997443199158,-0.3073554039001465,8.98477840423584,-0.4178868532180786,-3.6501305103302,0.12114166468381882,0.45345354080200195,0.5231969952583313,0.3929629325866699,-0.6210166215896606,-0.5510228276252747,-0.39533838629722595
1821557,9.509651184082031,-0.0068158600479364395,2.5509886741638184,0.41368988156318665,-0.757201075553894,0.6622483134269714,0.7304655909538269,-0.2401135116815567,-0.5606367588043213,-0.30733048915863037,8.928205490112305,-0.41501885652542114,-3.6426031589508057,0.15310631692409515,0.11154972016811371,0.5384877920150757,0.3929717242717743,-0.6210047006607056,-0.5510194301605225,-0.3953530192375183
1821723,9.472189903259277,-0.011033633723855019,2.548097610473633,0.6710718870162964,-0.8105650544166565,0.6630935668945312,0.7304537296295166,-0.24009908735752106,-0.5607008337974548,-0.3072532117366791,8.935453414916992,-0.40759459137916565,-3.647041082382202,0.18806762993335724,-0.3890312612056732,0.4266243278980255,0.3929322063922882,-0.6210169792175293,-0.5510493516921997,-0.3953314423561096
1821890,9.460522651672363,-0.0005183840985409915,2.4961354732513428,0.6327425837516785,-0.7354303002357483,0.784715473651886,0.7304369211196899,-0.24012331664562225,-0.5607386231422424,-0.3072052001953125,8.889020919799805,-0.4178154468536377,-3.647559881210327,0.037234462797641754,-0.4333797097206116,0.5260527729988098,0.392890602350235,-0.621035099029541,-0.5510793328285217,-0.39530256390571594
1822057,9.492607116699219,0.01370188593864441,2.5486032962799072,0.49700799584388733,-0.6585793495178223,0.6248794198036194,0.7304199934005737,-0.24013519287109375,-0.560772716999054,-0.3071739077568054,8.862479209899902,-0.4483407139778137,-3.6525516510009766,0.25192007422447205,-1.4687345027923584,0.7659285664558411,0.39279404282569885,-0.621126651763916,-0.5511512756347656,-0.3951543867588043
1822224,9.476872444152832,0.02883225679397583,2.518704414367676,0.6295537352561951,-0.6545068621635437,0.27305057644844055,0.7303820252418518,-0.24012233316898346,-0.5608166456222534,-0.30719396471977234,8.924070358276367,-0.3921893537044525,-3.6673941612243652,0.592338502407074,-1.657538652420044,0.6675117015838623,0.3927304446697235,-0.621171772480011,-0.5512971878051758,-0.3949432075023651
1822390,9.486346244812012,-0.0014534315560013056,2.557634115219116,0.8898940086364746,-0.2789350748062134,0.6840959787368774,0.7304077744483948,-0.24008795619010925,-0.5608227849006653,-0.3071483373641968,8.907394409179688,-0.37246736884117126,-3.6782891750335693,-0.09767402708530426,-1.6192219257354736,0.24459487199783325,0.3925679326057434,-0.6212394833564758,-0.5514168739318848,-0.3948308825492859
1822557,9.492594718933105,0.0008120496058836579,2.5919113159179688,0.6294768452644348,-0.5063758492469788,0.8605674505233765,0.7304239869117737,-0.24008698761463165,-0.5608435869216919,-0.30707257986068726,8.941503524780273,-0.4304458200931549,-3.722560405731201,-0.21131756901741028,-1.7758564949035645,0.21380840241909027,0.39238694310188293,-0.6213120222091675,-0.551551342010498,-0.39470893144607544
1822724,9.516914367675781,-0.010654697194695473,2.5715465545654297,0.4427347183227539,-0.3858809173107147,0.67826908826828,0.7304316163063049,-0.24009279906749725,-0.5608462691307068,-0.30704525113105774,9.007834434509277,-0.4417724609375,-3.734362840652466,0.08142916858196259,-1.5739644765853882,0.5596055388450623,0.39226794242858887,-0.6213838458061218,-0.5516601204872131,-0.3945620357990265
1822890,9.497977256774902,-0.0038122369442135096,2.611607551574707,0.12037327885627747,-0.34187832474708557,0.6431540250778198,0.7304298281669617,-0.24012812972068787,-0.5608310699462891,-0.3070497214794159,9.031279563903809,-0.43633008003234863,-3.7293524742126465,0.24946129322052002,-1.1024730205535889,0.8243255615234375,0.3922240436077118,-0.6214314699172974,-0.551737904548645,-0.3944220542907715
1823057,9.477823257446289,-0.019733188673853874,2.5800631046295166,0.2137315571308136,-0.8030989766120911,0.5710030794143677,0.7303860783576965,-0.24017652869224548,-0.5608674883842468,-0.3070491850376129,9.027632713317871,-0.4290163516998291,-3.7306830883026123,0.21692034602165222,-0.4526532292366028,0.8788421154022217,0.39222583174705505,-0.621457576751709,-0.5517607927322388,-0.39434701204299927
1823224,9.465150833129883,0.003754395991563797,2.5692546367645264,0.6443706750869751,-0.809207558631897,0.51811283826828,0.7303500771522522,-0.24018359184265137,-0.5609217882156372,-0.3070299029350281,8.986006736755371,-0.4190117120742798,-3.7137680053710938,0.2376922369003296,0.19315174221992493,0.7995836138725281,0.39226725697517395,-0.6214514374732971,-0.5517412424087524,-0.39434298872947693
1823390,9.483612060546875,0.006072535645216703,2.541423797607422,0.6908833384513855,-0.8697304725646973,0.44022467732429504,0.7303234934806824,-0.24015197157859802,-0.5610005259513855,-0.30697402358055115,8.937064170837402,-0.4217563569545746,-3.7181220054626465,0.10937263071537018,0.41757023334503174,0.4772605895996094,0.3922933042049408,-0.621417760848999,-0.5517261028289795,-0.39439108967781067
1823557,9.491127967834473,0.010137408040463924,2.547858715057373,0.7534359097480774,-0.7473785281181335,0.498935341835022,0.7302935719490051,-0.24014633893966675,-0.5610524415969849,-0.306954562664032,8.9096097946167,-0.4428631067276001,-3.7109475135803223,0.11131919175386429,0.4065183103084564,0.36369389295578003,0.392304003238678,-0.6213864684104919,-0.5517095327377319,-0.39445289969444275
1823724,9.48747730255127,0.0192471481859684,2.5207648277282715,0.5527669191360474,-0.4185371696949005,0.2549552321434021,0.7302825450897217,-0.24010899662971497,-0.5610771775245667,-0.3069651424884796,8.910066604614258,-0.42692404985427856,-3.72929048538208,0.2567608654499054,0.20346087217330933,0.3698025047779083,0.3923250436782837,-0.6213420033454895,-0.5517320036888123,-0.39447054266929626
1823890,9.48176383972168,0.01670408993959427,2.546184539794922,0.3838639259338379,-0.3282011151313782,0.1865949183702469,0.7302549481391907,-0.24010798335075378,-0.5610750913619995,-0.3070353865623474,8.946351051330566,-0.38245391845703125,-3.7030017375946045,0.12710943818092346,0.07197808474302292,0.18090888857841492,0.3923220932483673,-0.6212842464447021,-0.5517868995666504,-0.394487589597702
1824057,9.480146408081055,0.014168933033943176,2.529104471206665,0.47267597913742065,-0.4519873559474945,0.21106787025928497,0.7302446961402893,-0.2400612235069275,-0.5611083507537842,-0.30703556537628174,8.954769134521484,-0.370802640914917,-3.715235948562622,-0.13998620212078094,0.23788434267044067,0.18163883686065674,0.392312616109848,-0.6212264895439148,-0.5518237948417664,-0.39453667402267456
1824224,9.511438369750977,0.00807125959545374,2.5379557609558105,0.5271029472351074,-0.3014102280139923,0.27753275632858276,0.7302376627922058,-0.24003294110298157,-0.5611146092414856,-0.3070625960826874,8.914258003234863,-0.38195669651031494,-3.694797992706299,-0.4395011365413666,0.10691381990909576,0.1763114333152771,0.3922632336616516,-0.6211958527565002,-0.5518478751182556,-0.3946000933647156
1824390,9.505677223205566,0.0005650407401844859,2.533292293548584,0.4915653169155121,-0.1501416265964508,0.3774351477622986,0.7302478551864624,-0.240006685256958,-0.5611013770103455,-0.30708327889442444,8.950932502746582,-0.39664405584335327,-3.6935181617736816,-0.573570728302002,-0.208372101187706,0.436690092086792,0.39218008518218994,-0.6212265491485596,-0.5518420338630676,-0.39464253187179565
1824557,9.510915756225586,-0.009784502908587456,2.5438671112060547,0.39585065841674805,-0.14184312522411346,0.4382396638393402,0.7302601933479309,-0.23999111354351044,-0.5610827803611755,-0.3071000874042511,8.97916316986084,-0.4071732759475708,-3.70693302154541,-0.5644654631614685,-0.0889400988817215,0.692253589630127,0.3921167552471161,-0.6212774515151978,-0.5517988801002502,-0.39468592405319214
1824724,9.507243156433105,-0.009956161491572857,2.5404553413391113,0.4259968101978302,-0.2425650805234909,0.41841548681259155,0.7302643656730652,-0.23997487127780914,-0.5610769987106323,-0.3071134090423584,8.98239517211914,-0.43733909726142883,-3.7135937213897705,-0.2957499027252197,-0.09025916457176208,0.8577245473861694,0.39210543036460876,-0.6213001608848572,-0.5517862439155579,-0.39467892050743103
1824890,9.482038497924805,-0.018542634323239326,2.5542702674865723,0.5682240724563599,-0.20683534443378448,0.5465686321258545,0.7302989363670349,-0.23992197215557098,-0.5610827803611755,-0.3070623278617859,8.972135543823242,-0.44227278232574463,-3.6872754096984863,-0.030287019908428192,0.057199567556381226,0.983418881893158,0.3921295404434204,-0.621320366859436,-0.5517564415931702,-0.3946648836135864
1825057,9.473219871520996,-0.027845270931720734,2.558152675628662,0.7172003388404846,-0.2690742015838623,0.7119113206863403,0.730338454246521,-0.23987405002117157,-0.5610938668251038,-0.3069849908351898,8.942322731018066,-0.47073572874069214,-3.687338352203369,0.24200795590877533,0.13853266835212708,0.8968605995178223,0.3921814560890198,-0.6213114857673645,-0.5517476201057434,-0.39463961124420166
1825224,9.485400199890137,-0.01736035943031311,2.559041976928711,0.7967278957366943,-0.23830057680606842,0.7015382647514343,0.7303740978240967,-0.2398318648338318,-0.561098575592041,-0.30692461133003235,8.937399864196777,-0.45815157890319824,-3.7088027000427246,0.5490145683288574,-0.030427882447838783,0.6144806146621704,0.3922259211540222,-0.6212804317474365,-0.5517821311950684,-0.3945961594581604
1825390,9.475628852844238,-0.01303185150027275,2.5483927726745605,0.8490161299705505,-0.2204228788614273,0.7584880590438843,0.7304108142852783,-0.23979699611663818,-0.5610978007316589,-0.3068658709526062,8.952693939208984,-0.4476988613605499,-3.693347215652466,0.9222683906555176,0.11860600858926773,0.472419798374176,0.39230260252952576,-0.6212154626846313,-0.5518340468406677,-0.3945496678352356
1825557,9.48880672454834,-0.01670166291296482,2.5791304111480713,0.7671579718589783,-0.3165729343891144,0.77768474817276,0.730446457862854,-0.23976078629493713,-0.5611097812652588,-0.3067874610424042,8.970992088317871,-0.4306601881980896,-3.6785435676574707,0.9968270659446716,0.24848802387714386,0.4140484929084778,0.39239200949668884,-0.6211357116699219,-0.5518860816955566,-0.3945133090019226
1825724,9.483538627624512,-0.008811688981950283,2.530935764312744,0.9195408225059509,-0.38702070713043213,0.779067873954773,0.7304667830467224,-0.23973944783210754,-0.561123788356781,-0.3067302107810974,8.94373893737793,-0.4169435501098633,-3.6749703884124756,0.9039425849914551,0.3361986577510834,0.5071890354156494,0.39249399304389954,-0.621052086353302,-0.5519327521324158,-0.39447838068008423
1825890,9.476161003112793,-0.0009097634465433657,2.577021598815918,0.8732970356941223,-0.3071218729019165,0.7046374082565308,0.730495810508728,-0.2396998107433319,-0.5611358880996704,-0.3066699802875519,8.941146850585938,-0.3935944139957428,-3.682769298553467,0.7198897004127502,0.18162605166435242,0.5166913866996765,0.3925642669200897,-0.6209926009178162,-0.5519721508026123,-0.39444711804389954
1826057,9.498492240905762,-0.009894967079162598,2.5557098388671875,0.6981829404830933,-0.19260749220848083,0.6421679854393005,0.7305259108543396,-0.23966746032238007,-0.5611304640769958,-0.30663323402404785,8.963937759399414,-0.3932182192802429,-3.680067300796509,0.3434983193874359,0.13446028530597687,0.6307063698768616,0.39261308312416077,-0.6209530830383301,-0.5519973039627075,-0.3944251835346222
1826224,9.473108291625977,-0.0035154118668287992,2.538424015045166,0.6444091200828552,-0.2391841858625412,0.47522440552711487,0.730542004108429,-0.2396310269832611,-0.5611327886581421,-0.3066192865371704,8.948209762573242,-0.38922005891799927,-3.6799962520599365,-0.1441354602575302,0.02912803925573826,0.6950709819793701,0.39260730147361755,-0.6209606528282166,-0.5519857406616211,-0.39443525671958923
1826390,9.483054161071777,0.0037907797377556562,2.533442497253418,0.6020585298538208,-0.12365809828042984,0.4170323610305786,0.7305685877799988,-0.23957960307598114,-0.5611271858215332,-0.3066065311431885,8.958270072937012,-0.3972594141960144,-3.683736801147461,-0.3781074583530426,0.023890241980552673,0.6252507567405701,0.3925837576389313,-0.6209652423858643,-0.5519797205924988,-0.39445972442626953
1826557,9.496164321899414,-0.004674103111028671,2.574794054031372,0.4970720410346985,-0.1446477174758911,0.38707828521728516,0.7305718064308167,-0.2395685762166977,-0.5611068606376648,-0.3066445291042328,8.936371803283691,-0.41275766491889954,-3.671327590942383,-0.7562149167060852,-0.0878131315112114,0.6211527585983276,0.39250311255455017,-0.6210159659385681,-0.5519378185272217,-0.3945188522338867
1826724,9.504361152648926,-0.04253183305263519,2.552689552307129,0.30497682094573975,-0.11635848879814148,0.3966062366962433,0.7305842041969299,-0.23955334722995758,-0.561085045337677,-0.30666685104370117,8.93684196472168,-0.45479005575180054,-3.690866470336914,-0.9795320630073547,-0.22790177166461945,0.4092589020729065,0.3923887610435486,-0.6210577487945557,-0.551924467086792,-0.3945854604244232
1826890,9.443633079528809,-0.022791169583797455,2.5305278301239014,0.6912931203842163,-0.18914978206157684,0.3045157790184021,0.7305982708930969,-0.23949609696865082,-0.5610899925231934,-0.3066689074039459,8.941965103149414,-0.46468567848205566,-3.707378625869751,-0.5660021901130676,-0.44890096783638,0.4822295010089874,0.39228951930999756,-0.6211063265800476,-0.5519275069236755,-0.39460355043411255
1827057,9.483781814575195,0.009387260302901268,2.511378288269043,0.8046934008598328,0.252368301153183,0.4526212215423584,0.7306549549102783,-0.2394268661737442,-0.5610446929931641,-0.3066709041595459,8.909551620483398,-0.4358464181423187,-3.68666934967041,-0.343722403049469,-0.40551304817199707,0.4326432943344116,0.3922367990016937,-0.6211003661155701,-0.5519855618476868,-0.39458417892456055
1827224,9.560725212097168,-0.011415253393352032,2.5600388050079346,-0.12385020405054092,-0.04414348304271698,0.0591077022254467,0.730636477470398,-0.23943883180618286,-0.5610027313232422,-0.306782066822052,8.930009841918945,-0.4722267687320709,-3.725992441177368,-0.07784979790449142,-0.8963547348976135,0.41901731491088867,0.3921574056148529,-0.6211208701133728,-0.5520715117454529,-0.3945103883743286
1827390,9.504925727844238,-0.010328002274036407,2.561736822128296,0.4647616147994995,0.0742063894867897,-0.15344567596912384,0.7306408286094666,-0.2393617480993271,-0.5609837174415588,-0.30686676502227783,8.994579315185547,-0.4365108013153076,-3.7233293056488037,0.39197033643722534,-0.7356991767883301,0.23264652490615845,0.39211344718933105,-0.6211032271385193,-0.5521776676177979,-0.39443323016166687
1827557,9.482845306396484,-0.03149847313761711,2.6124355792999268,0.7132048010826111,0.290966659784317,0.3911122977733612,0.7307003736495972,-0.2392847239971161,-0.5609373450279236,-0.3068699538707733,9.01043701171875,-0.4028666317462921,-3.718318462371826,0.16429266333580017,-0.20190492272377014,-0.27679643034935,0.3920647203922272,-0.621024489402771,-0.5522894263267517,-0.3944494426250458
1827724,9.444817543029785,-0.008771573193371296,2.585665464401245,0.789517879486084,-0.07873343676328659,0.5703499913215637,0.7307462692260742,-0.23921984434127808,-0.5609318614006042,-0.3068210482597351,9.000176429748535,-0.43963387608528137,-3.7190911769866943,0.02823159657418728,0.31579816341400146,-0.34315893054008484,0.39205026626586914,-0.6209062933921814,-0.5523834824562073,-0.3945181369781494
1827890,9.4766206741333,0.006058095023036003,2.569841146469116,0.6878610253334045,-0.08176854252815247,0.4180184602737427,0.7307729125022888,-0.2391699105501175,-0.5609203577041626,-0.3068176507949829,8.981125831604004,-0.40402916073799133,-3.718966007232666,0.3184875249862671,0.5504361391067505,-0.10487120598554611,0.3920826315879822,-0.6207938194274902,-0.5524404644966125,-0.39458325505256653
1828057,9.477499961853027,0.014362008310854435,2.56075382232666,0.5391920804977417,0.05239718034863472,0.37098070979118347,0.7308082580566406,-0.23911651968955994,-0.5608934760093689,-0.30682408809661865,8.961318969726562,-0.35769757628440857,-3.7284927368164062,0.2573755979537964,0.8437142968177795,0.2284332513809204,0.3921547532081604,-0.6206905245780945,-0.5524520874023438,-0.3946578800678253
1828224,9.471963882446289,-0.011458167806267738,2.548630714416504,0.3150169849395752,-0.08310040086507797,0.49795567989349365,0.7308320999145508,-0.2391003966331482,-0.5608679056167603,-0.3068265914916992,8.927155494689941,-0.3449409604072571,-3.6934947967529297,-0.043067753314971924,0.962992787361145,0.566123902797699,0.392215758562088,-0.6206413507461548,-0.5523902177810669,-0.39476102590560913
1828390,9.471463203430176,0.007939180359244347,2.540637731552124,0.5712592005729675,0.2255518138408661,0.4314779043197632,0.7308796048164368,-0.23905202746391296,-0.5608172416687012,-0.30684399604797363,8.933940887451172,-0.3830389678478241,-3.7161216735839844,-0.2802925705909729,0.9279673099517822,0.7653523683547974,0.39228329062461853,-0.6205979585647583,-0.5523279309272766,-0.3948493003845215
1828557,9.452792167663574,0.017251623794436455,2.566465139389038,0.3276953101158142,0.3810465335845947,0.4537481367588043,0.7309346199035645,-0.23901969194412231,-0.5607404708862305,-0.30687835812568665,8.943381309509277,-0.40084707736968994,-3.6985206604003906,-0.34145569801330566,0.9433477520942688,0.9952518343925476,0.3923527002334595,-0.6205850839614868,-0.5522300004959106,-0.3949376046657562
1828724,9.477518081665039,0.006580221466720104,2.584542989730835,0.021546682342886925,0.3903951644897461,0.4708958864212036,0.7309769988059998,-0.23902693390846252,-0.5606458187103271,-0.3069448471069336,8.969084739685059,-0.4272933304309845,-3.6888086795806885,-0.08059035986661911,0.9774125814437866,1.0285099744796753,0.3924334645271301,-0.6205801367759705,-0.5521170496940613,-0.39502304792404175
1828890,9.505248069763184,0.009863180108368397,2.571704387664795,0.14847683906555176,0.3528149425983429,0.389530748128891,0.7310243844985962,-0.23900245130062103,-0.5605692863464355,-0.30699053406715393,8.985161781311035,-0.4455568790435791,-3.7015702724456787,0.0589028038084507,1.1889350414276123,0.984622597694397,0.3925503194332123,-0.6205393075942993,-0.5520178079605103,-0.39510974287986755
1829057,9.500964164733887,0.009659161791205406,2.5756161212921143,0.13919861614704132,0.2764314115047455,0.3625797629356384,0.7310608625411987,-0.23898626863956451,-0.560498833656311,-0.3070451021194458,8.973565101623535,-0.4251495599746704,-3.6998953819274902,0.2215818464756012,1.1586863994598389,0.6403110027313232,0.3926659822463989,-0.6204549074172974,-0.5519701838493347,-0.3951937258243561
1829224,9.504804611206055,-0.0009691521991044283,2.5559725761413574,0.33193421363830566,0.19440677762031555,0.4695255756378174,0.7310989499092102,-0.23896777629852295,-0.5604394674301147,-0.30707716941833496,8.943065643310547,-0.42540115118026733,-3.6893327236175537,0.3138004243373871,1.050818681716919,0.4671180248260498,0.39276444911956787,-0.6203672289848328,-0.5519388914108276,-0.3952774405479431
1829390,9.508200645446777,-0.01573406718671322,2.5472822189331055,0.6112790703773499,0.2996493875980377,0.5662776231765747,0.7311617732048035,-0.23891857266426086,-0.5603799223899841,-0.30707430839538574,8.94796371459961,-0.4287080466747284,-3.6890969276428223,0.254916787147522,0.8226349949836731,0.22170992195606232,0.39282524585723877,-0.6202766299247742,-0.5519389510154724,-0.3953591287136078
1829557,9.46028995513916,-0.012487624771893024,2.5184569358825684,0.6680623292922974,-0.0065696570090949535,0.6823671460151672,0.7312045693397522,-0.23889097571372986,-0.560349702835083,-0.30704906582832336,8.956376075744629,-0.3931945264339447,-3.6535091400146484,0.3709935247898102,0.6890136003494263,0.34801894426345825,0.39290234446525574,-0.620184600353241,-0.5519561171531677,-0.3954028785228729
1829724,9.497445106506348,-0.018674498423933983,2.5525355339050293,0.40804237127304077,0.45751330256462097,0.6332803964614868,0.7312824130058289,-0.23885034024715424,-0.5602672696113586,-0.3070458173751831,8.894599914550781,-0.43918687105178833,-3.6804466247558594,0.2917734384536743,0.4616880714893341,0.4374328851699829,0.39294925332069397,-0.620130181312561,-0.551959216594696,-0.39543724060058594
1829890,9.486451148986816,0.04329356551170349,2.539564847946167,0.3070770502090454,-0.04000703617930412,0.1273271143436432,0.731293261051178,-0.2388019859790802,-0.5602507591247559,-0.3070876896381378,8.951264381408691,-0.44411370158195496,-3.669198751449585,0.6190652251243591,-0.04835677519440651,0.8787652850151062,0.39301878213882446,-0.620110809803009,-0.5519829392433167,-0.39536526799201965
1830057,9.47341251373291,-0.015560077503323555,2.541757106781006,0.5141685605049133,0.4538634121417999,0.20950546860694885,0.7313480377197266,-0.23872888088226318,-0.5601828694343567,-0.3071379065513611,8.947792053222656,-0.3637610673904419,-3.6627371311187744,0.4766075015068054,0.021085655316710472,0.4949333965778351,0.3930545747280121,-0.6200708746910095,-0.5520223379135132,-0.39533731341362
1830224,9.486924171447754,0.00800520833581686,2.5582268238067627,0.5253612995147705,0.42159146070480347,0.5306503176689148,0.7314027547836304,-0.23870503902435303,-0.5600981116294861,-0.30718061327934265,8.917709350585938,-0.3967408537864685,-3.663616895675659,-0.18607625365257263,-0.1585041880607605,0.23690466582775116,0.3929992616176605,-0.6200605630874634,-0.5520549416542053,-0.3953631818294525
1830390,9.505834579467773,-0.006523001939058304,2.5952680110931396,0.31020182371139526,0.3371720016002655,0.34188470244407654,0.7314444780349731,-0.2386738359928131,-0.5600274205207825,-0.30723440647125244,8.959046363830566,-0.43941575288772583,-3.680779218673706,-0.1172037124633789,-0.3248842656612396,0.1828170269727707,0.39294686913490295,-0.620033323764801,-0.5521261692047119,-0.39535826444625854
1830557,9.478697776794434,-0.0121877146884799,2.6123406887054443,0.15904845297336578,0.49357590079307556,0.3268372416496277,0.7314987182617188,-0.23864032328128815,-0.5599382519721985,-0.30729418992996216,9.030187606811523,-0.435810923576355,-3.7024688720703125,0.07380939275026321,-0.17067022621631622,0.41878682374954224,0.3929251432418823,-0.6200227737426758,-0.5521585941314697,-0.3953511416912079
1830724,9.46084213256836,-0.03140982985496521,2.6231980323791504,0.027949856594204903,0.19424030184745789,0.23395279049873352,0.7315283417701721,-0.2386108785867691,-0.5598846673965454,-0.30734384059906006,9.031044960021973,-0.4058617949485779,-3.6604089736938477,0.14068417251110077,0.4898749887943268,0.7069681882858276,0.39298704266548157,-0.6199823617935181,-0.5521438121795654,-0.39537355303764343
1830890,9.461424827575684,-0.010943193919956684,2.611736297607422,0.5615264177322388,0.06009379401803017,0.23141713440418243,0.7315511107444763,-0.2385575771331787,-0.5598576068878174,-0.3073803782463074,8.989311218261719,-0.4052441716194153,-3.6873810291290283,-0.061508893966674805,0.8513468503952026,0.5988697409629822,0.39305606484413147,-0.6199212074279785,-0.5521095991134644,-0.3954487144947052
1831057,9.466564178466797,0.011132732965052128,2.605374336242676,0.6669098138809204,-0.011487293988466263,0.25110048055648804,0.7315837740898132,-0.23847763240337372,-0.5598506927490234,-0.3073770999908447,8.94908618927002,-0.42485129833221436,-3.6598055362701416,-0.15368899703025818,0.9350619912147522,0.40840086340904236,0.3931107223033905,-0.6198480129241943,-0.5520791411399841,-0.39555150270462036
1831224,9.474081039428711,-0.007474273443222046,2.596097707748413,0.7349115610122681,0.11760710924863815,0.250255286693573,0.7316265106201172,-0.2383897453546524,-0.5598310232162476,-0.3073797821998596,8.941141128540039,-0.42765510082244873,-3.6401474475860596,-0.08992618322372437,0.928684413433075,0.5213144421577454,0.3931626081466675,-0.6198000907897949,-0.5520206093788147,-0.3956567645072937
1831390,9.473766326904297,0.008715437725186348,2.588480234146118,0.7090171575546265,0.21412858366966248,0.27824997901916504,0.7316761612892151,-0.2383047342300415,-0.5597979426383972,-0.30738797783851624,8.936090469360352,-0.4347487986087799,-3.657548189163208,0.02618258073925972,0.6467782855033875,0.447613924741745,0.393220990896225,-0.6197255253791809,-0.552025556564331,-0.39570876955986023
1831557,9.4688138961792,0.027576133608818054,2.621821165084839,0.4000767469406128,0.17971788346767426,0.26785120368003845,0.7317137122154236,-0.23824965953826904,-0.5597564578056335,-0.3074164092540741,8.980572700500488,-0.41156765818595886,-3.6283085346221924,0.015745405107736588,0.5985239148139954,0.3556259572505951,0.3932591378688812,-0.6196591854095459,-0.5520272254943848,-0.39577236771583557
1831724,9.473377227783203,0.01420103944838047,2.5906758308410645,0.16163533926010132,0.06105426698923111,0.3283867835998535,0.7317360639572144,-0.23823024332523346,-0.5597147345542908,-0.30745425820350647,8.99002456665039,-0.4105328619480133,-3.6236374378204346,-0.00854183454066515,0.798302948474884,0.3429604172706604,0.3932960629463196,-0.6196019649505615,-0.551994264125824,-0.39587125182151794
1831890,9.481830596923828,0.01581037975847721,2.58329439163208,0.40992486476898193,0.027130253612995148,0.40208733081817627,0.7317652106285095,-0.23819628357887268,-0.5596834421157837,-0.30746832489967346,8.95287799835205,-0.38205695152282715,-3.635787010192871,-0.28993573784828186,0.6423985362052917,0.3112647235393524,0.39329880475997925,-0.6195603013038635,-0.551964521408081,-0.395975261926651
1832057,9.486001014709473,0.0150451036170125,2.6165356636047363,0.3975411057472229,0.02618258073925972,0.4578845798969269,0.7317861318588257,-0.23818674683570862,-0.55964195728302,-0.30750131607055664,8.977432250976562,-0.393204003572464,-3.638458251953125,-0.4770749509334564,0.25080591440200806,0.4699993431568146,0.39327284693717957,-0.6195507049560547,-0.5519475340843201,-0.3960397243499756
1832224,9.467179298400879,-0.0202484130859375,2.6075985431671143,0.4089643955230713,-0.1070995107293129,0.5144246816635132,0.7317928671836853,-0.23819780349731445,-0.5596083998680115,-0.3075377643108368,8.976141929626465,-0.40854308009147644,-3.6393744945526123,-0.4511548578739166,0.08678222447633743,0.7297890782356262,0.3932438790798187,-0.6195787191390991,-0.5519082546234131,-0.39607948064804077
1832390,9.467517852783203,-0.004896037746220827,2.605314016342163,0.4642493426799774,-0.25300222635269165,0.6021097302436829,0.7317997217178345,-0.23820562660694122,-0.5595943927764893,-0.30754074454307556,8.970279693603516,-0.4313013255596161,-3.6284592151641846,-0.3064303398132324,0.0728745236992836,0.7775182127952576,0.3932436406612396,-0.6195844411849976,-0.5518945455551147,-0.39608997106552124
1832557,9.484015464782715,0.004466683138161898,2.5868172645568848,0.3482750654220581,-0.20896118879318237,0.5455184578895569,0.7318083047866821,-0.2382110208272934,-0.5595759749412537,-0.3075498938560486,8.968925476074219,-0.4306757152080536,-3.616163492202759,-0.014842559583485126,-0.06655459851026535,0.8669193983078003,0.3932523727416992,-0.6196034550666809,-0.5518808364868164,-0.3960703909397125
1832724,9.46412467956543,-0.013063885271549225,2.576896905899048,0.3546142876148224,-0.291088342666626,0.5137972235679626,0.7318049073219299,-0.2382241189479828,-0.5595645308494568,-0.30756843090057373,8.934097290039062,-0.44356024265289307,-3.645393133163452,0.23477241396903992,-0.14815665781497955,0.8252348303794861,0.3932892680168152,-0.6195905804634094,-0.5519111752510071,-0.3960117697715759
