sampleTimeFine,D4:22:CD:00:A9:12_acc_x,D4:22:CD:00:A9:12_acc_y,D4:22:CD:00:A9:12_acc_z,D4:22:CD:00:A9:12_gyro_x,D4:22:CD:00:A9:12_gyro_y,D4:22:CD:00:A9:12_gyro_z,D4:22:CD:00:A9:12_quat_w,D4:22:CD:00:A9:12_quat_x,D4:22:CD:00:A9:12_quat_y,D4:22:CD:00:A9:12_quat_z,D4:22:CD:00:A1:93_acc_x,D4:22:CD:00:A1:93_acc_y,D4:22:CD:00:A1:93_acc_z,D4:22:CD:00:A1:93_gyro_x,D4:22:CD:00:A1:93_gyro_y,D4:22:CD:00:A1:93_gyro_z,D4:22:CD:00:A1:93_quat_w,D4:22:CD:00:A1:93_quat_x,D4:22:CD:00:A1:93_quat_y,D4:22:CD:00:A1:93_quat_z
299718,0.0,0.0,0.0,0.0,0.0,0.0,0.7460511326789856,-0.23101472854614258,-0.538734495639801,-0.31591910123825073,0.0,0.0,0.0,0.0,0.0,0.0,0.41407090425491333,-0.5989163517951965,-0.537563681602478,-0.4252878427505493
299884,9.324365615844727,-0.026305997744202614,3.093437671661377,0.4546702206134796,-0.32196441292762756,0.6496212482452393,0.7459114193916321,-0.2311277985572815,-0.5386338233947754,-0.3163381516933441,9.313643455505371,-0.31605464220046997,-2.8785438537597656,1.0305333137512207,-0.4049239456653595,0.49458765983581543,0.41396600008010864,-0.5986996293067932,-0.5378073453903198,-0.42538705468177795
300051,9.32815170288086,-0.03225294128060341,3.0793800354003906,0.6365588307380676,-0.24412745237350464,0.7035360932350159,0.7460665106773376,-0.23084616661071777,-0.5385874509811401,-0.3162570297718048,9.296448707580566,-0.3079584836959839,-2.877666711807251,0.7043299674987793,-0.23152601718902588,0.4984423518180847,0.41358259320259094,-0.5985744595527649,-0.5379461050033569,-0.4257606863975525
300218,9.332615852355957,-0.010514390654861927,3.0859005451202393,0.5800827741622925,-0.32268160581588745,0.6018279790878296,0.7459134459495544,-0.23108328878879547,-0.5384310483932495,-0.3167107105255127,9.258936882019043,-0.2800992727279663,-2.8792831897735596,0.25692740082740784,-0.043016526848077774,0.530791163444519,0.41341710090637207,-0.598156213760376,-0.5384174585342407,-0.42591336369514465
300718,9.328378677368164,-0.011013041250407696,3.079493761062622,0.7122315168380737,-0.3242567479610443,0.4634554088115692,0.7458712458610535,-0.23078379034996033,-0.5385040640830994,-0.3169044852256775,9.283851623535156,-0.28955477476119995,-2.857818841934204,-0.24818703532218933,-0.2084745615720749,0.585013210773468,0.41308438777923584,-0.5979413986206055,-0.5387495756149292,-0.4261177182197571
300884,9.309282302856445,0.005471596959978342,3.0867927074432373,0.567110002040863,-0.17332112789154053,0.395825058221817,0.7458940744400024,-0.23065702617168427,-0.5385427474975586,-0.31687721610069275,9.302530288696289,-0.31944113969802856,-2.874619722366333,-0.42497870326042175,-0.11040353775024414,0.6089226603507996,0.4128076732158661,-0.5978478789329529,-0.5388568043708801,-0.42638149857521057
301051,9.309564590454102,0.009820444509387016,3.090486526489258,0.5040515065193176,-0.22029481828212738,0.3759112060070038,0.745860755443573,-0.23062142729759216,-0.5385482907295227,-0.31697240471839905,9.29776668548584,-0.32211971282958984,-2.8762004375457764,-0.6484878659248352,0.14564022421836853,0.46065086126327515,0.4127192199230194,-0.597706139087677,-0.538981020450592,-0.42650869488716125
301218,9.331870079040527,0.006261939182877541,3.1264240741729736,0.4446941316127777,-0.29430273175239563,0.2666986286640167,0.7458763122558594,-0.23048561811447144,-0.5386049747467041,-0.3169381022453308,9.277822494506836,-0.3161867558956146,-2.8787682056427,-0.6475530862808228,0.08464356511831284,0.3302437365055084,0.4127447009086609,-0.5975180864334106,-0.5391688942909241,-0.4265102446079254
301384,9.302380561828613,0.018925288692116737,3.072509288787842,0.46949994564056396,-0.30653277039527893,0.39779722690582275,0.745894730091095,-0.23038913309574127,-0.538625955581665,-0.31692928075790405,9.267394065856934,-0.3140375018119812,-2.878835916519165,-0.6205828785896301,0.06251420080661774,0.24277634918689728,0.41266557574272156,-0.597504734992981,-0.539179801940918,-0.4265916347503662
301551,9.33951187133789,0.019307943060994148,3.0949392318725586,0.49632930755615234,-0.3088763654232025,0.26571255922317505,0.7458769679069519,-0.23032066226005554,-0.5386537313461304,-0.31697362661361694,9.280229568481445,-0.3372507393360138,-2.870042085647583,-0.6941680908203125,-0.0665033683180809,0.35884028673171997,0.4125305414199829,-0.5976035594940186,-0.5390934348106384,-0.42669305205345154
301718,9.363543510437012,-0.01314991433173418,3.1064834594726562,0.09499109536409378,-0.3201459050178528,0.4330531060695648,0.7458545565605164,-0.23030610382556915,-0.5386666059494019,-0.3170147240161896,9.302310943603516,-0.3469562232494354,-2.875356912612915,-0.26872846484184265,-0.17674043774604797,0.541394829750061,0.41247791051864624,-0.5976916551589966,-0.5390257835388184,-0.4267060160636902
301884,9.30014419555664,-0.03145301342010498,3.049046277999878,0.30650076270103455,-0.45659756660461426,0.4393666386604309,0.7458521127700806,-0.23025962710380554,-0.5387139320373535,-0.31697407364845276,9.221600532531738,-0.3345506191253662,-2.897199869155884,0.023339571431279182,-0.17918643355369568,0.7160093784332275,0.41257303953170776,-0.5976706743240356,-0.5390735268592834,-0.42658287286758423
302051,9.368976593017578,-0.025055143982172012,3.076936960220337,0.382647305727005,-0.3281498849391937,0.5095710158348083,0.7458776235580444,-0.23020024597644806,-0.5387664437294006,-0.3168680667877197,9.280647277832031,-0.37398582696914673,-2.9062912464141846,0.464364618062973,-0.7351228594779968,0.9258926510810852,0.41262388229370117,-0.5977460741996765,-0.5391057133674622,-0.42638733983039856
302218,9.356528282165527,-0.008389830589294434,3.082412004470825,-0.18683183193206787,-0.7030686140060425,0.4056859612464905,0.7458160519599915,-0.2302793264389038,-0.5388166904449463,-0.31686991453170776,9.309929847717285,-0.32654017210006714,-2.9205803871154785,0.6008419394493103,-0.4998190701007843,0.6386719346046448,0.41265836358070374,-0.5978380441665649,-0.5390959978103638,-0.4262374937534332
302384,9.325532913208008,0.0024675829336047173,3.0669589042663574,0.35069552063941956,-0.4170515835285187,0.010123420506715775,0.745781660079956,-0.230250284075737,-0.5388795137405396,-0.3168649673461914,9.326391220092773,-0.3146776258945465,-2.891953706741333,0.2542124092578888,-0.25922611355781555,0.23563040792942047,0.41272154450416565,-0.5978109240531921,-0.5391939878463745,-0.4260903000831604
302551,9.375564575195312,-0.007556754630059004,3.091545820236206,0.4621875286102295,-0.28696468472480774,0.4503032863140106,0.7457915544509888,-0.23021890223026276,-0.5389295816421509,-0.3167792856693268,9.304676055908203,-0.31205984950065613,-2.903740882873535,0.0856296643614769,0.03387919440865517,0.10628629475831985,0.41275274753570557,-0.5977964997291565,-0.5392321348190308,-0.4260319173336029
302718,9.31275749206543,0.013431227765977383,3.1111063957214355,0.5840527415275574,-0.45567554235458374,0.8597221970558167,0.7458080053329468,-0.23022325336933136,-0.5389860272407532,-0.31664130091667175,9.290629386901855,-0.28640055656433105,-2.8889389038085938,-0.11356671899557114,0.19675035774707794,0.1561926305294037,0.4127914607524872,-0.5977675318717957,-0.5392652750015259,-0.42599332332611084
302884,9.337089538574219,0.02305903099477291,3.12978196144104,0.3350461423397064,-0.5381612777709961,0.5057035088539124,0.7458277940750122,-0.230174720287323,-0.5390676856040955,-0.3164910078048706,9.291461944580078,-0.2579124867916107,-2.874823570251465,-0.4720292091369629,0.3151322305202484,0.45785900950431824,0.4127679467201233,-0.5978371500968933,-0.5391715168952942,-0.4260372519493103
303051,9.305906295776367,0.036766767501831055,3.09779691696167,0.1121387928724289,-0.34223684668540955,0.41666093468666077,0.7458158731460571,-0.23019620776176453,-0.539086639881134,-0.31647107005119324,9.291274070739746,-0.25759992003440857,-2.8880667686462402,-1.1364610195159912,0.5738716721534729,0.6326656341552734,0.41275709867477417,-0.5978775024414062,-0.5390737056732178,-0.4261147081851959
303218,9.30854606628418,-0.009931127540767193,3.090404510498047,0.1366245448589325,-0.6402790546417236,0.43473073840141296,0.7457831501960754,-0.23022474348545074,-0.5391384959220886,-0.31643930077552795,9.244607925415039,-0.30581405758857727,-2.8623218536376953,-1.464969277381897,0.7706027626991272,0.8234289288520813,0.412759929895401,-0.5979085564613342,-0.5389605164527893,-0.4262113869190216
303384,9.305274963378906,0.002654106356203556,3.0898964405059814,0.5906480550765991,-0.4079974889755249,0.4819733798503876,0.7457893490791321,-0.2301967293024063,-0.5391839742660522,-0.31636765599250793,9.26378059387207,-0.35653257369995117,-2.9037022590637207,-1.1171234846115112,0.5888423919677734,0.9405046701431274,0.41276323795318604,-0.5979713201522827,-0.5388308763504028,-0.4262841045856476
303551,9.312651634216309,0.0034188542049378157,3.0937340259552,0.4075172245502472,-0.2996941804885864,0.48324117064476013,0.7458001971244812,-0.23018206655979156,-0.5392091274261475,-0.3163098692893982,9.275659561157227,-0.37375420331954956,-2.86808705329895,-0.45896679162979126,0.7297762632369995,0.8438680768013,0.41282519698143005,-0.5979940295219421,-0.5387277007102966,-0.42632266879081726
303718,9.326094627380371,-0.017251623794436455,3.080612897872925,0.22571830451488495,-0.2211528718471527,0.5212632417678833,0.7458102107048035,-0.2301931083202362,-0.5392127633094788,-0.3162720799446106,9.290824890136719,-0.3848302662372589,-2.8963422775268555,0.09540089219808578,0.6337670087814331,0.6430260539054871,0.41289374232292175,-0.5980145335197449,-0.5386337637901306,-0.4263462722301483
303884,9.31887435913086,-0.005557621363550425,3.1008331775665283,0.388384610414505,-0.2609165906906128,0.5674686431884766,0.7458155751228333,-0.23021060228347778,-0.5392201542854309,-0.31623390316963196,9.309511184692383,-0.36633169651031494,-2.870668411254883,0.771614670753479,0.7283163666725159,0.477196604013443,0.4130079448223114,-0.5979993939399719,-0.5385649800300598,-0.4263438880443573
304051,9.347966194152832,-0.0038122369442135096,3.0959298610687256,0.3192174732685089,-0.20362095534801483,0.5744224190711975,0.7458178997039795,-0.2302459478378296,-0.5392116904258728,-0.3162173628807068,9.310405731201172,-0.32594454288482666,-2.852255344390869,0.9542587399482727,0.7068400382995605,0.2846403419971466,0.41319021582603455,-0.597882866859436,-0.5386077165603638,-0.4262767732143402
304218,9.346846580505371,0.004706288687884808,3.091784954071045,0.3718515932559967,-0.29268911480903625,0.5972561240196228,0.7458367347717285,-0.23024699091911316,-0.5392298102378845,-0.31614112854003906,9.309926986694336,-0.3005426824092865,-2.8292462825775146,0.8579037189483643,0.6541290879249573,0.14981508255004883,0.4133888781070709,-0.5977169275283813,-0.5387082099914551,-0.4261895716190338
304384,9.343352317810059,-0.019319096580147743,3.0895423889160156,0.6186939477920532,-0.32471781969070435,0.6879123449325562,0.7458862662315369,-0.23019415140151978,-0.5392757654190063,-0.31598415970802307,9.289695739746094,-0.27524301409721375,-2.8247170448303223,0.664297342300415,0.7961258292198181,0.40628781914711,0.41353437304496765,-0.5976510643959045,-0.5386751890182495,-0.4261825978755951
304551,9.311777114868164,0.0032410165295004845,3.0769388675689697,0.70680171251297,-0.696550190448761,0.842523455619812,0.7458837628364563,-0.23021923005580902,-0.5393369793891907,-0.3158673346042633,9.218522071838379,-0.2994966208934784,-2.8355462551116943,0.2765595018863678,0.29282358288764954,0.6887959241867065,0.41361430287361145,-0.5976682901382446,-0.5386128425598145,-0.4261597692966461
304718,9.348002433776855,-0.010687140747904778,3.073864698410034,0.5430981516838074,-0.42948660254478455,0.7263057231903076,0.7458914518356323,-0.23024016618728638,-0.539366602897644,-0.3157835602760315,9.260244369506836,-0.3064718544483185,-2.8282558917999268,0.19228093326091766,0.02082952670753002,0.9137906432151794,0.4136439263820648,-0.5977678298950195,-0.5384944081306458,-0.42614126205444336
304885,9.340781211853027,0.02287822775542736,3.063185214996338,0.4762873351573944,-0.9786739945411682,0.39013898372650146,0.745832085609436,-0.2302778959274292,-0.5394610166549683,-0.31573495268821716,9.227669715881348,-0.2764908969402313,-2.833446979522705,-0.2137891948223114,-0.3834477365016937,0.5584144592285156,0.4136314392089844,-0.5978280901908875,-0.5384716987609863,-0.4260970652103424
305051,9.299822807312012,0.03930998593568802,3.043384552001953,0.5645359754562378,-0.5988505482673645,0.30139103531837463,0.7458398938179016,-0.23021262884140015,-0.5395525693893433,-0.31560754776000977,9.257014274597168,-0.33605337142944336,-2.8571646213531494,-0.751502275466919,-0.6524580121040344,0.2643422782421112,0.4135242998600006,-0.5979214310646057,-0.5384497046470642,-0.4260982871055603
305218,9.33266830444336,0.00496230274438858,3.077202081680298,0.4987368583679199,-0.5887591242790222,0.619411051273346,0.745831310749054,-0.23022602498531342,-0.5396110415458679,-0.31551820039749146,9.28477954864502,-0.3514118194580078,-2.854766368865967,-0.47292566299438477,-0.6991114020347595,0.19452203810214996,0.4134131968021393,-0.5980222225189209,-0.538424551486969,-0.4260964095592499
305385,9.33962345123291,-0.011410485953092575,3.0700786113739014,0.5570954084396362,-0.84051913022995,0.6235475540161133,0.7458119988441467,-0.2302330583333969,-0.5397045016288757,-0.3153986930847168,9.336071968078613,-0.33304527401924133,-2.862342357635498,-0.2766939699649811,-0.48598819971084595,0.3534488379955292,0.4133754372596741,-0.5980758666992188,-0.5384228229522705,-0.42605966329574585
305551,9.332810401916504,0.0015377691015601158,3.0922749042510986,0.16134080290794373,-0.5237925052642822,0.483817458152771,0.7457865476608276,-0.23027801513671875,-0.539742112159729,-0.31536176800727844,9.339347839355469,-0.26816537976264954,-2.8520686626434326,-0.4221740961074829,-0.08831258863210678,0.5931324362754822,0.41336286067962646,-0.5981436371803284,-0.538354218006134,-0.4260634183883667
305718,9.333901405334473,-0.02480814978480339,3.101290464401245,0.0960284173488617,-0.7288990020751953,0.3508491516113281,0.7457452416419983,-0.23031547665596008,-0.5398085117340088,-0.3153184950351715,9.3283109664917,-0.2861645221710205,-2.8543248176574707,-0.5356768369674683,0.3544093668460846,0.5003633499145508,0.4133753180503845,-0.5981723070144653,-0.5382712483406067,-0.4261159300804138
305885,9.32681655883789,-0.017826171591877937,3.100416898727417,0.40236911177635193,-0.9015030264854431,0.4647616744041443,0.7456928491592407,-0.2303614616394043,-0.5398920178413391,-0.31526556611061096,9.279806137084961,-0.31934839487075806,-2.8600964546203613,-0.5171204209327698,0.5519857406616211,0.40435412526130676,0.41338327527046204,-0.5981976985931396,-0.5381656289100647,-0.4262060523033142
306051,9.333120346069336,-0.008524022996425629,3.104839563369751,0.5682625770568848,-0.8695640563964844,0.3421024680137634,0.7456529140472412,-0.23036354780197144,-0.5399891138076782,-0.31519246101379395,9.267129898071289,-0.33157163858413696,-2.8803632259368896,-0.493159681558609,0.44095465540885925,0.4235764443874359,0.41342663764953613,-0.5981785655021667,-0.538124144077301,-0.4262431859970093
306218,9.32882022857666,-0.01739806868135929,3.0825533866882324,0.707006573677063,-0.9013748168945312,0.3960300087928772,0.7456178665161133,-0.2303568571805954,-0.5400927066802979,-0.31510257720947266,9.247002601623535,-0.31776389479637146,-2.8556301593780518,-0.260096937417984,0.22848448157310486,0.42963382601737976,0.4134337902069092,-0.5982106924057007,-0.538053572177887,-0.42628026008605957
306385,9.33920669555664,-0.015591531060636044,3.070223569869995,0.8199458122253418,-0.6239382028579712,0.4196833372116089,0.74561607837677,-0.2303171306848526,-0.540174663066864,-0.3149954080581665,9.2862548828125,-0.30187124013900757,-2.8553547859191895,-0.03552480787038803,-0.1177031546831131,0.5122219324111938,0.4134506285190582,-0.5982421636581421,-0.5380280017852783,-0.4262521266937256
306551,9.306720733642578,0.007778168190270662,3.0621798038482666,0.615979015827179,-0.5805118083953857,0.3689957559108734,0.74558025598526,-0.23034274578094482,-0.5402237176895142,-0.31497737765312195,9.285039901733398,-0.29999738931655884,-2.8375558853149414,0.011583343148231506,-0.11062124371528625,0.4098736047744751,0.41346752643585205,-0.5982595682144165,-0.5380170345306396,-0.4262252748012543
306718,9.31649112701416,0.004515716340392828,3.073453903198242,0.5750371217727661,-0.6034351587295532,0.5421760678291321,0.7455398440361023,-0.23040303587913513,-0.5402610301971436,-0.31496497988700867,9.293983459472656,-0.2941823899745941,-2.8637051582336426,0.20949265360832214,-0.05673212558031082,0.546837568283081,0.41343286633491516,-0.5983744263648987,-0.5378889441490173,-0.42625918984413147
306885,9.333446502685547,-0.028456708416342735,3.0577266216278076,0.6103057265281677,-0.584661066532135,0.6073731184005737,0.745523989200592,-0.23043137788772583,-0.5403093695640564,-0.3148990571498871,9.266919136047363,-0.2755753993988037,-2.8742730617523193,0.2364756464958191,-0.20864103734493256,0.6606218814849854,0.41346320509910583,-0.5984199643135071,-0.5378578901290894,-0.4262050986289978
307051,9.32126235961914,-0.0036522464361041784,3.0713515281677246,0.6175541281700134,-0.6015141606330872,0.7827560305595398,0.7455026507377625,-0.23049543797969818,-0.5403450727462769,-0.314841091632843,9.30307388305664,-0.2979104518890381,-2.855912208557129,0.32770809531211853,-0.23873597383499146,1.0033583641052246,0.41351836919784546,-0.5984889268875122,-0.5378051996231079,-0.4261212944984436
307218,9.32910442352295,-0.0060821399092674255,3.060396909713745,0.43870076537132263,-0.5540667772293091,0.8939921259880066,0.745509684085846,-0.23054209351539612,-0.5403822064399719,-0.3147267699241638,9.302355766296387,-0.29958343505859375,-2.888535261154175,0.37618014216423035,-0.09183434396982193,1.3651378154754639,0.41363224387168884,-0.5985475182533264,-0.5377445816993713,-0.42600488662719727
307385,9.344356536865234,-0.022977842018008232,3.0738534927368164,0.4158285856246948,-0.6441593766212463,0.9919477701187134,0.7455123662948608,-0.23060451447963715,-0.5404242873191833,-0.31460219621658325,9.285259246826172,-0.32259687781333923,-2.8741719722747803,0.5205845236778259,-0.002420400269329548,1.3038209676742554,0.4137364327907562,-0.5986184477806091,-0.5376588702201843,-0.425912082195282
307551,9.328540802001953,-0.008769935928285122,3.0766656398773193,0.3503369092941284,-0.5826120972633362,0.8524611592292786,0.7455011010169983,-0.23067878186702728,-0.5404534935951233,-0.3145242929458618,9.268122673034668,-0.33419397473335266,-2.847259283065796,0.5928635001182556,-0.04915076494216919,1.2947795391082764,0.4138510823249817,-0.5986768007278442,-0.5375933647155762,-0.42580127716064453
307718,9.345687866210938,-0.02662377990782261,3.053706169128418,0.35075950622558594,-0.6101841330528259,0.936112105846405,0.7455183267593384,-0.2307147979736328,-0.5405023097991943,-0.31437310576438904,9.280674934387207,-0.34210190176963806,-2.870579719543457,0.6954424381256104,-0.1249515637755394,1.0019880533218384,0.41399428248405457,-0.598656415939331,-0.5376246571540833,-0.4256512224674225
307885,9.334282875061035,-0.014755237847566605,3.0516257286071777,0.42065656185150146,-0.6392929553985596,0.8787268400192261,0.7455171346664429,-0.23076748847961426,-0.5405480861663818,-0.3142584264278412,9.267929077148438,-0.3468087911605835,-2.871058940887451,0.7106050848960876,-0.236110657453537,0.8449821472167969,0.4141009747982025,-0.5986549854278564,-0.5376495122909546,-0.42551809549331665
308051,9.35324478149414,-0.0015211539575830102,3.0393688678741455,0.5518447756767273,-0.521628201007843,0.767029881477356,0.7455161809921265,-0.23080620169639587,-0.5405851006507874,-0.31416866183280945,9.295055389404297,-0.35434216260910034,-2.8703980445861816,0.8553040623664856,-0.14906591176986694,0.6882068514823914,0.414225310087204,-0.5986176133155823,-0.5377029180526733,-0.42538222670555115
308218,9.330726623535156,-0.012074536643922329,3.068242073059082,0.587177574634552,-0.4273607134819031,0.7934879064559937,0.7455328702926636,-0.23082420229911804,-0.5406196117401123,-0.314056396484375,9.274707794189453,-0.3238210678100586,-2.8693325519561768,0.6756309866905212,-0.013011251576244831,0.6469320058822632,0.4143255949020386,-0.5986011624336243,-0.5377163887023926,-0.42529061436653137
308385,9.331579208374023,-0.009186796844005585,3.077134132385254,0.6276968717575073,-0.49880728125572205,0.7365251779556274,0.7455460429191589,-0.23083116114139557,-0.5406677722930908,-0.31393739581108093,9.296948432922363,-0.32585686445236206,-2.8792688846588135,0.3783443868160248,0.04261312633752823,0.5790455341339111,0.4144001305103302,-0.5985933542251587,-0.5377148985862732,-0.4252307713031769
308551,9.329453468322754,-0.017179666087031364,3.061716079711914,0.5882788896560669,-0.35357052087783813,0.7980725169181824,0.7455276250839233,-0.23091726005077362,-0.5406630039215088,-0.3139258623123169,9.314826011657715,-0.3248721957206726,-2.8734471797943115,0.2207750678062439,0.16999788582324982,0.8527171611785889,0.4144769608974457,-0.5986220240592957,-0.537657618522644,-0.42518797516822815
308718,9.330370903015137,-0.027128007262945175,3.069131374359131,0.5132848620414734,-0.43344369530677795,0.768809974193573,0.7455241084098816,-0.23096983134746552,-0.5406827330589294,-0.31386134028434753,9.2892484664917,-0.31003570556640625,-2.8484346866607666,-0.15794071555137634,0.3579566776752472,0.7328242063522339,0.4145285189151764,-0.5986514687538147,-0.5375773310661316,-0.425197958946228
308885,9.335769653320312,-0.010771609842777252,3.090912342071533,0.6157612800598145,-0.394217848777771,0.6399909257888794,0.7455493211746216,-0.23095154762268066,-0.5407274961471558,-0.31373775005340576,9.292391777038574,-0.3165532350540161,-2.848341941833496,-0.47903430461883545,0.524349570274353,0.7716656923294067,0.4145563244819641,-0.5987066626548767,-0.5374481081962585,-0.42525652050971985
309051,9.318489074707031,0.003651414532214403,3.0743932723999023,0.4467815160751343,-0.42027878761291504,0.5798650979995728,0.7455350160598755,-0.2309984266757965,-0.5407471060752869,-0.31370359659194946,9.296887397766113,-0.3318314850330353,-2.8713877201080322,-0.7280410528182983,0.6260576844215393,0.7897099256515503,0.41457873582839966,-0.5987622141838074,-0.5373063683509827,-0.4253356158733368
309218,9.324699401855469,-0.028277071192860603,3.0501151084899902,0.40664640069007874,-0.34683433175086975,0.5012724995613098,0.745516300201416,-0.23104865849018097,-0.5407555103302002,-0.31369632482528687,9.28150749206543,-0.3645436465740204,-2.823784351348877,-0.79522305727005,0.5204051733016968,0.8035792112350464,0.4145932197570801,-0.5988226532936096,-0.5371732711791992,-0.42540431022644043
309385,9.35159969329834,-0.03984967619180679,3.0810885429382324,0.11455918848514557,-0.3788118064403534,0.4968031048774719,0.7455154657363892,-0.2310793697834015,-0.5407768487930298,-0.31363919377326965,9.261934280395508,-0.39283397793769836,-2.835735559463501,-0.4737837612628937,0.25877150893211365,0.8740526437759399,0.4146248698234558,-0.5988797545433044,-0.5370753407478333,-0.42541664838790894
309551,9.305508613586426,-0.04221732169389725,3.056645631790161,0.20029772818088531,-0.3890441358089447,0.5726039409637451,0.7455061078071594,-0.23113217949867249,-0.5407896637916565,-0.3136005699634552,9.211236000061035,-0.37310102581977844,-2.8580987453460693,-0.035601649433374405,0.1281595379114151,0.8788549304008484,0.41464635729789734,-0.5989691019058228,-0.5369558930397034,-0.4254209101200104
309718,9.324384689331055,-0.0348680205643177,2.9967758655548096,0.5612446665763855,-0.35450536012649536,0.49621400237083435,0.7454745173454285,-0.23119698464870453,-0.5407923460006714,-0.3136231005191803,9.247620582580566,-0.39121025800704956,-2.8613736629486084,0.13954438269138336,-0.6655715703964233,0.824312686920166,0.41468364000320435,-0.599010169506073,-0.5369925498962402,-0.42528048157691956
309885,9.394824981689453,-0.029786206781864166,3.0709750652313232,-0.2023659348487854,-0.4469800293445587,0.4838302731513977,0.7454516291618347,-0.23127423226833344,-0.5408033728599548,-0.3136015236377716,9.318646430969238,-0.3565952479839325,-2.8734142780303955,0.4662728011608124,-0.5280186533927917,0.4962652623653412,0.4147118330001831,-0.5990334749221802,-0.5370296239852905,-0.4251730740070343
310051,9.374351501464844,-0.022469310089945793,3.083380937576294,0.11327856779098511,-0.4882805049419403,0.1222430169582367,0.7454027533531189,-0.23132023215293884,-0.5408327579498291,-0.3136330842971802,9.380852699279785,-0.35258543491363525,-2.854278326034546,0.3577389419078827,-0.204184427857399,0.00931661855429411,0.4147184491157532,-0.5990148186683655,-0.537072479724884,-0.425138920545578
310218,9.355215072631836,-0.030143851414322853,3.0915918350219727,0.17289210855960846,-0.23004046082496643,0.36868834495544434,0.7453994750976562,-0.23134657740592957,-0.5408372282981873,-0.31361380219459534,9.353827476501465,-0.3605782389640808,-2.8568103313446045,0.2597320079803467,0.5850517153739929,0.06758551299571991,0.4147605001926422,-0.5989847779273987,-0.5370257496833801,-0.42519915103912354
310385,9.307437896728516,-0.01976507529616356,3.0857937335968018,0.386220246553421,-0.41212111711502075,0.7981492877006531,0.74540114402771,-0.2314053773880005,-0.5408504605293274,-0.31354373693466187,9.29485034942627,-0.31092825531959534,-2.855262279510498,0.28720158338546753,0.846224308013916,0.26098698377609253,0.414857417345047,-0.5989269614219666,-0.5369758009910583,-0.4252490997314453
310551,9.304540634155273,-0.033442601561546326,3.08674693107605,0.360120952129364,-0.6394082307815552,0.5344025492668152,0.7453362345695496,-0.23151864111423492,-0.5408686995506287,-0.31358298659324646,9.287280082702637,-0.2987864017486572,-2.8533520698547363,0.12146183103322983,0.9534264206886292,0.6075268983840942,0.41498124599456787,-0.5988842248916626,-0.5368961095809937,-0.4252890944480896
310718,9.305279731750488,-0.01293901540338993,3.075502872467041,0.3103170692920685,-0.4879603087902069,0.47437921166419983,0.7453035712242126,-0.23158355057239532,-0.5408875942230225,-0.31357988715171814,9.258062362670898,-0.2942075729370117,-2.825707197189331,-0.20518334209918976,0.7559524178504944,0.7198769450187683,0.41506654024124146,-0.5988830327987671,-0.5367974638938904,-0.42533206939697266
310885,9.299419403076172,-0.03185649961233139,3.0703957080841064,0.3442922532558441,-0.5415933132171631,0.4894522726535797,0.7452719807624817,-0.23164252936840057,-0.5409154295921326,-0.31356337666511536,9.264233589172363,-0.31843703985214233,-2.816619873046875,-0.345976322889328,0.7582191228866577,0.6977603435516357,0.41516855359077454,-0.5988490581512451,-0.5367358326911926,-0.425358384847641
311051,9.308492660522461,-0.020459044724702835,3.0489706993103027,0.5550976395606995,-0.5147512555122375,0.4870063066482544,0.7452476620674133,-0.23168089985847473,-0.5409480333328247,-0.3135365843772888,9.25163459777832,-0.3678867220878601,-2.841360569000244,-0.36398205161094666,0.8154506683349609,0.6712896227836609,0.41519200801849365,-0.598910391330719,-0.5365597009658813,-0.42547106742858887
311218,9.303621292114258,0.002249434357509017,3.046231269836426,0.39719536900520325,-0.2855816185474396,0.39538970589637756,0.7452366352081299,-0.23171024024486542,-0.5409553050994873,-0.31352847814559937,9.301828384399414,-0.37431976199150085,-2.8498001098632812,-0.13326287269592285,0.7549406886100769,0.6428211331367493,0.41529417037963867,-0.5988778471946716,-0.5364953279495239,-0.4254983067512512
311385,9.335382461547852,-0.022694513201713562,3.05751371383667,0.00482159061357379,-0.30612295866012573,0.34819820523262024,0.7452061176300049,-0.2317829579114914,-0.5409467816352844,-0.31356191635131836,9.309884071350098,-0.3732417821884155,-2.837769031524658,0.06446076184511185,0.73386150598526,0.5357088446617126,0.41540154814720154,-0.5988315343856812,-0.536448061466217,-0.42551833391189575
311551,9.365017890930176,-0.01000622846186161,3.0526397228240967,-0.07528852671384811,-0.23568806052207947,0.22364367544651031,0.7451622486114502,-0.23186971247196198,-0.5409232378005981,-0.31364279985427856,9.30732250213623,-0.3279381990432739,-2.8476338386535645,0.1127534955739975,0.5645614862442017,0.3175654411315918,0.415492445230484,-0.5987685918807983,-0.5364407896995544,-0.42552730441093445
311718,9.36225700378418,4.642003477783874e-05,3.0556440353393555,-0.0889529138803482,-0.11051880568265915,0.178757444024086,0.7451234459877014,-0.23195181787014008,-0.5408857464790344,-0.3137388229370117,9.297760009765625,-0.31419485807418823,-2.8511455059051514,-0.053300026804208755,0.5485535860061646,0.31883326172828674,0.4155583083629608,-0.5987278819084167,-0.5364118218421936,-0.4255567789077759
311885,9.365504264831543,-0.0248403362929821,3.082501173019409,0.008701914921402931,-0.1607580929994583,0.21692034602165222,0.745090126991272,-0.23202034831047058,-0.5408605337142944,-0.3138107657432556,9.332953453063965,-0.3136906027793884,-2.824960470199585,-0.21088217198848724,0.34313973784446716,0.3223934769630432,0.4155709743499756,-0.5987386703491211,-0.5363529324531555,-0.425603449344635
312051,9.335246086120605,-0.03175314515829086,3.091770648956299,0.09445322304964066,-0.13955079019069672,0.3077045679092407,0.7450709342956543,-0.2320765107870102,-0.5408374667167664,-0.313854455947876,9.258732795715332,-0.3300606608390808,-2.8429787158966064,-0.5594581961631775,0.6251099109649658,0.5223006010055542,0.41555559635162354,-0.5988081693649292,-0.5361934304237366,-0.4257216155529022
312218,9.314069747924805,-0.044102031737565994,2.9839084148406982,0.07560228556394577,-0.44883692264556885,0.40677449107170105,0.7450037002563477,-0.23220469057559967,-0.5408225059509277,-0.3139450252056122,9.254963874816895,-0.372672975063324,-2.8469972610473633,-0.2898845076560974,0.011506505310535431,0.7512140870094299,0.4155585467815399,-0.5988808870315552,-0.5361087322235107,-0.4257231056690216
312385,9.345977783203125,-0.012237781658768654,3.0535337924957275,-0.07080630213022232,-0.26013535261154175,0.3621315360069275,0.7449396252632141,-0.23234471678733826,-0.540779173374176,-0.31406840682029724,9.257552146911621,-0.33077412843704224,-2.832045078277588,0.012684687972068787,-0.19773001968860626,0.6763865351676941,0.41557571291923523,-0.5989316701889038,-0.5360743403434753,-0.42567822337150574
312551,9.340960502624512,0.022633815184235573,3.0282392501831055,0.2880595922470093,-0.6308663487434387,0.030383063480257988,0.744857668876648,-0.2324112206697464,-0.5408144593238831,-0.31415247917175293,9.252857208251953,-0.3131040930747986,-2.8452234268188477,-0.29290682077407837,-0.4744880199432373,0.2731274366378784,0.41555529832839966,-0.5989412069320679,-0.5361238121986389,-0.42562246322631836
312718,9.317893981933594,-0.01080014556646347,3.0076940059661865,0.21106784045696259,-0.3985079824924469,0.25162556767463684,0.744818389415741,-0.23246267437934875,-0.5408269166946411,-0.31418630480766296,9.264737129211426,-0.3601205050945282,-2.8467719554901123,-0.218591570854187,-0.7357375621795654,0.2072131186723709,0.4154769480228424,-0.5990065932273865,-0.536144495010376,-0.42558082938194275
312885,9.331936836242676,-0.02202611230313778,3.0533125400543213,0.2945396304130554,-0.21446792781352997,0.496060311794281,0.7447792291641235,-0.2325643002986908,-0.5407944917678833,-0.3142598271369934,9.30909252166748,-0.3448597192764282,-2.8413538932800293,0.2698489725589752,-0.7983477115631104,0.35930129885673523,0.41545620560646057,-0.5990450978279114,-0.536201000213623,-0.4254758358001709
313051,9.3629789352417,-0.03594803437590599,3.0670876502990723,0.28159239888191223,-0.49860236048698425,0.4516735374927521,0.7447426915168762,-0.23262956738471985,-0.5408139228820801,-0.314264714717865,9.340052604675293,-0.3269649147987366,-2.8448309898376465,0.335840106010437,-0.5202195048332214,0.6327680945396423,0.41543009877204895,-0.5991459488868713,-0.5361510515213013,-0.4254222810268402
313218,9.335417747497559,-0.015431334264576435,3.08156418800354,0.1380460411310196,-0.2719556391239166,0.46075326204299927,0.7447288036346436,-0.23268459737300873,-0.5408086180686951,-0.3142656981945038,9.331619262695312,-0.3028225004673004,-2.868243455886841,0.2402663379907608,-0.2089868187904358,0.6946356296539307,0.4154510200023651,-0.5992035269737244,-0.5361096858978271,-0.4253730773925781
313385,9.325779914855957,-0.034549739211797714,3.0837743282318115,0.17428803443908691,-0.5083609223365784,0.3845810890197754,0.7446650862693787,-0.23279061913490295,-0.5408111214637756,-0.3143337368965149,9.303166389465332,-0.3116092085838318,-2.8528976440429688,0.1807936280965805,0.031766150146722794,0.697555422782898,0.4155120253562927,-0.5992156863212585,-0.5360884070396423,-0.42532312870025635
313551,9.341769218444824,-0.011066459119319916,3.0607378482818604,0.6695863604545593,-0.5853525996208191,0.4298899173736572,0.7446332573890686,-0.23281750082969666,-0.5408565402030945,-0.3143111765384674,9.271839141845703,-0.33982551097869873,-2.842104911804199,0.09984470158815384,0.18872077763080597,0.48600733280181885,0.4155309796333313,-0.5992485880851746,-0.5360237956047058,-0.4253394603729248
313718,9.329120635986328,0.006812150124460459,3.063772678375244,0.6602889895439148,-0.5561156868934631,0.4799371361732483,0.7446010112762451,-0.23285579681396484,-0.5408931374549866,-0.31429633498191833,9.27099895477295,-0.33250144124031067,-2.842519760131836,0.09254508465528488,0.13362784683704376,0.4017031788825989,0.4155667722225189,-0.5992446541786194,-0.5360080599784851,-0.42533010244369507
313885,9.33410930633545,-0.00023464462719857693,3.0431628227233887,0.552203357219696,-0.6304437518119812,0.45951101183891296,0.7445753812789917,-0.23287741839885712,-0.5409461855888367,-0.31424960494041443,9.283991813659668,-0.3300838768482208,-2.843263626098633,0.137431338429451,0.04230577498674393,0.4399813413619995,0.41560232639312744,-0.5992451310157776,-0.5359987616539001,-0.42530617117881775
314051,9.33458423614502,-0.008901179768145084,3.0452585220336914,0.48016759753227234,-0.3781202733516693,0.5214681625366211,0.7445515394210815,-0.2329319566488266,-0.5409528017044067,-0.31425461173057556,9.303750038146973,-0.302243173122406,-2.8453128337860107,-0.06202114745974541,0.08387518674135208,0.3379531502723694,0.4156155288219452,-0.5992490649223328,-0.5359815359115601,-0.42530950903892517
314218,9.320540428161621,0.008389782160520554,3.0597994327545166,0.4394562840461731,-0.3793368935585022,0.4622131586074829,0.744499921798706,-0.23302686214447021,-0.5409419536590576,-0.3143252432346344,9.281331062316895,-0.3064776360988617,-2.8440542221069336,-0.2770269513130188,0.25694015622138977,0.32830995321273804,0.4155922830104828,-0.5992920994758606,-0.5358991026878357,-0.425375372171402
314385,9.339314460754395,0.005915902089327574,3.0366809368133545,0.5813122391700745,-0.45849287509918213,0.5213528871536255,0.7445068955421448,-0.2330147922039032,-0.5409870147705078,-0.314240038394928,9.246559143066406,-0.33145710825920105,-2.842644691467285,-0.46994176506996155,0.07131215184926987,0.4309784173965454,0.4155693054199219,-0.5993341207504272,-0.5358431935310364,-0.4254091680049896
314551,9.343731880187988,-0.019204232841730118,3.049800395965576,0.5539066195487976,-0.1826953887939453,0.49550968408584595,0.7445130944252014,-0.23302601277828217,-0.5409866571426392,-0.31421777606010437,9.299118995666504,-0.3395860195159912,-2.8286831378936768,-0.43384069204330444,-0.05757734924554825,0.5588626861572266,0.41550612449645996,-0.599443256855011,-0.5357286334037781,-0.42546138167381287
314718,9.334165573120117,-0.010013380087912083,3.0548248291015625,0.4592549204826355,0.021200912073254585,0.4838431477546692,0.7445310354232788,-0.23303787410259247,-0.5409598350524902,-0.3142125606536865,9.329307556152344,-0.3504790663719177,-2.835331916809082,-0.25546106696128845,0.09212247282266617,0.7668249607086182,0.41552749276161194,-0.5994916558265686,-0.5356618165969849,-0.42545658349990845
314885,9.348806381225586,-0.023173823952674866,3.082383155822754,0.35544663667678833,-0.07665880769491196,0.43255364894866943,0.7445292472839355,-0.23307164013385773,-0.5409359931945801,-0.31423264741897583,9.316215515136719,-0.34473925828933716,-2.854750394821167,-0.1094430536031723,0.15260685980319977,0.7235139012336731,0.4155596196651459,-0.5995292067527771,-0.53559809923172,-0.4254525899887085
315051,9.35945987701416,-0.04475623369216919,3.0493032932281494,0.3317420482635498,-0.09734106063842773,0.47594156861305237,0.7445222735404968,-0.23312099277973175,-0.540907621383667,-0.31426140666007996,9.311345100402832,-0.3642231822013855,-2.8442862033843994,0.11925911903381348,0.37139052152633667,0.802413821220398,0.41560491919517517,-0.5995810627937317,-0.5354884266853333,-0.42547309398651123
315218,9.325021743774414,-0.05373389273881912,3.065073013305664,0.5081367492675781,-0.2073604166507721,0.7154715061187744,0.7445131540298462,-0.2331932932138443,-0.54088294506073,-0.31427186727523804,9.279711723327637,-0.36281129717826843,-2.8429203033447266,0.428634911775589,0.33599379658699036,0.6734026074409485,0.4157005250453949,-0.599563717842102,-0.5354592204093933,-0.42544084787368774
315385,9.328758239746094,-0.03440454974770546,3.0648388862609863,0.74639892578125,-0.41538679599761963,0.8391297459602356,0.7445183992385864,-0.23322995007038116,-0.5408998727798462,-0.3142032325267792,9.256200790405273,-0.35705071687698364,-2.82184100151062,0.7252811193466187,0.10969278961420059,0.7186217904090881,0.4158112108707428,-0.5995405912399292,-0.535464346408844,-0.42535895109176636
315551,9.317038536071777,-0.04611818864941597,3.0468547344207764,0.7151769995689392,-0.3545950651168823,0.962992787361145,0.7445406913757324,-0.2332635074853897,-0.5409100651741028,-0.3141077160835266,9.27502155303955,-0.34037747979164124,-2.8329410552978516,0.8362097144126892,-0.0364084467291832,0.7184938192367554,0.4159218370914459,-0.5995178818702698,-0.535487174987793,-0.42525407671928406
315718,9.33165168762207,-0.033623117953538895,3.019796133041382,0.6443451642990112,-0.2565368115901947,0.8750003576278687,0.7445686459541321,-0.233286052942276,-0.5409123301506042,-0.31402069330215454,9.286528587341309,-0.3283085227012634,-2.8316681385040283,0.6935341954231262,-0.3163168132305145,0.6920487284660339,0.41597774624824524,-0.5995416045188904,-0.5354949235916138,-0.42515596747398376
315885,9.350152969360352,-0.032642778009176254,3.017794609069824,0.6200643181800842,-0.328751802444458,0.7546462416648865,0.7445816397666931,-0.23330983519554138,-0.5409234166145325,-0.31395310163497925,9.24733829498291,-0.3537184000015259,-2.8527183532714844,0.6186555624008179,-0.2964029312133789,0.6847618222236633,0.41607052087783813,-0.5995145440101624,-0.535557746887207,-0.4250241816043854
316051,9.346643447875977,-0.05494309216737747,3.0360233783721924,0.7641740441322327,-0.13345496356487274,0.8311384320259094,0.7446074485778809,-0.23333406448364258,-0.5409092307090759,-0.31389835476875305,9.285179138183594,-0.33603155612945557,-2.8254079818725586,0.7182248830795288,-0.7094078063964844,0.7627526521682739,0.41610875725746155,-0.5995578169822693,-0.5355948805809021,-0.42487913370132446
316218,9.292834281921387,-0.04045331850647926,3.0094528198242188,0.9026107788085938,-0.4884982407093048,0.8015942573547363,0.7446027994155884,-0.2333674430847168,-0.540936291217804,-0.31383806467056274,9.251380920410156,-0.3311804234981537,-2.878711462020874,0.4147399961948395,-0.7619906067848206,0.8543819785118103,0.4161299169063568,-0.5996189713478088,-0.5356203317642212,-0.4247397780418396
316385,9.353779792785645,0.011912472546100616,3.031651258468628,0.574051022529602,-0.29185670614242554,0.6443963050842285,0.7445971965789795,-0.23341140151023865,-0.5409340262413025,-0.31382259726524353,9.33455753326416,-0.3623352348804474,-2.857189178466797,0.3478141129016876,-1.0142757892608643,0.9490081667900085,0.4161008596420288,-0.5997448563575745,-0.5356066823005676,-0.42460766434669495
316551,9.42190170288086,-0.026935791596770287,3.083101749420166,-0.35011276602745056,-0.5534263849258423,0.21949440240859985,0.7445017695426941,-0.23356512188911438,-0.5409188270568848,-0.31396088004112244,9.329145431518555,-0.2974400818347931,-2.86049222946167,0.05398516729474068,-0.7674717307090759,0.5519856810569763,0.4160592257976532,-0.5998186469078064,-0.5356213450431824,-0.4245259463787079
316718,9.357284545898438,-0.006347639951854944,3.0872714519500732,-0.12971551716327667,-0.47575587034225464,0.08109620213508606,0.7444310188293457,-0.2336500734090805,-0.5409228205680847,-0.3140585720539093,9.360611915588379,-0.33934274315834045,-2.876060962677002,-0.6170995235443115,-0.29043519496917725,0.07808671146631241,0.4159511625766754,-0.5998855829238892,-0.5355855822563171,-0.4245823919773102
316885,9.320186614990234,-0.03329094871878624,3.0577471256256104,0.208135187625885,-0.041415732353925705,0.43606260418891907,0.7444254755973816,-0.23370054364204407,-0.5408852100372314,-0.3140985071659088,9.341310501098633,-0.37239405512809753,-2.844862222671509,-0.6989193558692932,0.37395182251930237,0.1170436292886734,0.4158889651298523,-0.599920392036438,-0.5355000495910645,-0.4247017204761505
317051,9.29973030090332,-0.05558856576681137,3.1000924110412598,0.2830651104450226,-0.2678447663784027,0.629912257194519,0.7444406151771545,-0.23372139036655426,-0.5408892631530762,-0.3140401840209961,9.314064025878906,-0.3636772036552429,-2.8534560203552246,-0.47516676783561707,0.7413660287857056,0.20460064709186554,0.4159129858016968,-0.5998843908309937,-0.5354451537132263,-0.4247984290122986
317218,9.321113586425781,-0.05042769014835358,3.085188865661621,0.7424033880233765,-0.477958619594574,0.4682193994522095,0.7444501519203186,-0.23368537425994873,-0.5409435033798218,-0.31395116448402405,9.265128135681152,-0.33666250109672546,-2.8421030044555664,-0.34080255031585693,0.7852532863616943,0.17431361973285675,0.4159424602985382,-0.5998449921607971,-0.5353872776031494,-0.4248981773853302
317385,9.3214111328125,-0.029866255819797516,3.083545207977295,0.7205939888954163,-0.2730569839477539,0.3640012741088867,0.7444446086883545,-0.23367939889431,-0.5409575700759888,-0.3139445185661316,9.241522789001465,-0.3413207232952118,-2.829927444458008,-0.33753690123558044,0.8066654801368713,0.22021156549453735,0.4159873425960541,-0.5997937917709351,-0.5353401303291321,-0.4249860644340515
317551,9.30933952331543,-0.049372877925634384,3.0581042766571045,0.6549230813980103,-0.2559221088886261,0.23814046382904053,0.7444292902946472,-0.23367540538311005,-0.5409680008888245,-0.31396570801734924,9.236510276794434,-0.3464701175689697,-2.8080272674560547,-0.034346628934144974,0.5096606612205505,0.2729225158691406,0.41601914167404175,-0.5997706055641174,-0.5352978706359863,-0.4250406324863434
317718,9.299365043640137,-0.040286410599946976,3.022836446762085,0.9218459129333496,-0.06982022523880005,0.22671721875667572,0.744431734085083,-0.23364272713661194,-0.5409665107727051,-0.313987135887146,9.272319793701172,-0.3598129451274872,-2.8271703720092773,0.15826725959777832,0.37769126892089844,0.2720901072025299,0.41608577966690063,-0.5997074246406555,-0.5353168249130249,-0.4250408709049225
317885,9.319478034973145,-0.023409852758049965,3.0456912517547607,0.620538055896759,0.08092973381280899,0.2165873795747757,0.7444471120834351,-0.23361432552337646,-0.54094398021698,-0.3140103220939636,9.291626930236816,-0.370952844619751,-2.833371877670288,0.5637674927711487,0.19726260006427765,0.4062878489494324,0.4161990284919739,-0.5996197462081909,-0.5353840589523315,-0.4249688684940338
318051,9.338210105895996,-0.031456638127565384,3.040691614151001,0.19366402924060822,0.12253756821155548,0.17166273295879364,0.7444494366645813,-0.2336260974407196,-0.5408990383148193,-0.31407326459884644,9.32081413269043,-0.3359551429748535,-2.8369219303131104,0.6920230984687805,0.20543304085731506,0.44391289353370667,0.41629672050476074,-0.5995648503303528,-0.5354123115539551,-0.42491504549980164
318218,9.37096881866455,-0.020781725645065308,3.045952320098877,0.10094605386257172,0.26681390404701233,0.11493057757616043,0.7444774508476257,-0.23360133171081543,-0.5408516526222229,-0.3141069710254669,9.323383331298828,-0.30119532346725464,-2.8547861576080322,0.5467990636825562,-0.0029838792979717255,0.527167022228241,0.41635075211524963,-0.5995615124702454,-0.5354104042053223,-0.4248691499233246
318385,9.357121467590332,-0.016754530370235443,3.063554286956787,0.010891799814999104,0.08904894441366196,0.18801641464233398,0.7444735765457153,-0.2336319535970688,-0.5408028960227966,-0.31417739391326904,9.34740161895752,-0.2992427349090576,-2.8405067920684814,0.3262993395328522,0.015873469412326813,0.461470365524292,0.4163801074028015,-0.5995679497718811,-0.5353965163230896,-0.4248487949371338
318551,9.380781173706055,-0.017695073038339615,3.070767641067505,0.27343475818634033,0.019881857559084892,0.2375001460313797,0.7444828748703003,-0.23362793028354645,-0.5407775044441223,-0.3142021596431732,9.293835639953613,-0.31241029500961304,-2.8484559059143066,0.10465989261865616,0.23478519916534424,0.4835101068019867,0.4163859486579895,-0.5996032953262329,-0.5353228449821472,-0.4248860478401184
318718,9.319231033325195,-0.018285147845745087,3.062842845916748,0.5258222222328186,-0.26072442531585693,0.5613342523574829,0.7444937825202942,-0.23363415896892548,-0.5407829880714417,-0.31416231393814087,9.227258682250977,-0.3707883358001709,-2.855043649673462,0.11344504356384277,-0.29614681005477905,0.6947380304336548,0.41642698645591736,-0.599607527256012,-0.5353536605834961,-0.4248010218143463
318885,9.350401878356934,-0.015095170587301254,3.0336215496063232,0.5222493410110474,0.04131968691945076,0.5160766839981079,0.7445155382156372,-0.23364174365997314,-0.5407487750053406,-0.3141639828681946,9.283846855163574,-0.34175756573677063,-2.8414947986602783,0.4028301239013672,-0.4096238613128662,0.6555762887001038,0.416446328163147,-0.5996423959732056,-0.5353630185127258,-0.42472103238105774
319051,9.354793548583984,0.0032861889339983463,3.0452048778533936,0.46563252806663513,-0.4986536502838135,0.20243637263774872,0.744486391544342,-0.23364165425300598,-0.5407871603965759,-0.31416720151901245,9.247760772705078,-0.28514888882637024,-2.826888084411621,0.14750993251800537,-0.570842981338501,0.16064926981925964,0.41637954115867615,-0.5996900200843811,-0.5353802442550659,-0.4246975779533386
319218,9.320497512817383,0.014630263671278954,3.010408401489258,0.547003984451294,-0.32857251167297363,0.09295489639043808,0.7444583773612976,-0.2336326688528061,-0.5408072471618652,-0.31420522928237915,9.273244857788086,-0.3242046535015106,-2.859964609146118,-0.28565844893455505,-0.6949237585067749,-0.10895641893148422,0.4162241220474243,-0.5997804999351501,-0.5353679656982422,-0.42473769187927246
319385,9.339004516601562,-0.00038962336839176714,3.041964530944824,0.6359568238258362,-0.17699654400348663,0.48805636167526245,0.7444859743118286,-0.2335982471704483,-0.5408192276954651,-0.31414511799812317,9.312529563903809,-0.33498692512512207,-2.8570964336395264,-0.2606732249259949,-0.7239044308662415,-0.07907919585704803,0.4161038100719452,-0.5998306274414062,-0.5354050993919373,-0.4247379004955292
319551,9.333200454711914,-0.0135683324187994,3.0769011974334717,0.4488176703453064,-0.2592644989490509,0.4631096124649048,0.7444846034049988,-0.23361153900623322,-0.5408210754394531,-0.3141354024410248,9.334692001342773,-0.34555843472480774,-2.866257905960083,-0.21190665662288666,-0.36882284283638,0.2556467652320862,0.41607406735420227,-0.5998329520225525,-0.5354501008987427,-0.4247070550918579
319718,9.33530330657959,-0.01827799528837204,3.0694193840026855,0.25722193717956543,-0.23686626553535461,0.38026535511016846,0.744484543800354,-0.23362013697624207,-0.54082190990448,-0.31412753462791443,9.326390266418457,-0.30869361758232117,-2.8727495670318604,-0.12104561179876328,0.08055833727121353,0.8424080610275269,0.41607585549354553,-0.5999075174331665,-0.5353546738624573,-0.4247203767299652
319885,9.336662292480469,-0.031581487506628036,3.040444850921631,-0.08709598332643509,-0.0998511090874672,0.11536600440740585,0.7444807291030884,-0.23362290859222412,-0.5408079624176025,-0.31415870785713196,9.303445816040039,-0.299822062253952,-2.8519108295440674,-0.3538650572299957,0.26683950424194336,0.6590083837509155,0.41610822081565857,-0.5999084711074829,-0.5353197455406189,-0.4247312545776367
320051,9.346625328063965,-0.01739109680056572,3.077197551727295,0.40696656703948975,-0.16827544569969177,0.2127198725938797,0.7444764971733093,-0.23361103236675262,-0.5408082008361816,-0.3141769766807556,9.2909517288208,-0.3320819139480591,-2.8326759338378906,-0.41326087713241577,0.4774142801761627,0.5752803683280945,0.4161396026611328,-0.5999021530151367,-0.5352660417556763,-0.42477715015411377
320218,9.313612937927246,-0.013618022203445435,3.072341203689575,0.7252427339553833,-0.17008112370967865,0.2205829620361328,0.7445002794265747,-0.23353561758995056,-0.5408355593681335,-0.3141295611858368,9.287846565246582,-0.3572416603565216,-2.8645598888397217,-0.3949734568595886,0.5356448292732239,0.27151384949684143,0.41614434123039246,-0.599884033203125,-0.5352174639701843,-0.4248591959476471
320385,9.33154296875,-0.004840601235628128,3.0708425045013428,0.8641661405563354,-0.14421230554580688,0.2404712438583374,0.7444941401481628,-0.23351164162158966,-0.5408361554145813,-0.3141610622406006,9.290152549743652,-0.35872602462768555,-2.839747905731201,-0.1327122002840042,0.5272182822227478,0.16299280524253845,0.4161745607852936,-0.599829375743866,-0.5352096557617188,-0.4249166250228882
320551,9.333439826965332,-0.0029147560708224773,3.0446109771728516,0.7329649925231934,-0.13551677763462067,0.32007548213005066,0.7445082664489746,-0.2334715873003006,-0.5408426523208618,-0.3141460716724396,9.287460327148438,-0.32652202248573303,-2.859388828277588,0.013504295609891415,0.6725190281867981,0.07485951483249664,0.41618236899375916,-0.5998013019561768,-0.5351516008377075,-0.4250217080116272
320718,9.333443641662598,0.005299984943121672,3.0634613037109375,0.4929356575012207,0.03129231557250023,0.2424946427345276,0.7445372343063354,-0.23341988027095795,-0.5408332347869873,-0.3141319751739502,9.27212905883789,-0.27588292956352234,-2.8300423622131348,-0.11100543290376663,0.7170851230621338,0.022263837978243828,0.4161684513092041,-0.5997872352600098,-0.5350727438926697,-0.42515456676483154
320885,9.332077026367188,-0.005103247705847025,3.055990695953369,0.41150006651878357,0.0336102657020092,0.23805084824562073,0.7445341944694519,-0.23342737555503845,-0.5407971143722534,-0.31419575214385986,9.270330429077148,-0.2791229784488678,-2.8424696922302246,-0.3616768717765808,0.5191245675086975,-0.07121610641479492,0.41610604524612427,-0.5997986793518066,-0.534992516040802,-0.42530056834220886
321051,9.336479187011719,-0.0014340892666950822,3.0497143268585205,0.6454720497131348,0.030677609145641327,0.33128100633621216,0.7445633411407471,-0.2333812117576599,-0.540784478187561,-0.31418266892433167,9.30331039428711,-0.3092019855976105,-2.8320093154907227,-0.5277240872383118,0.3497734069824219,0.15655121207237244,0.41605880856513977,-0.5998110771179199,-0.534934401512146,-0.4254020154476166
321218,9.328239440917969,-0.018142100423574448,3.0582258701324463,0.5203923583030701,0.14511513710021973,0.4053785800933838,0.7445898652076721,-0.23336784541606903,-0.5407429337501526,-0.3142015337944031,9.312233924865723,-0.3300730288028717,-2.8278439044952393,-0.4200098514556885,0.26885005831718445,0.6909473538398743,0.4160776436328888,-0.5998246669769287,-0.5348857641220093,-0.42542579770088196
321385,9.341997146606445,-0.01819574274122715,3.062474489212036,0.4542219936847687,0.1827402114868164,0.2617809772491455,0.7446141839027405,-0.23334170877933502,-0.540701687335968,-0.3142339587211609,9.301912307739258,-0.32097533345222473,-2.853105068206787,-0.32644662261009216,0.31467118859291077,0.7440040707588196,0.4161171317100525,-0.599826455116272,-0.5348436832427979,-0.42543748021125793
321552,9.342730522155762,-0.005729083903133869,3.0700809955596924,0.41389477252960205,0.18012768030166626,0.32294410467147827,0.7446380257606506,-0.23332767188549042,-0.5406554937362671,-0.3142673969268799,9.287931442260742,-0.32732313871383667,-2.8071835041046143,-0.353032648563385,0.13362786173820496,0.709234893321991,0.416090190410614,-0.5998985767364502,-0.5347455143928528,-0.4254855513572693
321718,9.350680351257324,-0.010267291218042374,3.0744476318359375,0.4391233026981354,-0.018658852204680443,0.40327832102775574,0.7446642518043518,-0.23330233991146088,-0.5406395196914673,-0.31425151228904724,9.290007591247559,-0.3613077700138092,-2.8274600505828857,-0.08890168368816376,0.08642364293336868,0.6125213503837585,0.41609635949134827,-0.5999240279197693,-0.5347043871879578,-0.4254952371120453
321885,9.331476211547852,-0.027297189459204674,3.051213026046753,0.3416669964790344,-0.04395139217376709,0.48591768741607666,0.7446832656860352,-0.23330533504486084,-0.5406142473220825,-0.3142477571964264,9.277429580688477,-0.33679652214050293,-2.8220999240875244,0.20082277059555054,-0.10844417661428452,0.41258859634399414,0.4161222577095032,-0.5999006628990173,-0.534741997718811,-0.4254555106163025
322052,9.333255767822266,-0.02014836110174656,3.074162006378174,0.35463982820510864,-0.008861993439495564,0.49477970600128174,0.7446931600570679,-0.23332814872264862,-0.5405755043029785,-0.31427401304244995,9.288980484008789,-0.3108440339565277,-2.8210415840148926,0.38706550002098083,0.029755553230643272,0.38368460536003113,0.4161778390407562,-0.599849283695221,-0.5347921848297119,-0.42541077733039856
322218,9.329524040222168,-0.02912105619907379,3.0800442695617676,0.5026940107345581,-0.08329249918460846,0.5274487137794495,0.7447085976600647,-0.2333323061466217,-0.5405541062355042,-0.314271479845047,9.301450729370117,-0.30874112248420715,-2.837627410888672,0.4088618755340576,-0.0575261153280735,0.4942290186882019,0.4162093698978424,-0.5998420119285583,-0.5348033308982849,-0.42537611722946167
322385,9.321436882019043,-0.019512608647346497,3.058166980743408,0.5932989716529846,0.002375577576458454,0.6453695297241211,0.744732141494751,-0.23334428668022156,-0.5405176281929016,-0.31426939368247986,9.2988862991333,-0.31537142395973206,-2.8039252758026123,0.24853922426700592,-0.1394227296113968,0.596897542476654,0.4162183105945587,-0.5998674035072327,-0.5347893834114075,-0.42534908652305603
322552,9.348703384399414,-0.019776498898863792,3.083559513092041,0.45039287209510803,0.08048149943351746,0.5893673896789551,0.7447490692138672,-0.2333729863166809,-0.5404639840126038,-0.31430044770240784,9.304912567138672,-0.32992300391197205,-2.846142530441284,0.1855832040309906,-0.21866841614246368,0.683148205280304,0.4162238836288452,-0.5999041199684143,-0.5347731113433838,-0.4253122806549072
322718,9.345415115356445,-0.03220147266983986,3.0793027877807617,0.43348851799964905,0.006678510922938585,0.7681440711021423,0.744785487651825,-0.2333896905183792,-0.5404247045516968,-0.3142690360546112,9.286843299865723,-0.33238646388053894,-2.821470022201538,0.357572466135025,-0.02936495840549469,0.9267763495445251,0.41627538204193115,-0.5999357104301453,-0.5347369909286499,-0.4252626895904541
322885,9.29096508026123,-0.029711131006479263,3.021376609802246,0.4700506925582886,-0.2077830284833908,0.517062783241272,0.7447857856750488,-0.23340828716754913,-0.5404117107391357,-0.3142769932746887,9.207049369812012,-0.3653198182582855,-2.8348851203918457,0.07192686200141907,-0.49075207114219666,0.8160526752471924,0.41625547409057617,-0.6000089645385742,-0.5347155928611755,-0.4252057373523712
323052,9.369840621948242,-0.021224765107035637,3.073028087615967,0.10043380409479141,0.017499877139925957,0.4285709261894226,0.7448024749755859,-0.23342286050319672,-0.5403721928596497,-0.3142944872379303,9.303747177124023,-0.36533841490745544,-2.853914737701416,0.28211748600006104,-0.7760776877403259,0.9699849486351013,0.4162796139717102,-0.600050151348114,-0.5347671508789062,-0.4250591993331909
323218,9.349453926086426,-0.011232866905629635,3.0664117336273193,-0.39855921268463135,-0.4111349880695343,-0.005365859717130661,0.7447449564933777,-0.2334834635257721,-0.5403679609298706,-0.314393013715744,9.328622817993164,-0.3089628517627716,-2.8397624492645264,-0.056155841797590256,-0.5988632440567017,0.3457905948162079,0.4162166714668274,-0.6000927686691284,-0.5347955822944641,-0.42502501606941223
323385,9.35370922088623,-0.024082180112600327,3.090754985809326,0.015809440985322,0.09295489639043808,-0.10522978752851486,0.7447216510772705,-0.2334938794374466,-0.5403200387954712,-0.3145228624343872,9.344032287597656,-0.32132580876350403,-2.8387575149536133,-0.5916277766227722,-0.10100369155406952,-0.04662792384624481,0.41612088680267334,-0.6001070141792297,-0.5347941517829895,-0.4251003861427307
323552,9.324885368347168,-0.0254268329590559,3.090636968612671,0.2643166482448578,0.0730794295668602,0.3727608025074005,0.7447240352630615,-0.23352104425430298,-0.5402666330337524,-0.31458863615989685,9.357028007507324,-0.350654274225235,-2.8454558849334717,-0.6582848429679871,0.29815104603767395,-0.025023607537150383,0.41604703664779663,-0.6001072525978088,-0.5347568392753601,-0.4252192974090576
323718,9.308055877685547,-0.02176479808986187,3.1086862087249756,0.49029749631881714,-0.1296514868736267,0.4897468090057373,0.744725227355957,-0.2335394322872162,-0.5402424335479736,-0.31461384892463684,9.335256576538086,-0.3142731487751007,-2.8349640369415283,-0.49420976638793945,0.567814290523529,0.01780722662806511,0.4160116910934448,-0.6000831127166748,-0.5347108840942383,-0.425345778465271
323885,9.301114082336426,-0.012749179266393185,3.1048130989074707,0.5750882625579834,-0.14792615175247192,0.30091720819473267,0.7447177767753601,-0.23353736102581024,-0.5402287840843201,-0.3146566152572632,9.298727989196777,-0.2905653417110443,-2.8279128074645996,-0.6578237414360046,0.9509930610656738,0.150788351893425,0.41598081588745117,-0.6000787019729614,-0.5345931649208069,-0.4255298376083374
324052,9.300209999084473,-0.030723197385668755,3.1027424335479736,0.665590763092041,-0.28797635436058044,0.1476251780986786,0.7447028756141663,-0.23350684344768524,-0.5402446985244751,-0.3146871030330658,9.263033866882324,-0.2985195517539978,-2.8073558807373047,-0.7265682220458984,0.89508056640625,0.2015911340713501,0.4159640669822693,-0.6000582575798035,-0.5345015525817871,-0.42569008469581604
324218,9.303627014160156,-0.020958812907338142,3.0664162635803223,0.7753283977508545,-0.46364107728004456,0.32596638798713684,0.7446963787078857,-0.23346853256225586,-0.5402859449386597,-0.314659982919693,9.247734069824219,-0.32912540435791016,-2.8053441047668457,-0.5865564346313477,0.7296097278594971,0.4353710412979126,0.4159606099128723,-0.6000574827194214,-0.5344083905220032,-0.4258114695549011
324385,9.286733627319336,-0.024366816505789757,3.04025936126709,0.9328720569610596,-0.222753643989563,0.30264607071876526,0.7447031140327454,-0.2334173172712326,-0.540301501750946,-0.3146553933620453,9.25890064239502,-0.34164199233055115,-2.8271632194519043,-0.2504153251647949,0.4336293935775757,0.44918909668922424,0.41596561670303345,-0.6000531911849976,-0.5343557000160217,-0.42587876319885254
324552,9.321527481079102,-0.012423744425177574,3.0930402278900146,0.6327553391456604,-0.0644671618938446,0.35616376996040344,0.7447291016578674,-0.2333703339099884,-0.5402953028678894,-0.31463927030563354,9.29527759552002,-0.3515304625034332,-2.812558174133301,0.12421518564224243,0.24123959243297577,0.759090006351471,0.4159783124923706,-0.6000989079475403,-0.5342689752578735,-0.4259108901023865
324718,9.321484565734863,-0.02235129475593567,3.05338716506958,0.29640933871269226,-0.01940161921083927,0.4633529484272003,0.7447496056556702,-0.23337043821811676,-0.5402629375457764,-0.3146461844444275,9.328206062316895,-0.3282894492149353,-2.827909231185913,0.5583633184432983,0.19454768300056458,0.6863499879837036,0.4160499572753906,-0.6000789403915405,-0.5342598557472229,-0.42588046193122864
324885,9.341910362243652,-0.00754573056474328,3.063497304916382,0.15511690080165863,0.0442139208316803,0.39424988627433777,0.7447491884231567,-0.23340868949890137,-0.5402056574821472,-0.31471723318099976,9.320737838745117,-0.30612170696258545,-2.827039957046509,0.4645439088344574,0.28845661878585815,0.7167649865150452,0.41611248254776,-0.600073516368866,-0.534222424030304,-0.42587390542030334
325052,9.361527442932129,-0.0018989660311490297,3.076686143875122,0.07669081538915634,0.1297987550497055,0.4317980706691742,0.7447601556777954,-0.23344433307647705,-0.5401386022567749,-0.3147798478603363,9.29796314239502,-0.30275774002075195,-2.8105711936950684,0.40963026881217957,0.23703910410404205,0.6951478719711304,0.41622817516326904,-0.599992573261261,-0.5342782735824585,-0.4258047938346863
325218,9.358980178833008,-0.01626458391547203,3.0793111324310303,0.0037074380088597536,0.014989832416176796,0.4724838435649872,0.7447889447212219,-0.23344837129116058,-0.5401002764701843,-0.31477463245391846,9.342345237731934,-0.3113389015197754,-2.836106777191162,0.35361528396606445,0.13863514363765717,0.8119545578956604,0.41629618406295776,-0.5999829173088074,-0.5342661738395691,-0.4257671535015106
325385,9.342476844787598,-0.021121075376868248,3.0988657474517822,0.411231130361557,-0.014240660704672337,0.5203540325164795,0.7448117136955261,-0.23344705998897552,-0.5400671362876892,-0.31477847695350647,9.259374618530273,-0.3204028904438019,-2.814134120941162,0.026118548586964607,0.38838452100753784,0.8544588088989258,0.41635286808013916,-0.5999858379364014,-0.5342094302177429,-0.4257788360118866
325552,9.318548202514648,-0.015406301245093346,3.0406665802001953,0.26347142457962036,-0.23302434384822845,0.7111301422119141,0.7448186278343201,-0.23349112272262573,-0.5400421619415283,-0.31477224826812744,9.255834579467773,-0.364394873380661,-2.8342859745025635,0.0870511531829834,-0.2942386865615845,0.9274038672447205,0.4163922965526581,-0.600000262260437,-0.5342286229133606,-0.42569589614868164
325718,9.346153259277344,-0.00621890788897872,3.076145887374878,0.11386766284704208,-0.1642158180475235,0.4822935461997986,0.7448408603668213,-0.23348599672317505,-0.540030300617218,-0.31474408507347107,9.241829872131348,-0.3136996030807495,-2.830721616744995,0.3319854140281677,-0.2027885466814041,0.7711918950080872,0.4163954555988312,-0.600050151348114,-0.5341935753822327,-0.4256665110588074
325885,9.322013854980469,0.029754044488072395,3.0481767654418945,0.34403616189956665,-0.49045759439468384,0.1451023370027542,0.7448136806488037,-0.2334718555212021,-0.5400633811950684,-0.31476205587387085,9.236442565917969,-0.28790950775146484,-2.833228588104248,-0.28066393733024597,-0.5903983116149902,0.06994187831878662,0.41631871461868286,-0.600047767162323,-0.5342724323272705,-0.4256458878517151
326052,9.305548667907715,0.013153470121324062,3.0400798320770264,0.578712522983551,-0.10433334112167358,0.2536105513572693,0.7448278665542603,-0.23342563211917877,-0.5400605201721191,-0.31476762890815735,9.272936820983887,-0.3290210962295532,-2.859084367752075,-0.4741806983947754,-0.8438231348991394,-0.0775168314576149,0.416156142950058,-0.6001098155975342,-0.5343126058578491,-0.4256669878959656
326218,9.329638481140137,-0.014809074811637402,3.0614802837371826,0.4792712330818176,-0.11447597295045853,0.5465173721313477,0.7448413372039795,-0.23343056440353394,-0.5400368571281433,-0.3147726058959961,9.334627151489258,-0.3403977155685425,-2.8455560207366943,-0.28932103514671326,-0.6896474957466125,0.07047973573207855,0.41607823967933655,-0.600102424621582,-0.5344110131263733,-0.42562997341156006
326385,9.349979400634766,-0.0007331225206144154,3.0776660442352295,0.27972275018692017,-0.08253693580627441,0.4627510905265808,0.7448435425758362,-0.23345443606376648,-0.5400010347366333,-0.3148113191127777,9.371472358703613,-0.31116223335266113,-2.842863082885742,-0.16489455103874207,-0.193401500582695,0.5047686696052551,0.41605424880981445,-0.6001186370849609,-0.534416913986206,-0.4256230890750885
326552,9.323029518127441,-0.0017666262574493885,3.139051914215088,-0.22372691333293915,0.030562352389097214,0.2774943709373474,0.7448422312736511,-0.23348936438560486,-0.5399464964866638,-0.3148818910121918,9.338936805725098,-0.297118216753006,-2.8262226581573486,-0.39581865072250366,0.33700549602508545,0.6418094038963318,0.41607069969177246,-0.6001123189926147,-0.5343808531761169,-0.42566120624542236
326718,9.321547508239746,-0.017269466072320938,3.114346981048584,-0.029531437903642654,-0.3122828006744385,0.051910534501075745,0.744787871837616,-0.23354052007198334,-0.5399275422096252,-0.31500494480133057,9.29548454284668,-0.3121163547039032,-2.828559398651123,-0.6056762337684631,0.5210455060005188,0.5374888777732849,0.41604673862457275,-0.6001361012458801,-0.5342874526977539,-0.4257684051990509
326885,9.308849334716797,-0.016622211784124374,3.1074094772338867,0.5006322860717773,-0.2164529412984848,0.2303798496723175,0.744790256023407,-0.23350395262241364,-0.5399336218833923,-0.3150159418582916,9.260159492492676,-0.34870645403862,-2.8344619274139404,-0.5088987350463867,0.5603097677230835,0.4503032863140106,0.41602641344070435,-0.600146472454071,-0.5342035293579102,-0.4258791506290436
327052,9.319342613220215,-0.017827393487095833,3.1130025386810303,0.7183913588523865,-0.17548540234565735,0.24853922426700592,0.7448017597198486,-0.23344770073890686,-0.5399423241615295,-0.31501585245132446,9.263760566711426,-0.34837624430656433,-2.829838514328003,-0.341109961271286,0.3466359078884125,0.3156317174434662,0.4160199463367462,-0.6001197099685669,-0.534188449382782,-0.4259418249130249
327218,9.324810028076172,-0.013943779282271862,3.067591428756714,0.5831435322761536,-0.09387053549289703,0.07656276226043701,0.7448040246963501,-0.23339416086673737,-0.5399389266967773,-0.31505581736564636,9.288763046264648,-0.3351760804653168,-2.8241987228393555,-0.12450334429740906,0.11770958453416824,0.12568792700767517,0.4159785509109497,-0.600109338760376,-0.5341830849647522,-0.426003634929657
327385,9.341156959533691,-0.011157766915857792,3.0510878562927246,0.5044741630554199,0.1924218088388443,0.11405976116657257,0.7448153495788574,-0.23336048424243927,-0.5398901104927063,-0.31513771414756775,9.295782089233398,-0.2991139888763428,-2.8194496631622314,-0.15511050820350647,0.25654318928718567,0.0036690188571810722,0.4159539043903351,-0.6000617146492004,-0.5342021584510803,-0.4260709285736084
327552,9.314411163330078,0.014222576282918453,3.0750234127044678,0.4575260579586029,0.06639451533555984,0.19810782372951508,0.744817852973938,-0.2333459109067917,-0.5398492813110352,-0.3152123987674713,9.283991813659668,-0.286393404006958,-2.8138885498046875,-0.2971201241016388,0.11093500256538391,0.08551440387964249,0.41591429710388184,-0.6000333428382874,-0.5342192649841309,-0.426128089427948
327718,9.308542251586914,0.0062977010384202,3.1002891063690186,0.4928460121154785,-0.14472457766532898,0.29430916905403137,0.7448245882987976,-0.2333182394504547,-0.5398410558700562,-0.31523096561431885,9.286340713500977,-0.2829495072364807,-2.7917232513427734,-0.45668721199035645,0.04230577498674393,0.13841742277145386,0.41583847999572754,-0.6000471115112305,-0.534198522567749,-0.42620882391929626
327885,9.342512130737305,0.0032936870120465755,3.08841609954834,0.5014902353286743,-0.010091402567923069,0.3850677013397217,0.7448429465293884,-0.2332957684993744,-0.5398131012916565,-0.31525227427482605,9.296670913696289,-0.29927825927734375,-2.833138942718506,-0.5696905255317688,-0.2025708556175232,0.6725703477859497,0.41578489542007446,-0.6001011729240417,-0.53416508436203,-0.42622679471969604
328052,9.31576919555664,-0.01955118402838707,3.08785080909729,0.4728167653083801,0.06476811319589615,0.5075219869613647,0.7448908090591431,-0.23324988782405853,-0.5397856831550598,-0.3152198791503906,9.334538459777832,-0.31561779975891113,-2.80828595161438,-0.5399925112724304,-0.02449854649603367,1.0142308473587036,0.4157698452472687,-0.6001671552658081,-0.534095048904419,-0.42623642086982727
328218,9.323080062866211,-0.013321278616786003,3.10426926612854,0.19904270768165588,-0.09956938028335571,0.49705928564071655,0.7449101805686951,-0.23325081169605255,-0.53975909948349,-0.31521913409233093,9.308390617370605,-0.3198487162590027,-2.798814535140991,-0.24558734893798828,-0.019504070281982422,1.1434084177017212,0.4157821238040924,-0.6002329587936401,-0.534022331237793,-0.4262228310108185
328385,9.335947036743164,-0.019325824454426765,3.11384654045105,0.3371848165988922,-0.22251032292842865,0.5838606953620911,0.744931697845459,-0.23324330151081085,-0.5397514700889587,-0.315186470746994,9.28822135925293,-0.3498159945011139,-2.796011447906494,0.026950960978865623,0.01125037856400013,1.1527570486068726,0.4158245921134949,-0.60027676820755,-0.533968448638916,-0.4261869490146637
328552,9.333415031433105,-0.014107998460531235,3.0834951400756836,0.247297003865242,-0.2478668987751007,0.5574027299880981,0.7449320554733276,-0.23327092826366425,-0.539731502532959,-0.3151997923851013,9.279192924499512,-0.36279988288879395,-2.8117334842681885,0.2835133373737335,-0.11173539608716965,0.9350363612174988,0.41585302352905273,-0.6003118753433228,-0.5339385867118835,-0.42614737153053284
328718,9.32119083404541,-0.03360188379883766,3.0858314037323,0.3382989466190338,-0.22897756099700928,0.7467190623283386,0.7449398636817932,-0.23331229388713837,-0.539702832698822,-0.3151998221874237,9.268921852111816,-0.3636188209056854,-2.8309526443481445,0.5857176184654236,-0.3402518928050995,0.7435302138328552,0.41589483618736267,-0.6003064513206482,-0.5339826345443726,-0.4260590970516205
328885,9.31938362121582,-0.028538325801491737,3.085970401763916,0.39891138672828674,-0.24283401668071747,0.6639516353607178,0.7449479699134827,-0.23333624005317688,-0.5396833419799805,-0.3151962459087372,9.291341781616211,-0.35383105278015137,-2.818260431289673,0.8354158401489258,-0.5108197331428528,0.6221004724502563,0.41593465209007263,-0.6002909541130066,-0.534058690071106,-0.4259469211101532
329052,9.313611030578613,-0.02164124883711338,3.090244770050049,0.5263473391532898,-0.09185994416475296,0.663298487663269,0.7449797987937927,-0.2333262413740158,-0.5396589040756226,-0.31517019867897034,9.285325050354004,-0.3281504809856415,-2.840463161468506,0.740520715713501,-0.5185290575027466,0.5854870676994324,0.4159639775753021,-0.600278377532959,-0.5341328382492065,-0.4258430004119873
329218,9.324942588806152,-0.020739102736115456,3.073693037033081,0.6392865777015686,-0.17708618938922882,0.6366484761238098,0.7450107932090759,-0.23330026865005493,-0.5396520495414734,-0.31512799859046936,9.279253959655762,-0.304411381483078,-2.831920623779297,0.44265785813331604,-0.493953675031662,0.5193423628807068,0.4159592092037201,-0.6002844572067261,-0.5341843962669373,-0.42577415704727173
329385,9.319711685180664,-0.006780300755053759,3.0884556770324707,0.7085561156272888,-0.17475543916225433,0.6081799268722534,0.7450429797172546,-0.23326432704925537,-0.5396490097045898,-0.31508371233940125,9.314476013183594,-0.2962922751903534,-2.8223752975463867,0.25417402386665344,-0.33519336581230164,0.4544396996498108,0.41595181822776794,-0.6002799868583679,-0.5342286229133606,-0.42573219537734985
329552,9.312302589416504,0.0026326319202780724,3.0943167209625244,0.7255629301071167,-0.16354988515377045,0.587740957736969,0.7450593113899231,-0.23325230181217194,-0.5396338105201721,-0.31508004665374756,9.311800003051758,-0.30247917771339417,-2.838775396347046,-0.2303094118833542,-0.1623845249414444,0.6072707176208496,0.4159107804298401,-0.6003226637840271,-0.5341997742652893,-0.42574822902679443
329718,9.316202163696289,-0.005071062128990889,3.0925753116607666,0.5990105867385864,-0.2080775648355484,0.3917654752731323,0.7450765371322632,-0.23321008682250977,-0.539637565612793,-0.3150641620159149,9.316559791564941,-0.3088376820087433,-2.8623032569885254,-0.31795603036880493,0.1278650015592575,0.71558678150177,0.41589343547821045,-0.6003575325012207,-0.5341426134109497,-0.42578771710395813
330218,9.326434135437012,-0.011604918166995049,3.0970702171325684,0.47846442461013794,0.0814419835805893,0.3291808068752289,0.7451320886611938,-0.23310871422290802,-0.5395795702934265,-0.315107136964798,9.29068660736084,-0.3250235915184021,-2.8578975200653076,-0.44058963656425476,0.27479222416877747,0.5833996534347534,0.4158710539340973,-0.600376307964325,-0.5340855121612549,-0.42585474252700806
330385,9.335724830627441,-0.01385780330747366,3.0688185691833496,0.3548959493637085,0.13280823826789856,0.2041396051645279,0.7451602220535278,-0.233059823513031,-0.5395420789718628,-0.3151410222053528,9.286144256591797,-0.3068922162055969,-2.8506698608398438,-0.5671035051345825,0.16159051656723022,0.5355615615844727,0.41582638025283813,-0.6004050374031067,-0.5340328812599182,-0.42592379450798035
330552,9.32309341430664,0.0004970632144249976,3.088369369506836,0.4367797374725342,0.022135775536298752,0.24094507098197937,0.7451715469360352,-0.23303140699863434,-0.539509654045105,-0.3151906132698059,9.31057357788086,-0.32957252860069275,-2.831930637359619,-0.5939969420433044,0.2281131148338318,0.44290122389793396,0.4157910943031311,-0.600408673286438,-0.5340004563331604,-0.4259938597679138
330718,9.316960334777832,-0.003061233554035425,3.0727739334106445,0.5077269077301025,-0.06052280589938164,0.3528341054916382,0.7451794147491455,-0.23301567137241364,-0.5394822955131531,-0.3152307868003845,9.31888484954834,-0.3213508427143097,-2.8393118381500244,-0.4248250126838684,0.49518951773643494,0.35779017210006714,0.4157867133617401,-0.6003778576850891,-0.5339708924293518,-0.4260786473751068
330885,9.333028793334961,0.01887526549398899,3.0873966217041016,0.4286349415779114,-0.027994681149721146,0.28858470916748047,0.745176374912262,-0.2330150157213211,-0.5394440293312073,-0.3153037428855896,9.287199020385742,-0.31012511253356934,-2.8201863765716553,-0.3735484182834625,0.4712288975715637,0.18422575294971466,0.4157528281211853,-0.6003575325012207,-0.5339317917823792,-0.42618921399116516
331052,9.367972373962402,-0.016228893771767616,3.089539051055908,0.03522386774420738,0.11828585714101791,0.5068561434745789,0.7452071309089661,-0.2330227792263031,-0.5393840074539185,-0.315327912569046,9.281906127929688,-0.2948229908943176,-2.836343765258789,-0.3498566448688507,0.4101681709289551,0.32741355895996094,0.415714830160141,-0.6003631949424744,-0.5338711142539978,-0.42629438638687134
331218,9.281319618225098,-0.011096971109509468,3.064291000366211,0.3260176479816437,-0.1869470775127411,0.6603274345397949,0.7452275156974792,-0.2330310344696045,-0.5393625497817993,-0.31531015038490295,9.283869743347168,-0.2938283383846283,-2.803102731704712,-0.43232956528663635,0.2349516749382019,0.38820528984069824,0.4156971275806427,-0.6003424525260925,-0.5338643789291382,-0.4263492524623871
331385,9.33283805847168,-0.038168925791978836,3.0579652786254883,0.3234691917896271,-0.054964859038591385,0.532020628452301,0.7452488541603088,-0.23302936553955078,-0.5393285155296326,-0.31531938910484314,9.296211242675781,-0.3244299590587616,-2.81699275970459,-0.1628071367740631,0.07343801110982895,0.6744784712791443,0.4157123565673828,-0.6003322601318359,-0.5338650941848755,-0.4263477921485901
331552,9.363018035888672,-0.03559756651520729,3.117648124694824,-0.15856821835041046,-0.3880836069583893,0.5174852609634399,0.7452303767204285,-0.23308812081813812,-0.5393117666244507,-0.31534823775291443,9.242246627807617,-0.33579495549201965,-2.8139028549194336,0.06370518356561661,0.09581069648265839,0.947650671005249,0.4157330095767975,-0.6003684997558594,-0.5338085293769836,-0.42634740471839905
331718,9.285890579223633,0.016050370410084724,3.076596975326538,0.13910898566246033,-0.2335750162601471,0.01756390929222107,0.7452048063278198,-0.23307952284812927,-0.539303719997406,-0.31542888283729553,9.274497032165527,-0.3815450966358185,-2.8473362922668457,0.27559906244277954,-0.4370039105415344,1.1195759773254395,0.415772408246994,-0.6004000902175903,-0.5338261723518372,-0.4262426793575287
331885,9.34311294555664,-0.021514462307095528,3.0942490100860596,0.006883412599563599,0.1567176878452301,0.5246056914329529,0.7452415227890015,-0.2330847531557083,-0.5392398834228516,-0.3154473900794983,9.307841300964355,-0.3088033199310303,-2.8380563259124756,0.6309367418289185,-0.32268160581588745,0.8928650617599487,0.4158064126968384,-0.6004242897033691,-0.5338343381881714,-0.42616498470306396
332052,9.295111656188965,-0.017282113432884216,3.114365577697754,0.4176982641220093,-0.0714978501200676,0.8125564455986023,0.7452807426452637,-0.23308973014354706,-0.5392048954963684,-0.31541094183921814,9.324617385864258,-0.33831989765167236,-2.825014591217041,0.13748255372047424,-0.07932253181934357,0.2593221664428711,0.4157915711402893,-0.6003957986831665,-0.5338735580444336,-0.4261704087257385
332218,9.311217308044434,0.011747770942747593,3.1223225593566895,0.4255742132663727,-0.08978531509637833,0.5102881789207458,0.7453072667121887,-0.23306727409362793,-0.5391837954521179,-0.3154005706310272,9.335367202758789,-0.33274105191230774,-2.833103656768799,0.08078885078430176,0.19050085544586182,0.2241431176662445,0.4157927930355072,-0.6003486514091492,-0.5338990092277527,-0.42620399594306946
332385,9.28990650177002,0.008382649160921574,3.13946270942688,0.1336534470319748,-0.007927129976451397,0.21310405433177948,0.745302140712738,-0.23307399451732635,-0.539139449596405,-0.31548354029655457,9.338385581970215,-0.3233928382396698,-2.825779438018799,0.16134078800678253,0.47285524010658264,0.09111076593399048,0.4158308207988739,-0.6002475619316101,-0.5339481234550476,-0.42624765634536743
332552,9.290911674499512,-0.023488769307732582,3.115684986114502,0.1978132575750351,-0.30512407422065735,0.3188844919204712,0.7452913522720337,-0.23307769000530243,-0.5391340851783752,-0.31551551818847656,9.316407203674316,-0.2756088078022003,-2.791757345199585,0.13220635056495667,0.8278599977493286,0.3531542718410492,0.4159155786037445,-0.6001405119895935,-0.5339577794075012,-0.42630356550216675
332718,9.293558120727539,-0.0016879698960110545,3.1247968673706055,0.44309332966804504,-0.10539626330137253,0.4812178313732147,0.74530029296875,-0.23307810723781586,-0.5391039252281189,-0.31554582715034485,9.29737377166748,-0.2674534022808075,-2.7912418842315674,-0.4075108766555786,0.8535879850387573,0.36065882444381714,0.4159140884876251,-0.6001154184341431,-0.5338740944862366,-0.4264451265335083
332885,9.306085586547852,-0.029674991965293884,3.108103036880493,0.2785188853740692,-0.1907377690076828,0.3108164966106415,0.745293140411377,-0.23308031260967255,-0.53908371925354,-0.3155953586101532,9.278496742248535,-0.30354198813438416,-2.78763747215271,-0.8925129771232605,0.9737884998321533,0.36414217948913574,0.41590479016304016,-0.6000808477401733,-0.5337887406349182,-0.4266095757484436
333052,9.309745788574219,-0.037275005131959915,3.0849976539611816,0.06392289698123932,-0.1277945637702942,0.2588227093219757,0.745284378528595,-0.23309357464313507,-0.5390507578849792,-0.3156624138355255,9.28165054321289,-0.35376960039138794,-2.8068673610687256,-0.723558783531189,0.966578483581543,0.6077958345413208,0.415902704000473,-0.6000824570655823,-0.5336617827415466,-0.4267682135105133
333218,9.327521324157715,-0.020176798105239868,3.0974280834198,0.07346362620592117,-0.06286636739969254,0.15402835607528687,0.7452831268310547,-0.2330833077430725,-0.539019763469696,-0.31572598218917847,9.283400535583496,-0.3749660849571228,-2.785642147064209,-0.32615211606025696,0.6581119298934937,0.7402006387710571,0.4159436821937561,-0.6000596284866333,-0.533600926399231,-0.4268365800380707
333385,9.334259033203125,-0.010592819191515446,3.09698486328125,0.019894666969776154,0.050681132823228836,0.20305109024047852,0.7452759146690369,-0.233102947473526,-0.5389609932899475,-0.3158285915851593,9.29287338256836,-0.34572866559028625,-2.808403253555298,0.03777233138680458,0.4869038462638855,0.7445675730705261,0.4159882664680481,-0.6000450849533081,-0.5335500240325928,-0.42687711119651794
333552,9.316173553466797,-0.04038611054420471,3.097778797149658,0.24564500153064728,-0.07347003370523453,0.3159262537956238,0.7452811598777771,-0.23309700191020966,-0.5389292240142822,-0.3158751428127289,9.28304386138916,-0.3392604887485504,-2.7985825538635254,0.35119491815567017,0.3202163577079773,0.5022457838058472,0.41606032848358154,-0.599968433380127,-0.5335895419120789,-0.4268651008605957
333718,9.335968971252441,-0.015277694910764694,3.1085150241851807,0.5832971930503845,-0.15521295368671417,0.3041059672832489,0.7452837228775024,-0.23306943476200104,-0.5389166474342346,-0.31591057777404785,9.29797077178955,-0.3399401307106018,-2.8023698329925537,0.4279433786869049,0.09584912657737732,0.2741391062736511,0.4160861372947693,-0.5999097228050232,-0.5336371064186096,-0.42686304450035095
333885,9.315601348876953,-0.020512884482741356,3.0901310443878174,0.7003985643386841,-0.2957242727279663,0.4310169219970703,0.7453112006187439,-0.23300142586231232,-0.5389396548271179,-0.3158566653728485,9.296104431152344,-0.31494227051734924,-2.7977564334869385,0.4541323482990265,-0.22946415841579437,0.19274196028709412,0.4160948097705841,-0.5998499393463135,-0.533728301525116,-0.4268246293067932
334052,9.334892272949219,-0.013625040650367737,3.038907051086426,0.42960819602012634,-0.4015687108039856,0.5040770769119263,0.7453092336654663,-0.23299944400787354,-0.5389478802680969,-0.3158489167690277,9.324478149414062,-0.3123456537723541,-2.7804300785064697,0.4377146065235138,-0.2918182909488678,0.10332802683115005,0.4160718619823456,-0.5998115539550781,-0.5338032245635986,-0.4268072247505188
334218,9.325471878051758,-0.018553363159298897,3.0956151485443115,0.3361474573612213,-0.5680768489837646,0.3324592113494873,0.7452937960624695,-0.23298336565494537,-0.5389841198921204,-0.31583547592163086,9.244617462158203,-0.32128289341926575,-2.80256986618042,0.12973473966121674,-0.3890441358089447,0.21587024629116058,0.41601476073265076,-0.5998148918151855,-0.5338453650474548,-0.42680567502975464
334385,9.322275161743164,0.021342458203434944,3.068295955657959,0.5536120533943176,-0.5495204329490662,-0.2000223696231842,0.7452500462532043,-0.23292276263237,-0.5390368700027466,-0.3158934414386749,9.262866973876953,-0.32896044850349426,-2.796579360961914,0.2575165033340454,-1.0279017686843872,0.5723093748092651,0.4159597158432007,-0.5998548269271851,-0.5339292287826538,-0.4266982972621918
334552,9.310205459594727,0.024121781811118126,3.06722354888916,0.7164704203605652,-0.2550640404224396,0.24125239253044128,0.7452520728111267,-0.23286981880664825,-0.539048433303833,-0.3159078359603882,9.239365577697754,-0.28205713629722595,-2.7952206134796143,0.2170099914073944,-1.136358618736267,0.4683602750301361,0.4158947169780731,-0.5998854637145996,-0.5340380668640137,-0.42658236622810364
334718,9.316285133361816,0.004258920904248953,3.084124803543091,0.4385342299938202,-0.46261656284332275,0.39646536111831665,0.7452418804168701,-0.23285804688930511,-0.5390693545341492,-0.31590506434440613,9.270548820495605,-0.2691546380519867,-2.828282117843628,-0.5650161504745483,-1.4568246603012085,-0.02872464433312416,0.41570529341697693,-0.5999451875686646,-0.5341603755950928,-0.4265299141407013
334885,9.33798885345459,-0.0005042452248744667,3.1254870891571045,0.15068590641021729,-0.37073102593421936,0.2245401293039322,0.7452265024185181,-0.23285022377967834,-0.5390770435333252,-0.3159339427947998,9.330939292907715,-0.336376428604126,-2.8617632389068604,-0.6230673789978027,-1.3400180339813232,-0.10124700516462326,0.4155016541481018,-0.6000115871429443,-0.534260094165802,-0.42650988698005676
335052,9.338024139404297,-0.007982094772160053,3.1385796070098877,-0.11959849298000336,-0.3167266547679901,0.09622050821781158,0.745197057723999,-0.2328645884990692,-0.5390682816505432,-0.3160077929496765,9.344062805175781,-0.3448295295238495,-2.8553318977355957,-0.23293469846248627,-1.0642973184585571,0.3060397505760193,0.4153673052787781,-0.6000825762748718,-0.5343166589736938,-0.4264700710773468
335218,9.314697265625,-0.027440238744020462,3.105621337890625,-0.0873136892914772,-0.5012020468711853,0.19958055019378662,0.7451561093330383,-0.2328972965478897,-0.5390747785568237,-0.31606894731521606,9.342666625976562,-0.2950498163700104,-2.848816394805908,-0.16111668944358826,-0.6591300368309021,0.6285292506217957,0.41529950499534607,-0.6001381278038025,-0.5343376994132996,-0.4264317452907562
335385,9.31064510345459,-0.007495730649679899,3.113006114959717,0.5262448787689209,-0.3838062882423401,0.25334158539772034,0.7451689839363098,-0.2328263819217682,-0.539110541343689,-0.31602972745895386,9.346129417419434,-0.28633469343185425,-2.8495354652404785,-0.2984648048877716,-0.35167521238327026,0.7635466456413269,0.4152792692184448,-0.6001595854759216,-0.5343580842018127,-0.42639538645744324
335552,9.31008243560791,0.006385625805705786,3.111189842224121,0.6351756453514099,-0.5381612181663513,0.22679403424263,0.7451605796813965,-0.23276865482330322,-0.5391601324081421,-0.31600767374038696,9.3034029006958,-0.29749754071235657,-2.8286619186401367,-0.4172564744949341,0.05211543291807175,0.48112812638282776,0.4152507185935974,-0.6001548171043396,-0.5343562364578247,-0.42643240094184875
335718,9.334813117980957,0.008994161151349545,3.09757137298584,0.5580430626869202,-0.389415442943573,0.16673225164413452,0.7451325058937073,-0.23275050520896912,-0.5391733050346375,-0.31606486439704895,9.28977108001709,-0.33774060010910034,-2.848860263824463,-0.1743072122335434,0.20034892857074738,0.3771405816078186,0.4152379035949707,-0.6001318693161011,-0.5343536138534546,-0.4264804720878601
335885,9.319182395935059,0.032135412096977234,3.0862741470336914,0.3612478971481323,-0.3685027062892914,0.13137392699718475,0.745110034942627,-0.23272965848445892,-0.5391851663589478,-0.3161129653453827,9.266853332519531,-0.3167375922203064,-2.8189921379089355,0.026272224262356758,0.20398594439029694,0.2643166482448578,0.4152427017688751,-0.6000789403915405,-0.5343832969665527,-0.4265129864215851
336052,9.316888809204102,0.0369282029569149,3.0777623653411865,0.2825144827365875,-0.3186476230621338,0.18717119097709656,0.7451088428497314,-0.2326894998550415,-0.5391990542411804,-0.3161213994026184,9.266095161437988,-0.28150832653045654,-2.8309295177459717,-0.07186923921108246,0.030639195814728737,0.2326081544160843,0.4152105152606964,-0.6000558137893677,-0.5344023108482361,-0.4265528619289398
336218,9.31131362915039,0.019790731370449066,3.080019235610962,0.29537203907966614,-0.3736252188682556,0.1700747162103653,0.7450778484344482,-0.23269128799438477,-0.5392018556594849,-0.31618833541870117,9.28769302368164,-0.2897762358188629,-2.839226245880127,-0.17230945825576782,-0.056821778416633606,0.1137908324599266,0.4151524603366852,-0.6000382304191589,-0.5344272255897522,-0.42660292983055115
336385,9.320812225341797,0.014165356755256653,3.097074270248413,0.27000266313552856,-0.4402438700199127,0.3919318914413452,0.7450652718544006,-0.232692152261734,-0.5392137169837952,-0.31619712710380554,9.288347244262695,-0.24692638218402863,-2.8127191066741943,-0.4046294391155243,-0.10697143524885178,0.008637882769107819,0.41509196162223816,-0.5999941825866699,-0.5344902276992798,-0.42664486169815063
336552,9.341313362121582,0.0033720461651682854,3.084167957305908,0.2358609437942505,-0.32912322878837585,0.40463584661483765,0.7450569868087769,-0.23269909620285034,-0.539208710193634,-0.3162202537059784,9.287574768066406,-0.25578466057777405,-2.8309507369995117,-0.7619777917861938,-0.13477401435375214,0.16694998741149902,0.4150072932243347,-0.5999864339828491,-0.5345181226730347,-0.42670321464538574
336718,9.325162887573242,-0.0051927692256867886,3.082218647003174,0.07799707353115082,-0.19843438267707825,0.4492531418800354,0.7450522184371948,-0.23272615671157837,-0.5391784310340881,-0.316263347864151,9.283971786499023,-0.28231629729270935,-2.841797113418579,-0.6922728419303894,-0.2759127914905548,0.5344793200492859,0.41491734981536865,-0.6000393033027649,-0.5344955325126648,-0.4267447590827942
336885,9.329985618591309,-0.015220120549201965,3.126098394393921,0.12199969589710236,-0.28902652859687805,0.5030270218849182,0.7450363039970398,-0.23276925086975098,-0.5391527414321899,-0.316312700510025,9.309833526611328,-0.28772908449172974,-2.8336966037750244,-0.5626726150512695,-0.3947557508945465,0.7200050354003906,0.41485297679901123,-0.600091278553009,-0.53448885679245,-0.4267426133155823
337052,9.329023361206055,-0.018442215397953987,3.0734496116638184,0.3454320430755615,-0.4041043221950531,0.6077572703361511,0.7450292706489563,-0.23279321193695068,-0.5391497611999512,-0.3163166642189026,9.28325080871582,-0.3157964050769806,-2.85402512550354,-0.495208740234375,-0.3577965795993805,0.9589202404022217,0.41480398178100586,-0.6001651287078857,-0.5344524383544922,-0.4267321527004242
337218,9.319061279296875,-0.01530397031456232,3.100621223449707,0.41563645005226135,-0.34265950322151184,0.6500822901725769,0.7450289130210876,-0.2328146994113922,-0.5391401648521423,-0.3163183927536011,9.281448364257812,-0.34046366810798645,-2.855712890625,-0.1621667891740799,-0.49105945229530334,0.8813393115997314,0.4147714674472809,-0.6002185344696045,-0.5344542264938354,-0.42668616771698
337385,9.326130867004395,0.001902721356600523,3.103292942047119,0.31250694394111633,-0.25881627202033997,0.6577276587486267,0.7450541257858276,-0.23280683159828186,-0.5391323566436768,-0.3162778615951538,9.288175582885742,-0.35416969656944275,-2.8506009578704834,0.35964709520339966,-0.531156063079834,0.8338918089866638,0.4147871136665344,-0.6002283096313477,-0.5345077514648438,-0.42659029364585876
337552,9.328039169311523,-0.01237367745488882,3.117776870727539,0.3227904140949249,-0.2760792672634125,0.6425905823707581,0.7450664043426514,-0.23281627893447876,-0.539119303226471,-0.31626445055007935,9.281874656677246,-0.3493923544883728,-2.856508255004883,0.811724066734314,-0.5049671530723572,0.7521489262580872,0.4148229956626892,-0.6002230644226074,-0.5345719456672668,-0.42648234963417053
337718,9.307344436645508,0.002249434357509017,3.1040120124816895,0.4074660539627075,-0.29932278394699097,0.5458002686500549,0.7450740337371826,-0.23281189799308777,-0.5391148924827576,-0.3162570595741272,9.288627624511719,-0.32199329137802124,-2.8604345321655273,0.8907264471054077,-0.4586465656757355,0.6172468066215515,0.4148586690425873,-0.6002025604248047,-0.5346468687057495,-0.4263823628425598
337885,9.321043968200684,0.004366727080196142,3.1051669120788574,0.5411771535873413,-0.26146724820137024,0.6049784421920776,0.7450830936431885,-0.2328105866909027,-0.5391040444374084,-0.3162549138069153,9.297483444213867,-0.31126928329467773,-2.8548684120178223,0.8239926695823669,-0.2119579166173935,0.5179207921028137,0.414907306432724,-0.60015469789505,-0.5347211360931396,-0.42630916833877563
338052,9.328740119934082,0.007034399546682835,3.1094157695770264,0.3755013644695282,-0.3489218056201935,0.48908087611198425,0.7450850009918213,-0.2328050136566162,-0.5391064882278442,-0.3162507116794586,9.306474685668945,-0.294983446598053,-2.8653323650360107,0.534018337726593,-0.06536360085010529,0.49603471159935,0.41494911909103394,-0.6001039147377014,-0.5347813963890076,-0.42626437544822693
338219,9.316808700561523,-0.009047910571098328,3.101069211959839,0.32455769181251526,-0.08429139107465744,0.4965853989124298,0.7450965046882629,-0.23280863463878632,-0.5390709042549133,-0.31628140807151794,9.308320045471191,-0.28461602330207825,-2.8553547859191895,0.25202253460884094,0.1013302430510521,0.5628838539123535,0.41497987508773804,-0.6000691056251526,-0.5348040461540222,-0.42625531554222107
338385,9.315351486206055,0.001083308132365346,3.090923547744751,0.3493892252445221,-0.2400037795305252,0.3133009374141693,0.7450927495956421,-0.2327958047389984,-0.5390623807907104,-0.316314160823822,9.285751342773438,-0.30124178528785706,-2.842705726623535,-0.00521218404173851,0.2638044059276581,0.7059948444366455,0.4150138795375824,-0.6000452041625977,-0.5347947478294373,-0.4262675642967224
338552,9.329712867736816,0.0030290475115180016,3.0971922874450684,0.297382652759552,-0.15717235207557678,0.34999117255210876,0.7451035976409912,-0.23277339339256287,-0.539047360420227,-0.3163306415081024,9.279250144958496,-0.30338743329048157,-2.8450658321380615,-0.262824684381485,0.2108757495880127,0.723667562007904,0.41502198576927185,-0.600041925907135,-0.5347705483436584,-0.4262944161891937
338719,9.30901050567627,-0.0022208248265087605,3.096698760986328,0.35179683566093445,-0.13476121425628662,0.2730121612548828,0.7451153993606567,-0.23273733258247375,-0.5390352606773376,-0.3163500726222992,9.280111312866211,-0.31675541400909424,-2.853076696395874,-0.5286332964897156,0.07055018097162247,0.5899245142936707,0.41498079895973206,-0.6000617742538452,-0.5347402095794678,-0.4263446629047394
338885,9.301976203918457,0.00898725539445877,3.102137804031372,0.36170893907546997,-0.2218571901321411,0.19917075335979462,0.745117723941803,-0.23269742727279663,-0.5390359163284302,-0.3163727819919586,9.296611785888672,-0.32049253582954407,-2.8444437980651855,-0.48788344860076904,0.00844578631222248,0.545275092124939,0.41493117809295654,-0.6000850200653076,-0.5347138047218323,-0.4263932406902313
339052,9.292695999145508,-0.005214110016822815,3.0907514095306396,0.5528948903083801,-0.18140193819999695,0.3350332975387573,0.7451326251029968,-0.2326507717370987,-0.5390341281890869,-0.316375195980072,9.289896011352539,-0.33028075098991394,-2.8392903804779053,-0.4827224910259247,0.12616173923015594,0.23531027138233185,0.4148821532726288,-0.6000637412071228,-0.5347223877906799,-0.426460325717926
339219,9.286309242248535,0.02441476657986641,3.103128671646118,0.6895642876625061,-0.2554994523525238,0.20367857813835144,0.7451331615447998,-0.23259396851062775,-0.5390461087226868,-0.31639525294303894,9.27440357208252,-0.32730522751808167,-2.8553762435913086,-0.33430978655815125,0.13298752903938293,0.14503830671310425,0.4148273766040802,-0.6000425219535828,-0.5347288846969604,-0.4265351891517639
339385,9.361448287963867,-0.004971236921846867,3.131967544555664,0.28243765234947205,-0.1516783982515335,0.32403266429901123,0.7451363801956177,-0.23258191347122192,-0.5390257239341736,-0.31643155217170715,9.282489776611328,-0.2951945662498474,-2.8409605026245117,-0.2751828134059906,-0.032489705830812454,0.07371973991394043,0.4147695004940033,-0.6000121235847473,-0.5347671508789062,-0.4265863001346588
339552,9.304869651794434,-0.01299236062914133,3.103461265563965,0.25253480672836304,-0.23589293658733368,0.5841167569160461,0.7451574206352234,-0.2325744926929474,-0.5390137434005737,-0.3164074718952179,9.286148071289062,-0.29854536056518555,-2.8318018913269043,-0.5418494343757629,-0.09334547817707062,0.09159741550683975,0.41467830538749695,-0.6000112891197205,-0.5347815752029419,-0.42665818333625793
339719,9.305112838745117,-0.01612488180398941,3.05051851272583,0.230661541223526,-0.4604010581970215,0.498403936624527,0.7451417446136475,-0.23259693384170532,-0.5390177965164185,-0.31642088294029236,9.316505432128906,-0.3163401484489441,-2.8396270275115967,-0.3179560601711273,-0.3098624348640442,0.44953489303588867,0.4146025478839874,-0.6000486016273499,-0.5347800254821777,-0.426681250333786
339885,9.34860610961914,-0.021060284227132797,3.132553815841675,-0.2300148457288742,-0.42271196842193604,0.5493218898773193,0.7451143264770508,-0.23267404735088348,-0.5389941334724426,-0.31646928191185,9.267685890197754,-0.31825360655784607,-2.829578161239624,-0.043426331132650375,0.026925349608063698,0.8440985083580017,0.4146229028701782,-0.600053071975708,-0.5347700715065002,-0.4266677498817444
340052,9.300494194030762,0.006970101967453957,3.0813956260681152,-0.10516573488712311,-0.6814770102500916,0.06443514674901962,0.7450482249259949,-0.2327124923467636,-0.5390200614929199,-0.31655269861221313,9.261725425720215,-0.3586869239807129,-2.8629209995269775,0.10896283388137817,-0.5247402191162109,1.1028636693954468,0.4146169126033783,-0.6001183986663818,-0.5347625017166138,-0.4265911281108856
340219,9.356595993041992,-0.011125581339001656,3.095590114593506,0.1866205334663391,-0.30951666831970215,0.06603594124317169,0.7450334429740906,-0.23268260061740875,-0.5390275120735168,-0.31659677624702454,9.302075386047363,-0.3319575786590576,-2.8766181468963623,0.4899517893791199,-0.4610542058944702,1.1639115810394287,0.4146457612514496,-0.6001703143119812,-0.5347596406936646,-0.4264933466911316
340385,9.313740730285645,-0.016276951879262924,3.092334270477295,0.5291007161140442,-0.30881232023239136,0.6170931458473206,0.7450599074363708,-0.2326507866382599,-0.5390354990959167,-0.3165443241596222,9.303231239318848,-0.3172632157802582,-2.8435676097869873,0.25805434584617615,-0.43131783604621887,0.46307119727134705,0.4146241545677185,-0.6001668572425842,-0.5348166823387146,-0.4264478385448456
340552,9.310686111450195,0.026485605165362358,3.107740879058838,0.6017383933067322,-0.3631880581378937,0.5648688673973083,0.7450845241546631,-0.2326061874628067,-0.5390558242797852,-0.3164844512939453,9.32728099822998,-0.32151535153388977,-2.8495898246765137,0.19817185401916504,-0.23937630653381348,0.12443290650844574,0.41459909081459045,-0.6001183986663818,-0.5348995327949524,-0.42643633484840393
340719,9.293203353881836,0.02498338371515274,3.1273539066314697,0.4267139732837677,-0.1941058337688446,0.3740542531013489,0.7451013922691345,-0.23256759345531464,-0.5390520095825195,-0.3164796531200409,9.30207633972168,-0.2999365031719208,-2.855769634246826,0.24810382723808289,-0.11653779447078705,-0.002394787734374404,0.41457846760749817,-0.6000516414642334,-0.5349867939949036,-0.4264410138130188
340885,9.292402267456055,-0.022891530767083168,3.144745349884033,0.20387068390846252,-0.5902829766273499,0.27404946088790894,0.745069682598114,-0.2325727939605713,-0.5390800833702087,-0.31650272011756897,9.321019172668457,-0.28363609313964844,-2.836400270462036,0.18449468910694122,0.004027597140520811,0.06891737878322601,0.4145544171333313,-0.6000013947486877,-0.5350401401519775,-0.4264681041240692
341052,9.288783073425293,0.005665491800755262,3.1175339221954346,0.6067072153091431,-0.7440745234489441,0.4374072551727295,0.7450481057167053,-0.23255228996276855,-0.5391382575035095,-0.3164691925048828,9.301379203796387,-0.23920536041259766,-2.8379385471343994,-0.1361570954322815,0.2220044732093811,0.30894678831100464,0.41454017162323,-0.5999681353569031,-0.5350478291511536,-0.4265190660953522
341219,9.2882080078125,0.00352464453317225,3.13291072845459,0.5323407053947449,-0.5273398756980896,0.6062206029891968,0.7450531125068665,-0.23253630101680756,-0.5391666293144226,-0.3164207637310028,9.302627563476562,-0.2410060614347458,-2.827388286590576,-0.7469815611839294,0.5604634284973145,0.3291679918766022,0.4145045280456543,-0.5999464392662048,-0.5350020527839661,-0.4266417324542999
341385,9.305052757263184,-0.005060071591287851,3.114586353302002,0.2259616255760193,-0.5199249386787415,0.48327958583831787,0.7450282573699951,-0.23256750404834747,-0.5391740202903748,-0.3164440393447876,9.24473762512207,-0.2971288859844208,-2.8396880626678467,-0.7232001423835754,0.4811921715736389,0.5612061619758606,0.4144822657108307,-0.5999414324760437,-0.5349474549293518,-0.42673879861831665
341552,9.317275047302246,-0.008786741644144058,3.0968024730682373,0.29384806752204895,-0.4377594292163849,0.5301380157470703,0.7450117468833923,-0.23259536921977997,-0.5391719937324524,-0.31646573543548584,9.282278060913086,-0.32826271653175354,-2.834857940673828,-0.5273398756980896,0.3096126914024353,0.9492640495300293,0.41447991132736206,-0.5999753475189209,-0.5348705649375916,-0.426789790391922
341719,9.333100318908691,-0.004820413887500763,3.1142289638519287,0.1694600135087967,-0.36276546120643616,0.48796671628952026,0.7449891567230225,-0.23263999819755554,-0.5391532182693481,-0.31651806831359863,9.292336463928223,-0.34038877487182617,-2.8078181743621826,-0.17302657663822174,0.23465712368488312,1.012527585029602,0.4144909679889679,-0.6000174283981323,-0.5347922444343567,-0.42681804299354553
341885,9.344529151916504,-0.023295734077692032,3.099688768386841,0.3317420482635498,-0.5038657784461975,0.4652482569217682,0.7449719905853271,-0.2326519936323166,-0.5391663312911987,-0.31652751564979553,9.287396430969238,-0.33591946959495544,-2.830629825592041,0.1988505870103836,0.04494388401508331,0.8207525014877319,0.41452085971832275,-0.6000186204910278,-0.5347820520401001,-0.42680004239082336
342052,9.327672004699707,-0.015313204377889633,3.091778039932251,0.4872239828109741,-0.5769388675689697,0.4531462490558624,0.744956910610199,-0.23264414072036743,-0.5391972064971924,-0.31651589274406433,9.297205924987793,-0.3419104516506195,-2.83933687210083,0.38219913840293884,0.002209095284342766,0.6052345633506775,0.41456329822540283,-0.5999774932861328,-0.5348237752914429,-0.42676421999931335
342219,9.334527969360352,-0.004756993148475885,3.0940160751342773,0.6417709589004517,-0.5031358599662781,0.6039025783538818,0.7449605464935303,-0.23262719810009003,-0.5392225384712219,-0.31647664308547974,9.294447898864746,-0.3154679834842682,-2.8225181102752686,0.6360977292060852,-0.11448876559734344,0.48203736543655396,0.41459670662879944,-0.599936306476593,-0.5348798036575317,-0.4267198145389557
342385,9.308206558227539,-0.008619675412774086,3.03871488571167,0.6630039215087891,-0.7298082113265991,0.6349451541900635,0.7449442148208618,-0.23262740671634674,-0.5392695665359497,-0.3164348304271698,9.305591583251953,-0.286876380443573,-2.8329312801361084,0.6542956233024597,-0.32429519295692444,0.3671516478061676,0.414613276720047,-0.5998931527137756,-0.5349646806716919,-0.42665788531303406
342552,9.331995010375977,-0.008037077262997627,3.096953868865967,0.4563734531402588,-0.5625701546669006,0.5850004553794861,0.7449239492416382,-0.23265111446380615,-0.5392856001853943,-0.31643781065940857,9.241599082946777,-0.2954089343547821,-2.8578298091888428,0.22925284504890442,-0.24444758892059326,0.3695720136165619,0.4145897924900055,-0.5998820662498474,-0.5350056290626526,-0.42664483189582825
342719,9.313775062561035,0.03095502033829689,3.0508158206939697,0.6543468832969666,-0.9611037969589233,0.12257597595453262,0.7448660135269165,-0.2326224148273468,-0.5393750071525574,-0.3164432644844055,9.260958671569824,-0.30244702100753784,-2.8462305068969727,0.11523793637752533,-0.9025530815124512,0.6596230268478394,0.4145231544971466,-0.5999419689178467,-0.5350532531738281,-0.4265657067298889
342885,9.318733215332031,0.034429021179676056,3.0852534770965576,0.7395473718643188,-0.47451362013816833,0.2862795293331146,0.7448611855506897,-0.232566699385643,-0.5394136905670166,-0.3164293169975281,9.250387191772461,-0.271410197019577,-2.8590774536132812,0.24563220143318176,-0.80441814661026,0.7268435955047607,0.4144943952560425,-0.5999736189842224,-0.5351191759109497,-0.4264664947986603
343052,9.345473289489746,0.01389927975833416,3.0655617713928223,0.49252578616142273,-0.49035513401031494,0.565035343170166,0.7448562979698181,-0.23256553709506989,-0.5394311547279358,-0.3164118826389313,9.244750022888184,-0.26347675919532776,-2.8673994541168213,-0.36418697237968445,-1.0703675746917725,0.18690225481987,0.41436251997947693,-0.600010871887207,-0.535216748714447,-0.42641976475715637
343219,9.334911346435547,0.009598245844244957,3.085390567779541,0.3123404383659363,-0.636449933052063,0.5190989375114441,0.7448344230651855,-0.232582688331604,-0.539459764957428,-0.3164019286632538,9.3125638961792,-0.30398550629615784,-2.8997743129730225,-0.7203443646430969,-0.8952150344848633,0.09280120581388474,0.4142005741596222,-0.600059986114502,-0.5352805256843567,-0.426427960395813
343385,9.335395812988281,0.0052641769871115685,3.1044375896453857,0.04893946275115013,-0.4777280390262604,0.3738877475261688,0.7448186874389648,-0.2325943410396576,-0.5394704937934875,-0.3164121210575104,9.332310676574707,-0.3248201608657837,-2.8871114253997803,-0.46516501903533936,-0.5855959057807922,0.25029370188713074,0.41408345103263855,-0.6001002192497253,-0.5353129506111145,-0.426444411277771
343552,9.337584495544434,-0.02109604701399803,3.09498929977417,-0.035166237503290176,-0.6620115041732788,0.2849476933479309,0.7447720766067505,-0.23263218998908997,-0.5394936203956604,-0.31645467877388,9.339544296264648,-0.31776389479637146,-2.9016523361206055,-0.24098990857601166,-0.284992516040802,0.6937263607978821,0.41403159499168396,-0.6001497507095337,-0.5352948307991028,-0.42644792795181274
343719,9.312463760375977,-0.027183223515748978,3.0667641162872314,0.5818244218826294,-0.5738396644592285,0.40353450179100037,0.7447627186775208,-0.2326016128063202,-0.5395343899726868,-0.31642961502075195,9.31633472442627,-0.28663334250450134,-2.879531145095825,-0.2555122971534729,0.16780801117420197,0.8635385036468506,0.414040207862854,-0.600165069103241,-0.5352562069892883,-0.426466166973114
343885,9.31761646270752,-0.0063291629776358604,3.098501205444336,0.7530197501182556,-0.5086809992790222,0.4144710600376129,0.7447630167007446,-0.23255373537540436,-0.5395742654800415,-0.31639599800109863,9.29781723022461,-0.31344014406204224,-2.905505657196045,-0.15563558042049408,0.45645034313201904,0.7358593344688416,0.4140699803829193,-0.6001491546630859,-0.5352149605751038,-0.4265116751194
344052,9.34377384185791,0.0008363263914361596,3.067164897918701,0.7965613603591919,-0.3598712384700775,0.46045875549316406,0.7447824478149414,-0.23249170184135437,-0.5396011471748352,-0.3163503110408783,9.280205726623535,-0.32797130942344666,-2.892768144607544,-0.11977779865264893,0.6882452368736267,0.6432693600654602,0.4141269624233246,-0.6000947952270508,-0.5351865291595459,-0.4265684485435486
344219,9.318662643432617,0.024268439039587975,3.057539224624634,0.6830970048904419,-0.28015169501304626,0.37761440873146057,0.7447912096977234,-0.2324468344449997,-0.5396106243133545,-0.3163464367389679,9.257434844970703,-0.3412083685398102,-2.875873565673828,0.11605754494667053,0.6977860331535339,0.5089948177337646,0.4141934812068939,-0.600019633769989,-0.5351791977882385,-0.42661887407302856
344385,9.302173614501953,0.029507171362638474,3.0619776248931885,0.531085729598999,-0.12875504791736603,0.4298131465911865,0.7448100447654724,-0.2324143350124359,-0.5395956039428711,-0.3163515627384186,9.247749328613281,-0.3139444887638092,-2.8769195079803467,0.16501621901988983,0.5616032481193542,0.3336886465549469,0.41422876715660095,-0.5999535918235779,-0.5351792573928833,-0.4266771972179413
344552,9.316692352294922,0.026306580752134323,3.0688865184783936,0.37382373213768005,-0.08242166042327881,0.4493427872657776,0.7448263168334961,-0.23240047693252563,-0.5395668745040894,-0.3163723647594452,9.269798278808594,-0.275879442691803,-2.846886396408081,0.07711342722177505,0.4169299006462097,0.1402999609708786,0.4142281711101532,-0.5998928546905518,-0.5351929664611816,-0.4267460107803345
344719,9.327384948730469,0.03262931481003761,3.083777904510498,0.256376713514328,-0.1126062348484993,0.5223005414009094,0.7448206543922424,-0.232437402009964,-0.5395205020904541,-0.31643733382225037,9.286802291870117,-0.23906588554382324,-2.826437473297119,-0.3532503545284271,0.47654348611831665,0.2132192850112915,0.4142131805419922,-0.5998427867889404,-0.5351892113685608,-0.42683568596839905
344885,9.330766677856445,0.007853266783058643,3.0892603397369385,0.08835740387439728,-0.11939357221126556,0.5504745244979858,0.7448328733444214,-0.2324574738740921,-0.5394822359085083,-0.3164595365524292,9.29958724975586,-0.2415083944797516,-2.8520491123199463,-0.6486287713050842,0.46305838227272034,0.3270421326160431,0.4141753017902374,-0.5998237133026123,-0.535153865814209,-0.42694351077079773
345052,9.333386421203613,-0.009133633226156235,3.100045919418335,0.0026317047886550426,-0.19729460775852203,0.666231095790863,0.7448405623435974,-0.2325010448694229,-0.5394437313079834,-0.316474974155426,9.304848670959473,-0.26477721333503723,-2.849252223968506,-1.010613203048706,0.431324303150177,0.7494852542877197,0.4141387939453125,-0.5998495817184448,-0.53507399559021,-0.42704254388809204
345219,9.326387405395508,-0.021997250616550446,3.1094229221343994,0.06218123063445091,-0.4435863196849823,0.6390432119369507,0.7448334097862244,-0.23254133760929108,-0.5394380688667297,-0.31647175550460815,9.305632591247559,-0.2983369529247284,-2.840564727783203,-0.9329425096511841,0.5198929309844971,1.0649569034576416,0.414131224155426,-0.5998952388763428,-0.534960150718689,-0.4271284341812134
345385,9.321295738220215,-0.029306840151548386,3.082631826400757,0.2410859316587448,-0.45046329498291016,0.7335925102233887,0.744840145111084,-0.23256362974643707,-0.5394408106803894,-0.31643491983413696,9.306818008422852,-0.33227822184562683,-2.848945140838623,-0.5782451033592224,0.7093372941017151,1.3319050073623657,0.4141850769519806,-0.5999293923377991,-0.5348327159881592,-0.4271879494190216
345552,9.322867393493652,-0.019318699836730957,3.0881824493408203,0.48591768741607666,-0.36989858746528625,0.7909521460533142,0.7448577284812927,-0.23257096111774445,-0.5394395589828491,-0.3163903057575226,9.290132522583008,-0.37147316336631775,-2.827575206756592,-0.1964622288942337,0.7282394766807556,1.0731914043426514,0.41425490379333496,-0.599922239780426,-0.5347470641136169,-0.4272375702857971
345719,9.313589096069336,-0.014542224816977978,3.092907190322876,0.7022938132286072,-0.28403201699256897,0.8321629762649536,0.7448858022689819,-0.2325628399848938,-0.5394339561462402,-0.3163396418094635,9.26795482635498,-0.3808785080909729,-2.8289196491241455,0.3878851532936096,0.42837876081466675,0.9260847568511963,0.4143542945384979,-0.5998750329017639,-0.5347417593002319,-0.42721399664878845
345885,9.301961898803711,-0.009882069192826748,3.0782463550567627,0.737588107585907,-0.2949814796447754,0.8582494854927063,0.7449159622192383,-0.23255276679992676,-0.5394306182861328,-0.3162817358970642,9.266554832458496,-0.374953031539917,-2.8430662155151367,1.0895706415176392,0.19463732838630676,0.6287981867790222,0.4144684076309204,-0.5997888445854187,-0.5348069071769714,-0.4271427392959595
346052,9.313945770263672,-0.01574040576815605,3.077179431915283,0.8523715138435364,-0.21039552986621857,0.8224174380302429,0.7449490427970886,-0.2325337827205658,-0.5394203662872314,-0.31623542308807373,9.297669410705566,-0.3300742208957672,-2.8207991123199463,1.23274564743042,0.05673852935433388,0.4064415395259857,0.41458380222320557,-0.5996692776679993,-0.5349262952804565,-0.4270491600036621
346219,9.318110466003418,-0.002425665035843849,3.124256134033203,0.691754162311554,-0.2584449350833893,0.7344120740890503,0.7449851036071777,-0.23250091075897217,-0.5394219160079956,-0.3161718249320984,9.289506912231445,-0.27514785528182983,-2.825640916824341,1.1806879043579102,-0.05879395455121994,0.37687167525291443,0.4146672487258911,-0.5995786190032959,-0.535028874874115,-0.42696696519851685
346385,9.3280668258667,-0.002881349064409733,3.096792459487915,0.6533095836639404,-0.33227357268333435,0.6708415150642395,0.7450074553489685,-0.23247674107551575,-0.5394291281700134,-0.3161242604255676,9.314260482788086,-0.27500641345977783,-2.816148042678833,0.6853766441345215,0.04457249864935875,0.49817341566085815,0.41473308205604553,-0.5995082855224609,-0.5350977778434753,-0.4269154965877533
346552,9.317936897277832,-0.0009369663312099874,3.105417490005493,0.43042778968811035,-0.20213542878627777,0.6735692024230957,0.7450367212295532,-0.23246395587921143,-0.5394149422645569,-0.316089004278183,9.327507019042969,-0.26407280564308167,-2.8228237628936768,0.17309701442718506,0.3303205668926239,0.7925400733947754,0.4147917330265045,-0.5994763374328613,-0.5350891947746277,-0.4269138276576996
346719,9.304461479187012,0.0077925557270646095,3.1086719036102295,0.39076656103134155,-0.2567161023616791,0.5657013058662415,0.7450509071350098,-0.23245678842067719,-0.539405345916748,-0.31607744097709656,9.289896965026855,-0.26893743872642517,-2.8127598762512207,-0.3222077190876007,0.4919879138469696,0.922639787197113,0.4148237705230713,-0.599480152130127,-0.5350223183631897,-0.42696136236190796
346885,9.313044548034668,-0.006258362904191017,3.096115827560425,0.4349484443664551,-0.26452797651290894,0.4820246398448944,0.7450646758079529,-0.23243440687656403,-0.5394030809402466,-0.31606537103652954,9.304760932922363,-0.30895426869392395,-2.82768177986145,-0.6326465606689453,0.5669307112693787,0.9218459129333496,0.41483020782470703,-0.5995034575462341,-0.5349254608154297,-0.42704376578330994
347052,9.321280479431152,-0.0014414492761716247,3.082204580307007,0.34280678629875183,-0.35948705673217773,0.5017592310905457,0.7450598478317261,-0.232442706823349,-0.5393999814987183,-0.3160758912563324,9.313498497009277,-0.3280978500843048,-2.8321382999420166,-0.747096836566925,0.7660182118415833,0.7756485939025879,0.41482338309288025,-0.5995219349861145,-0.534808874130249,-0.42717042565345764
347219,9.325118064880371,0.0009083566255867481,3.0944385528564453,0.44929155707359314,-0.36276546120643616,0.37638503313064575,0.7450501322746277,-0.2324337363243103,-0.5394048094749451,-0.31609708070755005,9.288656234741211,-0.3498855531215668,-2.8209328651428223,-0.7785236239433289,0.7499078512191772,0.5005170106887817,0.414808452129364,-0.5995060801506042,-0.5347326993942261,-0.42730244994163513
347385,9.355866432189941,-0.029879048466682434,3.092278003692627,0.13320526480674744,-0.41194185614585876,0.5070225596427917,0.7450351715087891,-0.23246602714061737,-0.5393983125686646,-0.31611955165863037,9.300084114074707,-0.32126808166503906,-2.8032443523406982,-0.5642990469932556,0.6458818316459656,0.3796762526035309,0.4147804379463196,-0.5994938611984253,-0.5346651673316956,-0.42743122577667236
347552,9.317055702209473,-0.029561426490545273,3.072387933731079,0.2622292637825012,-0.5085145831108093,0.6475595235824585,0.7450265288352966,-0.23249484598636627,-0.5394056439399719,-0.31610649824142456,9.291141510009766,-0.31450533866882324,-2.8069796562194824,-0.6768028736114502,0.4371383786201477,0.47542935609817505,0.41475194692611694,-0.5994859337806702,-0.5346199870109558,-0.42752671241760254
347719,9.293307304382324,-0.03737420216202736,3.0157313346862793,0.5221981406211853,-0.7035297155380249,0.6680496335029602,0.745011568069458,-0.23250766098499298,-0.5394446849822998,-0.3160657286643982,9.276137351989746,-0.3244869112968445,-2.8161492347717285,-0.38326841592788696,0.25313031673431396,0.7401556968688965,0.41473719477653503,-0.5995088815689087,-0.5345626473426819,-0.4275802671909332
347885,9.383363723754883,-0.022601187229156494,3.0644731521606445,0.06837950646877289,-0.3967791795730591,0.7552609443664551,0.7450067400932312,-0.23256637156009674,-0.539425253868103,-0.3160668611526489,9.239092826843262,-0.3187245726585388,-2.805166721343994,-0.08407368510961533,0.05608540400862694,0.9662199020385742,0.41477489471435547,-0.5995100140571594,-0.5345532894134521,-0.42755380272865295
348052,9.355701446533203,-0.0010943193919956684,3.0933799743652344,-0.003918742761015892,-0.6145638823509216,0.29163259267807007,0.744970977306366,-0.23259080946445465,-0.5394485592842102,-0.316093385219574,9.2079439163208,-0.35595792531967163,-2.8428032398223877,0.03778513893485069,-0.8202083110809326,1.052944540977478,0.41474616527557373,-0.599582850933075,-0.5345771312713623,-0.427450031042099
348219,9.356141090393066,-0.004155552946031094,3.1013762950897217,0.18256092071533203,-0.2118425965309143,0.2360786348581314,0.74497389793396,-0.23256660997867584,-0.5394411087036133,-0.3161172568798065,9.312602996826172,-0.36446627974510193,-2.850860118865967,0.5155516862869263,-1.0225359201431274,1.1440746784210205,0.4147348403930664,-0.5996639728546143,-0.5346158742904663,-0.42729875445365906
348385,9.302107810974121,-0.008266785182058811,3.1172330379486084,0.3810465633869171,-0.42326268553733826,0.7057515978813171,0.7449837923049927,-0.23257499933242798,-0.5394465923309326,-0.31607842445373535,9.35560417175293,-0.33503833413124084,-2.8525795936584473,0.48508530855178833,-0.8192093968391418,0.5207765698432922,0.41469424962997437,-0.599690318107605,-0.5346897840499878,-0.42720839381217957
348552,9.307337760925293,-0.002617260906845331,3.1288459300994873,0.6437047123908997,-0.6688883900642395,0.7828841209411621,0.7449794411659241,-0.23258483409881592,-0.5394827127456665,-0.3160196840763092,9.393494606018066,-0.3406946063041687,-2.848670244216919,0.3447149097919464,-0.0897597074508667,0.16775678098201752,0.41469427943229675,-0.5996301770210266,-0.5347663760185242,-0.4271969497203827
348719,9.297796249389648,0.012674553319811821,3.089524269104004,0.5617697834968567,-0.5537850260734558,0.6263649463653564,0.7449773550033569,-0.23258060216903687,-0.5395098924636841,-0.31598129868507385,9.312150955200195,-0.32169774174690247,-2.8295416831970215,0.3933406472206116,0.49650853872299194,0.01837070845067501,0.41472792625427246,-0.5995279550552368,-0.5348137021064758,-0.427248477935791
348885,9.28957748413086,-0.007927118800580502,3.108044147491455,0.47235581278800964,-0.6501271724700928,0.6683698296546936,0.7449646592140198,-0.23259666562080383,-0.5395408868789673,-0.315946489572525,9.30711841583252,-0.2826169431209564,-2.815497875213623,0.19357436895370483,0.5719635486602783,0.12828759849071503,0.4147699177265167,-0.5994256138801575,-0.5348520874977112,-0.4273033142089844
349052,9.29693603515625,-0.014617725275456905,3.062255382537842,0.7554529309272766,-0.6397155523300171,0.7048807144165039,0.7449694275856018,-0.23257602751255035,-0.5395858287811279,-0.3158735930919647,9.27847957611084,-0.2521984577178955,-2.822805404663086,-0.25216981768608093,0.7420575022697449,0.5788917541503906,0.414826363325119,-0.5993597507476807,-0.5348294973373413,-0.427369087934494
349219,9.283832550048828,-0.0007716123946011066,3.068098545074463,0.513400137424469,-0.4790087044239044,0.5451855063438416,0.7449731826782227,-0.23255808651447296,-0.5396093130111694,-0.3158379793167114,9.288373947143555,-0.2688623070716858,-2.8014042377471924,-0.5526837110519409,0.782999575138092,0.8766651153564453,0.4148544669151306,-0.5993613004684448,-0.5347284078598022,-0.4274662137031555
349385,9.319889068603516,0.008436272852122784,3.0758135318756104,0.225974440574646,-0.3415068984031677,0.4861481785774231,0.7449686527252197,-0.23257151246070862,-0.5396019220352173,-0.3158513009548187,9.275116920471191,-0.30397874116897583,-2.823821544647217,-0.7114312052726746,0.8414091467857361,1.0090699195861816,0.4148752689361572,-0.5993871092796326,-0.534593403339386,-0.427578866481781
349552,9.331351280212402,-0.020223451778292656,3.0792324542999268,-0.02200130745768547,-0.24415303766727448,0.5060620903968811,0.7449620366096497,-0.2326124608516693,-0.5395704507827759,-0.31589043140411377,9.295443534851074,-0.34485405683517456,-2.8394782543182373,-0.49321094155311584,0.899588406085968,1.1521424055099487,0.4149259626865387,-0.5994104146957397,-0.5344523787498474,-0.42767319083213806
349719,9.352919578552246,-0.00587928481400013,3.0640406608581543,0.015540504828095436,-0.14308534562587738,0.5417405366897583,0.7449714541435242,-0.23263944685459137,-0.5395320057868958,-0.31591397523880005,9.294672966003418,-0.36602768301963806,-2.8198297023773193,-0.2973378598690033,0.7480765581130981,1.0075331926345825,0.414985716342926,-0.5994042158126831,-0.5343627333641052,-0.4277358055114746
349885,9.345587730407715,-0.012384406290948391,3.0711002349853516,0.0757303535938263,-0.17005552351474762,0.46020257472991943,0.744970977306366,-0.23266416788101196,-0.5394981503486633,-0.31595489382743835,9.320093154907227,-0.3649106025695801,-2.8413708209991455,0.10413483530282974,0.6288365721702576,0.8917636871337891,0.4150625169277191,-0.5993742346763611,-0.5343132019042969,-0.4277651607990265
350052,9.33832836151123,-0.015971342101693153,3.089388847351074,0.3885638415813446,-0.2522210478782654,0.5811969637870789,0.7449902892112732,-0.23265165090560913,-0.5394905805587769,-0.31593161821365356,9.322908401489258,-0.3542790710926056,-2.810314655303955,0.32558220624923706,0.6200130581855774,0.6743503212928772,0.4151458740234375,-0.5993132591247559,-0.534298300743103,-0.42778828740119934
