// Start Time: Unknown
// Update Rate: 60.0Hz
//Filter Profile: human (46.1)
// Option Flags: AHS Disabled ICC Disabled
// Firmware Version: 4.0.2
0	sampleTimeFine	Year	Month	Day	Second	UTC_Nano	UTC_Year	UTC_Month	UTC_Day	UTC_Hour	UTC_Minute	UTC_Second	UTC_Valid	Acc_X	Acc_Y	Acc_Z	Mat[1][1]	Mat[2][1]	Mat[3][1]	Mat[1][2]	Mat[2][2]	Mat[3][2]	Mat[1][3]	Mat[2][3]	Mat[3][3]
0	2138592													-0.205330	0.411585	-0.513839	0.292343	-0.861733	-0.414670	-0.044904	-0.445504	0.894153	-0.955259	-0.242779	-0.168935
1	2138759													9.462150	-0.438247	2.764682	0.290283	-0.862882	-0.413728	-0.044703	-0.444100	0.894862	-0.955896	-0.241268	-0.167488
2	2138926													9.414834	-0.424152	2.791977	0.287943	-0.863612	-0.413839	-0.044707	-0.443793	0.895014	-0.956604	-0.239211	-0.166397
3	2139092													9.444961	-0.404575	2.768999	0.286571	-0.863269	-0.415504	-0.044349	-0.445182	0.894341	-0.957032	-0.237865	-0.165861
4	2139926													9.344354	-0.456600	2.858312	0.285876	-0.861286	-0.420072	-0.044336	-0.449785	0.892036	-0.957241	-0.236387	-0.166769
5	2140092													9.400939	-0.472846	2.830773	0.286168	-0.861082	-0.420292	-0.044580	-0.450126	0.891852	-0.957142	-0.236483	-0.167198
6	2140259													9.395898	-0.466094	2.832313	0.286411	-0.860956	-0.420384	-0.044960	-0.450359	0.891715	-0.957051	-0.236497	-0.167696
7	2140426													9.379354	-0.461828	2.798243	0.286535	-0.860976	-0.420259	-0.045359	-0.450350	0.891699	-0.956995	-0.236441	-0.168094
8	2140592													9.405162	-0.451876	2.831780	0.286681	-0.860923	-0.420269	-0.045755	-0.450486	0.891610	-0.956933	-0.236378	-0.168537
9	2140759													9.398148	-0.455298	2.772744	0.286863	-0.860898	-0.420195	-0.046075	-0.450522	0.891576	-0.956863	-0.236400	-0.168904
10	2140926													9.420444	-0.454081	2.799701	0.286949	-0.860914	-0.420103	-0.046456	-0.450536	0.891549	-0.956819	-0.236313	-0.169275
11	2141092													9.393162	-0.432302	2.815987	0.287092	-0.860936	-0.419960	-0.046759	-0.450489	0.891557	-0.956761	-0.236322	-0.169589
12	2141259													9.399598	-0.424056	2.807595	0.287182	-0.860991	-0.419788	-0.046930	-0.450369	0.891608	-0.956726	-0.236353	-0.169744
13	2141426													9.409664	-0.394629	2.842139	0.287348	-0.860948	-0.419762	-0.047067	-0.450407	0.891582	-0.956669	-0.236438	-0.169946
14	2141592													9.372643	-0.438516	2.861352	0.287418	-0.860536	-0.420557	-0.047207	-0.451278	0.891134	-0.956641	-0.236275	-0.170329
15	2141759													9.375134	-0.437901	2.897441	0.287516	-0.860746	-0.420061	-0.047324	-0.450811	0.891364	-0.956606	-0.236402	-0.170350
16	2141926													9.364614	-0.428654	2.876356	0.287598	-0.860688	-0.420123	-0.047443	-0.450920	0.891303	-0.956575	-0.236405	-0.170518
17	2142092													9.361603	-0.436004	2.879483	0.287685	-0.860624	-0.420195	-0.047564	-0.451041	0.891235	-0.956543	-0.236409	-0.170692
18	2142259													9.343264	-0.418717	2.875850	0.287629	-0.860675	-0.420128	-0.047623	-0.450975	0.891265	-0.956557	-0.236346	-0.170702
19	2142426													9.343865	-0.446135	2.876977	0.287468	-0.860791	-0.420001	-0.047668	-0.450825	0.891339	-0.956603	-0.236210	-0.170630
20	2142592													9.402115	-0.467970	2.846156	0.287348	-0.860779	-0.420108	-0.047680	-0.450917	0.891292	-0.956639	-0.236080	-0.170612
21	2142759													9.376074	-0.444903	2.844782	0.287283	-0.860705	-0.420303	-0.047684	-0.451107	0.891195	-0.956658	-0.235984	-0.170637
22	2142926													9.404230	-0.419658	2.831458	0.287197	-0.860789	-0.420190	-0.047738	-0.450988	0.891252	-0.956681	-0.235906	-0.170615
23	2143092													9.428982	-0.434599	2.821996	0.287262	-0.860790	-0.420144	-0.047789	-0.450965	0.891262	-0.956659	-0.235947	-0.170681
24	2143259													9.407095	-0.418770	2.828125	0.287457	-0.860626	-0.420348	-0.047844	-0.451226	0.891127	-0.956598	-0.236049	-0.170883
25	2143426													9.383894	-0.428963	2.846406	0.287703	-0.860600	-0.420231	-0.047914	-0.451167	0.891152	-0.956520	-0.236252	-0.171037
26	2143593													9.347841	-0.446264	2.887626	0.287889	-0.860497	-0.420315	-0.048008	-0.451312	0.891074	-0.956460	-0.236352	-0.171238
27	2143759													9.353134	-0.441139	2.877202	0.287975	-0.860552	-0.420144	-0.048076	-0.451167	0.891143	-0.956430	-0.236428	-0.171297
28	2143926													9.413685	-0.452980	2.835049	0.288100	-0.860588	-0.419984	-0.048129	-0.451039	0.891206	-0.956390	-0.236543	-0.171363
29	2144093													9.363475	-0.453284	2.856106	0.288193	-0.860494	-0.420113	-0.048213	-0.451210	0.891115	-0.956358	-0.236558	-0.171523
30	2144259													9.352640	-0.478092	2.898552	0.288128	-0.860476	-0.420195	-0.048315	-0.451308	0.891059	-0.956372	-0.236437	-0.171608
31	2144426													9.353316	-0.468366	2.884991	0.287926	-0.860612	-0.420054	-0.048450	-0.451158	0.891128	-0.956426	-0.236227	-0.171597
32	2144593													9.392642	-0.448052	2.845664	0.287738	-0.860644	-0.420119	-0.048570	-0.451219	0.891090	-0.956477	-0.235995	-0.171635
33	2144759													9.399135	-0.455974	2.828322	0.287646	-0.860627	-0.420215	-0.048596	-0.451309	0.891044	-0.956503	-0.235885	-0.171640
34	2144926													9.376040	-0.438374	2.838345	0.287562	-0.860605	-0.420317	-0.048654	-0.451413	0.890988	-0.956526	-0.235764	-0.171681
35	2145093													9.375729	-0.468743	2.813754	0.287512	-0.860634	-0.420293	-0.048791	-0.451412	0.890981	-0.956533	-0.235661	-0.171778
36	2145259													9.385328	-0.468479	2.869671	0.287529	-0.860792	-0.419957	-0.048942	-0.451105	0.891128	-0.956521	-0.235671	-0.171835
37	2145426													9.400304	-0.425107	2.860086	0.287485	-0.860873	-0.419822	-0.048967	-0.450963	0.891198	-0.956533	-0.235649	-0.171800
38	2145593													9.410160	-0.436598	2.856914	0.287494	-0.860821	-0.419923	-0.048952	-0.451066	0.891147	-0.956531	-0.235643	-0.171818
39	2145759													9.365746	-0.467832	2.896835	0.287446	-0.860759	-0.420082	-0.049036	-0.451242	0.891053	-0.956541	-0.235531	-0.171916
40	2145926													9.380509	-0.454952	2.868465	0.287330	-0.860805	-0.420067	-0.049131	-0.451229	0.891055	-0.956571	-0.235389	-0.171944
41	2146093													9.396209	-0.438252	2.863064	0.287280	-0.860801	-0.420109	-0.049206	-0.451281	0.891024	-0.956582	-0.235302	-0.172001
42	2146259													9.353985	-0.416446	2.884454	0.287242	-0.860817	-0.420103	-0.049275	-0.451285	0.891018	-0.956590	-0.235237	-0.172045
43	2146426													9.355738	-0.422880	2.878084	0.287081	-0.860974	-0.419890	-0.049323	-0.451046	0.891137	-0.956636	-0.235118	-0.171953
44	2146593													9.389116	-0.472739	2.845763	0.286951	-0.861019	-0.419888	-0.049351	-0.451027	0.891145	-0.956673	-0.234993	-0.171915
45	2146759													9.387663	-0.460713	2.855362	0.286928	-0.860972	-0.420000	-0.049422	-0.451156	0.891075	-0.956676	-0.234917	-0.172000
46	2146926													9.355652	-0.435457	2.875535	0.286950	-0.861024	-0.419877	-0.049496	-0.451051	0.891125	-0.956666	-0.234926	-0.172046
47	2147093													9.390194	-0.452365	2.854761	0.286943	-0.860975	-0.419983	-0.049507	-0.451162	0.891068	-0.956668	-0.234893	-0.172082
48	2147259													9.386454	-0.452540	2.794431	0.286851	-0.860894	-0.420211	-0.049599	-0.451403	0.890941	-0.956690	-0.234725	-0.172185
49	2147426													9.420671	-0.474037	2.832192	0.286897	-0.860887	-0.420196	-0.049646	-0.451408	0.890936	-0.956674	-0.234745	-0.172247
50	2147593													9.385509	-0.451761	2.850434	0.286874	-0.860873	-0.420240	-0.049675	-0.451456	0.890909	-0.956679	-0.234703	-0.172275
51	2147759													9.417798	-0.420221	2.825411	0.286858	-0.860877	-0.420241	-0.049675	-0.451455	0.890910	-0.956684	-0.234690	-0.172267
52	2147926													9.398663	-0.450370	2.868530	0.286866	-0.860848	-0.420295	-0.049683	-0.451514	0.890880	-0.956682	-0.234682	-0.172294
53	2148093													9.407084	-0.451010	2.858913	0.286852	-0.860834	-0.420333	-0.049777	-0.451574	0.890844	-0.956681	-0.234617	-0.172385
54	2148259													9.381029	-0.429077	2.862010	0.286824	-0.860795	-0.420434	-0.049845	-0.451689	0.890782	-0.956686	-0.234541	-0.172461
55	2148426													9.377370	-0.460626	2.861871	0.286768	-0.860888	-0.420280	-0.049955	-0.451546	0.890848	-0.956697	-0.234472	-0.172495
56	2148593													9.373672	-0.453169	2.842891	0.286692	-0.860895	-0.420318	-0.050051	-0.451595	0.890818	-0.956715	-0.234353	-0.172557
57	2148759													9.381972	-0.451099	2.863923	0.286636	-0.860950	-0.420243	-0.050116	-0.451523	0.890851	-0.956728	-0.234289	-0.172570
58	2148926													9.374598	-0.430676	2.865390	0.286624	-0.860988	-0.420175	-0.050203	-0.451472	0.890872	-0.956727	-0.234251	-0.172627
59	2149093													9.380217	-0.463205	2.873064	0.286631	-0.860973	-0.420200	-0.050298	-0.451523	0.890841	-0.956720	-0.234208	-0.172726
60	2149259													9.368855	-0.440828	2.845949	0.286563	-0.861060	-0.420069	-0.050380	-0.451394	0.890901	-0.956736	-0.234137	-0.172733
61	2149426													9.363909	-0.427836	2.890297	0.286709	-0.861100	-0.419886	-0.050459	-0.451251	0.890969	-0.956688	-0.234261	-0.172828
62	2149593													9.402596	-0.406826	2.870729	0.286814	-0.861133	-0.419747	-0.050545	-0.451149	0.891016	-0.956652	-0.234340	-0.172922
63	2149759													9.448282	-0.404097	2.854529	0.286872	-0.861240	-0.419488	-0.050668	-0.450921	0.891125	-0.956628	-0.234384	-0.172994
64	2149926													9.413618	-0.400092	2.868100	0.286899	-0.861363	-0.419216	-0.050851	-0.450690	0.891231	-0.956610	-0.234376	-0.173104
65	2150093													9.379293	-0.413699	2.858566	0.286892	-0.861425	-0.419093	-0.051038	-0.450607	0.891262	-0.956602	-0.234307	-0.173241
66	2150259													9.371360	-0.441705	2.853957	0.286767	-0.861539	-0.418945	-0.051268	-0.450486	0.891310	-0.956628	-0.234120	-0.173354
67	2150426													9.400121	-0.467769	2.822787	0.286662	-0.861690	-0.418707	-0.051498	-0.450277	0.891403	-0.956647	-0.233969	-0.173452
68	2150593													9.360564	-0.457065	2.829075	0.286692	-0.861745	-0.418574	-0.051800	-0.450219	0.891415	-0.956621	-0.233879	-0.173713
69	2150759													9.355397	-0.452570	2.813814	0.286793	-0.861975	-0.418030	-0.052114	-0.449752	0.891632	-0.956574	-0.233929	-0.173907
70	2150926													9.361608	-0.470910	2.837196	0.286950	-0.862198	-0.417462	-0.052473	-0.449282	0.891848	-0.956507	-0.234010	-0.174164
71	2151093													9.355150	-0.481637	2.856102	0.287028	-0.862383	-0.417025	-0.052840	-0.448935	0.892001	-0.956464	-0.233994	-0.174426
72	2151259													9.373901	-0.492474	2.877199	0.287130	-0.862628	-0.416448	-0.053225	-0.448451	0.892221	-0.956412	-0.234018	-0.174677
73	2151426													9.371884	-0.489560	2.885647	0.287194	-0.862755	-0.416140	-0.053529	-0.448219	0.892320	-0.956375	-0.233994	-0.174909
74	2151593													9.395507	-0.501572	2.880503	0.287277	-0.862666	-0.416268	-0.053625	-0.448390	0.892228	-0.956345	-0.233994	-0.175073
75	2151759													9.388494	-0.490386	2.889377	0.287417	-0.862421	-0.416679	-0.053411	-0.448790	0.892040	-0.956315	-0.234132	-0.175053
76	2151926													9.383306	-0.440803	2.890284	0.287481	-0.862091	-0.417319	-0.053247	-0.449423	0.891731	-0.956305	-0.234135	-0.175104
77	2152093													9.386632	-0.453765	2.840733	0.287599	-0.861927	-0.417574	-0.053198	-0.449697	0.891595	-0.956272	-0.234208	-0.175185
78	2152259													9.365931	-0.489867	2.874270	0.287726	-0.861895	-0.417554	-0.053182	-0.449697	0.891597	-0.956235	-0.234329	-0.175227
79	2152426													9.375173	-0.428994	2.860718	0.287713	-0.861778	-0.417803	-0.053007	-0.449909	0.891500	-0.956249	-0.234350	-0.175125
80	2152593													9.380235	-0.467049	2.933105	0.287809	-0.861694	-0.417910	-0.052910	-0.450014	0.891453	-0.956225	-0.234457	-0.175110
81	2152759													9.350388	-0.518700	2.901785	0.287823	-0.861768	-0.417749	-0.052904	-0.449850	0.891536	-0.956221	-0.234504	-0.175068
82	2152926													9.342655	-0.497132	2.918446	0.287774	-0.861837	-0.417640	-0.052882	-0.449721	0.891602	-0.956237	-0.234494	-0.174993
83	2153093													9.333419	-0.446666	2.891529	0.287725	-0.861990	-0.417358	-0.052864	-0.449416	0.891757	-0.956253	-0.234518	-0.174877
84	2153259													9.343832	-0.439881	2.904527	0.287713	-0.861920	-0.417511	-0.052861	-0.449572	0.891679	-0.956257	-0.234477	-0.174909
85	2153426													9.340360	-0.479641	2.889007	0.287654	-0.861959	-0.417471	-0.052810	-0.449506	0.891715	-0.956277	-0.234459	-0.174822
86	2153593													9.381296	-0.496334	2.877832	0.287619	-0.861913	-0.417589	-0.052828	-0.449626	0.891653	-0.956287	-0.234396	-0.174854
87	2153759													9.359330	-0.487074	2.859647	0.287594	-0.861845	-0.417747	-0.052891	-0.449800	0.891562	-0.956291	-0.234312	-0.174944
88	2153926													9.382620	-0.483035	2.871648	0.287581	-0.861958	-0.417522	-0.052986	-0.449589	0.891663	-0.956289	-0.234303	-0.174965
89	2154093													9.362989	-0.462042	2.879176	0.287600	-0.861941	-0.417545	-0.053021	-0.449625	0.891642	-0.956282	-0.234297	-0.175013
90	2154259													9.371189	-0.463362	2.852538	0.287507	-0.861989	-0.417509	-0.053130	-0.449597	0.891650	-0.956304	-0.234174	-0.175060
91	2154426													9.420702	-0.472279	2.887036	0.287476	-0.862016	-0.417475	-0.053204	-0.449574	0.891657	-0.956309	-0.234119	-0.175105
92	2154593													9.389637	-0.448828	2.843254	0.287341	-0.862073	-0.417451	-0.053246	-0.449533	0.891675	-0.956347	-0.233987	-0.175071
93	2154759													9.384306	-0.438436	2.875367	0.287293	-0.862002	-0.417630	-0.053263	-0.449714	0.891583	-0.956361	-0.233902	-0.175113
94	2154926													9.378605	-0.452640	2.878272	0.287158	-0.862145	-0.417428	-0.053325	-0.449494	0.891690	-0.956398	-0.233797	-0.175050
95	2155093													9.397975	-0.442932	2.869289	0.286964	-0.862306	-0.417228	-0.053393	-0.449268	0.891800	-0.956452	-0.233638	-0.174964
96	2155259													9.376847	-0.430289	2.860734	0.286771	-0.862412	-0.417141	-0.053435	-0.449151	0.891856	-0.956508	-0.233469	-0.174887
97	2155426													9.388434	-0.413261	2.868119	0.286578	-0.862670	-0.416741	-0.053513	-0.448720	0.892069	-0.956561	-0.233346	-0.174758
98	2155593													9.395100	-0.448349	2.851114	0.286372	-0.862833	-0.416545	-0.053558	-0.448489	0.892182	-0.956621	-0.233186	-0.174647
99	2155759													9.394076	-0.444184	2.864050	0.286161	-0.862939	-0.416471	-0.053535	-0.448367	0.892245	-0.956685	-0.233030	-0.174503
100	2155926													9.382752	-0.442201	2.862717	0.285928	-0.863122	-0.416251	-0.053535	-0.448096	0.892381	-0.956754	-0.232873	-0.174330
101	2156093													9.388941	-0.465839	2.857684	0.285696	-0.863241	-0.416164	-0.053522	-0.447960	0.892450	-0.956825	-0.232695	-0.174183
102	2156259													9.412640	-0.459903	2.806272	0.285555	-0.863296	-0.416148	-0.053507	-0.447913	0.892475	-0.956867	-0.232584	-0.174096
103	2156426													9.403032	-0.427182	2.870185	0.285467	-0.863432	-0.415925	-0.053500	-0.447664	0.892600	-0.956894	-0.232556	-0.173987
104	2156593													9.403029	-0.421796	2.827067	0.285407	-0.863634	-0.415547	-0.053539	-0.447272	0.892794	-0.956910	-0.232562	-0.173892
105	2156759													9.392633	-0.439813	2.832503	0.285351	-0.863794	-0.415253	-0.053603	-0.446973	0.892940	-0.956923	-0.232542	-0.173846
106	2156926													9.378267	-0.452573	2.827621	0.285298	-0.863987	-0.414887	-0.053663	-0.446598	0.893124	-0.956935	-0.232543	-0.173778
107	2157093													9.389594	-0.441440	2.860168	0.285250	-0.863999	-0.414896	-0.053725	-0.446614	0.893112	-0.956946	-0.232471	-0.173815
108	2157259													9.388342	-0.438933	2.849100	0.285203	-0.864097	-0.414723	-0.053823	-0.446450	0.893188	-0.956955	-0.232418	-0.173837
109	2157426													9.363525	-0.459732	2.875685	0.285177	-0.864137	-0.414658	-0.053959	-0.446411	0.893200	-0.956955	-0.232345	-0.173934
110	2157593													9.373197	-0.448728	2.883228	0.285175	-0.864271	-0.414379	-0.054099	-0.446156	0.893319	-0.956947	-0.232335	-0.173989
111	2157759													9.361270	-0.450885	2.897575	0.285149	-0.864416	-0.414096	-0.054243	-0.445894	0.893441	-0.956947	-0.232302	-0.174035
112	2157926													9.374724	-0.490545	2.856042	0.285075	-0.864549	-0.413869	-0.054426	-0.445689	0.893532	-0.956959	-0.232198	-0.174109
113	2158093													9.364347	-0.499734	2.871734	0.284931	-0.864730	-0.413590	-0.054654	-0.445429	0.893647	-0.956989	-0.232023	-0.174178
114	2158259													9.368205	-0.483690	2.830749	0.284817	-0.864849	-0.413420	-0.054879	-0.445286	0.893705	-0.957010	-0.231854	-0.174287
115	2158426													9.387778	-0.470129	2.846403	0.284695	-0.864941	-0.413311	-0.055142	-0.445215	0.893724	-0.957031	-0.231648	-0.174445
116	2158593													9.375640	-0.489012	2.845819	0.284578	-0.865143	-0.412968	-0.055410	-0.444903	0.893863	-0.957050	-0.231491	-0.174547
117	2158759													9.386035	-0.513828	2.846945	0.284406	-0.865251	-0.412860	-0.055674	-0.444823	0.893886	-0.957086	-0.231241	-0.174682
118	2158926													9.410232	-0.498587	2.827098	0.284190	-0.865380	-0.412738	-0.055965	-0.444727	0.893916	-0.957133	-0.230944	-0.174818
119	2159093													9.399807	-0.502769	2.853838	0.283959	-0.865485	-0.412678	-0.056265	-0.444693	0.893914	-0.957184	-0.230616	-0.174971
120	2159259													9.404009	-0.518062	2.848475	0.283749	-0.865545	-0.412697	-0.056497	-0.444729	0.893882	-0.957233	-0.230321	-0.175092
121	2159426													9.373376	-0.480782	2.817967	0.283556	-0.865645	-0.412619	-0.056737	-0.444670	0.893896	-0.957276	-0.230059	-0.175203
122	2159593													9.377234	-0.506261	2.829342	0.283422	-0.865865	-0.412250	-0.056965	-0.444319	0.894056	-0.957302	-0.229911	-0.175254
123	2159759													9.405032	-0.460251	2.841411	0.283349	-0.865913	-0.412199	-0.057033	-0.444268	0.894077	-0.957320	-0.229827	-0.175268
124	2159926													9.417145	-0.464084	2.836748	0.283309	-0.865979	-0.412087	-0.057001	-0.444137	0.894144	-0.957333	-0.229830	-0.175190
125	2160093													9.347198	-0.504560	2.882451	0.283333	-0.865912	-0.412212	-0.057027	-0.444277	0.894073	-0.957325	-0.229813	-0.175258
126	2160260													9.322737	-0.514438	2.913393	0.283211	-0.865894	-0.412335	-0.057088	-0.444396	0.894010	-0.957357	-0.229654	-0.175290
127	2160426													9.348893	-0.481787	2.875030	0.283043	-0.865965	-0.412299	-0.057014	-0.444309	0.894057	-0.957411	-0.229550	-0.175131
128	2160593													9.346108	-0.433026	2.840326	0.282810	-0.865997	-0.412394	-0.056937	-0.444344	0.894045	-0.957485	-0.229364	-0.174972
129	2160760													9.406402	-0.464752	2.847628	0.282637	-0.866072	-0.412355	-0.056855	-0.444252	0.894096	-0.957541	-0.229260	-0.174802
130	2160926													9.393806	-0.525338	2.821938	0.282526	-0.866069	-0.412437	-0.056759	-0.444293	0.894082	-0.957579	-0.229192	-0.174682
131	2161093													9.379583	-0.485574	2.832978	0.282381	-0.866069	-0.412536	-0.056730	-0.444361	0.894050	-0.957623	-0.229060	-0.174611
132	2161260													9.381943	-0.478215	2.832404	0.282247	-0.866085	-0.412593	-0.056698	-0.444387	0.894039	-0.957665	-0.228947	-0.174532
133	2161426													9.388660	-0.516476	2.837660	0.282168	-0.866209	-0.412388	-0.056616	-0.444140	0.894167	-0.957693	-0.228958	-0.174363
134	2161593													9.384826	-0.505099	2.813399	0.282094	-0.866249	-0.412355	-0.056561	-0.444080	0.894200	-0.957718	-0.228925	-0.174268
135	2161760													9.395703	-0.508174	2.784716	0.281924	-0.866284	-0.412397	-0.056568	-0.444093	0.894193	-0.957768	-0.228766	-0.174205
136	2161926													9.372511	-0.512765	2.847369	0.281821	-0.866296	-0.412441	-0.056509	-0.444105	0.894191	-0.957802	-0.228695	-0.174111
137	2162093													9.410366	-0.470813	2.791249	0.281686	-0.866253	-0.412625	-0.056459	-0.444257	0.894118	-0.957844	-0.228565	-0.174049
138	2162260													9.389729	-0.496878	2.813380	0.281571	-0.866203	-0.412807	-0.056464	-0.444425	0.894035	-0.957878	-0.228425	-0.174046
139	2162426													9.420984	-0.497981	2.828388	0.281458	-0.866290	-0.412701	-0.056538	-0.444312	0.894086	-0.957906	-0.228314	-0.174034
140	2162593													9.413493	-0.497404	2.832122	0.281436	-0.866298	-0.412700	-0.056634	-0.444330	0.894071	-0.957907	-0.228251	-0.174113
141	2162760													9.382236	-0.459675	2.850163	0.281372	-0.866439	-0.412449	-0.056730	-0.444081	0.894189	-0.957920	-0.228201	-0.174105
142	2162926													9.366988	-0.468126	2.865225	0.281315	-0.866551	-0.412251	-0.056788	-0.443881	0.894285	-0.957934	-0.228165	-0.174080
143	2163093													9.389398	-0.482613	2.856579	0.281216	-0.866635	-0.412143	-0.056805	-0.443754	0.894346	-0.957962	-0.228093	-0.174020
144	2163260													9.422730	-0.486997	2.832174	0.281123	-0.866766	-0.411930	-0.056773	-0.443509	0.894470	-0.957991	-0.228069	-0.173889
145	2163426													9.409095	-0.494021	2.831859	0.281055	-0.866792	-0.411922	-0.056715	-0.443475	0.894491	-0.958014	-0.228039	-0.173801
146	2163593													9.379340	-0.495244	2.801737	0.280987	-0.866786	-0.411980	-0.056603	-0.443495	0.894488	-0.958041	-0.228020	-0.173679
147	2163760													9.389157	-0.464006	2.801304	0.280989	-0.866837	-0.411872	-0.056471	-0.443353	0.894567	-0.958048	-0.228104	-0.173528
148	2163926													9.379391	-0.465232	2.810806	0.281044	-0.866897	-0.411709	-0.056328	-0.443161	0.894671	-0.958041	-0.228251	-0.173378
149	2164093													9.366179	-0.468433	2.804168	0.281143	-0.866889	-0.411659	-0.056150	-0.443085	0.894719	-0.958022	-0.228429	-0.173246
150	2164260													9.397150	-0.482266	2.804998	0.281307	-0.866922	-0.411476	-0.056000	-0.442892	0.894825	-0.957982	-0.228678	-0.173136
151	2164426													9.394056	-0.477756	2.810108	0.281496	-0.866877	-0.411442	-0.055816	-0.442847	0.894858	-0.957938	-0.228934	-0.173045
152	2164593													9.362725	-0.474831	2.848910	0.281716	-0.866795	-0.411464	-0.055610	-0.442862	0.894864	-0.957885	-0.229216	-0.172964
153	2164760													9.373794	-0.466373	2.876469	0.281886	-0.866759	-0.411424	-0.055443	-0.442812	0.894899	-0.957845	-0.229449	-0.172878
154	2164926													9.397926	-0.482126	2.849036	0.282000	-0.866718	-0.411433	-0.055273	-0.442802	0.894914	-0.957821	-0.229625	-0.172777
155	2165093													9.373318	-0.470361	2.845792	0.282144	-0.866709	-0.411351	-0.055159	-0.442717	0.894963	-0.957785	-0.229819	-0.172717
156	2165260													9.394103	-0.473533	2.838668	0.282235	-0.866700	-0.411308	-0.055072	-0.442668	0.894993	-0.957763	-0.229947	-0.172668
157	2165426													9.409066	-0.488606	2.825232	0.282334	-0.866700	-0.411240	-0.055013	-0.442602	0.895029	-0.957737	-0.230074	-0.172641
158	2165593													9.376017	-0.497272	2.826034	0.282427	-0.866703	-0.411170	-0.054991	-0.442543	0.895060	-0.957711	-0.230178	-0.172646
159	2165760													9.396807	-0.489150	2.800128	0.282451	-0.866734	-0.411088	-0.054970	-0.442457	0.895104	-0.957706	-0.230225	-0.172616
160	2165926													9.429193	-0.473644	2.807709	0.282461	-0.866753	-0.411041	-0.054981	-0.442413	0.895125	-0.957702	-0.230238	-0.172620
161	2166093													9.401120	-0.485395	2.804001	0.282477	-0.866732	-0.411075	-0.054981	-0.442451	0.895105	-0.957697	-0.230246	-0.172637
162	2166260													9.368362	-0.460424	2.747725	0.282546	-0.866658	-0.411182	-0.055049	-0.442591	0.895032	-0.957673	-0.230253	-0.172761
163	2166426													9.403249	-0.451016	2.759959	0.282692	-0.866529	-0.411355	-0.055074	-0.442803	0.894926	-0.957628	-0.230333	-0.172900
164	2166593													9.424987	-0.420875	2.811679	0.282922	-0.866464	-0.411334	-0.054997	-0.442805	0.894930	-0.957565	-0.230573	-0.172932
165	2166760													9.426865	-0.430153	2.836855	0.283162	-0.866427	-0.411247	-0.054852	-0.442725	0.894978	-0.957502	-0.230866	-0.172888
166	2166926													9.390243	-0.473442	2.893583	0.283445	-0.866280	-0.411361	-0.054757	-0.442873	0.894911	-0.957424	-0.231133	-0.172965
167	2167093													9.353844	-0.491410	2.878378	0.283590	-0.866077	-0.411688	-0.054680	-0.443219	0.894744	-0.957385	-0.231230	-0.173050
168	2167260													9.371332	-0.434989	2.853137	0.283645	-0.865995	-0.411822	-0.054502	-0.443325	0.894702	-0.957379	-0.231332	-0.172946
169	2167426													9.381751	-0.423072	2.899875	0.283737	-0.865871	-0.412021	-0.054324	-0.443504	0.894624	-0.957362	-0.231455	-0.172876
170	2167593													9.373389	-0.458749	2.847602	0.283860	-0.865814	-0.412056	-0.054143	-0.443520	0.894628	-0.957336	-0.231639	-0.172775
171	2167760													9.375288	-0.471934	2.850452	0.283998	-0.865801	-0.411988	-0.053986	-0.443438	0.894678	-0.957304	-0.231845	-0.172676
172	2167926													9.391056	-0.461982	2.853374	0.284163	-0.865748	-0.411986	-0.053870	-0.443438	0.894685	-0.957261	-0.232043	-0.172646
173	2168093													9.353141	-0.460916	2.859156	0.284303	-0.865686	-0.412018	-0.053789	-0.443478	0.894670	-0.957224	-0.232195	-0.172646
174	2168260													9.364299	-0.458670	2.854289	0.284402	-0.865704	-0.411912	-0.053691	-0.443363	0.894733	-0.957201	-0.232348	-0.172574
175	2168426													9.378371	-0.476658	2.835164	0.284547	-0.865623	-0.411983	-0.053608	-0.443443	0.894698	-0.957162	-0.232498	-0.172585
176	2168593													9.384050	-0.478650	2.833340	0.284646	-0.865652	-0.411854	-0.053607	-0.443328	0.894755	-0.957133	-0.232610	-0.172597
177	2168760													9.399570	-0.459779	2.860197	0.284795	-0.865628	-0.411801	-0.053590	-0.443297	0.894771	-0.957089	-0.232758	-0.172638
178	2168926													9.417663	-0.454629	2.797731	0.284902	-0.865591	-0.411804	-0.053474	-0.443292	0.894781	-0.957064	-0.232904	-0.172582
179	2169093													9.387752	-0.449783	2.847321	0.285054	-0.865483	-0.411927	-0.053395	-0.443428	0.894718	-0.957023	-0.233048	-0.172613
180	2169260													9.389097	-0.472949	2.839333	0.285097	-0.865410	-0.412051	-0.053383	-0.443561	0.894653	-0.957011	-0.233066	-0.172656
181	2169426													9.415704	-0.469797	2.841816	0.285139	-0.865351	-0.412145	-0.053370	-0.443663	0.894603	-0.956999	-0.233090	-0.172689
182	2169593													9.358053	-0.421727	2.848287	0.285201	-0.865326	-0.412154	-0.053404	-0.443692	0.894587	-0.956979	-0.233127	-0.172754
183	2169760													9.353761	-0.452741	2.835807	0.285268	-0.865357	-0.412044	-0.053400	-0.443590	0.894637	-0.956959	-0.233208	-0.172752
184	2169926													9.360222	-0.460422	2.848228	0.285286	-0.865366	-0.412013	-0.053418	-0.443565	0.894649	-0.956953	-0.233221	-0.172769
185	2170093													9.377713	-0.455531	2.851213	0.285304	-0.865266	-0.412209	-0.053439	-0.443776	0.894543	-0.956946	-0.233189	-0.172850
186	2170260													9.369678	-0.451940	2.869620	0.285296	-0.865244	-0.412260	-0.053434	-0.443827	0.894518	-0.956949	-0.233174	-0.172856
187	2170426													9.399074	-0.458463	2.850473	0.285316	-0.865226	-0.412285	-0.053440	-0.443857	0.894503	-0.956942	-0.233184	-0.172877
188	2170593													9.394835	-0.446618	2.833215	0.285425	-0.865203	-0.412257	-0.053421	-0.443845	0.894510	-0.956911	-0.233292	-0.172904
189	2170760													9.367936	-0.436397	2.862922	0.285534	-0.865166	-0.412259	-0.053365	-0.443853	0.894509	-0.956882	-0.233413	-0.172905
190	2170926													9.360888	-0.441490	2.874216	0.285556	-0.865195	-0.412183	-0.053348	-0.443774	0.894549	-0.956876	-0.233455	-0.172879
191	2171093													9.378361	-0.453767	2.870021	0.285565	-0.865180	-0.412209	-0.053353	-0.443804	0.894534	-0.956873	-0.233456	-0.172895
192	2171260													9.405075	-0.448599	2.872756	0.285597	-0.865142	-0.412266	-0.053330	-0.443864	0.894506	-0.956865	-0.233482	-0.172904
193	2171426													9.373959	-0.446819	2.861534	0.285646	-0.865184	-0.412145	-0.053305	-0.443741	0.894568	-0.956852	-0.233560	-0.172871
194	2171593													9.365376	-0.456961	2.861641	0.285722	-0.865209	-0.412039	-0.053301	-0.443645	0.894616	-0.956829	-0.233649	-0.172876
195	2171760													9.377123	-0.454815	2.894207	0.285793	-0.865201	-0.412007	-0.053337	-0.443635	0.894619	-0.956806	-0.233700	-0.172935
196	2171926													9.368219	-0.460797	2.876842	0.285803	-0.865150	-0.412106	-0.053355	-0.443743	0.894564	-0.956802	-0.233681	-0.172983
197	2172093													9.385603	-0.465952	2.906050	0.285817	-0.865116	-0.412170	-0.053384	-0.443818	0.894525	-0.956796	-0.233667	-0.173034
198	2172260													9.374987	-0.477159	2.864700	0.285808	-0.865183	-0.412035	-0.053415	-0.443685	0.894590	-0.956797	-0.233673	-0.173022
199	2172426													9.381457	-0.479960	2.861494	0.285772	-0.865208	-0.412007	-0.053465	-0.443662	0.894598	-0.956805	-0.233623	-0.173044
200	2172593													9.403361	-0.454495	2.862305	0.285775	-0.865209	-0.412002	-0.053525	-0.443672	0.894589	-0.956801	-0.233599	-0.173100
201	2172760													9.399563	-0.485578	2.861474	0.285799	-0.865180	-0.412047	-0.053564	-0.443732	0.894557	-0.956791	-0.233592	-0.173161
202	2172926													9.363518	-0.445750	2.839092	0.285818	-0.865114	-0.412173	-0.053621	-0.443880	0.894481	-0.956783	-0.233558	-0.173257
203	2173093													9.365227	-0.479980	2.795307	0.285812	-0.865008	-0.412399	-0.053730	-0.444139	0.894346	-0.956778	-0.233456	-0.173417
204	2173260													9.413684	-0.453440	2.846487	0.285917	-0.864953	-0.412441	-0.053770	-0.444212	0.894307	-0.956745	-0.233521	-0.173516
205	2173426													9.436545	-0.423367	2.796147	0.286130	-0.864801	-0.412612	-0.053762	-0.444427	0.894200	-0.956681	-0.233674	-0.173658
206	2173593													9.394977	-0.473156	2.854347	0.286483	-0.864632	-0.412722	-0.053821	-0.444621	0.894100	-0.956573	-0.233931	-0.173911
207	2173760													9.356936	-0.520937	2.874215	0.286707	-0.864573	-0.412690	-0.053934	-0.444658	0.894075	-0.956499	-0.234080	-0.174116
208	2173926													9.385334	-0.492029	2.872571	0.286860	-0.864529	-0.412675	-0.053949	-0.444675	0.894066	-0.956452	-0.234209	-0.174200
209	2174093													9.361670	-0.462901	2.885935	0.286973	-0.864424	-0.412818	-0.053904	-0.444832	0.893990	-0.956421	-0.234298	-0.174251
210	2174260													9.332314	-0.460100	2.959430	0.287214	-0.864420	-0.412657	-0.053704	-0.444663	0.894087	-0.956360	-0.234633	-0.174136
211	2174426													9.357402	-0.501625	2.944803	0.287948	-0.864633	-0.411699	-0.053454	-0.443749	0.894555	-0.956153	-0.235579	-0.173995
212	2174593													9.382489	-0.534597	2.896727	0.289172	-0.864673	-0.410755	-0.053298	-0.442964	0.894954	-0.955792	-0.236903	-0.174178
213	2174760													9.372681	-0.484273	2.851028	0.290244	-0.864505	-0.410352	-0.053157	-0.442714	0.895086	-0.955475	-0.237980	-0.174450
214	2174926													9.423333	-0.475117	2.814842	0.291020	-0.864391	-0.410043	-0.052992	-0.442500	0.895202	-0.955248	-0.238793	-0.174582
215	2175093													9.398390	-0.433801	2.873942	0.291715	-0.864101	-0.410161	-0.052704	-0.442682	0.895129	-0.955052	-0.239505	-0.174678
216	2175260													9.316155	-0.413581	2.862568	0.292008	-0.863923	-0.410327	-0.052444	-0.442844	0.895064	-0.954977	-0.239847	-0.174621
217	2175426													9.374761	-0.414565	2.871831	0.292187	-0.863792	-0.410475	-0.052223	-0.442976	0.895011	-0.954934	-0.240074	-0.174542
218	2175593													9.392076	-0.439184	2.906079	0.292258	-0.863649	-0.410727	-0.051976	-0.443188	0.894921	-0.954926	-0.240200	-0.174414
219	2175760													9.399594	-0.410451	2.860386	0.292363	-0.863526	-0.410909	-0.051767	-0.443343	0.894856	-0.954905	-0.240351	-0.174319
220	2175926													9.361643	-0.418780	2.882691	0.292325	-0.863507	-0.410976	-0.051614	-0.443368	0.894852	-0.954925	-0.240376	-0.174177
221	2176093													9.381010	-0.451364	2.903286	0.292113	-0.863554	-0.411029	-0.051537	-0.443363	0.894859	-0.954994	-0.240217	-0.174017
222	2176260													9.379246	-0.489482	2.908166	0.291766	-0.863615	-0.411148	-0.051499	-0.443411	0.894838	-0.955102	-0.239909	-0.173848
223	2176426													9.374306	-0.453048	2.913363	0.291439	-0.863671	-0.411260	-0.051463	-0.443457	0.894817	-0.955204	-0.239620	-0.173688
224	2176593													9.387676	-0.464071	2.922636	0.291175	-0.863788	-0.411202	-0.051376	-0.443325	0.894887	-0.955289	-0.239443	-0.173464
225	2176760													9.332116	-0.450434	2.901391	0.291066	-0.863839	-0.411172	-0.051266	-0.443246	0.894933	-0.955328	-0.239406	-0.173299
226	2176927													9.357522	-0.452590	2.899425	0.290958	-0.863891	-0.411140	-0.051151	-0.443164	0.894980	-0.955367	-0.239372	-0.173131
227	2177093													9.379798	-0.440828	2.891782	0.290953	-0.863856	-0.411217	-0.051022	-0.443210	0.894964	-0.955376	-0.239411	-0.173029
228	2177260													9.371630	-0.426617	2.894718	0.290986	-0.863868	-0.411168	-0.050901	-0.443135	0.895009	-0.955372	-0.239506	-0.172918
229	2177427													9.378507	-0.422833	2.895855	0.291066	-0.863774	-0.411309	-0.050732	-0.443254	0.894959	-0.955357	-0.239626	-0.172838
230	2177593													9.335402	-0.405161	2.914792	0.291092	-0.863671	-0.411507	-0.050571	-0.443423	0.894885	-0.955358	-0.239683	-0.172753
231	2177760													9.344837	-0.384624	2.913241	0.291058	-0.863610	-0.411659	-0.050421	-0.443537	0.894837	-0.955376	-0.239693	-0.172639
232	2177927													9.367899	-0.392213	2.930352	0.291036	-0.863563	-0.411774	-0.050243	-0.443608	0.894812	-0.955392	-0.239733	-0.172494
233	2178093													9.389153	-0.411575	2.924465	0.291025	-0.863523	-0.411865	-0.050149	-0.443676	0.894783	-0.955400	-0.239750	-0.172425
234	2178260													9.375271	-0.417697	2.914351	0.291021	-0.863509	-0.411898	-0.050110	-0.443700	0.894774	-0.955404	-0.239758	-0.172396
235	2178427													9.367517	-0.437123	2.945035	0.291025	-0.863464	-0.411988	-0.050107	-0.443793	0.894727	-0.955402	-0.239745	-0.172421
236	2178593													9.340618	-0.416416	2.916969	0.290968	-0.863437	-0.412085	-0.050094	-0.443880	0.894685	-0.955421	-0.239681	-0.172408
237	2178760													9.343212	-0.430141	2.924579	0.290727	-0.863503	-0.412117	-0.050111	-0.443872	0.894688	-0.955493	-0.239458	-0.172317
238	2178927													9.364605	-0.441485	2.874037	0.290417	-0.863569	-0.412196	-0.050192	-0.443916	0.894661	-0.955583	-0.239136	-0.172265
239	2179093													9.368190	-0.442422	2.898323	0.290143	-0.863721	-0.412071	-0.050316	-0.443767	0.894729	-0.955660	-0.238865	-0.172215
240	2179260													9.375468	-0.458165	2.880158	0.289913	-0.863936	-0.411782	-0.050325	-0.443426	0.894897	-0.955729	-0.238720	-0.172033
241	2179427													9.396427	-0.441583	2.874777	0.289927	-0.864002	-0.411635	-0.050355	-0.443284	0.894966	-0.955723	-0.238747	-0.172028
242	2179593													9.309514	-0.510233	2.872944	0.290063	-0.864134	-0.411260	-0.050473	-0.442951	0.895124	-0.955676	-0.238885	-0.172100
243	2179760													9.406509	-0.428290	2.864296	0.290070	-0.864198	-0.411122	-0.050421	-0.442796	0.895203	-0.955676	-0.238942	-0.172016
244	2179927													9.442646	-0.395704	2.850541	0.290126	-0.864195	-0.411089	-0.050294	-0.442740	0.895238	-0.955666	-0.239056	-0.171914
245	2180093													9.387112	-0.440392	2.904642	0.290206	-0.864194	-0.411034	-0.050226	-0.442681	0.895271	-0.955645	-0.239169	-0.171873
246	2180260													9.356742	-0.468527	2.913681	0.290119	-0.864172	-0.411143	-0.050205	-0.442773	0.895227	-0.955673	-0.239081	-0.171843
247	2180427													9.380136	-0.417416	2.892500	0.289980	-0.864151	-0.411283	-0.050176	-0.442885	0.895173	-0.955716	-0.238946	-0.171788
248	2180593													9.355239	-0.395407	2.909623	0.289775	-0.864161	-0.411408	-0.050158	-0.442971	0.895132	-0.955780	-0.238751	-0.171706
249	2180760													9.378608	-0.424578	2.904180	0.289523	-0.864194	-0.411515	-0.050147	-0.443033	0.895102	-0.955857	-0.238516	-0.171605
250	2180927													9.374327	-0.463882	2.898902	0.289280	-0.864293	-0.411479	-0.050120	-0.442944	0.895147	-0.955932	-0.238325	-0.171453
251	2181093													9.361038	-0.449928	2.896078	0.289123	-0.864322	-0.411528	-0.050150	-0.442972	0.895132	-0.955977	-0.238165	-0.171419
252	2181260													9.360466	-0.451630	2.895885	0.288972	-0.864425	-0.411417	-0.050150	-0.442830	0.895202	-0.956023	-0.238056	-0.171316
253	2181427													9.382632	-0.468641	2.834470	0.288859	-0.864517	-0.411303	-0.050134	-0.442687	0.895273	-0.956058	-0.237988	-0.171216
254	2181593													9.383282	-0.465729	2.860987	0.288852	-0.864454	-0.411440	-0.050041	-0.442804	0.895221	-0.956065	-0.237998	-0.171164
255	2181760													9.368460	-0.451468	2.861369	0.288774	-0.864426	-0.411555	-0.049997	-0.442898	0.895177	-0.956091	-0.237928	-0.171116
256	2181927													9.415233	-0.473930	2.866819	0.288792	-0.864353	-0.411695	-0.049880	-0.443017	0.895125	-0.956091	-0.237970	-0.171054
257	2182093													9.375828	-0.439766	2.863819	0.288761	-0.864324	-0.411778	-0.049711	-0.443056	0.895115	-0.956110	-0.238004	-0.170903
258	2182260													9.381443	-0.400887	2.841791	0.288782	-0.864262	-0.411893	-0.049538	-0.443135	0.895085	-0.956112	-0.238080	-0.170784
259	2182427													9.391160	-0.433647	2.871444	0.288788	-0.864205	-0.412007	-0.049385	-0.443217	0.895053	-0.956118	-0.238134	-0.170674
260	2182593													9.409533	-0.445262	2.832911	0.288770	-0.864116	-0.412209	-0.049291	-0.443399	0.894968	-0.956129	-0.238122	-0.170633
261	2182760													9.363648	-0.433924	2.883775	0.288784	-0.864020	-0.412398	-0.049224	-0.443581	0.894882	-0.956128	-0.238128	-0.170630
262	2182927													9.374445	-0.408406	2.856857	0.288758	-0.863995	-0.412470	-0.049162	-0.443635	0.894858	-0.956139	-0.238119	-0.170579
263	2183093													9.393406	-0.433536	2.861198	0.288724	-0.863973	-0.412541	-0.049043	-0.443672	0.894846	-0.956155	-0.238132	-0.170471
264	2183260													9.374352	-0.445188	2.854489	0.288714	-0.863964	-0.412566	-0.048933	-0.443668	0.894854	-0.956164	-0.238169	-0.170369
265	2183427													9.375484	-0.433790	2.874523	0.288704	-0.863917	-0.412671	-0.048868	-0.443759	0.894813	-0.956171	-0.238169	-0.170333
266	2183593													9.376704	-0.440789	2.846146	0.288664	-0.863869	-0.412800	-0.048770	-0.443861	0.894767	-0.956188	-0.238155	-0.170258
267	2183760													9.407164	-0.426606	2.868640	0.288664	-0.863833	-0.412875	-0.048691	-0.443920	0.894743	-0.956192	-0.238176	-0.170205
268	2183927													9.381708	-0.413975	2.880746	0.288647	-0.863801	-0.412954	-0.048605	-0.443977	0.894719	-0.956201	-0.238187	-0.170138
269	2184093													9.384408	-0.403049	2.848310	0.288595	-0.863787	-0.413019	-0.048508	-0.444010	0.894708	-0.956222	-0.238174	-0.170040
270	2184260													9.402892	-0.394165	2.858886	0.288512	-0.863746	-0.413162	-0.048451	-0.444130	0.894652	-0.956249	-0.238100	-0.169986
271	2184427													9.382942	-0.421273	2.874610	0.288463	-0.863702	-0.413290	-0.048411	-0.444242	0.894598	-0.956267	-0.238050	-0.169960
272	2184593													9.391757	-0.394974	2.907224	0.288375	-0.863674	-0.413410	-0.048401	-0.444348	0.894546	-0.956294	-0.237955	-0.169941
273	2184760													9.380442	-0.413056	2.891507	0.288377	-0.863635	-0.413489	-0.048428	-0.444437	0.894500	-0.956292	-0.237928	-0.169989
274	2184927													9.367884	-0.399148	2.868723	0.288363	-0.863722	-0.413316	-0.048514	-0.444277	0.894575	-0.956291	-0.237911	-0.170016
275	2185093													9.361150	-0.418284	2.853943	0.288326	-0.863801	-0.413177	-0.048611	-0.444151	0.894632	-0.956297	-0.237861	-0.170050
276	2185260													9.361709	-0.445081	2.864662	0.288230	-0.863884	-0.413072	-0.048759	-0.444061	0.894669	-0.956319	-0.237729	-0.170114
277	2185427													9.399931	-0.459668	2.871272	0.288160	-0.863901	-0.413084	-0.048895	-0.444094	0.894645	-0.956333	-0.237603	-0.170210
278	2185593													9.364950	-0.462594	2.854334	0.288083	-0.863921	-0.413096	-0.048972	-0.444111	0.894632	-0.956352	-0.237498	-0.170249
279	2185760													9.371481	-0.418546	2.848494	0.288008	-0.863974	-0.413038	-0.049087	-0.444065	0.894649	-0.956369	-0.237391	-0.170304
280	2185927													9.374413	-0.441684	2.819774	0.287910	-0.864076	-0.412892	-0.049260	-0.443939	0.894702	-0.956390	-0.237255	-0.170379
281	2186093													9.389508	-0.444918	2.851192	0.287779	-0.864176	-0.412775	-0.049394	-0.443827	0.894750	-0.956422	-0.237102	-0.170409
282	2186260													9.429426	-0.399373	2.843509	0.287660	-0.864229	-0.412746	-0.049421	-0.443783	0.894771	-0.956457	-0.236992	-0.170370
283	2186427													9.410520	-0.461033	2.903419	0.287605	-0.864211	-0.412823	-0.049485	-0.443867	0.894725	-0.956470	-0.236899	-0.170424
284	2186593													9.373734	-0.459856	2.900774	0.287463	-0.864121	-0.413109	-0.049582	-0.444162	0.894573	-0.956507	-0.236674	-0.170525
285	2186760													9.361761	-0.423469	2.883232	0.287283	-0.864127	-0.413223	-0.049610	-0.444253	0.894527	-0.956560	-0.236483	-0.170496
286	2186927													9.364429	-0.382338	2.876976	0.287052	-0.864154	-0.413326	-0.049651	-0.444327	0.894488	-0.956627	-0.236242	-0.170451
287	2187093													9.378407	-0.428642	2.870869	0.286842	-0.864233	-0.413307	-0.049672	-0.444275	0.894513	-0.956689	-0.236054	-0.170365
288	2187260													9.378633	-0.463675	2.864580	0.286644	-0.864287	-0.413332	-0.049717	-0.444275	0.894510	-0.956746	-0.235857	-0.170318
289	2187427													9.380689	-0.454884	2.848559	0.286460	-0.864327	-0.413375	-0.049776	-0.444300	0.894494	-0.956798	-0.235661	-0.170297
290	2187593													9.392374	-0.464182	2.845168	0.286231	-0.864402	-0.413378	-0.049860	-0.444281	0.894499	-0.956862	-0.235422	-0.170266
291	2187760													9.378211	-0.455217	2.809793	0.286039	-0.864466	-0.413376	-0.049916	-0.444258	0.894507	-0.956917	-0.235230	-0.170226
292	2187927													9.390315	-0.448406	2.807102	0.285910	-0.864457	-0.413485	-0.049935	-0.444351	0.894460	-0.956954	-0.235088	-0.170211
293	2188093													9.365742	-0.480155	2.782262	0.285719	-0.864467	-0.413596	-0.050042	-0.444457	0.894401	-0.957006	-0.234851	-0.170249
294	2188260													9.424315	-0.474563	2.825780	0.285657	-0.864425	-0.413727	-0.050138	-0.444605	0.894322	-0.957019	-0.234726	-0.170345
295	2188427													9.419112	-0.451971	2.795147	0.285553	-0.864426	-0.413796	-0.050172	-0.444666	0.894290	-0.957049	-0.234606	-0.170346
296	2188593													9.408751	-0.441457	2.813137	0.285559	-0.864348	-0.413955	-0.050200	-0.444838	0.894203	-0.957045	-0.234567	-0.170418
297	2188760													9.384590	-0.467652	2.823935	0.285471	-0.864343	-0.414027	-0.050318	-0.444925	0.894153	-0.957066	-0.234421	-0.170505
298	2188927													9.400000	-0.449041	2.816473	0.285412	-0.864309	-0.414138	-0.050438	-0.445058	0.894080	-0.957077	-0.234293	-0.170619
299	2189093													9.397066	-0.439006	2.817826	0.285367	-0.864312	-0.414162	-0.050528	-0.445097	0.894056	-0.957086	-0.234207	-0.170688
300	2189260													9.403827	-0.461450	2.809157	0.285294	-0.864327	-0.414181	-0.050615	-0.445125	0.894037	-0.957103	-0.234099	-0.170740
301	2189427													9.399474	-0.460288	2.818901	0.285192	-0.864356	-0.414192	-0.050659	-0.445128	0.894033	-0.957131	-0.233988	-0.170734
302	2189593													9.387732	-0.455463	2.818603	0.285212	-0.864327	-0.414238	-0.050673	-0.445183	0.894005	-0.957124	-0.233990	-0.170770
303	2189760													9.376752	-0.459349	2.810312	0.285241	-0.864321	-0.414231	-0.050675	-0.445181	0.894006	-0.957115	-0.234016	-0.170783
304	2189927													9.405275	-0.447319	2.819242	0.285334	-0.864327	-0.414154	-0.050716	-0.445128	0.894029	-0.957085	-0.234093	-0.170846
305	2190093													9.384054	-0.453814	2.829020	0.285516	-0.864274	-0.414138	-0.050737	-0.445151	0.894017	-0.957030	-0.234244	-0.170949
306	2190260													9.403530	-0.427432	2.843435	0.285722	-0.864230	-0.414090	-0.050682	-0.445125	0.894033	-0.956971	-0.234458	-0.170983
307	2190427													9.377925	-0.422951	2.860272	0.285954	-0.864165	-0.414064	-0.050590	-0.445119	0.894041	-0.956907	-0.234707	-0.171002
308	2190593													9.361838	-0.442273	2.850588	0.286096	-0.864158	-0.413982	-0.050505	-0.445040	0.894086	-0.956869	-0.234886	-0.170968
309	2190760													9.400858	-0.462318	2.832853	0.286196	-0.864114	-0.414005	-0.050416	-0.445060	0.894081	-0.956844	-0.235010	-0.170939
310	2190927													9.421980	-0.458874	2.855015	0.286307	-0.864055	-0.414050	-0.050334	-0.445107	0.894062	-0.956815	-0.235136	-0.170928
311	2191093													9.363698	-0.442166	2.861108	0.286407	-0.864033	-0.414027	-0.050275	-0.445087	0.894075	-0.956788	-0.235254	-0.170915
312	2191260													9.363139	-0.457833	2.847229	0.286441	-0.864103	-0.413858	-0.050270	-0.444918	0.894160	-0.956778	-0.235319	-0.170881
313	2191427													9.369202	-0.451571	2.817869	0.286441	-0.864158	-0.413743	-0.050268	-0.444798	0.894219	-0.956778	-0.235342	-0.170848
314	2191593													9.397383	-0.468741	2.834663	0.286490	-0.864156	-0.413712	-0.050289	-0.444780	0.894227	-0.956763	-0.235382	-0.170883
315	2191760													9.394353	-0.490945	2.817569	0.286568	-0.864193	-0.413580	-0.050247	-0.444648	0.894295	-0.956742	-0.235495	-0.170845
316	2191927													9.371784	-0.491804	2.817722	0.286687	-0.864186	-0.413514	-0.050189	-0.444587	0.894328	-0.956709	-0.235639	-0.170830
317	2192093													9.346192	-0.470589	2.802642	0.286863	-0.864150	-0.413466	-0.050201	-0.444573	0.894335	-0.956656	-0.235795	-0.170912
318	2192260													9.388425	-0.449190	2.841493	0.287029	-0.864123	-0.413408	-0.050188	-0.444540	0.894352	-0.956606	-0.235957	-0.170964
319	2192427													9.425438	-0.447355	2.853688	0.287256	-0.864093	-0.413312	-0.050031	-0.444444	0.894408	-0.956546	-0.236246	-0.170901
320	2192593													9.404582	-0.453942	2.896857	0.287511	-0.864018	-0.413292	-0.049877	-0.444433	0.894422	-0.956478	-0.236543	-0.170874
321	2192760													9.347398	-0.453209	2.907908	0.287740	-0.863916	-0.413347	-0.049760	-0.444503	0.894394	-0.956415	-0.236785	-0.170890
322	2192927													9.364452	-0.459929	2.882198	0.287862	-0.863927	-0.413238	-0.049617	-0.444377	0.894465	-0.956386	-0.236978	-0.170785
323	2193093													9.381279	-0.385680	2.910571	0.288043	-0.863890	-0.413190	-0.049464	-0.444323	0.894500	-0.956339	-0.237216	-0.170715
324	2193260													9.349347	-0.410499	2.892512	0.288227	-0.863913	-0.413013	-0.049375	-0.444152	0.894590	-0.956288	-0.237453	-0.170672
325	2193427													9.394714	-0.454450	2.878890	0.288491	-0.863895	-0.412867	-0.049220	-0.444011	0.894669	-0.956217	-0.237782	-0.170614
326	2193594													9.368637	-0.479798	2.852508	0.288767	-0.863840	-0.412788	-0.049053	-0.443938	0.894714	-0.956142	-0.238115	-0.170569
327	2193760													9.367460	-0.464106	2.854525	0.289036	-0.863732	-0.412825	-0.048898	-0.443988	0.894697	-0.956069	-0.238413	-0.170564
328	2193927													9.366059	-0.486852	2.856590	0.289377	-0.863648	-0.412763	-0.048699	-0.443937	0.894734	-0.955976	-0.238814	-0.170524
329	2194094													9.356563	-0.447181	2.873861	0.289820	-0.863552	-0.412653	-0.048464	-0.443846	0.894792	-0.955853	-0.239330	-0.170487
330	2194260													9.378449	-0.427646	2.862464	0.290088	-0.863552	-0.412464	-0.048375	-0.443677	0.894880	-0.955777	-0.239641	-0.170480
331	2194427													9.409705	-0.463065	2.877649	0.290381	-0.863539	-0.412285	-0.048233	-0.443511	0.894970	-0.955695	-0.239996	-0.170439
332	2194594													9.383517	-0.442255	2.895941	0.290586	-0.863461	-0.412305	-0.048035	-0.443519	0.894977	-0.955642	-0.240262	-0.170357
333	2194760													9.392481	-0.420628	2.865091	0.290745	-0.863326	-0.412476	-0.047839	-0.443677	0.894909	-0.955604	-0.240458	-0.170298
334	2194927													9.380034	-0.441433	2.873078	0.290879	-0.863259	-0.412521	-0.047727	-0.443720	0.894894	-0.955569	-0.240617	-0.170270
335	2195094													9.387172	-0.450330	2.865289	0.290974	-0.863211	-0.412555	-0.047682	-0.443761	0.894876	-0.955542	-0.240714	-0.170283
336	2195260													9.371198	-0.428755	2.848789	0.291052	-0.863158	-0.412610	-0.047618	-0.443817	0.894852	-0.955522	-0.240801	-0.170276
337	2195427													9.374556	-0.421924	2.866984	0.291002	-0.863216	-0.412523	-0.047671	-0.443731	0.894891	-0.955534	-0.240750	-0.170277
338	2195594													9.403283	-0.438410	2.887937	0.290947	-0.863247	-0.412499	-0.047697	-0.443702	0.894904	-0.955550	-0.240695	-0.170268
339	2195760													9.391931	-0.422602	2.890074	0.290945	-0.863132	-0.412740	-0.047748	-0.443965	0.894771	-0.955548	-0.240621	-0.170382
340	2195927													9.383535	-0.411358	2.880692	0.290836	-0.863062	-0.412964	-0.047819	-0.444194	0.894654	-0.955577	-0.240450	-0.170458
341	2196094													9.417342	-0.426283	2.862918	0.290717	-0.863035	-0.413104	-0.047826	-0.444320	0.894591	-0.955613	-0.240315	-0.170447
342	2196260													9.392198	-0.426558	2.885960	0.290694	-0.862932	-0.413334	-0.047844	-0.444558	0.894471	-0.955619	-0.240242	-0.170517
343	2196427													9.360660	-0.411472	2.880957	0.290612	-0.862864	-0.413533	-0.047872	-0.444757	0.894371	-0.955643	-0.240119	-0.170559
344	2196594													9.374750	-0.438671	2.909082	0.290554	-0.862813	-0.413681	-0.047882	-0.444902	0.894298	-0.955660	-0.240034	-0.170582
345	2196760													9.376228	-0.422150	2.878015	0.290531	-0.862720	-0.413890	-0.047888	-0.445116	0.894192	-0.955666	-0.239970	-0.170634
346	2196927													9.401857	-0.440795	2.879446	0.290588	-0.862635	-0.414029	-0.047888	-0.445270	0.894115	-0.955649	-0.239992	-0.170700
347	2197094													9.372226	-0.449499	2.881252	0.290717	-0.862589	-0.414033	-0.047913	-0.445304	0.894096	-0.955609	-0.240092	-0.170787
348	2197260													9.364532	-0.427747	2.902313	0.290908	-0.862583	-0.413912	-0.047999	-0.445236	0.894126	-0.955546	-0.240241	-0.170925
349	2197427													9.327039	-0.409510	2.915224	0.291114	-0.862658	-0.413611	-0.048167	-0.445004	0.894232	-0.955475	-0.240401	-0.171099
350	2197594													9.346302	-0.435203	2.876794	0.291322	-0.862684	-0.413409	-0.048300	-0.444867	0.894293	-0.955405	-0.240560	-0.171267
351	2197760													9.345613	-0.450054	2.861743	0.291498	-0.862717	-0.413217	-0.048497	-0.444751	0.894341	-0.955341	-0.240659	-0.171484
352	2197927													9.376081	-0.454154	2.853888	0.291692	-0.862739	-0.413034	-0.048671	-0.444640	0.894386	-0.955273	-0.240783	-0.171688
353	2198094													9.382482	-0.440234	2.850976	0.291894	-0.862781	-0.412804	-0.048784	-0.444468	0.894465	-0.955206	-0.240951	-0.171828
354	2198260													9.359708	-0.454200	2.870139	0.292078	-0.862804	-0.412626	-0.048805	-0.444324	0.894536	-0.955148	-0.241136	-0.171886
355	2198427													9.354822	-0.420916	2.872431	0.292205	-0.862786	-0.412573	-0.048819	-0.444296	0.894549	-0.955109	-0.241250	-0.171946
356	2198594													9.362646	-0.479013	2.874370	0.292358	-0.862745	-0.412551	-0.048919	-0.444326	0.894528	-0.955057	-0.241340	-0.172107
357	2198760													9.381886	-0.460887	2.897282	0.292483	-0.862709	-0.412537	-0.048940	-0.444340	0.894520	-0.955018	-0.241442	-0.172183
358	2198927													9.422237	-0.416882	2.878575	0.292562	-0.862667	-0.412569	-0.048857	-0.444367	0.894511	-0.954998	-0.241543	-0.172152
359	2199094													9.385338	-0.439870	2.901631	0.292738	-0.862597	-0.412590	-0.048828	-0.444416	0.894489	-0.954945	-0.241705	-0.172217
360	2199260													9.347851	-0.462369	2.920728	0.292765	-0.862515	-0.412743	-0.048836	-0.444580	0.894407	-0.954936	-0.241695	-0.172279
361	2199427													9.386681	-0.436960	2.899994	0.292816	-0.862391	-0.412966	-0.048807	-0.444814	0.894292	-0.954922	-0.241707	-0.172339
362	2199594													9.346938	-0.408657	2.914692	0.292814	-0.862335	-0.413085	-0.048869	-0.444953	0.894220	-0.954920	-0.241653	-0.172430
363	2199760													9.371555	-0.435124	2.925123	0.292752	-0.862396	-0.413001	-0.048935	-0.444871	0.894257	-0.954935	-0.241586	-0.172439
364	2199927													9.379994	-0.464847	2.861089	0.292747	-0.862431	-0.412932	-0.049022	-0.444820	0.894277	-0.954932	-0.241554	-0.172498
365	2200094													9.351782	-0.472085	2.882342	0.292798	-0.862391	-0.412978	-0.049111	-0.444900	0.894233	-0.954912	-0.241547	-0.172619
366	2200260													9.340276	-0.472317	2.866459	0.292862	-0.862384	-0.412947	-0.049203	-0.444903	0.894226	-0.954888	-0.241566	-0.172728
367	2200427													9.352614	-0.470285	2.879491	0.292973	-0.862370	-0.412898	-0.049266	-0.444890	0.894229	-0.954851	-0.241643	-0.172827
368	2200594													9.371236	-0.470768	2.865321	0.293116	-0.862288	-0.412967	-0.049288	-0.444994	0.894176	-0.954806	-0.241743	-0.172935
369	2200760													9.394640	-0.492586	2.846718	0.293215	-0.862255	-0.412966	-0.049380	-0.445035	0.894151	-0.954770	-0.241787	-0.173069
370	2200927													9.395524	-0.477308	2.916647	0.293504	-0.862126	-0.413030	-0.049440	-0.445169	0.894080	-0.954679	-0.241996	-0.173282
371	2201094													9.385715	-0.409206	2.836767	0.293673	-0.862062	-0.413045	-0.049451	-0.445220	0.894055	-0.954626	-0.242134	-0.173378
372	2201260													9.399369	-0.397327	2.857045	0.293955	-0.862000	-0.412974	-0.049466	-0.445203	0.894062	-0.954538	-0.242386	-0.173510
373	2201427													9.373591	-0.434958	2.883630	0.294229	-0.862117	-0.412533	-0.049449	-0.444794	0.894267	-0.954455	-0.242720	-0.173502
374	2201594													9.376626	-0.466293	2.896358	0.294499	-0.862277	-0.412005	-0.049408	-0.444286	0.894522	-0.954374	-0.243080	-0.173445
375	2201760													9.398259	-0.491376	2.905204	0.294685	-0.862522	-0.411360	-0.049361	-0.443640	0.894845	-0.954319	-0.243392	-0.173309
376	2201927													9.368515	-0.502645	2.918567	0.294892	-0.862622	-0.411001	-0.049219	-0.443270	0.895036	-0.954262	-0.243710	-0.173174
377	2202094													9.342287	-0.497472	2.914037	0.295041	-0.862635	-0.410868	-0.049043	-0.443115	0.895122	-0.954225	-0.243948	-0.173044
378	2202260													9.319002	-0.504621	2.941463	0.295153	-0.862622	-0.410813	-0.048818	-0.443022	0.895180	-0.954202	-0.244160	-0.172871
379	2202427													9.356388	-0.493130	2.907020	0.295283	-0.862605	-0.410757	-0.048569	-0.442924	0.895242	-0.954175	-0.244400	-0.172684
380	2202594													9.371215	-0.469277	2.893091	0.295427	-0.862567	-0.410733	-0.048237	-0.442841	0.895302	-0.954147	-0.244684	-0.172435
381	2202760													9.352839	-0.454477	2.918331	0.295594	-0.862465	-0.410827	-0.047911	-0.442886	0.895297	-0.954112	-0.244961	-0.172236
382	2202927													9.375441	-0.483927	2.928287	0.295766	-0.862304	-0.411040	-0.047572	-0.443053	0.895233	-0.954075	-0.245226	-0.172061
383	2203094													9.363374	-0.469384	2.936256	0.295892	-0.862134	-0.411306	-0.047212	-0.443260	0.895149	-0.954054	-0.245448	-0.171860
384	2203260													9.356492	-0.450836	2.948543	0.296028	-0.861941	-0.411613	-0.046868	-0.443515	0.895041	-0.954029	-0.245665	-0.171690
385	2203427													9.360586	-0.431948	2.948114	0.296128	-0.861765	-0.411909	-0.046565	-0.443764	0.894933	-0.954012	-0.245835	-0.171539
386	2203594													9.369898	-0.455544	2.959001	0.296132	-0.861598	-0.412256	-0.046267	-0.444048	0.894807	-0.954026	-0.245907	-0.171360
387	2203760													9.357502	-0.425996	2.976646	0.296028	-0.861362	-0.412823	-0.045912	-0.444526	0.894589	-0.954075	-0.245870	-0.171139
388	2203927													9.356953	-0.376165	2.973446	0.295946	-0.861043	-0.413547	-0.045622	-0.445188	0.894274	-0.954115	-0.245790	-0.171034
389	2204094													9.368861	-0.388744	2.929201	0.295891	-0.860856	-0.413976	-0.045424	-0.445573	0.894093	-0.954141	-0.245749	-0.170945
390	2204260													9.353266	-0.355480	2.914907	0.295896	-0.860656	-0.414387	-0.045289	-0.445965	0.893904	-0.954146	-0.245735	-0.170938
391	2204427													9.312538	-0.362782	2.948353	0.295913	-0.860511	-0.414675	-0.045225	-0.446252	0.893764	-0.954144	-0.245723	-0.170969
392	2204594													9.335847	-0.410439	2.949112	0.295828	-0.860461	-0.414841	-0.045288	-0.446424	0.893675	-0.954167	-0.245586	-0.171033
393	2204760													9.340426	-0.401675	2.964910	0.295722	-0.860493	-0.414851	-0.045454	-0.446457	0.893650	-0.954192	-0.245415	-0.171140
394	2204927													9.332190	-0.374445	2.938199	0.295502	-0.860692	-0.414594	-0.045791	-0.446236	0.893743	-0.954244	-0.245118	-0.171276
395	2205094													9.397887	-0.387606	2.899398	0.295341	-0.860896	-0.414284	-0.046081	-0.445959	0.893866	-0.954280	-0.244905	-0.171381
396	2205260													9.398639	-0.381634	2.898194	0.295243	-0.860978	-0.414184	-0.046303	-0.445893	0.893888	-0.954300	-0.244736	-0.171512
397	2205427													9.390847	-0.399008	2.873501	0.295139	-0.861077	-0.414051	-0.046567	-0.445804	0.893919	-0.954319	-0.244550	-0.171672
398	2205594													9.362708	-0.426926	2.841778	0.295075	-0.861181	-0.413881	-0.046873	-0.445694	0.893957	-0.954324	-0.244385	-0.171879
399	2205760													9.387616	-0.426445	2.907069	0.295084	-0.861212	-0.413811	-0.047097	-0.445680	0.893953	-0.954310	-0.244302	-0.172074
400	2205927													9.397489	-0.398714	2.885205	0.294970	-0.861252	-0.413809	-0.047182	-0.445678	0.893949	-0.954341	-0.244164	-0.172098
401	2206094													9.369346	-0.446487	2.896951	0.294867	-0.861344	-0.413690	-0.047307	-0.445568	0.893997	-0.954367	-0.244040	-0.172131
402	2206260													9.320426	-0.484112	2.911557	0.294686	-0.861368	-0.413770	-0.047443	-0.445651	0.893949	-0.954416	-0.243804	-0.172193
403	2206427													9.356115	-0.430984	2.934440	0.294516	-0.861417	-0.413789	-0.047532	-0.445662	0.893939	-0.954464	-0.243611	-0.172199
404	2206594													9.374977	-0.406346	2.930264	0.294460	-0.861424	-0.413815	-0.047554	-0.445684	0.893927	-0.954480	-0.243547	-0.172200
405	2206760													9.373636	-0.407527	2.955700	0.294419	-0.861445	-0.413799	-0.047541	-0.445657	0.893941	-0.954493	-0.243520	-0.172164
406	2206927													9.381196	-0.419210	2.966475	0.294340	-0.861514	-0.413713	-0.047495	-0.445541	0.894001	-0.954520	-0.243490	-0.172058
407	2207094													9.354028	-0.445188	2.921221	0.294340	-0.861534	-0.413670	-0.047402	-0.445473	0.894040	-0.954524	-0.243543	-0.171959
408	2207260													9.326941	-0.468093	2.941895	0.294311	-0.861529	-0.413701	-0.047337	-0.445482	0.894038	-0.954537	-0.243542	-0.171892
409	2207427													9.325331	-0.475179	2.924979	0.294152	-0.861614	-0.413639	-0.047323	-0.445385	0.894088	-0.954587	-0.243423	-0.171784
410	2207594													9.375986	-0.458659	2.874080	0.294066	-0.861705	-0.413509	-0.047306	-0.445230	0.894166	-0.954614	-0.243382	-0.171691
411	2207760													9.374084	-0.455627	2.852504	0.294047	-0.861745	-0.413438	-0.047308	-0.445153	0.894204	-0.954620	-0.243379	-0.171663
412	2207927													9.430995	-0.508590	2.802055	0.294133	-0.861750	-0.413368	-0.047376	-0.445114	0.894220	-0.954590	-0.243436	-0.171748
413	2208094													9.350245	-0.484472	2.873658	0.294292	-0.861685	-0.413389	-0.047471	-0.445190	0.894177	-0.954536	-0.243525	-0.171921
414	2208260													9.381840	-0.461644	2.852748	0.294330	-0.861648	-0.413440	-0.047494	-0.445255	0.894143	-0.954523	-0.243537	-0.171975
415	2208427													9.398109	-0.471979	2.885131	0.294435	-0.861584	-0.413498	-0.047578	-0.445357	0.894088	-0.954486	-0.243578	-0.172121
416	2208594													9.385791	-0.485113	2.869179	0.294534	-0.861557	-0.413484	-0.047694	-0.445390	0.894065	-0.954450	-0.243612	-0.172274
417	2208760													9.371491	-0.463742	2.893819	0.294618	-0.861522	-0.413498	-0.047798	-0.445447	0.894032	-0.954419	-0.243633	-0.172415
418	2208927													9.386632	-0.437692	2.890945	0.294662	-0.861540	-0.413429	-0.047879	-0.445405	0.894048	-0.954401	-0.243647	-0.172494
419	2209094													9.343625	-0.470357	2.914216	0.294692	-0.861560	-0.413365	-0.047977	-0.445369	0.894061	-0.954387	-0.243641	-0.172581
420	2209260													9.337099	-0.475892	2.910925	0.294666	-0.861549	-0.413408	-0.048021	-0.445420	0.894033	-0.954393	-0.243589	-0.172622
421	2209427													9.356626	-0.445033	2.908523	0.294632	-0.861501	-0.413531	-0.048042	-0.445546	0.893969	-0.954402	-0.243525	-0.172660
422	2209594													9.380317	-0.462618	2.909799	0.294614	-0.861548	-0.413446	-0.048022	-0.445450	0.894018	-0.954409	-0.243536	-0.172610
423	2209760													9.359148	-0.446468	2.899757	0.294606	-0.861550	-0.413448	-0.047976	-0.445439	0.894026	-0.954414	-0.243549	-0.172563
424	2209927													9.380206	-0.455044	2.905182	0.294612	-0.861492	-0.413563	-0.047864	-0.445531	0.893986	-0.954417	-0.243584	-0.172493
425	2210094													9.395730	-0.432077	2.887351	0.294646	-0.861440	-0.413648	-0.047747	-0.445595	0.893960	-0.954413	-0.243651	-0.172424
426	2210261													9.371539	-0.435772	2.910818	0.294705	-0.861352	-0.413790	-0.047590	-0.445713	0.893910	-0.954402	-0.243748	-0.172346
427	2210427													9.373223	-0.391223	2.921060	0.294683	-0.861285	-0.413944	-0.047418	-0.445825	0.893863	-0.954418	-0.243778	-0.172217
428	2210594													9.371469	-0.418119	2.927830	0.294720	-0.861278	-0.413933	-0.047208	-0.445767	0.893903	-0.954417	-0.243911	-0.172035
429	2210761													9.349268	-0.452508	2.947128	0.294811	-0.861256	-0.413914	-0.047060	-0.445726	0.893931	-0.954396	-0.244063	-0.171936
430	2210927													9.340345	-0.444466	2.927683	0.294843	-0.861212	-0.413982	-0.046928	-0.445770	0.893917	-0.954393	-0.244137	-0.171847
431	2211094													9.349150	-0.443592	2.894798	0.294830	-0.861228	-0.413958	-0.046801	-0.445709	0.893953	-0.954403	-0.244190	-0.171715
432	2211261													9.358266	-0.440836	2.915027	0.294878	-0.861221	-0.413939	-0.046705	-0.445674	0.893976	-0.954393	-0.244281	-0.171643
433	2211427													9.346138	-0.434852	2.909252	0.294984	-0.861201	-0.413906	-0.046704	-0.445659	0.893984	-0.954360	-0.244380	-0.171684
434	2211594													9.356542	-0.429656	2.877992	0.295093	-0.861181	-0.413870	-0.046702	-0.445642	0.893992	-0.954327	-0.244482	-0.171725
435	2211761													9.362365	-0.445985	2.878111	0.295173	-0.861131	-0.413916	-0.046742	-0.445714	0.893954	-0.954300	-0.244524	-0.171813
436	2211927													9.384686	-0.435696	2.895533	0.295314	-0.861067	-0.413948	-0.046793	-0.445788	0.893915	-0.954254	-0.244616	-0.171939
437	2212094													9.383235	-0.420258	2.927580	0.295464	-0.861006	-0.413968	-0.046850	-0.445851	0.893880	-0.954204	-0.244715	-0.172071
438	2212261													9.327478	-0.436226	2.937890	0.295478	-0.861045	-0.413877	-0.046935	-0.445780	0.893911	-0.954196	-0.244706	-0.172131
439	2212427													9.321691	-0.428728	2.897336	0.295175	-0.861137	-0.413901	-0.047075	-0.445785	0.893901	-0.954283	-0.244373	-0.172123
440	2212594													9.398341	-0.449628	2.871877	0.294859	-0.861313	-0.413762	-0.047309	-0.445641	0.893961	-0.954369	-0.244017	-0.172149
441	2212761													9.397182	-0.471644	2.898731	0.294745	-0.861441	-0.413576	-0.047498	-0.445475	0.894034	-0.954395	-0.243868	-0.172219
442	2212927													9.376649	-0.431532	2.914313	0.294718	-0.861446	-0.413584	-0.047675	-0.445524	0.894000	-0.954394	-0.243760	-0.172373
443	2213094													9.385408	-0.450978	2.842268	0.294676	-0.861487	-0.413529	-0.047852	-0.445504	0.894000	-0.954398	-0.243652	-0.172503
444	2213261													9.419625	-0.469450	2.848431	0.294850	-0.861412	-0.413562	-0.047987	-0.445605	0.893942	-0.954338	-0.243734	-0.172724
445	2213427													9.418955	-0.409266	2.865772	0.295141	-0.861243	-0.413706	-0.048009	-0.445815	0.893837	-0.954247	-0.243946	-0.172926
446	2213594													9.418583	-0.433902	2.886668	0.295586	-0.861012	-0.413869	-0.048046	-0.446078	0.893704	-0.954107	-0.244281	-0.173223
447	2213761													9.393821	-0.454002	2.951220	0.296219	-0.860676	-0.414116	-0.048133	-0.446475	0.893500	-0.953906	-0.244739	-0.173681
448	2213927													9.339927	-0.415669	2.953477	0.296885	-0.860332	-0.414353	-0.048155	-0.446853	0.893310	-0.953698	-0.245257	-0.174093
449	2214094													9.337562	-0.411173	2.931470	0.297494	-0.859878	-0.414857	-0.048139	-0.447489	0.892993	-0.953509	-0.245689	-0.174519
450	2214261													9.397621	-0.441676	2.934644	0.298115	-0.859397	-0.415409	-0.048093	-0.448168	0.892655	-0.953318	-0.246136	-0.174936
451	2214427													9.379484	-0.455531	2.913809	0.298953	-0.858933	-0.415766	-0.048039	-0.448685	0.892398	-0.953058	-0.246812	-0.175398
452	2214594													9.372966	-0.480243	2.930340	0.299897	-0.858486	-0.416010	-0.048054	-0.449123	0.892177	-0.952761	-0.247570	-0.175944
453	2214761													9.392317	-0.479717	2.913651	0.301027	-0.857986	-0.416224	-0.048111	-0.449578	0.891945	-0.952401	-0.248475	-0.176614
454	2214927													9.374531	-0.466682	2.933818	0.302401	-0.857445	-0.416343	-0.048209	-0.449993	0.891730	-0.951961	-0.249588	-0.177415
455	2215094													9.389574	-0.486144	2.964765	0.303990	-0.856866	-0.416378	-0.048258	-0.450351	0.891546	-0.951452	-0.250927	-0.178253
456	2215261													9.381896	-0.466404	2.990388	0.305838	-0.856216	-0.416362	-0.048310	-0.450710	0.891362	-0.950857	-0.252498	-0.179208
457	2215427													9.389268	-0.505379	2.979325	0.307824	-0.855639	-0.416084	-0.048456	-0.450850	0.891283	-0.950209	-0.254197	-0.180244
458	2215594													9.392257	-0.471710	3.036595	0.310155	-0.854907	-0.415858	-0.048598	-0.451115	0.891142	-0.949443	-0.256182	-0.181463
459	2215761													9.376251	-0.446279	3.005124	0.312583	-0.854214	-0.415465	-0.048728	-0.451226	0.891079	-0.948640	-0.258291	-0.182669
460	2215927													9.394239	-0.462206	3.100762	0.315332	-0.853396	-0.415068	-0.048930	-0.451422	0.890968	-0.947719	-0.260642	-0.184104
461	2216094													9.382531	-0.477703	3.119388	0.318355	-0.852581	-0.414435	-0.049251	-0.451465	0.890928	-0.946691	-0.263221	-0.185716
462	2216261													9.307971	-0.438607	3.073519	0.321300	-0.851912	-0.413536	-0.049703	-0.451259	0.891008	-0.945672	-0.265727	-0.187332
463	2216427													9.351274	-0.462321	3.139715	0.323959	-0.851380	-0.412557	-0.050230	-0.450938	0.891141	-0.944737	-0.267970	-0.188850
464	2216594													9.463264	-0.490687	3.153629	0.326662	-0.850903	-0.411408	-0.050829	-0.450474	0.891342	-0.943773	-0.270256	-0.190403
465	2216761													9.408186	-0.523799	3.177445	0.329695	-0.850305	-0.410222	-0.051446	-0.450053	0.891519	-0.942685	-0.272825	-0.192125
466	2216927													9.450298	-0.452067	3.287100	0.333197	-0.849766	-0.408507	-0.052297	-0.449255	0.891872	-0.941406	-0.275805	-0.194131
467	2217094													9.307554	-0.428611	3.242384	0.337383	-0.849690	-0.405215	-0.053614	-0.447099	0.892876	-0.939840	-0.279516	-0.196398
468	2217261													9.463237	-0.476304	3.076149	0.340888	-0.849153	-0.403404	-0.054522	-0.446241	0.893250	-0.938521	-0.282504	-0.198416
469	2217427													9.647755	-0.567448	2.985248	0.345821	-0.847777	-0.402096	-0.055390	-0.446234	0.893200	-0.936664	-0.286616	-0.201275
470	2217594													9.470652	-0.538398	3.090969	0.352548	-0.845517	-0.401013	-0.055833	-0.446769	0.892905	-0.934127	-0.292402	-0.204715
471	2217761													9.275377	-0.451117	3.223945	0.360143	-0.842959	-0.399647	-0.056211	-0.447223	0.892655	-0.931202	-0.299018	-0.208448
472	2217927													9.202538	-0.454674	3.332707	0.367358	-0.840576	-0.398096	-0.056624	-0.447443	0.892518	-0.928354	-0.305332	-0.211969
473	2218094													9.372879	-0.485075	3.323302	0.374771	-0.838158	-0.396280	-0.057083	-0.447482	0.892469	-0.925359	-0.311850	-0.215548
474	2218261													9.415749	-0.678294	3.440706	0.383409	-0.835226	-0.394203	-0.057322	-0.447518	0.892436	-0.921798	-0.319571	-0.219459
475	2218427													9.193817	-0.587010	3.735467	0.393080	-0.831655	-0.392222	-0.057201	-0.447849	0.892277	-0.917723	-0.328301	-0.223612
476	2218594													8.990267	-0.509445	3.907935	0.402523	-0.828064	-0.390236	-0.056803	-0.448070	0.892192	-0.913646	-0.336961	-0.227395
477	2218761													8.871191	-0.541482	4.048376	0.411624	-0.824748	-0.387758	-0.056311	-0.447679	0.892420	-0.909612	-0.345507	-0.230718
478	2218927													8.797694	-0.610295	4.094464	0.420319	-0.821174	-0.386012	-0.055907	-0.448045	0.892261	-0.905653	-0.353453	-0.234231
479	2219094													8.714257	-0.584867	4.165305	0.429032	-0.817570	-0.384071	-0.055676	-0.448318	0.892138	-0.901572	-0.361373	-0.237862
480	2219261													8.790151	-0.534983	4.266840	0.437368	-0.814221	-0.381777	-0.055795	-0.448286	0.892147	-0.897550	-0.368895	-0.241496
481	2219427													8.919606	-0.543990	4.305189	0.446074	-0.810905	-0.378750	-0.056221	-0.447738	0.892395	-0.893229	-0.376780	-0.245314
482	2219594													8.817078	-0.626365	4.477218	0.455293	-0.807053	-0.375997	-0.056445	-0.447621	0.892440	-0.888551	-0.385098	-0.249353
483	2219761													8.587210	-0.639316	4.629714	0.464801	-0.802693	-0.373689	-0.056522	-0.448089	0.892201	-0.883609	-0.393574	-0.253642
484	2219927													8.494246	-0.593331	4.699457	0.474628	-0.798003	-0.371375	-0.056598	-0.448724	0.891876	-0.878365	-0.402291	-0.258143
485	2220094													8.376382	-0.514077	4.873648	0.484681	-0.793137	-0.368805	-0.056845	-0.449311	0.891565	-0.872842	-0.411160	-0.262858
486	2220261													8.434743	-0.605075	4.864133	0.494380	-0.788392	-0.366096	-0.057181	-0.449750	0.891322	-0.867363	-0.419718	-0.267429
487	2220427													8.445486	-0.589114	4.712878	0.503478	-0.783743	-0.363671	-0.057508	-0.450376	0.890985	-0.862092	-0.427677	-0.271826
488	2220594													9.072633	-0.699299	4.543428	0.512343	-0.779107	-0.361243	-0.057830	-0.450992	0.890653	-0.856832	-0.435429	-0.276118
489	2220761													9.123991	-0.572880	4.663984	0.524984	-0.772225	-0.357855	-0.058048	-0.451963	0.890146	-0.849130	-0.446539	-0.282099
490	2220927													8.309005	-0.637722	5.197180	0.539561	-0.763916	-0.353985	-0.058167	-0.453254	0.889482	-0.839935	-0.459340	-0.288993
491	2221094													7.917448	-0.638139	5.486014	0.553235	-0.755563	-0.350793	-0.058077	-0.455067	0.888561	-0.830998	-0.471210	-0.295639
492	2221261													7.746185	-0.539865	5.609667	0.565590	-0.747669	-0.347994	-0.057984	-0.456980	0.887585	-0.822646	-0.481831	-0.301816
493	2221427													7.604766	-0.417150	5.701653	0.576667	-0.740613	-0.344888	-0.058488	-0.458492	0.886772	-0.814883	-0.491201	-0.307714
494	2221594													7.776183	-0.603971	5.714192	0.586753	-0.734270	-0.341421	-0.059428	-0.459539	0.886167	-0.807582	-0.499671	-0.313273
495	2221761													7.941692	-0.613333	5.800694	0.596634	-0.727719	-0.338310	-0.060145	-0.460925	0.885399	-0.800257	-0.507911	-0.318772
496	2221927													7.871878	-0.477925	5.986353	0.606442	-0.721052	-0.335130	-0.060875	-0.462346	0.884607	-0.792794	-0.516062	-0.324281
497	2222094													7.808976	-0.523358	6.059256	0.616233	-0.714490	-0.331303	-0.061803	-0.463242	0.884074	-0.785136	-0.524320	-0.329623
498	2222261													7.664995	-0.559260	6.259981	0.626120	-0.707683	-0.327351	-0.062579	-0.464080	0.883580	-0.777212	-0.532742	-0.334856
499	2222427													7.671939	-0.529081	6.247582	0.635492	-0.701086	-0.323463	-0.063175	-0.464744	0.883188	-0.769518	-0.540825	-0.339632
500	2222594													7.643706	-0.600541	6.402029	0.644627	-0.694635	-0.319277	-0.063727	-0.465001	0.883014	-0.761836	-0.548868	-0.344019
501	2222761													7.550916	-0.623555	6.472127	0.653437	-0.688227	-0.315220	-0.064031	-0.465178	0.882898	-0.754268	-0.556735	-0.348032
502	2222927													7.403706	-0.649722	6.790621	0.662151	-0.681746	-0.311094	-0.064323	-0.465316	0.882805	-0.746605	-0.564539	-0.351961
503	2223094													6.916641	-0.695209	6.759340	0.670288	-0.675258	-0.307801	-0.064043	-0.465857	0.882539	-0.739333	-0.571843	-0.355504
504	2223261													6.970736	-0.610902	6.435101	0.677647	-0.669000	-0.305343	-0.063351	-0.466777	0.882103	-0.732654	-0.578410	-0.358692
505	2223427													6.730877	-0.527551	6.440451	0.684951	-0.662583	-0.303027	-0.062382	-0.467715	0.881675	-0.725914	-0.585001	-0.361695
506	2223594													6.641058	-0.543601	6.604704	0.691734	-0.656575	-0.300687	-0.061493	-0.468418	0.881364	-0.719529	-0.591180	-0.364396
507	2223761													6.468529	-0.537916	6.748760	0.697874	-0.651074	-0.298452	-0.060642	-0.468922	0.881155	-0.713648	-0.596837	-0.366732
508	2223927													6.484794	-0.547410	6.907248	0.703265	-0.646359	-0.296038	-0.060179	-0.469039	0.881125	-0.708377	-0.601849	-0.368756
509	2224094													6.515473	-0.553912	7.084349	0.707989	-0.642197	-0.293827	-0.059960	-0.469212	0.881048	-0.703674	-0.606154	-0.370703
510	2224261													6.572165	-0.505940	7.197836	0.712140	-0.638504	-0.291839	-0.059998	-0.469535	0.880873	-0.699469	-0.609795	-0.372683
511	2224427													6.591135	-0.524679	7.243763	0.715816	-0.635372	-0.289673	-0.060279	-0.469508	0.880868	-0.695682	-0.613078	-0.374381
512	2224594													6.560759	-0.602547	7.237072	0.719121	-0.632616	-0.287511	-0.060775	-0.469426	0.880878	-0.692223	-0.615984	-0.376021
513	2224761													6.548770	-0.570055	7.133632	0.722184	-0.629947	-0.285688	-0.061306	-0.469690	0.880700	-0.688979	-0.618513	-0.377822
514	2224927													6.604897	-0.490875	7.189513	0.725345	-0.627103	-0.283930	-0.061683	-0.470007	0.880505	-0.685616	-0.621156	-0.379599
515	2225094													6.526290	-0.658108	7.159980	0.728653	-0.624101	-0.282068	-0.061887	-0.470162	0.880408	-0.682081	-0.624056	-0.381209
516	2225261													6.561930	-0.545267	7.219098	0.732036	-0.620757	-0.280686	-0.061758	-0.470776	0.880089	-0.678461	-0.626922	-0.382961
517	2225427													6.504204	-0.440344	7.171591	0.735761	-0.616641	-0.280018	-0.060909	-0.472043	0.879469	-0.674497	-0.630023	-0.384870
518	2225594													6.543312	-0.531724	7.270799	0.740043	-0.612098	-0.278697	-0.059803	-0.472629	0.879230	-0.669895	-0.634002	-0.386371
519	2225761													6.589529	-0.637971	7.138245	0.744572	-0.607458	-0.276778	-0.058627	-0.472527	0.879364	-0.664962	-0.638524	-0.387444
520	2225927													6.745800	-0.535488	7.319058	0.749092	-0.602122	-0.276245	-0.056672	-0.473711	0.878855	-0.660038	-0.642687	-0.388977
521	2226094													6.545313	-0.368406	7.367593	0.753447	-0.597095	-0.275310	-0.055140	-0.474622	0.878461	-0.655193	-0.646693	-0.390526
522	2226261													6.484301	-0.531386	7.402164	0.757599	-0.592503	-0.273831	-0.053864	-0.474843	0.878421	-0.650494	-0.650741	-0.391655
523	2226427													6.467677	-0.648713	7.397806	0.761572	-0.588414	-0.271620	-0.053050	-0.474309	0.878759	-0.645906	-0.654828	-0.392436
524	2226594													6.334911	-0.694010	7.544590	0.765326	-0.584703	-0.269071	-0.052719	-0.473584	0.879169	-0.641480	-0.658666	-0.393271
525	2226761													6.155772	-0.621931	7.620314	0.768692	-0.581299	-0.266841	-0.052535	-0.473158	0.879410	-0.637458	-0.661977	-0.394251
526	2226928													6.074059	-0.513488	7.626868	0.771735	-0.578159	-0.264871	-0.052329	-0.472821	0.879603	-0.633787	-0.664961	-0.395147
527	2227094													6.120996	-0.639187	7.680381	0.774323	-0.575692	-0.262684	-0.052483	-0.472116	0.879973	-0.630611	-0.667597	-0.395784
528	2227261													6.098884	-0.663012	7.698293	0.776403	-0.573520	-0.261292	-0.052470	-0.471975	0.880049	-0.628049	-0.669562	-0.396535
529	2227428													6.025864	-0.536465	7.854219	0.777855	-0.571845	-0.260643	-0.052302	-0.472210	0.879933	-0.626263	-0.670829	-0.397220
530	2227594													5.991706	-0.589940	7.846271	0.778536	-0.571006	-0.260449	-0.051905	-0.472152	0.879988	-0.625450	-0.671584	-0.397226
531	2227761													5.909818	-0.669253	7.806798	0.778492	-0.570909	-0.260794	-0.051304	-0.471996	0.880107	-0.625554	-0.671776	-0.396735
532	2227928													5.937132	-0.526939	7.772772	0.777697	-0.571546	-0.261770	-0.050673	-0.472047	0.880116	-0.626594	-0.671198	-0.396071
533	2228094													5.909071	-0.373256	7.799764	0.776335	-0.572810	-0.263045	-0.050122	-0.472098	0.880120	-0.628325	-0.670084	-0.395217
534	2228261													5.961238	-0.315572	7.659339	0.774937	-0.574573	-0.263323	-0.050263	-0.471329	0.880524	-0.630037	-0.669115	-0.394130
535	2228428													5.804819	-0.441302	7.594059	0.773780	-0.576393	-0.262745	-0.050908	-0.470023	0.881185	-0.631405	-0.668468	-0.393038
536	2228594													5.708617	-0.516101	7.835589	0.772219	-0.579003	-0.261598	-0.052461	-0.468435	0.881939	-0.633187	-0.667326	-0.392109
537	2228761													5.809175	0.335284	7.543225	0.770937	-0.582512	-0.257558	-0.056369	-0.465203	0.883408	-0.634412	-0.666533	-0.391478
538	2228928													5.886003	0.480257	7.842288	0.768997	-0.588869	-0.248751	-0.063694	-0.457774	0.886784	-0.636072	-0.666090	-0.389534
539	2229094													6.067643	-1.145786	7.566975	0.765547	-0.596747	-0.240480	-0.070827	-0.449672	0.890381	-0.639470	-0.664596	-0.386510
540	2229261													6.149386	-1.667717	7.628353	0.761269	-0.603268	-0.237777	-0.074112	-0.445237	0.892341	-0.644187	-0.661689	-0.383654
541	2229428													6.014212	-1.143006	7.698214	0.756377	-0.608718	-0.239493	-0.074666	-0.444069	0.892876	-0.649861	-0.657469	-0.381333
542	2229594													5.861640	-0.797989	7.562873	0.750327	-0.614410	-0.243947	-0.073632	-0.444400	0.892797	-0.656954	-0.651927	-0.378686
543	2229761													6.055722	-0.695972	7.282559	0.743964	-0.620067	-0.249069	-0.072055	-0.445003	0.892626	-0.664324	-0.646134	-0.375745
544	2229928													6.117782	-0.699362	7.244086	0.737214	-0.625950	-0.254366	-0.070435	-0.445618	0.892448	-0.671977	-0.640009	-0.372605
545	2230094													6.305039	-0.695700	7.312589	0.729866	-0.632227	-0.259972	-0.068948	-0.446449	0.892149	-0.680104	-0.633224	-0.369439
546	2230261													6.491674	-0.577096	7.156338	0.721520	-0.639308	-0.265884	-0.067899	-0.447486	0.891709	-0.689056	-0.625333	-0.366279
547	2230428													6.676913	-0.593104	7.018108	0.712137	-0.647273	-0.271842	-0.067224	-0.448309	0.891347	-0.698814	-0.616487	-0.362770
548	2230594													6.800107	-0.564899	6.902590	0.702507	-0.655315	-0.277573	-0.066830	-0.449047	0.891005	-0.708532	-0.607387	-0.359254
549	2230761													7.011463	-0.550609	6.981544	0.692880	-0.663417	-0.282480	-0.066927	-0.449241	0.890900	-0.717940	-0.598382	-0.355671
550	2230928													7.051585	-0.503305	6.839431	0.683007	-0.671689	-0.286942	-0.067238	-0.449001	0.890998	-0.727311	-0.589264	-0.351833
551	2231094													7.168821	-0.537384	6.724220	0.672487	-0.680384	-0.291271	-0.067668	-0.448427	0.891254	-0.737009	-0.579647	-0.347601
552	2231261													7.367075	-0.456582	6.328880	0.661716	-0.689104	-0.295411	-0.068396	-0.447848	0.891490	-0.746629	-0.569708	-0.343480
553	2231428													7.509190	-0.580820	6.296985	0.651433	-0.697399	-0.298780	-0.069349	-0.446886	0.891899	-0.755530	-0.560292	-0.339480
554	2231594													7.630327	-0.636306	6.322523	0.641148	-0.705504	-0.301982	-0.070111	-0.445708	0.892429	-0.764208	-0.551007	-0.335228
555	2231761													7.580387	-0.717828	6.259963	0.630129	-0.713893	-0.305441	-0.070609	-0.444413	0.893035	-0.773273	-0.541160	-0.330445
556	2231928													7.556941	-0.605973	5.937236	0.618086	-0.722545	-0.309676	-0.071057	-0.443672	0.893368	-0.782893	-0.530173	-0.325569
557	2232094													7.985631	-0.655643	5.798745	0.607326	-0.730008	-0.313437	-0.071599	-0.443221	0.893549	-0.791219	-0.520234	-0.321447
558	2232261													8.071055	-0.669877	5.748886	0.597437	-0.736697	-0.316775	-0.071984	-0.442696	0.893778	-0.798678	-0.511173	-0.317514
559	2232428													7.990534	-0.608486	5.976995	0.587601	-0.744091	-0.317888	-0.073091	-0.440071	0.894983	-0.805843	-0.502659	-0.312972
560	2232594													7.678549	-0.556025	6.105450	0.576786	-0.752860	-0.317048	-0.075233	-0.435420	0.897078	-0.813424	-0.493570	-0.307784
561	2232761													8.235483	-0.397163	5.298261	0.566466	-0.760367	-0.317739	-0.077109	-0.432780	0.898196	-0.820470	-0.484297	-0.303786
562	2232928													8.249804	-0.794800	5.511890	0.558537	-0.766631	-0.316723	-0.079470	-0.429534	0.899547	-0.825664	-0.477260	-0.300834
563	2233094													7.853584	-0.962896	5.796804	0.549817	-0.773605	-0.315018	-0.081584	-0.425072	0.901476	-0.831291	-0.469946	-0.296825
564	2233261													7.946108	-0.824988	5.489435	0.539629	-0.781336	-0.313551	-0.083358	-0.420187	0.903601	-0.837766	-0.461472	-0.291876
565	2233428													8.487072	-0.727969	4.931759	0.531169	-0.786688	-0.314614	-0.084208	-0.418508	0.904301	-0.843071	-0.453844	-0.288544
566	2233594													8.528019	-1.089730	5.129572	0.525501	-0.790359	-0.314929	-0.085028	-0.417094	0.904877	-0.846533	-0.448736	-0.286387
567	2233761													7.914496	-1.039816	5.584473	0.517964	-0.795157	-0.315341	-0.085857	-0.415111	0.905710	-0.851083	-0.442051	-0.283283
568	2233928													8.301548	-0.971535	4.672300	0.508596	-0.799708	-0.319056	-0.085239	-0.415508	0.905587	-0.856775	-0.433382	-0.279492
569	2234094													9.198320	-0.846569	4.059089	0.503437	-0.801632	-0.322393	-0.084746	-0.417140	0.904883	-0.859866	-0.428229	-0.277939
570	2234261													8.734035	-0.857996	4.915646	0.500671	-0.802710	-0.324013	-0.084486	-0.417832	0.904588	-0.861505	-0.425526	-0.277014
571	2234428													8.073178	-0.696558	5.508852	0.495743	-0.805864	-0.323762	-0.084964	-0.416011	0.905382	-0.864303	-0.421329	-0.274704
572	2234594													8.232744	-0.835560	4.863950	0.486880	-0.811219	-0.323840	-0.085643	-0.413301	0.906558	-0.869260	-0.413650	-0.270703
573	2234761													9.119633	-0.911550	4.113414	0.481322	-0.813641	-0.326063	-0.085494	-0.413791	0.906349	-0.872365	-0.408369	-0.268728
574	2234928													8.656174	-0.967475	4.879980	0.477437	-0.815339	-0.327531	-0.085514	-0.414106	0.906203	-0.874495	-0.404647	-0.267432
575	2235094													8.116026	-0.863824	5.061534	0.470677	-0.818593	-0.329193	-0.085451	-0.413645	0.906419	-0.878158	-0.398501	-0.264643
576	2235261													8.943621	-0.819755	4.039285	0.463817	-0.821682	-0.331229	-0.085154	-0.413494	0.906516	-0.881829	-0.392252	-0.261755
577	2235428													9.266574	-0.869206	4.039535	0.460938	-0.822875	-0.332285	-0.084869	-0.413592	0.906498	-0.883365	-0.389638	-0.260477
578	2235594													8.447938	-0.774229	4.987092	0.457112	-0.824686	-0.333079	-0.084527	-0.413080	0.906763	-0.885383	-0.386338	-0.258532
579	2235761													8.350710	-0.877078	4.721314	0.449248	-0.828776	-0.333626	-0.084280	-0.411080	0.907695	-0.889423	-0.379663	-0.254526
580	2235928													9.218407	-1.022348	3.664155	0.442896	-0.831410	-0.335561	-0.083471	-0.410882	0.907859	-0.892679	-0.374077	-0.251377
581	2236094													9.119215	-0.892981	4.069403	0.440001	-0.832417	-0.336869	-0.082579	-0.411051	0.907864	-0.894192	-0.371643	-0.249603
582	2236261													8.168930	-0.776202	5.241710	0.434027	-0.835922	-0.335938	-0.082068	-0.408028	0.909273	-0.897154	-0.367080	-0.245698
583	2236428													9.421296	-0.707422	3.096337	0.427556	-0.839210	-0.336039	-0.081007	-0.405802	0.910364	-0.900352	-0.362010	-0.241485
584	2236594													9.727580	-0.658299	3.339341	0.429175	-0.838323	-0.336189	-0.079847	-0.405968	0.910393	-0.899685	-0.363874	-0.241169
585	2236761													8.705199	-0.680440	4.440896	0.430242	-0.837309	-0.337349	-0.078453	-0.406974	0.910064	-0.899298	-0.365082	-0.240787
586	2236928													8.384414	-0.884268	4.749459	0.429498	-0.836824	-0.339495	-0.077054	-0.408523	0.909490	-0.899774	-0.364464	-0.239941
587	2237094													8.146838	-0.901002	5.057298	0.425198	-0.837752	-0.342605	-0.074977	-0.409828	0.909076	-0.901989	-0.360850	-0.237071
588	2237261													8.803595	-0.851346	4.142389	0.418450	-0.839543	-0.346508	-0.072461	-0.411160	0.908679	-0.905345	-0.355128	-0.232884
589	2237428													9.423965	-0.707835	3.683895	0.416031	-0.839375	-0.349810	-0.070425	-0.413266	0.907883	-0.906619	-0.353072	-0.231045
590	2237594													8.963170	-0.689639	4.144783	0.415006	-0.838950	-0.352041	-0.068774	-0.414756	0.907330	-0.907215	-0.352336	-0.229825
591	2237761													8.654428	-0.671554	4.372861	0.412685	-0.839714	-0.352948	-0.067666	-0.414674	0.907451	-0.908357	-0.350608	-0.227950
592	2237928													8.802252	-0.694789	4.269421	0.408886	-0.841540	-0.353019	-0.066966	-0.413459	0.908057	-0.910125	-0.347652	-0.225413
593	2238094													9.108293	-0.705495	3.858834	0.404608	-0.843512	-0.353244	-0.066385	-0.412347	0.908605	-0.912078	-0.344178	-0.222835
594	2238261													9.190214	-0.618660	3.771830	0.401721	-0.844581	-0.353980	-0.066026	-0.412249	0.908676	-0.913379	-0.341662	-0.221374
595	2238428													9.141081	-0.626506	3.806675	0.399505	-0.845332	-0.354698	-0.065979	-0.412426	0.908599	-0.914354	-0.339587	-0.220541
596	2238594													9.037956	-0.573530	3.953434	0.397529	-0.846195	-0.354858	-0.066134	-0.412145	0.908715	-0.915203	-0.337772	-0.219802
597	2238761													8.797604	-0.634971	4.082799	0.393910	-0.848445	-0.353519	-0.066518	-0.409921	0.909692	-0.916739	-0.334821	-0.217909
598	2238928													9.066854	-0.676606	3.633163	0.389049	-0.850789	-0.353268	-0.066568	-0.408441	0.910354	-0.918809	-0.330656	-0.215539
599	2239094													9.502088	-0.678688	3.353367	0.386028	-0.852292	-0.352961	-0.066773	-0.407431	0.910792	-0.920067	-0.328022	-0.214190
600	2239261													9.279703	-0.695739	3.599823	0.384141	-0.853449	-0.352223	-0.067027	-0.406265	0.911294	-0.920838	-0.326457	-0.213267
601	2239428													9.089871	-0.685505	3.809984	0.381581	-0.855216	-0.350715	-0.067471	-0.404182	0.912187	-0.921870	-0.324410	-0.211930
602	2239594													9.202042	-0.513609	3.459123	0.379349	-0.856512	-0.349973	-0.067770	-0.402950	0.912709	-0.922768	-0.322518	-0.210904
603	2239761													9.304594	-0.482087	3.470753	0.378588	-0.857186	-0.349146	-0.068174	-0.402026	0.913087	-0.923051	-0.321881	-0.210640
604	2239928													9.197035	-0.669207	3.593557	0.378178	-0.857619	-0.348527	-0.068423	-0.401353	0.913364	-0.923201	-0.321567	-0.210463
605	2240094													9.096969	-0.707440	3.674323	0.377881	-0.857881	-0.348204	-0.068406	-0.400931	0.913551	-0.923324	-0.321394	-0.210188
606	2240261													9.056477	-0.698321	3.757162	0.377528	-0.857806	-0.348771	-0.067962	-0.401295	0.913424	-0.923501	-0.321140	-0.209798
607	2240428													8.988587	-0.691776	3.846301	0.376854	-0.857575	-0.350065	-0.067390	-0.402311	0.913019	-0.923818	-0.320484	-0.209404
608	2240594													9.026127	-0.716177	3.735163	0.375429	-0.857801	-0.351044	-0.066697	-0.402770	0.912868	-0.924448	-0.319303	-0.208424
609	2240761													9.180135	-0.600383	3.609388	0.374089	-0.857983	-0.352026	-0.066053	-0.403273	0.912693	-0.925038	-0.318176	-0.207532
610	2240928													9.127761	-0.604056	3.644276	0.373132	-0.858303	-0.352261	-0.065726	-0.403183	0.912756	-0.925447	-0.317426	-0.206853
611	2241094													9.115404	-0.705345	3.605534	0.372200	-0.858675	-0.352342	-0.065486	-0.402965	0.912869	-0.925840	-0.316696	-0.206215
612	2241261													9.096530	-0.733461	3.682433	0.371123	-0.858723	-0.353360	-0.065125	-0.403669	0.912584	-0.926297	-0.315669	-0.205735
613	2241428													9.176594	-0.683084	3.591801	0.370223	-0.858600	-0.354599	-0.064855	-0.404682	0.912155	-0.926676	-0.314703	-0.205507
614	2241594													9.209687	-0.559113	3.545945	0.370118	-0.858270	-0.355507	-0.064760	-0.405590	0.911758	-0.926725	-0.314436	-0.205697
615	2241761													9.177665	-0.584296	3.553449	0.370523	-0.858005	-0.355726	-0.064784	-0.405925	0.911607	-0.926561	-0.314726	-0.205990
616	2241928													9.065996	-0.605741	3.644787	0.370944	-0.857774	-0.355843	-0.064992	-0.406220	0.911461	-0.926378	-0.314974	-0.206434
617	2242094													9.030060	-0.661817	3.708275	0.370851	-0.857674	-0.356182	-0.065189	-0.406625	0.911266	-0.926402	-0.314725	-0.206708
618	2242261													9.121577	-0.651622	3.665455	0.370616	-0.857856	-0.355986	-0.065498	-0.406466	0.911315	-0.926474	-0.314432	-0.206831
619	2242428													9.215055	-0.543103	3.481414	0.370845	-0.857728	-0.356059	-0.065699	-0.406666	0.911211	-0.926368	-0.314525	-0.207162
620	2242594													9.240004	-0.576608	3.505843	0.371929	-0.857254	-0.356068	-0.066052	-0.407054	0.911013	-0.925908	-0.315314	-0.208018
621	2242761													9.137839	-0.648457	3.590672	0.373384	-0.856536	-0.356274	-0.066351	-0.407724	0.910691	-0.925301	-0.316399	-0.209069
622	2242928													9.059385	-0.659601	3.687649	0.374681	-0.855700	-0.356920	-0.066467	-0.408763	0.910217	-0.924768	-0.317318	-0.210031
623	2243094													9.106464	-0.657972	3.663977	0.375653	-0.854681	-0.358336	-0.066360	-0.410469	0.909457	-0.924381	-0.317861	-0.210910
624	2243261													9.218966	-0.661255	3.598515	0.376940	-0.853459	-0.359893	-0.066191	-0.412380	0.908604	-0.923869	-0.318668	-0.211934
625	2243428													9.212753	-0.650228	3.656696	0.378669	-0.851867	-0.361847	-0.065889	-0.414781	0.907533	-0.923184	-0.319813	-0.213194
626	2243595													8.959226	-0.682843	3.879046	0.379709	-0.850910	-0.363006	-0.065881	-0.416270	0.906851	-0.922757	-0.320424	-0.214120
627	2243761													8.868268	-0.637571	4.010299	0.379302	-0.851262	-0.362605	-0.066053	-0.415802	0.907053	-0.922912	-0.320096	-0.213943
628	2243928													9.145158	-0.558710	3.501267	0.378446	-0.851654	-0.362579	-0.065916	-0.415515	0.907195	-0.923273	-0.319425	-0.213388
629	2244095													9.484307	-0.606911	3.349910	0.379646	-0.851035	-0.362778	-0.066087	-0.416083	0.906922	-0.922768	-0.320334	-0.214207
630	2244261													9.210391	-0.750083	3.600568	0.382101	-0.849853	-0.362972	-0.066347	-0.416991	0.906486	-0.921736	-0.322287	-0.215718
631	2244428													8.980318	-0.725881	3.789064	0.384510	-0.848465	-0.363674	-0.066495	-0.418396	0.905827	-0.920723	-0.324117	-0.217296
632	2244595													9.039527	-0.724033	3.824217	0.387122	-0.846789	-0.364809	-0.066553	-0.420289	0.904946	-0.919623	-0.326046	-0.219059
633	2244761													9.102926	-0.677314	3.836817	0.390232	-0.844683	-0.366374	-0.066540	-0.422755	0.903798	-0.918309	-0.328313	-0.221178
634	2244928													9.063047	-0.642444	3.861148	0.393731	-0.842388	-0.367911	-0.066659	-0.425352	0.902570	-0.916806	-0.330845	-0.223627
635	2245095													9.000840	-0.660152	3.864133	0.397800	-0.839826	-0.369388	-0.066775	-0.428049	0.901285	-0.915039	-0.333866	-0.226357
636	2245261													9.003985	-0.744227	3.880006	0.402229	-0.837192	-0.370568	-0.067082	-0.430615	0.900039	-0.913078	-0.337164	-0.229367
637	2245428													8.979218	-0.750082	3.988165	0.406823	-0.834526	-0.371566	-0.067410	-0.433063	0.898839	-0.911016	-0.340621	-0.232436
638	2245595													8.871463	-0.699589	4.173559	0.411276	-0.832072	-0.372168	-0.067640	-0.435032	0.897871	-0.908998	-0.344099	-0.235199
639	2245761													8.748254	-0.678897	4.100753	0.415427	-0.830020	-0.372139	-0.067927	-0.436278	0.897245	-0.907087	-0.347461	-0.237622
640	2245928													9.023156	-0.656303	3.885549	0.419145	-0.828880	-0.370506	-0.068655	-0.435850	0.897397	-0.905320	-0.350702	-0.239591
641	2246095													9.333934	-0.680335	3.699067	0.423510	-0.827679	-0.368222	-0.069279	-0.434876	0.897822	-0.903239	-0.354726	-0.241514
642	2246261													9.323380	-0.634126	3.875359	0.429449	-0.825756	-0.365651	-0.069808	-0.434030	0.898190	-0.900389	-0.360201	-0.244038
643	2246428													8.982449	-0.605069	4.199987	0.435894	-0.823701	-0.362648	-0.070588	-0.432991	0.898630	-0.897226	-0.366109	-0.246881
644	2246595													8.784636	-0.648430	4.263230	0.441621	-0.822204	-0.359100	-0.071805	-0.431349	0.899323	-0.894324	-0.371375	-0.249531
645	2246761													8.897882	-0.704862	4.065740	0.446539	-0.820866	-0.356064	-0.073019	-0.430045	0.899849	-0.891780	-0.375818	-0.251971
646	2246928													9.219277	-0.768747	3.812737	0.451552	-0.819054	-0.353909	-0.073955	-0.429643	0.899965	-0.889175	-0.380208	-0.254579
647	2247095													9.430083	-0.775044	3.996812	0.458948	-0.816150	-0.351091	-0.074922	-0.429312	0.900043	-0.885298	-0.386769	-0.258180
648	2247261													9.001486	-0.818639	4.420877	0.468240	-0.812029	-0.348367	-0.075612	-0.429636	0.899831	-0.880360	-0.394996	-0.262572
649	2247428													8.673722	-0.753991	4.743324	0.477740	-0.807556	-0.345856	-0.076345	-0.430365	0.899421	-0.875177	-0.403285	-0.267256
650	2247595													8.504658	-0.668467	4.711270	0.486595	-0.803373	-0.343245	-0.077137	-0.430871	0.899111	-0.870216	-0.411025	-0.271629
651	2247761													8.805829	-0.689775	4.475934	0.495300	-0.799148	-0.340647	-0.077938	-0.431420	0.898778	-0.865219	-0.418615	-0.275966
652	2247928													8.886026	-0.679784	4.598473	0.506059	-0.793477	-0.338080	-0.078618	-0.432783	0.898064	-0.858908	-0.427894	-0.281395
653	2248095													8.538874	-0.781789	4.885318	0.517907	-0.786952	-0.335378	-0.078992	-0.434375	0.897262	-0.851782	-0.438206	-0.287129
654	2248261													8.176031	-0.751341	5.132764	0.529607	-0.780113	-0.333077	-0.079001	-0.436323	0.896315	-0.844556	-0.448381	-0.292710
655	2248428													8.248300	-0.638293	4.963094	0.540188	-0.773604	-0.331262	-0.078918	-0.438469	0.895275	-0.837836	-0.457474	-0.297906
656	2248595													8.550206	-0.698660	5.196008	0.551089	-0.766788	-0.329145	-0.078819	-0.440517	0.894277	-0.830715	-0.466884	-0.303202
657	2248761													8.076200	-0.782750	5.516764	0.562791	-0.759189	-0.326952	-0.078215	-0.442674	0.893265	-0.822891	-0.477149	-0.308513
658	2248928													7.783223	-0.804260	5.649727	0.573338	-0.752118	-0.324964	-0.077497	-0.444631	0.892355	-0.815645	-0.486438	-0.313210
659	2249095													7.884288	-0.821595	5.688483	0.583778	-0.744967	-0.322841	-0.076581	-0.446381	0.891560	-0.808293	-0.495750	-0.317638
660	2249261													7.865016	-0.766124	5.818605	0.594413	-0.737639	-0.320253	-0.075752	-0.447837	0.890901	-0.800584	-0.505303	-0.322078
661	2249428													7.812369	-0.783808	5.947116	0.605294	-0.729975	-0.317421	-0.074740	-0.449127	0.890336	-0.792486	-0.515191	-0.326412
662	2249595													7.751437	-0.828813	6.167575	0.616064	-0.722105	-0.314690	-0.073404	-0.450397	0.889806	-0.784268	-0.525078	-0.330479
663	2249761													7.630118	-0.897416	6.192266	0.626752	-0.713838	-0.312438	-0.071676	-0.452077	0.889095	-0.775915	-0.534848	-0.334505
664	2249928													7.634683	-0.864797	6.184554	0.637281	-0.705197	-0.310758	-0.069285	-0.454048	0.888279	-0.767511	-0.544552	-0.338216
665	2250095													7.623477	-0.648247	6.267993	0.647462	-0.696410	-0.309525	-0.066533	-0.456251	0.887360	-0.759188	-0.553939	-0.341739
666	2250261													7.476741	-0.573098	6.381537	0.657314	-0.687732	-0.308162	-0.063732	-0.458173	0.886575	-0.750917	-0.563118	-0.344994
667	2250428													7.302361	-0.740882	6.527359	0.666917	-0.679196	-0.306456	-0.060814	-0.459519	0.886084	-0.742647	-0.572307	-0.347765
668	2250595													7.206914	-0.550362	6.489494	0.675623	-0.670932	-0.305588	-0.057468	-0.461165	0.885452	-0.735004	-0.580670	-0.350131
669	2250761													7.136423	-0.330469	6.754398	0.683993	-0.663253	-0.303725	-0.055020	-0.462072	0.885134	-0.727411	-0.588714	-0.352546
670	2250928													6.805195	-0.331654	6.803853	0.691596	-0.656155	-0.301919	-0.052567	-0.462623	0.884995	-0.720369	-0.596188	-0.354440
671	2251095													6.391203	-0.362127	6.831205	0.698933	-0.649200	-0.300054	-0.050067	-0.462931	0.884979	-0.713433	-0.603518	-0.356061
672	2251261													6.109897	-0.313204	6.862589	0.705946	-0.642713	-0.297591	-0.048017	-0.462632	0.885249	-0.706636	-0.610649	-0.357455
673	2251428													6.229641	-0.382593	6.877839	0.712234	-0.636842	-0.295219	-0.046438	-0.462403	0.885453	-0.700404	-0.616941	-0.358913
674	2251595													6.402581	-0.388382	7.116726	0.717856	-0.631638	-0.292773	-0.045259	-0.461986	0.885732	-0.694719	-0.622577	-0.360226
675	2251761													6.469381	-0.398338	7.297329	0.722564	-0.627359	-0.290382	-0.044367	-0.461267	0.886151	-0.689879	-0.627418	-0.361129
676	2251928													6.446836	-0.465436	7.325996	0.726450	-0.623753	-0.288448	-0.043582	-0.460703	0.886484	-0.685836	-0.631415	-0.361862
677	2252095													6.258398	-0.433633	7.305795	0.729830	-0.620634	-0.286639	-0.043198	-0.460320	0.886701	-0.682262	-0.634759	-0.362766
678	2252261													6.205338	-0.368209	7.335992	0.732875	-0.617798	-0.284992	-0.042836	-0.459950	0.886911	-0.679013	-0.637787	-0.363550
679	2252428													6.155149	-0.599539	7.325642	0.735698	-0.615091	-0.283571	-0.042189	-0.459475	0.887188	-0.675995	-0.640739	-0.363985
680	2252595													6.513575	-0.468399	7.198300	0.737542	-0.612762	-0.283820	-0.040848	-0.459999	0.886979	-0.674064	-0.642592	-0.364299
681	2252761													6.615001	-0.292438	7.171533	0.738619	-0.611002	-0.284813	-0.039687	-0.461174	0.886422	-0.672954	-0.643425	-0.364880
682	2252928													6.583319	-0.385641	7.547721	0.738750	-0.610573	-0.285392	-0.038765	-0.461236	0.886430	-0.672863	-0.643788	-0.364407
683	2253095													6.498085	-0.553094	7.449011	0.738313	-0.610758	-0.286126	-0.037864	-0.461096	0.886542	-0.673395	-0.643712	-0.363559
684	2253261													6.465076	-0.443734	7.623718	0.737707	-0.610985	-0.287202	-0.037159	-0.461510	0.886356	-0.674098	-0.643199	-0.363163
685	2253428													6.305901	-0.262259	7.460453	0.737231	-0.611205	-0.287957	-0.037001	-0.462082	0.886065	-0.674627	-0.642580	-0.363276
686	2253595													6.574586	-0.274337	7.313872	0.736911	-0.611505	-0.288139	-0.037269	-0.462351	0.885913	-0.674962	-0.642100	-0.363502
687	2253761													6.802951	-0.350808	7.283211	0.736583	-0.611913	-0.288110	-0.037638	-0.462405	0.885870	-0.675299	-0.641672	-0.363631
688	2253928													6.660540	-0.463879	7.407217	0.736295	-0.612373	-0.287871	-0.038303	-0.462465	0.885810	-0.675576	-0.641191	-0.363966
689	2254095													6.468402	-0.380809	7.366090	0.736318	-0.612439	-0.287670	-0.039088	-0.462938	0.885529	-0.675506	-0.640786	-0.364808
690	2254261													6.459686	-0.330017	7.130352	0.736689	-0.612198	-0.287234	-0.039979	-0.463442	0.885225	-0.675049	-0.640652	-0.365887
691	2254428													6.618452	-0.376271	7.095927	0.737156	-0.611866	-0.286743	-0.040653	-0.463739	0.885039	-0.674499	-0.640755	-0.366722
692	2254595													6.658495	-0.504519	7.296216	0.737590	-0.611447	-0.286519	-0.041080	-0.464163	0.884797	-0.673998	-0.640847	-0.367480
693	2254761													6.440180	-0.356691	7.310662	0.738016	-0.610921	-0.286543	-0.041347	-0.464789	0.884456	-0.673515	-0.640895	-0.368281
694	2254928													6.443344	-0.336289	7.235969	0.738530	-0.610370	-0.286394	-0.041571	-0.465194	0.884232	-0.672938	-0.641127	-0.368933
695	2255095													6.521214	-0.403811	7.254414	0.739002	-0.609834	-0.286319	-0.041505	-0.465397	0.884128	-0.672423	-0.641489	-0.369241
696	2255261													6.756893	-0.508196	7.285253	0.739076	-0.609677	-0.286462	-0.041367	-0.465532	0.884064	-0.672350	-0.641541	-0.369284
697	2255428													6.618858	-0.366166	7.476691	0.739027	-0.609506	-0.286952	-0.041209	-0.466052	0.883797	-0.672414	-0.641325	-0.369542
698	2255595													6.471716	-0.273315	7.355848	0.738848	-0.609612	-0.287187	-0.041349	-0.466385	0.883615	-0.672602	-0.640982	-0.369794
699	2255761													6.472634	-0.377540	7.347957	0.738619	-0.610045	-0.286856	-0.041748	-0.466103	0.883745	-0.672829	-0.640776	-0.369740
700	2255928													6.502306	-0.565012	7.261073	0.738271	-0.610467	-0.286855	-0.041886	-0.465955	0.883816	-0.673203	-0.640481	-0.369571
701	2256095													6.527788	-0.494303	7.323346	0.737737	-0.610935	-0.287231	-0.041960	-0.466146	0.883712	-0.673783	-0.639895	-0.369528
702	2256261													6.542371	-0.413256	7.220149	0.736864	-0.611643	-0.287968	-0.041996	-0.466553	0.883496	-0.674736	-0.638922	-0.369473
703	2256428													6.515416	-0.379295	7.268288	0.735695	-0.612648	-0.288816	-0.042016	-0.466874	0.883325	-0.676009	-0.637723	-0.369218
704	2256595													6.485092	-0.443980	7.200944	0.734383	-0.613727	-0.289863	-0.041800	-0.467149	0.883190	-0.677447	-0.636483	-0.368720
705	2256761													6.554776	-0.468379	7.201888	0.732910	-0.614940	-0.291018	-0.041591	-0.467462	0.883034	-0.679053	-0.635081	-0.368183
706	2256928													6.571877	-0.443986	7.174376	0.731397	-0.616195	-0.292168	-0.041534	-0.467884	0.882814	-0.680686	-0.633552	-0.367802
707	2257095													6.630602	-0.371234	7.155608	0.729372	-0.617994	-0.293428	-0.041723	-0.468300	0.882584	-0.682844	-0.631489	-0.367350
708	2257261													6.551341	-0.425680	7.196758	0.727165	-0.619856	-0.294973	-0.041763	-0.468852	0.882289	-0.685191	-0.629251	-0.366820
709	2257428													6.485387	-0.489245	7.215770	0.724754	-0.621861	-0.296682	-0.041802	-0.469486	0.881950	-0.687738	-0.626795	-0.366257
710	2257595													6.514899	-0.460550	7.127539	0.722281	-0.623827	-0.298579	-0.041801	-0.470311	0.881510	-0.690335	-0.624217	-0.365773
711	2257761													6.523504	-0.439176	7.066154	0.719395	-0.626282	-0.300404	-0.042083	-0.470988	0.881135	-0.693325	-0.621242	-0.365182
712	2257928													6.580192	-0.364172	7.098930	0.716049	-0.629221	-0.302251	-0.042708	-0.471671	0.880740	-0.696743	-0.617744	-0.364612
713	2258095													6.520095	-0.364417	7.037848	0.712207	-0.632594	-0.304280	-0.043411	-0.472327	0.880354	-0.700626	-0.613785	-0.363856
714	2258261													6.565281	-0.395423	6.998683	0.707909	-0.636463	-0.306234	-0.044168	-0.472614	0.880162	-0.704921	-0.609549	-0.362679
715	2258428													6.607591	-0.394334	7.010440	0.703246	-0.640628	-0.308286	-0.044889	-0.472774	0.880040	-0.709528	-0.605046	-0.361234
716	2258595													6.550779	-0.334678	6.811950	0.697978	-0.645475	-0.310141	-0.045831	-0.472462	0.880159	-0.714651	-0.600118	-0.359351
717	2258761													6.872454	-0.499588	6.645945	0.692179	-0.650804	-0.311997	-0.046979	-0.472005	0.880343	-0.720195	-0.594698	-0.357286
718	2258928													7.160352	-0.444963	6.884922	0.685986	-0.656345	-0.314060	-0.048119	-0.471607	0.880495	-0.726022	-0.588895	-0.355098
719	2259095													7.227474	-0.410463	6.895136	0.679319	-0.662152	-0.316354	-0.049252	-0.471259	0.880619	-0.732188	-0.582640	-0.352748
720	2259261													7.221554	-0.457441	6.833936	0.671915	-0.668436	-0.318942	-0.050287	-0.470818	0.880796	-0.738919	-0.575781	-0.349963
721	2259428													7.297646	-0.563446	6.524620	0.664053	-0.675065	-0.321434	-0.051300	-0.470029	0.881159	-0.745923	-0.568647	-0.346756
722	2259595													7.275925	-0.576490	6.473233	0.655962	-0.681795	-0.323836	-0.052195	-0.468985	0.881662	-0.752987	-0.561434	-0.343223
723	2259761													7.290064	-0.491397	6.575365	0.647580	-0.688374	-0.326773	-0.052942	-0.468447	0.881904	-0.760156	-0.553804	-0.339801
724	2259928													7.431687	-0.484644	6.543557	0.638742	-0.694980	-0.330169	-0.053604	-0.468266	0.881960	-0.767552	-0.545647	-0.336354
725	2260095													7.571251	-0.537325	6.383965	0.629746	-0.701783	-0.333047	-0.054432	-0.467554	0.882287	-0.774891	-0.537489	-0.332640
726	2260262													7.459277	-0.608948	6.147722	0.620283	-0.709055	-0.335395	-0.055613	-0.466273	0.882891	-0.782404	-0.528990	-0.328655
727	2260428													7.710780	-0.534647	5.935865	0.610844	-0.715764	-0.338455	-0.056311	-0.465669	0.883166	-0.789746	-0.520417	-0.324756
728	2260595													7.810696	-0.345972	6.070344	0.601643	-0.721969	-0.341739	-0.056727	-0.465373	0.883295	-0.796748	-0.512043	-0.320944
729	2260762													8.026578	-0.675074	5.909126	0.592324	-0.728421	-0.344317	-0.057719	-0.464616	0.883629	-0.803629	-0.503521	-0.317248
730	2260928													8.054357	-0.702018	5.838771	0.583233	-0.734030	-0.347906	-0.057960	-0.464808	0.883512	-0.810235	-0.495129	-0.313636
731	2261095													8.065184	-0.562131	5.533663	0.574898	-0.738969	-0.351307	-0.058208	-0.465201	0.883289	-0.816152	-0.487352	-0.310457
732	2261262													8.118811	-0.405587	5.715972	0.568078	-0.742285	-0.355388	-0.057691	-0.466689	0.882538	-0.820950	-0.480848	-0.307939
733	2261428													8.143539	-0.508219	5.570697	0.561630	-0.746331	-0.357159	-0.058450	-0.466380	0.882651	-0.825322	-0.474847	-0.305556
734	2261595													8.175311	-0.845611	5.715486	0.554645	-0.751483	-0.357272	-0.060226	-0.464498	0.883524	-0.829905	-0.468525	-0.302890
735	2261762													7.805971	-0.616424	5.395689	0.546059	-0.758132	-0.356449	-0.062590	-0.461217	0.885077	-0.835405	-0.460994	-0.299303
736	2261928													8.333641	-0.431835	4.796897	0.538186	-0.763580	-0.356792	-0.064699	-0.459509	0.885814	-0.840339	-0.453648	-0.296704
737	2262095													8.604555	-0.822200	5.034019	0.531970	-0.768052	-0.356516	-0.066996	-0.457891	0.886480	-0.844109	-0.447695	-0.295041
738	2262262													8.327881	-0.839567	5.150013	0.525056	-0.772456	-0.357252	-0.068913	-0.456978	0.886804	-0.848273	-0.441003	-0.293171
739	2262428													8.321115	-0.597167	4.851296	0.516861	-0.777287	-0.358719	-0.070651	-0.456332	0.887000	-0.853149	-0.433112	-0.290776
740	2262595													8.644017	-0.524809	4.659962	0.508993	-0.781249	-0.361354	-0.071847	-0.456897	0.886613	-0.857767	-0.425317	-0.288688
741	2262762													8.781755	-0.533461	4.679425	0.503016	-0.784485	-0.362709	-0.073240	-0.456849	0.886524	-0.861168	-0.419371	-0.287258
742	2262928													8.459450	-0.567731	5.092641	0.497026	-0.788228	-0.362853	-0.074936	-0.455588	0.887031	-0.864494	-0.413687	-0.285506
743	2263095													8.343514	-0.628446	4.936488	0.489485	-0.792587	-0.363608	-0.076510	-0.454404	0.887504	-0.868649	-0.406600	-0.283065
744	2263262													8.610555	-0.796459	4.549650	0.480853	-0.797121	-0.365211	-0.077798	-0.453672	0.887766	-0.873343	-0.398472	-0.280164
745	2263428													8.843060	-0.914429	4.260373	0.473609	-0.800231	-0.367865	-0.078432	-0.454341	0.887369	-0.877236	-0.391414	-0.277944
746	2263595													8.801184	-0.913260	4.529711	0.467850	-0.803021	-0.369154	-0.079161	-0.454081	0.887437	-0.880256	-0.385964	-0.276010
747	2263762													8.624130	-0.712863	4.894772	0.461679	-0.805866	-0.370718	-0.079638	-0.453892	0.887491	-0.883465	-0.380213	-0.273729
748	2263928													8.521329	-0.716057	5.013923	0.453955	-0.810041	-0.371159	-0.080496	-0.452133	0.888311	-0.887381	-0.373376	-0.270453
749	2264095													8.747060	-0.863329	4.256096	0.446030	-0.814195	-0.371678	-0.081402	-0.450456	0.889080	-0.891309	-0.366301	-0.267194
750	2264262													8.967636	-0.883196	4.003568	0.440318	-0.816722	-0.372941	-0.082007	-0.450222	0.889143	-0.894089	-0.360922	-0.265218
751	2264428													8.761950	-0.849464	4.356971	0.435668	-0.818439	-0.374634	-0.082190	-0.450644	0.888912	-0.896347	-0.356480	-0.263599
752	2264595													8.632062	-0.834884	4.348928	0.429068	-0.822155	-0.374115	-0.082945	-0.448290	0.890032	-0.899456	-0.350853	-0.260540
753	2264762													8.941498	-0.728099	4.014611	0.422809	-0.825513	-0.373847	-0.083471	-0.446258	0.891003	-0.902366	-0.345519	-0.257588
754	2264928													8.990921	-0.844144	3.802363	0.416919	-0.828333	-0.374224	-0.083817	-0.444995	0.891602	-0.905071	-0.340359	-0.254955
755	2265095													9.152664	-0.875397	3.855908	0.413387	-0.830158	-0.374097	-0.084096	-0.443897	0.892123	-0.906664	-0.337332	-0.253314
756	2265262													8.820023	-0.795319	4.333111	0.409718	-0.832365	-0.373227	-0.084465	-0.442004	0.893027	-0.908293	-0.334365	-0.251403
757	2265428													8.771696	-0.838949	3.892729	0.403457	-0.835446	-0.373164	-0.084863	-0.440238	0.893862	-0.911055	-0.328967	-0.248516
758	2265595													9.201637	-0.888783	3.423904	0.399179	-0.836829	-0.374665	-0.084759	-0.440563	0.893711	-0.912947	-0.324994	-0.246792
759	2265762													9.204927	-1.023010	3.699980	0.397340	-0.837809	-0.374429	-0.084673	-0.439751	0.894119	-0.913757	-0.323565	-0.245670
760	2265928													8.891905	-0.716431	4.226460	0.394695	-0.839265	-0.373965	-0.084318	-0.438377	0.894827	-0.914935	-0.321652	-0.243790
761	2266095													8.816022	-0.724425	4.137612	0.389955	-0.841891	-0.373035	-0.084363	-0.436065	0.895952	-0.916961	-0.317911	-0.241070
762	2266262													9.227327	-0.854181	3.432338	0.385987	-0.843769	-0.372918	-0.084363	-0.434837	0.896549	-0.918638	-0.314596	-0.239024
763	2266428													9.271106	-0.561646	3.576324	0.384371	-0.844974	-0.371857	-0.084218	-0.433216	0.897347	-0.919329	-0.313597	-0.237678
764	2266595													9.041026	-0.717697	3.930872	0.383070	-0.846222	-0.370359	-0.083915	-0.431166	0.898362	-0.919900	-0.313057	-0.236177
765	2266762													8.845450	-0.827034	4.129681	0.380515	-0.848262	-0.368321	-0.083900	-0.428306	0.899730	-0.920961	-0.311459	-0.234146
766	2266928													9.023529	-0.935070	3.685854	0.376358	-0.851028	-0.366205	-0.083587	-0.424845	0.901399	-0.922696	-0.308639	-0.231029
767	2267095													9.363468	-0.881135	3.400337	0.373401	-0.853053	-0.364517	-0.083227	-0.422159	0.902693	-0.923929	-0.306728	-0.228631
768	2267262													9.039467	-0.842596	3.628720	0.371049	-0.854812	-0.362793	-0.083167	-0.419703	0.903843	-0.924882	-0.305198	-0.226822
769	2267428													9.012326	-0.894680	3.636615	0.368292	-0.856627	-0.361320	-0.083140	-0.417426	0.904900	-0.925985	-0.303227	-0.224954
770	2267595													9.083184	-0.903640	3.690001	0.365361	-0.858545	-0.359738	-0.083172	-0.415018	0.906003	-0.927143	-0.301098	-0.223038
771	2267762													9.046980	-0.906181	3.664260	0.361195	-0.860997	-0.358083	-0.083120	-0.412206	0.907291	-0.928778	-0.297945	-0.220453
772	2267928													9.126547	-0.804552	3.465847	0.356717	-0.863500	-0.356539	-0.083164	-0.409483	0.908520	-0.930503	-0.294434	-0.217881
773	2268095													9.243670	-0.845893	3.237829	0.352997	-0.865678	-0.354956	-0.083051	-0.406873	0.909701	-0.931931	-0.291643	-0.215521
774	2268262													9.386765	-0.796493	3.104282	0.350636	-0.867124	-0.353767	-0.082742	-0.404956	0.910585	-0.932849	-0.290012	-0.213740
775	2268428													9.240366	-0.790921	3.337874	0.349064	-0.868268	-0.352512	-0.082563	-0.403206	0.911377	-0.933455	-0.289024	-0.212432
776	2268595													9.132829	-0.840629	3.479953	0.346889	-0.869635	-0.351287	-0.082365	-0.401342	0.912217	-0.934282	-0.287505	-0.210849
777	2268762													9.193521	-0.838435	3.437245	0.344262	-0.870914	-0.350701	-0.082113	-0.400032	0.912815	-0.935276	-0.285451	-0.209230
778	2268928													9.260761	-0.834928	3.270508	0.341658	-0.872025	-0.350489	-0.081822	-0.399113	0.913244	-0.936256	-0.283339	-0.207711
779	2269095													9.366627	-0.785185	3.135561	0.339932	-0.872724	-0.350428	-0.081437	-0.398534	0.913531	-0.936917	-0.282000	-0.206547
780	2269262													9.365421	-0.768565	3.158899	0.339040	-0.872964	-0.350693	-0.081001	-0.398475	0.913595	-0.937278	-0.281339	-0.205810
781	2269428													9.280662	-0.794134	3.280705	0.338619	-0.872971	-0.351083	-0.080573	-0.398657	0.913554	-0.937468	-0.281059	-0.205330
782	2269595													9.153313	-0.820341	3.394752	0.337720	-0.873146	-0.351513	-0.080186	-0.398786	0.913531	-0.937825	-0.280331	-0.204692
783	2269762													9.208540	-0.789638	3.262825	0.335955	-0.873883	-0.351372	-0.079860	-0.398140	0.913842	-0.938486	-0.278949	-0.203546
784	2269928													9.445570	-0.727917	3.000514	0.335010	-0.874148	-0.351615	-0.079562	-0.398092	0.913889	-0.938849	-0.278187	-0.202914
785	2270095													9.384012	-0.694340	3.114698	0.334922	-0.874097	-0.351826	-0.079440	-0.398256	0.913828	-0.938891	-0.278112	-0.202823
786	2270262													9.281296	-0.734598	3.213732	0.335129	-0.873875	-0.352179	-0.079345	-0.398644	0.913667	-0.938825	-0.278253	-0.202935
787	2270428													9.286618	-0.803745	3.277176	0.335439	-0.873535	-0.352727	-0.079545	-0.399347	0.913343	-0.938698	-0.278313	-0.203442
788	2270595													9.267825	-0.823884	3.240517	0.335993	-0.873183	-0.353073	-0.079834	-0.399920	0.913067	-0.938475	-0.278597	-0.204080
789	2270762													9.134179	-0.817928	3.388094	0.336107	-0.872769	-0.353986	-0.079802	-0.400891	0.912643	-0.938437	-0.278497	-0.204391
790	2270928													9.095287	-0.811670	3.346435	0.334976	-0.873516	-0.353215	-0.079954	-0.399873	0.913077	-0.938828	-0.277618	-0.203789
791	2271095													9.397719	-0.803313	3.022193	0.334116	-0.874059	-0.352687	-0.079897	-0.399109	0.913416	-0.939139	-0.277008	-0.203184
792	2271262													9.321823	-0.789717	3.132991	0.334325	-0.874147	-0.352271	-0.080056	-0.398768	0.913551	-0.939052	-0.277221	-0.203299
793	2271428													9.189311	-0.837527	3.259643	0.334737	-0.874080	-0.352045	-0.080137	-0.398650	0.913595	-0.938898	-0.277603	-0.203489
794	2271595													9.242726	-0.825335	3.290169	0.335236	-0.873853	-0.352133	-0.080115	-0.398848	0.913511	-0.938722	-0.278030	-0.203717
795	2271762													9.163819	-0.823509	3.379006	0.335493	-0.873685	-0.352305	-0.080005	-0.399054	0.913430	-0.938639	-0.278264	-0.203780
796	2271928													9.150836	-0.832917	3.318643	0.335336	-0.873833	-0.352088	-0.079901	-0.398761	0.913568	-0.938704	-0.278220	-0.203538
797	2272095													9.302686	-0.771623	3.156419	0.335694	-0.873874	-0.351644	-0.079794	-0.398346	0.913758	-0.938585	-0.278684	-0.203452
798	2272262													9.306993	-0.752213	3.231605	0.336599	-0.873726	-0.351147	-0.079754	-0.398019	0.913904	-0.938265	-0.279614	-0.203656
799	2272428													9.229128	-0.829487	3.299828	0.337700	-0.873437	-0.350809	-0.079595	-0.397868	0.913983	-0.937882	-0.280730	-0.203881
800	2272595													9.136551	-0.835407	3.439082	0.338650	-0.873079	-0.350784	-0.079467	-0.398020	0.913928	-0.937551	-0.281626	-0.204171
801	2272762													9.031084	-0.866689	3.410899	0.338060	-0.873523	-0.350248	-0.079290	-0.397272	0.914269	-0.937779	-0.281307	-0.203563
802	2272928													9.383166	-0.723168	3.059789	0.337895	-0.873511	-0.350437	-0.078835	-0.397295	0.914298	-0.937876	-0.281310	-0.203107
803	2273095													9.431464	-0.685895	3.146473	0.338994	-0.873143	-0.350291	-0.078567	-0.397311	0.914315	-0.937502	-0.282426	-0.203287
804	2273262													9.220647	-0.806957	3.307911	0.340350	-0.872752	-0.349951	-0.078371	-0.397205	0.914378	-0.937027	-0.283782	-0.203587
805	2273428													9.117850	-0.829988	3.442396	0.341532	-0.872340	-0.349827	-0.078166	-0.397281	0.914362	-0.936614	-0.284939	-0.203872
806	2273595													9.113472	-0.807171	3.437760	0.341895	-0.872378	-0.349377	-0.077991	-0.396840	0.914569	-0.936496	-0.285438	-0.203715
807	2273762													9.254880	-0.720105	3.208962	0.342561	-0.872070	-0.349494	-0.077662	-0.397013	0.914521	-0.936280	-0.286136	-0.203728
808	2273928													9.253658	-0.674628	3.262833	0.343813	-0.871506	-0.349670	-0.077384	-0.397399	0.914377	-0.935844	-0.287316	-0.204071
809	2274095													9.158138	-0.736401	3.349567	0.345292	-0.870881	-0.349770	-0.077099	-0.397756	0.914246	-0.935323	-0.288715	-0.204487
810	2274262													9.123160	-0.775855	3.456659	0.346715	-0.870178	-0.350113	-0.076847	-0.398364	0.914002	-0.934817	-0.289993	-0.204989
811	2274428													9.036297	-0.798502	3.569686	0.347429	-0.870022	-0.349793	-0.076733	-0.398157	0.914102	-0.934561	-0.290745	-0.205091
812	2274595													9.194212	-0.723551	3.378643	0.347856	-0.869880	-0.349722	-0.076468	-0.398099	0.914150	-0.934424	-0.291250	-0.204999
813	2274762													9.277944	-0.694070	3.330016	0.348892	-0.869469	-0.349713	-0.076277	-0.398268	0.914092	-0.934054	-0.292244	-0.205273
814	2274928													9.217862	-0.727883	3.346949	0.350237	-0.868895	-0.349794	-0.076178	-0.398634	0.913941	-0.933558	-0.293449	-0.205808
815	2275095													9.221821	-0.772859	3.419429	0.351972	-0.868077	-0.350083	-0.076053	-0.399303	0.913659	-0.932916	-0.294957	-0.206563
816	2275262													9.247203	-0.727863	3.411566	0.354142	-0.866865	-0.350898	-0.075801	-0.400588	0.913118	-0.932115	-0.296775	-0.207574
817	2275428													9.246247	-0.721666	3.476477	0.357014	-0.865150	-0.352216	-0.075561	-0.402577	0.912262	-0.931038	-0.299076	-0.209098
818	2275595													9.116702	-0.744338	3.586434	0.360372	-0.863035	-0.353981	-0.075387	-0.405183	0.911122	-0.929758	-0.301657	-0.211078
819	2275762													9.114896	-0.732089	3.665981	0.363763	-0.861032	-0.355387	-0.075339	-0.407471	0.910105	-0.928440	-0.304288	-0.213092
820	2275928													9.123729	-0.740601	3.623044	0.367072	-0.859232	-0.356340	-0.075295	-0.409272	0.909301	-0.927140	-0.306948	-0.214928
821	2276095													9.092375	-0.725868	3.667645	0.370601	-0.857464	-0.356946	-0.075277	-0.410777	0.908623	-0.925737	-0.309866	-0.216781
822	2276262													9.044483	-0.761979	3.747918	0.374252	-0.855719	-0.357323	-0.075298	-0.412096	0.908024	-0.924265	-0.312925	-0.218662
823	2276428													8.984950	-0.724949	3.806856	0.377692	-0.854113	-0.357546	-0.075364	-0.413223	0.907506	-0.922859	-0.315811	-0.220440
824	2276595													8.982245	-0.665735	3.795845	0.380522	-0.853347	-0.356372	-0.075938	-0.412894	0.907608	-0.921649	-0.318303	-0.221917
825	2276762													8.971706	-0.868248	3.801490	0.379569	-0.855126	-0.353110	-0.076647	-0.409427	0.909118	-0.921983	-0.318008	-0.220949
826	2276929													9.466383	-0.717258	2.978332	0.379347	-0.856088	-0.351012	-0.076578	-0.407116	0.910161	-0.922080	-0.318387	-0.219995
827	2277095													9.791388	-0.600150	2.906138	0.383226	-0.854982	-0.349490	-0.077146	-0.406683	0.910306	-0.920427	-0.321891	-0.221810
828	2277262													9.311074	-0.783075	3.562055	0.388594	-0.852977	-0.348461	-0.077662	-0.407157	0.910050	-0.918130	-0.326578	-0.224463
829	2277429													8.891294	-0.801228	3.806395	0.393362	-0.850837	-0.348342	-0.077853	-0.408352	0.909498	-0.916081	-0.330643	-0.226871
830	2277595													8.995221	-0.750033	3.827617	0.397897	-0.848675	-0.348467	-0.078079	-0.409777	0.908838	-0.914101	-0.334416	-0.229313
831	2277762													9.024451	-0.730550	3.837651	0.402859	-0.846557	-0.347917	-0.078360	-0.410634	0.908427	-0.911902	-0.338705	-0.231764
832	2277929													8.987305	-0.742349	3.793986	0.407926	-0.844525	-0.346948	-0.078715	-0.411119	0.908177	-0.909615	-0.343159	-0.234183
833	2278095													9.005904	-0.805450	3.922364	0.412852	-0.842596	-0.345811	-0.079186	-0.411448	0.907987	-0.907349	-0.347481	-0.236589
834	2278262													9.009757	-0.855861	3.996391	0.417973	-0.840583	-0.344557	-0.079608	-0.411707	0.907833	-0.904965	-0.352020	-0.239000
835	2278429													8.901772	-0.788890	4.139766	0.423331	-0.838472	-0.343155	-0.080060	-0.411909	0.907701	-0.902431	-0.356785	-0.241502
836	2278595													8.843538	-0.773811	4.169699	0.428428	-0.836536	-0.341552	-0.080711	-0.411919	0.907639	-0.899964	-0.361291	-0.243995
837	2278762													8.852465	-0.793099	4.177923	0.433581	-0.834665	-0.339622	-0.081508	-0.411672	0.907680	-0.897421	-0.365870	-0.246525
838	2278929													8.844503	-0.823202	4.192945	0.438579	-0.832840	-0.337677	-0.082296	-0.411383	0.907740	-0.894917	-0.370327	-0.248963
839	2279095													8.913550	-0.866113	4.287504	0.443399	-0.831011	-0.335883	-0.082974	-0.411180	0.907770	-0.892475	-0.374635	-0.251269
840	2279262													8.906553	-0.887651	4.377250	0.448785	-0.828917	-0.333899	-0.083684	-0.410980	0.907796	-0.889713	-0.379463	-0.253808
841	2279429													8.795935	-0.847955	4.536361	0.454652	-0.826608	-0.331678	-0.084639	-0.410805	0.907786	-0.886638	-0.384654	-0.256737
842	2279595													8.643401	-0.838709	4.486934	0.460408	-0.824401	-0.329222	-0.085829	-0.410471	0.907825	-0.883548	-0.389714	-0.259741
843	2279762													8.809534	-0.859072	4.442919	0.466425	-0.822197	-0.326250	-0.087195	-0.409767	0.908013	-0.880253	-0.395073	-0.262818
844	2279929													8.975049	-0.790357	4.475305	0.473882	-0.818932	-0.323706	-0.088065	-0.409832	0.907900	-0.876174	-0.401731	-0.266331
845	2280095													8.733204	-0.759823	4.457054	0.482423	-0.814919	-0.321209	-0.088976	-0.410395	0.907557	-0.871408	-0.409246	-0.270492
846	2280262													8.755103	-0.866325	4.679059	0.491136	-0.810607	-0.318907	-0.089925	-0.411330	0.907040	-0.866429	-0.416802	-0.274913
847	2280429													8.740475	-0.961079	4.779418	0.500970	-0.805442	-0.316688	-0.090557	-0.412692	0.906358	-0.860714	-0.425380	-0.279685
848	2280595													8.404135	-0.880227	4.946461	0.511811	-0.799336	-0.314821	-0.090908	-0.414789	0.905365	-0.854275	-0.434756	-0.284960
849	2280762													8.168742	-0.812214	4.966482	0.522068	-0.793227	-0.313426	-0.091026	-0.417201	0.904244	-0.848033	-0.443547	-0.290011
850	2280929													8.484785	-0.724984	4.869107	0.531760	-0.787390	-0.311848	-0.091115	-0.419278	0.903274	-0.841980	-0.451911	-0.294698
851	2281095													8.778612	-0.978509	4.945393	0.542359	-0.780955	-0.309768	-0.091011	-0.421150	0.902413	-0.835203	-0.461239	-0.299490
852	2281262													8.480052	-1.169788	5.355371	0.553033	-0.774253	-0.307711	-0.090631	-0.423044	0.901565	-0.828215	-0.470707	-0.304129
853	2281429													7.918806	-1.182131	5.532208	0.563154	-0.767668	-0.305848	-0.089903	-0.424839	0.900794	-0.821447	-0.479789	-0.308265
854	2281595													7.762193	-0.989964	5.540544	0.572648	-0.761258	-0.304239	-0.089200	-0.426768	0.899951	-0.814934	-0.488217	-0.312292
