// Start Time: Unknown
// Update Rate: 60.0Hz
//Filter Profile: human (46.1)
// Option Flags: AHS Disabled ICC Disabled
// Firmware Version: 4.0.2
0	sampleTimeFine	Year	Month	Day	Second	UTC_Nano	UTC_Year	UTC_Month	UTC_Day	UTC_Hour	UTC_Minute	UTC_Second	UTC_Valid	Acc_X	Acc_Y	Acc_Z	Mat[1][1]	Mat[2][1]	Mat[3][1]	Mat[1][2]	Mat[2][2]	Mat[3][2]	Mat[1][3]	Mat[2][3]	Mat[3][3]
0	2138592													0.394785	0.344612	-0.301944	-0.131069	-0.857293	0.497865	-0.009911	0.503305	0.864052	-0.991324	0.108316	-0.074465
1	2138759													9.801879	-0.085757	-1.289368	-0.131317	-0.857348	0.497705	-0.008927	0.503054	0.864209	-0.991300	0.109043	-0.073713
2	2138926													9.797835	-0.109579	-1.282170	-0.131078	-0.856795	0.498720	-0.008384	0.504000	0.863663	-0.991337	0.109025	-0.073247
3	2139092													9.747644	-0.121642	-1.289747	-0.130554	-0.856884	0.498704	-0.008461	0.503953	0.863689	-0.991405	0.108539	-0.073043
4	2139926													9.706855	-0.116122	-1.287592	-0.130128	-0.856575	0.499346	-0.008865	0.504613	0.863300	-0.991458	0.107913	-0.073258
5	2140092													9.706508	-0.110439	-1.292489	-0.129749	-0.856694	0.499240	-0.009372	0.504533	0.863342	-0.991503	0.107339	-0.073492
6	2140259													9.737162	-0.105898	-1.254502	-0.129420	-0.856604	0.499480	-0.009872	0.504805	0.863177	-0.991541	0.106782	-0.073788
7	2140426													9.721944	-0.105234	-1.262640	-0.128883	-0.856914	0.499086	-0.010442	0.504428	0.863390	-0.991605	0.106064	-0.073960
8	2140592													9.696221	-0.112196	-1.263320	-0.128371	-0.857026	0.499027	-0.011042	0.504394	0.863403	-0.991665	0.105325	-0.074213
9	2140759													9.667894	-0.095044	-1.253462	-0.127953	-0.857527	0.498272	-0.011624	0.503664	0.863822	-0.991712	0.104737	-0.074413
10	2140926													9.667507	-0.075620	-1.256640	-0.127593	-0.857767	0.497952	-0.012140	0.503368	0.863987	-0.991752	0.104194	-0.074640
11	2141092													9.661739	-0.096042	-1.245347	-0.127423	-0.857976	0.497635	-0.012599	0.503084	0.864146	-0.991768	0.103843	-0.074914
12	2141259													9.716407	-0.086792	-1.234721	-0.127277	-0.858308	0.497100	-0.013062	0.502583	0.864430	-0.991781	0.103529	-0.075179
13	2141426													9.756660	-0.057063	-1.223904	-0.127084	-0.858623	0.496605	-0.013395	0.502104	0.864703	-0.991801	0.103238	-0.075311
14	2141592													9.722972	-0.041432	-1.229030	-0.126755	-0.858860	0.496280	-0.013579	0.501771	0.864894	-0.991841	0.102891	-0.075264
15	2141759													9.720671	-0.052346	-1.214333	-0.126373	-0.858977	0.496173	-0.013637	0.501640	0.864969	-0.991889	0.102542	-0.075107
16	2141926													9.716922	-0.064372	-1.224174	-0.125912	-0.859071	0.496127	-0.013699	0.501566	0.865011	-0.991947	0.102119	-0.074922
17	2142092													9.731611	-0.073166	-1.166210	-0.125400	-0.858967	0.496437	-0.013809	0.501850	0.864844	-0.992010	0.101596	-0.074793
18	2142259													9.772408	-0.082600	-1.198473	-0.124684	-0.858981	0.496593	-0.013956	0.501968	0.864774	-0.992098	0.100893	-0.074575
19	2142426													9.763894	-0.100045	-1.180948	-0.123802	-0.859025	0.496739	-0.014107	0.502063	0.864716	-0.992207	0.100046	-0.074275
20	2142592													9.714554	-0.098725	-1.184314	-0.122811	-0.859113	0.496833	-0.014266	0.502099	0.864692	-0.992328	0.099105	-0.073920
21	2142759													9.658920	-0.076090	-1.187715	-0.121893	-0.859197	0.496912	-0.014435	0.502127	0.864673	-0.992438	0.098225	-0.073609
22	2142926													9.666006	-0.084471	-1.157505	-0.121149	-0.859248	0.497007	-0.014586	0.502182	0.864639	-0.992527	0.097501	-0.073372
23	2143092													9.647332	-0.113298	-1.158066	-0.120581	-0.859259	0.497126	-0.014799	0.502280	0.864578	-0.992593	0.096895	-0.073281
24	2143259													9.629110	-0.100442	-1.139417	-0.120262	-0.859304	0.497125	-0.014952	0.502271	0.864581	-0.992630	0.096544	-0.073252
25	2143426													9.683365	-0.140613	-1.128526	-0.120158	-0.859300	0.497157	-0.015049	0.502304	0.864560	-0.992641	0.096402	-0.073288
26	2143593													9.707532	-0.110633	-1.152688	-0.120061	-0.859315	0.497154	-0.015180	0.502307	0.864556	-0.992650	0.096253	-0.073352
27	2143759													9.704391	-0.069021	-1.123485	-0.120010	-0.859303	0.497188	-0.015411	0.502359	0.864522	-0.992653	0.096090	-0.073531
28	2143926													9.705524	-0.082602	-1.149231	-0.120024	-0.859206	0.497352	-0.015605	0.502544	0.864411	-0.992648	0.095989	-0.073725
29	2144093													9.779267	-0.075857	-1.157987	-0.120015	-0.859104	0.497531	-0.015737	0.502737	0.864296	-0.992647	0.095899	-0.073855
30	2144259													9.754889	-0.127370	-1.134258	-0.119843	-0.859020	0.497718	-0.015842	0.502921	0.864187	-0.992666	0.095682	-0.073880
31	2144426													9.722386	-0.134263	-1.178985	-0.119654	-0.858944	0.497894	-0.015936	0.503094	0.864085	-0.992688	0.095457	-0.073886
32	2144593													9.723196	-0.165893	-1.170725	-0.119477	-0.858959	0.497910	-0.016033	0.503106	0.864076	-0.992708	0.095254	-0.073881
33	2144759													9.658401	-0.184930	-1.117990	-0.119397	-0.859023	0.497819	-0.016158	0.503021	0.864123	-0.992715	0.095130	-0.073939
34	2144926													9.708138	-0.159901	-1.128764	-0.119433	-0.859162	0.497570	-0.016345	0.502791	0.864254	-0.992708	0.095088	-0.074093
35	2145093													9.709841	-0.100612	-1.137349	-0.119434	-0.859330	0.497280	-0.016488	0.502513	0.864412	-0.992705	0.095041	-0.074186
36	2145259													9.672480	-0.105269	-1.174868	-0.119522	-0.859399	0.497140	-0.016627	0.502392	0.864480	-0.992692	0.095058	-0.074336
37	2145426													9.715654	-0.113584	-1.148256	-0.119713	-0.859493	0.496932	-0.016867	0.502220	0.864575	-0.992665	0.095119	-0.074620
38	2145593													9.764412	-0.089646	-1.146986	-0.119835	-0.859604	0.496710	-0.017032	0.502022	0.864687	-0.992648	0.095160	-0.074801
39	2145759													9.747707	-0.077257	-1.181672	-0.119845	-0.859655	0.496618	-0.017084	0.501935	0.864736	-0.992646	0.095150	-0.074841
40	2145926													9.703230	-0.099200	-1.179991	-0.119819	-0.859686	0.496571	-0.017193	0.501896	0.864757	-0.992647	0.095077	-0.074917
41	2146093													9.758419	-0.126065	-1.177863	-0.119737	-0.859679	0.496604	-0.017393	0.501942	0.864727	-0.992653	0.094903	-0.075053
42	2146259													9.786530	-0.112618	-1.165613	-0.119536	-0.859659	0.496687	-0.017614	0.502031	0.864670	-0.992674	0.094611	-0.075153
43	2146426													9.760654	-0.099516	-1.173277	-0.119163	-0.859670	0.496758	-0.017839	0.502096	0.864628	-0.992714	0.094170	-0.075167
44	2146593													9.716792	-0.110476	-1.136141	-0.118709	-0.859738	0.496747	-0.017980	0.502064	0.864644	-0.992766	0.093710	-0.075058
45	2146759													9.700893	-0.128643	-1.154218	-0.118234	-0.859666	0.496986	-0.018094	0.502279	0.864516	-0.992821	0.093223	-0.074941
46	2146926													9.679151	-0.151779	-1.151021	-0.117834	-0.859696	0.497029	-0.018195	0.502301	0.864501	-0.992867	0.092824	-0.074830
47	2147093													9.677247	-0.167025	-1.145523	-0.117519	-0.859715	0.497070	-0.018362	0.502334	0.864478	-0.992901	0.092465	-0.074820
48	2147259													9.714751	-0.118088	-1.139389	-0.117305	-0.859775	0.497017	-0.018508	0.502278	0.864508	-0.992923	0.092213	-0.074832
49	2147426													9.671553	-0.129216	-1.136690	-0.117138	-0.859772	0.497061	-0.018598	0.502319	0.864483	-0.992941	0.092020	-0.074831
50	2147593													9.717546	-0.121777	-1.132134	-0.117081	-0.859785	0.497053	-0.018724	0.502318	0.864480	-0.992946	0.091907	-0.074911
51	2147759													9.718561	-0.099726	-1.130951	-0.117061	-0.859809	0.497017	-0.018848	0.502291	0.864493	-0.992946	0.091830	-0.075004
52	2147926													9.697436	-0.103513	-1.150090	-0.117110	-0.859779	0.497056	-0.018897	0.502338	0.864465	-0.992939	0.091845	-0.075076
53	2148093													9.686562	-0.104372	-1.125407	-0.117246	-0.859675	0.497204	-0.018953	0.502503	0.864368	-0.992922	0.091920	-0.075210
54	2148259													9.706760	-0.104628	-1.143820	-0.117456	-0.859575	0.497327	-0.019066	0.502653	0.864278	-0.992895	0.092033	-0.075428
55	2148426													9.739639	-0.094505	-1.148832	-0.117590	-0.859506	0.497415	-0.019154	0.502760	0.864214	-0.992878	0.092095	-0.075582
56	2148593													9.715425	-0.121204	-1.144362	-0.117732	-0.859490	0.497410	-0.019267	0.502776	0.864202	-0.992858	0.092161	-0.075752
57	2148759													9.712798	-0.143528	-1.160279	-0.117866	-0.859427	0.497487	-0.019387	0.502875	0.864142	-0.992840	0.092208	-0.075934
58	2148926													9.732734	-0.143585	-1.152608	-0.117952	-0.859388	0.497533	-0.019523	0.502941	0.864100	-0.992827	0.092209	-0.076101
59	2149093													9.760874	-0.122696	-1.143142	-0.117961	-0.859457	0.497412	-0.019683	0.502835	0.864158	-0.992823	0.092146	-0.076232
60	2149259													9.757960	-0.157360	-1.166258	-0.117824	-0.859434	0.497485	-0.019815	0.502909	0.864112	-0.992837	0.091956	-0.076285
61	2149426													9.680822	-0.187587	-1.190170	-0.117645	-0.859457	0.497487	-0.019947	0.502910	0.864108	-0.992855	0.091734	-0.076308
62	2149593													9.735393	-0.136537	-1.184398	-0.117500	-0.859624	0.497233	-0.020070	0.502655	0.864254	-0.992870	0.091570	-0.076314
63	2149759													9.759974	-0.047905	-1.151606	-0.117315	-0.859757	0.497046	-0.020130	0.502458	0.864367	-0.992891	0.091398	-0.076253
64	2149926													9.768943	-0.005618	-1.129373	-0.117094	-0.859825	0.496981	-0.020130	0.502376	0.864415	-0.992917	0.091214	-0.076133
65	2150093													9.778495	0.005984	-1.139509	-0.116817	-0.859799	0.497090	-0.020114	0.502463	0.864365	-0.992950	0.090974	-0.075990
66	2150259													9.765890	-0.023209	-1.124465	-0.116444	-0.859644	0.497447	-0.020127	0.502794	0.864172	-0.992993	0.090616	-0.075849
67	2150426													9.700584	-0.062264	-1.133014	-0.116074	-0.859491	0.497797	-0.020223	0.503126	0.863977	-0.993035	0.090219	-0.075782
68	2150593													9.621025	-0.114403	-1.142961	-0.115843	-0.859409	0.497992	-0.020341	0.503315	0.863864	-0.993059	0.089943	-0.075787
69	2150759													9.640609	-0.182338	-1.126865	-0.115854	-0.859339	0.498111	-0.020531	0.503452	0.863779	-0.993054	0.089846	-0.075970
70	2150926													9.682723	-0.194422	-1.138115	-0.115960	-0.859340	0.498084	-0.020771	0.503456	0.863771	-0.993037	0.089818	-0.076230
71	2151093													9.712126	-0.165069	-1.135943	-0.116073	-0.859430	0.497903	-0.021006	0.503303	0.863855	-0.993018	0.089812	-0.076473
72	2151259													9.734565	-0.173375	-1.107598	-0.116112	-0.859591	0.497615	-0.021275	0.503041	0.864001	-0.993008	0.089734	-0.076696
73	2151426													9.740628	-0.145866	-1.113226	-0.116110	-0.859798	0.497259	-0.021519	0.502705	0.864190	-0.993003	0.089640	-0.076871
74	2151593													9.723311	-0.140140	-1.136804	-0.116111	-0.860008	0.496894	-0.021795	0.502364	0.864382	-0.992997	0.089534	-0.077073
75	2151759													9.744949	-0.105956	-1.111426	-0.116106	-0.860114	0.496712	-0.022078	0.502206	0.864466	-0.992991	0.089404	-0.077298
76	2151926													9.739859	-0.094332	-1.137075	-0.116117	-0.860220	0.496526	-0.022304	0.502040	0.864557	-0.992985	0.089316	-0.077482
77	2152093													9.672660	-0.087836	-1.116943	-0.116186	-0.860141	0.496646	-0.022478	0.502182	0.864470	-0.992973	0.089275	-0.077681
78	2152259													9.680106	-0.149806	-1.123532	-0.116460	-0.859959	0.496898	-0.022699	0.502476	0.864293	-0.992936	0.089376	-0.078039
79	2152426													9.740020	-0.190568	-1.121841	-0.116737	-0.859893	0.496947	-0.022991	0.502573	0.864229	-0.992897	0.089462	-0.078439
80	2152593													9.701765	-0.183116	-1.113355	-0.117004	-0.859688	0.497238	-0.023105	0.502898	0.864037	-0.992863	0.089608	-0.078704
81	2152759													9.722069	-0.204243	-1.125373	-0.117263	-0.859485	0.497528	-0.023117	0.503211	0.863854	-0.992832	0.089796	-0.078877
82	2152926													9.732540	-0.198971	-1.121071	-0.117479	-0.859265	0.497858	-0.023109	0.503559	0.863652	-0.992807	0.089956	-0.079014
83	2153093													9.713805	-0.149879	-1.124184	-0.117665	-0.859195	0.497935	-0.023131	0.503654	0.863596	-0.992784	0.090097	-0.079137
84	2153259													9.666494	-0.124559	-1.100403	-0.117910	-0.859153	0.497949	-0.023160	0.503690	0.863574	-0.992754	0.090292	-0.079289
85	2153426													9.688532	-0.104385	-1.113364	-0.118241	-0.858975	0.498178	-0.023155	0.503946	0.863425	-0.992715	0.090557	-0.079477
86	2153593													9.720253	-0.132840	-1.119650	-0.118609	-0.858730	0.498512	-0.023170	0.504313	0.863210	-0.992671	0.090834	-0.079713
87	2153759													9.700191	-0.154666	-1.129423	-0.119034	-0.858585	0.498661	-0.023217	0.504502	0.863098	-0.992619	0.091161	-0.079986
88	2153926													9.734758	-0.167229	-1.136126	-0.119483	-0.858543	0.498626	-0.023369	0.504517	0.863086	-0.992561	0.091471	-0.080345
89	2154093													9.739057	-0.177670	-1.138302	-0.119894	-0.858483	0.498630	-0.023543	0.504571	0.863049	-0.992508	0.091735	-0.080706
90	2154259													9.747604	-0.155209	-1.153832	-0.120252	-0.858536	0.498453	-0.023675	0.504433	0.863126	-0.992461	0.091992	-0.080984
91	2154426													9.714262	-0.139523	-1.186662	-0.120576	-0.858549	0.498353	-0.023775	0.504369	0.863161	-0.992419	0.092228	-0.081227
92	2154593													9.728250	-0.149708	-1.190470	-0.120852	-0.858571	0.498247	-0.023872	0.504294	0.863202	-0.992384	0.092425	-0.081440
93	2154759													9.738025	-0.113097	-1.197824	-0.121122	-0.858603	0.498126	-0.023979	0.504205	0.863251	-0.992348	0.092614	-0.081659
94	2154926													9.756016	-0.119029	-1.207711	-0.121282	-0.858616	0.498065	-0.024038	0.504163	0.863274	-0.992327	0.092727	-0.081785
95	2155093													9.740484	-0.110898	-1.207882	-0.121369	-0.858654	0.497978	-0.024134	0.504091	0.863313	-0.992314	0.092761	-0.081904
96	2155259													9.727433	-0.105727	-1.198008	-0.121410	-0.858657	0.497964	-0.024190	0.504086	0.863315	-0.992308	0.092769	-0.081972
97	2155426													9.727602	-0.101149	-1.199510	-0.121336	-0.858630	0.498027	-0.024223	0.504146	0.863278	-0.992316	0.092683	-0.081970
98	2155593													9.719097	-0.113099	-1.194116	-0.121208	-0.858635	0.498050	-0.024308	0.504167	0.863264	-0.992329	0.092528	-0.081981
99	2155759													9.733954	-0.117234	-1.201854	-0.121010	-0.858583	0.498188	-0.024364	0.504294	0.863188	-0.992352	0.092317	-0.081943
100	2155926													9.717983	-0.121460	-1.211895	-0.120757	-0.858523	0.498353	-0.024399	0.504442	0.863101	-0.992382	0.092067	-0.081862
101	2156093													9.702259	-0.118166	-1.192053	-0.120525	-0.858478	0.498487	-0.024403	0.504558	0.863033	-0.992410	0.091853	-0.081762
102	2156259													9.706153	-0.131882	-1.203117	-0.120274	-0.858405	0.498673	-0.024408	0.504724	0.862935	-0.992441	0.091616	-0.081657
103	2156426													9.691991	-0.113813	-1.192271	-0.120118	-0.858436	0.498657	-0.024411	0.504696	0.862952	-0.992460	0.091483	-0.081578
104	2156593													9.716613	-0.114596	-1.189275	-0.119988	-0.858459	0.498650	-0.024440	0.504680	0.862960	-0.992474	0.091358	-0.081537
105	2156759													9.701274	-0.106221	-1.202446	-0.119892	-0.858455	0.498679	-0.024466	0.504704	0.862945	-0.992485	0.091259	-0.081513
106	2156926													9.710696	-0.087156	-1.176658	-0.119799	-0.858482	0.498656	-0.024491	0.504676	0.862962	-0.992496	0.091169	-0.081485
107	2157093													9.725052	-0.095335	-1.184551	-0.119680	-0.858426	0.498780	-0.024526	0.504794	0.862891	-0.992510	0.091038	-0.081468
108	2157259													9.713215	-0.091196	-1.175298	-0.119512	-0.858379	0.498901	-0.024598	0.504908	0.862823	-0.992528	0.090846	-0.081457
109	2157426													9.694098	-0.099980	-1.142714	-0.119346	-0.858328	0.499028	-0.024696	0.505032	0.862747	-0.992546	0.090641	-0.081471
110	2157593													9.739313	-0.135177	-1.150221	-0.119166	-0.858283	0.499149	-0.024829	0.505150	0.862674	-0.992564	0.090408	-0.081507
111	2157759													9.754773	-0.142231	-1.122812	-0.118865	-0.858226	0.499318	-0.024974	0.505309	0.862577	-0.992596	0.090060	-0.081497
112	2157926													9.741270	-0.154642	-1.153217	-0.118503	-0.858233	0.499392	-0.025119	0.505366	0.862539	-0.992636	0.089669	-0.081445
113	2158093													9.705058	-0.145521	-1.142274	-0.118094	-0.858263	0.499438	-0.025254	0.505391	0.862521	-0.992681	0.089246	-0.081358
114	2158259													9.722070	-0.149821	-1.130787	-0.117727	-0.858352	0.499372	-0.025454	0.505312	0.862561	-0.992720	0.088835	-0.081337
115	2158426													9.692277	-0.146347	-1.126867	-0.117477	-0.858428	0.499300	-0.025717	0.505243	0.862594	-0.992743	0.088494	-0.081431
116	2158593													9.709204	-0.137259	-1.137513	-0.117314	-0.858558	0.499116	-0.026013	0.505070	0.862686	-0.992754	0.088222	-0.081585
117	2158759													9.687422	-0.146042	-1.112805	-0.117231	-0.858634	0.499003	-0.026319	0.504977	0.862731	-0.992756	0.088005	-0.081797
118	2158926													9.703850	-0.148451	-1.138471	-0.117239	-0.858730	0.498837	-0.026666	0.504842	0.862800	-0.992746	0.087852	-0.082086
119	2159093													9.721556	-0.161862	-1.141832	-0.117310	-0.858845	0.498622	-0.026986	0.504660	0.862896	-0.992729	0.087770	-0.082378
120	2159259													9.737083	-0.204381	-1.157309	-0.117410	-0.858958	0.498404	-0.027348	0.504482	0.862989	-0.992707	0.087693	-0.082722
121	2159426													9.726193	-0.211161	-1.131482	-0.117471	-0.859145	0.498067	-0.027689	0.504178	0.863156	-0.992690	0.087605	-0.083015
122	2159593													9.674069	-0.201251	-1.147357	-0.117542	-0.859320	0.497748	-0.027997	0.503891	0.863314	-0.992673	0.087541	-0.083287
123	2159759													9.740401	-0.208773	-1.169620	-0.117651	-0.859540	0.497342	-0.028287	0.503518	0.863522	-0.992652	0.087526	-0.083554
124	2159926													9.723431	-0.165853	-1.144838	-0.117662	-0.859727	0.497016	-0.028454	0.503206	0.863698	-0.992646	0.087482	-0.083671
125	2160093													9.739733	-0.145294	-1.135253	-0.117606	-0.859797	0.496909	-0.028377	0.503087	0.863770	-0.992655	0.087483	-0.083564
126	2160260													9.767341	-0.160650	-1.136000	-0.117432	-0.859871	0.496822	-0.028307	0.502978	0.863835	-0.992677	0.087378	-0.083406
127	2160426													9.763423	-0.152035	-1.124936	-0.117118	-0.859796	0.497025	-0.028348	0.503160	0.863728	-0.992713	0.087068	-0.083303
128	2160593													9.731283	-0.117110	-1.120575	-0.116752	-0.859756	0.497180	-0.028373	0.503287	0.863654	-0.992756	0.086727	-0.083154
129	2160760													9.696249	-0.105906	-1.100089	-0.116373	-0.859652	0.497450	-0.028318	0.503521	0.863519	-0.992802	0.086404	-0.082940
130	2160926													9.687600	-0.139410	-1.103039	-0.116071	-0.859519	0.497749	-0.028158	0.503783	0.863371	-0.992842	0.086197	-0.082677
131	2161093													9.707149	-0.171257	-1.083306	-0.115865	-0.859395	0.498011	-0.027949	0.504010	0.863245	-0.992872	0.086101	-0.082416
132	2161260													9.711158	-0.194310	-1.088395	-0.115703	-0.859292	0.498228	-0.027827	0.504204	0.863136	-0.992894	0.086003	-0.082250
133	2161426													9.686208	-0.192854	-1.108646	-0.115662	-0.859232	0.498339	-0.027780	0.504308	0.863077	-0.992900	0.085981	-0.082199
134	2161593													9.706706	-0.168640	-1.090500	-0.115764	-0.859194	0.498382	-0.027758	0.504358	0.863048	-0.992889	0.086076	-0.082236
135	2161760													9.691554	-0.150573	-1.117021	-0.115906	-0.859109	0.498494	-0.027693	0.504477	0.862981	-0.992874	0.086220	-0.082263
136	2161926													9.700250	-0.172979	-1.127525	-0.116175	-0.859037	0.498557	-0.027665	0.504560	0.862933	-0.992843	0.086459	-0.082382
137	2162093													9.716836	-0.170083	-1.113594	-0.116464	-0.859071	0.498431	-0.027670	0.504458	0.862993	-0.992809	0.086716	-0.082522
138	2162260													9.746758	-0.139556	-1.129620	-0.116800	-0.859061	0.498369	-0.027676	0.504424	0.863012	-0.992770	0.087007	-0.082692
139	2162426													9.718198	-0.157339	-1.138514	-0.117102	-0.859114	0.498208	-0.027712	0.504291	0.863089	-0.992733	0.087263	-0.082861
140	2162593													9.730142	-0.137318	-1.156708	-0.117440	-0.859191	0.497994	-0.027795	0.504112	0.863191	-0.992691	0.087532	-0.083084
141	2162760													9.729753	-0.143372	-1.169586	-0.117711	-0.859280	0.497777	-0.027908	0.503926	0.863296	-0.992656	0.087727	-0.083299
142	2162926													9.727530	-0.136606	-1.172325	-0.117901	-0.859305	0.497688	-0.028047	0.503866	0.863327	-0.992629	0.087829	-0.083507
143	2163093													9.764934	-0.136587	-1.169510	-0.117995	-0.859272	0.497724	-0.028181	0.503921	0.863290	-0.992614	0.087837	-0.083676
144	2163260													9.782365	-0.131547	-1.153506	-0.117951	-0.859303	0.497680	-0.028260	0.503881	0.863311	-0.992617	0.087764	-0.083717
145	2163426													9.735553	-0.161752	-1.161841	-0.117791	-0.859276	0.497765	-0.028284	0.503954	0.863267	-0.992635	0.087606	-0.083665
146	2163593													9.706407	-0.175043	-1.132204	-0.117604	-0.859263	0.497831	-0.028294	0.504006	0.863237	-0.992657	0.087434	-0.083585
147	2163760													9.693343	-0.175076	-1.134962	-0.117435	-0.859275	0.497851	-0.028309	0.504013	0.863232	-0.992677	0.087280	-0.083514
148	2163926													9.687783	-0.166870	-1.136598	-0.117335	-0.859281	0.497864	-0.028289	0.504015	0.863231	-0.992689	0.087203	-0.083447
149	2164093													9.668838	-0.148534	-1.124596	-0.117323	-0.859239	0.497939	-0.028155	0.504078	0.863199	-0.992695	0.087253	-0.083332
150	2164260													9.700438	-0.127488	-1.128601	-0.117357	-0.859129	0.498121	-0.027952	0.504246	0.863108	-0.992696	0.087368	-0.083191
151	2164426													9.720677	-0.122405	-1.101704	-0.117406	-0.858960	0.498401	-0.027688	0.504508	0.862963	-0.992698	0.087517	-0.083015
152	2164593													9.721048	-0.133983	-1.124661	-0.117449	-0.858775	0.498710	-0.027426	0.504799	0.862801	-0.992700	0.087658	-0.082841
153	2164760													9.738469	-0.125233	-1.144845	-0.117454	-0.858565	0.499070	-0.027181	0.505140	0.862609	-0.992706	0.087752	-0.082667
154	2164926													9.765951	-0.119965	-1.127647	-0.117411	-0.858386	0.499388	-0.026988	0.505438	0.862441	-0.992717	0.087782	-0.082510
155	2165093													9.726561	-0.149521	-1.141381	-0.117343	-0.858254	0.499631	-0.026841	0.505663	0.862313	-0.992729	0.087775	-0.082373
156	2165260													9.727878	-0.157121	-1.116751	-0.117246	-0.858100	0.499918	-0.026708	0.505932	0.862160	-0.992744	0.087733	-0.082236
157	2165426													9.731790	-0.153044	-1.125851	-0.117145	-0.858026	0.500069	-0.026625	0.506069	0.862082	-0.992758	0.087674	-0.082129
158	2165593													9.717664	-0.160225	-1.128211	-0.117042	-0.858039	0.500070	-0.026610	0.506059	0.862088	-0.992770	0.087593	-0.082063
159	2165760													9.709668	-0.176304	-1.117787	-0.116979	-0.858026	0.500107	-0.026663	0.506096	0.862065	-0.992776	0.087509	-0.082080
160	2165926													9.713668	-0.166838	-1.132030	-0.116989	-0.858123	0.499938	-0.026765	0.505936	0.862156	-0.992773	0.087482	-0.082156
161	2166093													9.673848	-0.180035	-1.125558	-0.117072	-0.858248	0.499704	-0.026833	0.505714	0.862284	-0.992761	0.087541	-0.082235
162	2166260													9.641596	-0.159883	-1.129177	-0.117308	-0.858398	0.499391	-0.026895	0.505425	0.862451	-0.992731	0.087742	-0.082377
163	2166426													9.651480	-0.150046	-1.181873	-0.117654	-0.858472	0.499182	-0.026936	0.505247	0.862554	-0.992689	0.088037	-0.082569
164	2166593													9.702713	-0.157447	-1.181862	-0.118119	-0.858582	0.498884	-0.026992	0.504992	0.862702	-0.992633	0.088436	-0.082824
165	2166760													9.770254	-0.119143	-1.171775	-0.118572	-0.858674	0.498618	-0.026996	0.504763	0.862836	-0.992578	0.088847	-0.083031
166	2166926													9.811310	-0.099846	-1.179530	-0.118867	-0.858686	0.498527	-0.026819	0.504680	0.862890	-0.992548	0.089199	-0.083019
167	2167093													9.791497	-0.113949	-1.192676	-0.118933	-0.858662	0.498552	-0.026623	0.504693	0.862888	-0.992545	0.089353	-0.082884
168	2167260													9.765528	-0.112922	-1.170389	-0.118838	-0.858577	0.498721	-0.026508	0.504844	0.862803	-0.992560	0.089313	-0.082754
169	2167426													9.748828	-0.117504	-1.170738	-0.118592	-0.858511	0.498894	-0.026392	0.504987	0.862723	-0.992592	0.089146	-0.082545
170	2167593													9.724875	-0.102168	-1.157582	-0.118257	-0.858496	0.498998	-0.026268	0.505053	0.862689	-0.992635	0.088912	-0.082277
171	2167760													9.712465	-0.110459	-1.160055	-0.117946	-0.858384	0.499265	-0.026150	0.505285	0.862556	-0.992676	0.088679	-0.082043
172	2167926													9.740707	-0.134978	-1.141628	-0.117580	-0.858329	0.499446	-0.026012	0.505424	0.862479	-0.992723	0.088419	-0.081755
173	2168093													9.715221	-0.148783	-1.118775	-0.117174	-0.858223	0.499723	-0.025897	0.505659	0.862345	-0.992774	0.088103	-0.081476
174	2168260													9.675691	-0.163498	-1.119625	-0.116809	-0.858201	0.499847	-0.025843	0.505749	0.862294	-0.992818	0.087806	-0.081255
175	2168426													9.695966	-0.163224	-1.109969	-0.116566	-0.858217	0.499875	-0.025813	0.505754	0.862291	-0.992847	0.087610	-0.081106
176	2168593													9.705401	-0.127806	-1.119850	-0.116358	-0.858234	0.499896	-0.025756	0.505752	0.862294	-0.992873	0.087459	-0.080953
177	2168760													9.712211	-0.161230	-1.137957	-0.116294	-0.858271	0.499847	-0.025735	0.505697	0.862327	-0.992881	0.087420	-0.080897
178	2168926													9.714293	-0.154662	-1.125806	-0.116244	-0.858351	0.499720	-0.025753	0.505567	0.862403	-0.992887	0.087380	-0.080874
179	2169093													9.739940	-0.124084	-1.110098	-0.116249	-0.858426	0.499590	-0.025705	0.505432	0.862483	-0.992887	0.087421	-0.080822
180	2169260													9.713076	-0.107104	-1.126870	-0.116275	-0.858497	0.499462	-0.025606	0.505297	0.862566	-0.992887	0.087506	-0.080737
181	2169426													9.718358	-0.113241	-1.127646	-0.116312	-0.858557	0.499351	-0.025523	0.505181	0.862636	-0.992885	0.087590	-0.080672
182	2169593													9.718183	-0.116198	-1.132077	-0.116377	-0.858604	0.499255	-0.025487	0.505087	0.862692	-0.992878	0.087673	-0.080664
183	2169760													9.722409	-0.109425	-1.124027	-0.116449	-0.858639	0.499179	-0.025504	0.505018	0.862732	-0.992869	0.087734	-0.080708
184	2169926													9.715511	-0.132702	-1.154028	-0.116476	-0.858645	0.499161	-0.025550	0.505006	0.862737	-0.992865	0.087735	-0.080760
185	2170093													9.742890	-0.144668	-1.147573	-0.116442	-0.858676	0.499117	-0.025590	0.504962	0.862762	-0.992868	0.087689	-0.080772
186	2170260													9.738374	-0.153048	-1.150822	-0.116314	-0.858715	0.499079	-0.025608	0.504915	0.862789	-0.992882	0.087574	-0.080718
187	2170426													9.689906	-0.151554	-1.131498	-0.116217	-0.858807	0.498944	-0.025632	0.504774	0.862871	-0.992893	0.087492	-0.080676
188	2170593													9.706160	-0.148413	-1.153472	-0.116190	-0.858912	0.498768	-0.025666	0.504598	0.862973	-0.992895	0.087467	-0.080674
189	2170760													9.721610	-0.128853	-1.111868	-0.116102	-0.859013	0.498616	-0.025698	0.504441	0.863064	-0.992905	0.087390	-0.080641
190	2170926													9.728385	-0.092052	-1.131194	-0.116015	-0.859084	0.498513	-0.025678	0.504329	0.863130	-0.992916	0.087335	-0.080569
191	2171093													9.737497	-0.100066	-1.108717	-0.115947	-0.859121	0.498465	-0.025612	0.504269	0.863167	-0.992925	0.087314	-0.080473
192	2171260													9.743162	-0.123565	-1.125089	-0.115817	-0.859093	0.498543	-0.025549	0.504331	0.863132	-0.992942	0.087228	-0.080359
193	2171426													9.697651	-0.118330	-1.113377	-0.115749	-0.859046	0.498640	-0.025488	0.504418	0.863083	-0.992951	0.087191	-0.080281
194	2171593													9.678787	-0.121949	-1.105453	-0.115754	-0.858949	0.498806	-0.025444	0.504581	0.862989	-0.992952	0.087203	-0.080262
195	2171760													9.730585	-0.118033	-1.126602	-0.115774	-0.858856	0.498962	-0.025406	0.504737	0.862899	-0.992951	0.087224	-0.080256
196	2171926													9.730066	-0.143760	-1.113881	-0.115743	-0.858848	0.498983	-0.025333	0.504748	0.862895	-0.992956	0.087234	-0.080179
197	2172093													9.724269	-0.129144	-1.115823	-0.115699	-0.858789	0.499095	-0.025276	0.504853	0.862835	-0.992963	0.087214	-0.080118
198	2172260													9.751928	-0.136733	-1.113681	-0.115621	-0.858830	0.499043	-0.025270	0.504793	0.862871	-0.992972	0.087155	-0.080068
199	2172426													9.720545	-0.149060	-1.132393	-0.115514	-0.858837	0.499054	-0.025342	0.504802	0.862863	-0.992983	0.087025	-0.080076
200	2172593													9.701531	-0.130821	-1.132418	-0.115489	-0.858877	0.498992	-0.025467	0.504749	0.862891	-0.992982	0.086947	-0.080166
201	2172760													9.713581	-0.148973	-1.111340	-0.115505	-0.858919	0.498916	-0.025598	0.504684	0.862924	-0.992977	0.086901	-0.080280
202	2172926													9.709338	-0.139437	-1.135917	-0.115574	-0.858991	0.498775	-0.025783	0.504565	0.862988	-0.992964	0.086879	-0.080462
203	2173093													9.644811	-0.126263	-1.145681	-0.115713	-0.859054	0.498636	-0.025986	0.504454	0.863047	-0.992943	0.086909	-0.080695
204	2173260													9.666127	-0.164550	-1.170761	-0.116068	-0.859062	0.498538	-0.026227	0.504406	0.863068	-0.992895	0.087099	-0.081076
205	2173426													9.695994	-0.152220	-1.159244	-0.116509	-0.859069	0.498423	-0.026514	0.504352	0.863091	-0.992836	0.087342	-0.081539
206	2173593													9.729563	-0.152894	-1.162622	-0.116992	-0.859063	0.498321	-0.026561	0.504294	0.863124	-0.992778	0.087742	-0.081816
207	2173760													9.772151	-0.182256	-1.152400	-0.117370	-0.858997	0.498347	-0.026528	0.504348	0.863093	-0.992734	0.088081	-0.081983
208	2173926													9.786785	-0.205626	-1.156384	-0.117621	-0.858977	0.498321	-0.026544	0.504344	0.863095	-0.992704	0.088291	-0.082122
209	2174093													9.772444	-0.192210	-1.157658	-0.117648	-0.859026	0.498230	-0.026554	0.504256	0.863146	-0.992700	0.088317	-0.082136
210	2174260													9.746559	-0.182784	-1.120465	-0.117515	-0.859097	0.498139	-0.026536	0.504152	0.863207	-0.992716	0.088222	-0.082042
211	2174426													9.726744	-0.196462	-1.146393	-0.117262	-0.859196	0.498028	-0.026402	0.504008	0.863296	-0.992750	0.088083	-0.081785
212	2174593													9.722426	-0.200723	-1.158107	-0.116970	-0.859235	0.498030	-0.026136	0.503962	0.863330	-0.992791	0.087967	-0.081406
213	2174760													9.696817	-0.198295	-1.133851	-0.116707	-0.859324	0.497937	-0.025762	0.503813	0.863428	-0.992832	0.087940	-0.080937
214	2174926													9.721797	-0.173104	-1.112800	-0.116476	-0.859387	0.497883	-0.025330	0.503702	0.863506	-0.992870	0.087966	-0.080437
215	2175093													9.721928	-0.149950	-1.160917	-0.116250	-0.859409	0.497898	-0.024874	0.503659	0.863544	-0.992908	0.088003	-0.079928
216	2175260													9.737572	-0.087605	-1.125990	-0.116009	-0.859356	0.498046	-0.024386	0.503745	0.863508	-0.992949	0.088030	-0.079396
217	2175426													9.703287	-0.060021	-1.128285	-0.115733	-0.859287	0.498229	-0.023892	0.503863	0.863453	-0.992993	0.088027	-0.078843
218	2175593													9.687463	-0.038995	-1.150718	-0.115548	-0.859151	0.498505	-0.023492	0.504090	0.863331	-0.993024	0.088045	-0.078429
219	2175760													9.691501	-0.016512	-1.124281	-0.115446	-0.858856	0.499038	-0.023155	0.504587	0.863050	-0.993044	0.088081	-0.078140
220	2175926													9.726808	-0.041447	-1.155436	-0.115427	-0.858475	0.499697	-0.022867	0.505223	0.862686	-0.993053	0.088151	-0.077947
221	2176093													9.742890	-0.085541	-1.125934	-0.115378	-0.858067	0.500408	-0.022654	0.505915	0.862286	-0.993063	0.088152	-0.077810
222	2176260													9.790377	-0.129257	-1.130278	-0.115192	-0.857732	0.501026	-0.022565	0.506513	0.861937	-0.993087	0.087983	-0.077701
223	2176426													9.771012	-0.190768	-1.128569	-0.114893	-0.857559	0.501390	-0.022574	0.506856	0.861735	-0.993121	0.087688	-0.077593
224	2176593													9.726821	-0.205169	-1.102661	-0.114545	-0.857511	0.501552	-0.022675	0.507000	0.861648	-0.993159	0.087324	-0.077518
225	2176760													9.697458	-0.180289	-1.108114	-0.114228	-0.857580	0.501506	-0.022752	0.506936	0.861683	-0.993194	0.087019	-0.077418
226	2176927													9.666344	-0.187181	-1.097499	-0.114006	-0.857718	0.501321	-0.022783	0.506735	0.861801	-0.993219	0.086829	-0.077312
227	2177093													9.677382	-0.155739	-1.108597	-0.113900	-0.857949	0.500949	-0.022751	0.506351	0.862027	-0.993232	0.086788	-0.077193
228	2177260													9.690435	-0.114953	-1.084238	-0.113878	-0.858152	0.500606	-0.022643	0.505995	0.862239	-0.993237	0.086855	-0.077053
229	2177427													9.725512	-0.065747	-1.085730	-0.113912	-0.858320	0.500310	-0.022516	0.505689	0.862422	-0.993236	0.086975	-0.076929
230	2177593													9.751842	-0.034818	-1.065642	-0.113887	-0.858411	0.500160	-0.022349	0.505522	0.862524	-0.993242	0.087052	-0.076757
231	2177760													9.747832	-0.015939	-1.095403	-0.113781	-0.858392	0.500217	-0.022183	0.505556	0.862509	-0.993258	0.087041	-0.076564
232	2177927													9.725445	-0.021899	-1.081568	-0.113668	-0.858254	0.500479	-0.022026	0.505797	0.862371	-0.993275	0.087001	-0.076397
233	2178093													9.742152	-0.030296	-1.059231	-0.113584	-0.858052	0.500845	-0.021937	0.506151	0.862166	-0.993286	0.086941	-0.076314
234	2178260													9.726768	-0.039902	-1.081872	-0.113514	-0.857806	0.501282	-0.021922	0.506582	0.861913	-0.993294	0.086850	-0.076309
235	2178427													9.734210	-0.065381	-1.086990	-0.113470	-0.857514	0.501791	-0.021986	0.507096	0.861609	-0.993298	0.086735	-0.076393
236	2178593													9.752487	-0.109771	-1.087601	-0.113390	-0.857200	0.502346	-0.022069	0.507655	0.861278	-0.993305	0.086574	-0.076480
237	2178760													9.734486	-0.158026	-1.086912	-0.113261	-0.856913	0.502863	-0.022171	0.508174	0.860969	-0.993318	0.086365	-0.076555
238	2178927													9.704468	-0.151325	-1.090382	-0.113151	-0.856715	0.503226	-0.022330	0.508544	0.860747	-0.993327	0.086157	-0.076673
239	2179093													9.669286	-0.144597	-1.070746	-0.113151	-0.856619	0.503390	-0.022481	0.508721	0.860638	-0.993323	0.086065	-0.076820
240	2179260													9.669211	-0.187892	-1.060614	-0.113292	-0.856558	0.503461	-0.022620	0.508815	0.860579	-0.993304	0.086109	-0.077020
241	2179427													9.676578	-0.214619	-1.083830	-0.113601	-0.856606	0.503310	-0.022714	0.508696	0.860647	-0.993267	0.086338	-0.077245
242	2179593													9.628816	-0.210035	-1.095288	-0.114079	-0.856735	0.502982	-0.022688	0.508401	0.860821	-0.993213	0.086790	-0.077436
243	2179760													9.682554	-0.174018	-1.091751	-0.114806	-0.856897	0.502541	-0.022625	0.508011	0.861054	-0.993130	0.087485	-0.077710
244	2179927													9.731611	-0.128373	-1.117290	-0.115610	-0.857102	0.502007	-0.022580	0.507533	0.861336	-0.993038	0.088244	-0.078029
245	2180093													9.757035	-0.046908	-1.125111	-0.116398	-0.857208	0.501643	-0.022402	0.507214	0.861529	-0.992950	0.089042	-0.078242
246	2180260													9.749357	-0.040587	-1.142913	-0.117095	-0.857269	0.501377	-0.022182	0.506981	0.861672	-0.992873	0.089775	-0.078381
247	2180427													9.734756	-0.040238	-1.145546	-0.117758	-0.857233	0.501283	-0.022075	0.506930	0.861705	-0.992797	0.090407	-0.078618
248	2180593													9.796148	-0.050927	-1.182009	-0.118294	-0.857104	0.501377	-0.022018	0.507062	0.861628	-0.992734	0.090886	-0.078855
249	2180760													9.774853	-0.076335	-1.193776	-0.118616	-0.856935	0.501590	-0.022037	0.507304	0.861485	-0.992696	0.091133	-0.079059
250	2180927													9.755767	-0.089326	-1.201276	-0.118766	-0.856761	0.501851	-0.022110	0.507585	0.861318	-0.992676	0.091199	-0.079227
251	2181093													9.740756	-0.149650	-1.211508	-0.118780	-0.856589	0.502143	-0.022152	0.507883	0.861141	-0.992673	0.091163	-0.079301
252	2181260													9.717648	-0.186789	-1.182284	-0.118719	-0.856474	0.502353	-0.022183	0.508092	0.861017	-0.992680	0.091075	-0.079319
253	2181427													9.676794	-0.210276	-1.200084	-0.118671	-0.856442	0.502418	-0.022192	0.508155	0.860979	-0.992686	0.091024	-0.079310
254	2181593													9.683490	-0.198469	-1.189107	-0.118663	-0.856486	0.502345	-0.022152	0.508077	0.861027	-0.992687	0.091044	-0.079263
255	2181760													9.729941	-0.167957	-1.191017	-0.118629	-0.856539	0.502263	-0.022012	0.507979	0.861088	-0.992695	0.091094	-0.079115
256	2181927													9.726602	-0.170424	-1.205854	-0.118570	-0.856563	0.502236	-0.021849	0.507933	0.861120	-0.992705	0.091129	-0.078941
257	2182093													9.726043	-0.149078	-1.184215	-0.118487	-0.856678	0.502059	-0.021740	0.507737	0.861238	-0.992718	0.091131	-0.078784
258	2182260													9.695055	-0.087792	-1.174716	-0.118427	-0.856783	0.501894	-0.021634	0.507557	0.861346	-0.992727	0.091148	-0.078644
259	2182427													9.722134	-0.071628	-1.172853	-0.118394	-0.856840	0.501805	-0.021460	0.507449	0.861414	-0.992735	0.091218	-0.078467
260	2182593													9.699465	-0.083007	-1.150831	-0.118421	-0.856811	0.501847	-0.021209	0.507471	0.861408	-0.992737	0.091365	-0.078268
261	2182760													9.721090	-0.094415	-1.181550	-0.118455	-0.856737	0.501966	-0.021014	0.507575	0.861352	-0.992737	0.091483	-0.078128
262	2182927													9.741653	-0.099909	-1.166824	-0.118511	-0.856690	0.502033	-0.020898	0.507636	0.861318	-0.992733	0.091584	-0.078064
263	2183093													9.718904	-0.088081	-1.178262	-0.118533	-0.856588	0.502202	-0.020836	0.507802	0.861222	-0.992731	0.091619	-0.078039
264	2183260													9.702266	-0.082908	-1.180588	-0.118575	-0.856487	0.502364	-0.020726	0.507958	0.861133	-0.992729	0.091696	-0.077983
265	2183427													9.708578	-0.119270	-1.200997	-0.118599	-0.856425	0.502465	-0.020570	0.508047	0.861084	-0.992729	0.091788	-0.077871
266	2183593													9.741574	-0.135324	-1.179619	-0.118595	-0.856360	0.502577	-0.020402	0.508143	0.861031	-0.992733	0.091861	-0.077735
267	2183760													9.743888	-0.148291	-1.188674	-0.118514	-0.856350	0.502612	-0.020265	0.508160	0.861024	-0.992746	0.091858	-0.077578
268	2183927													9.740981	-0.127610	-1.178729	-0.118342	-0.856421	0.502532	-0.020159	0.508056	0.861088	-0.992768	0.091772	-0.077389
269	2184093													9.746787	-0.108056	-1.170111	-0.118110	-0.856536	0.502390	-0.020051	0.507886	0.861191	-0.992798	0.091642	-0.077160
270	2184260													9.747161	-0.069256	-1.169926	-0.117765	-0.856693	0.502204	-0.019825	0.507650	0.861335	-0.992844	0.091479	-0.076767
271	2184427													9.738546	-0.023787	-1.149920	-0.117366	-0.856771	0.502165	-0.019570	0.507557	0.861396	-0.992896	0.091271	-0.076337
272	2184593													9.723976	-0.036063	-1.148778	-0.116953	-0.856812	0.502190	-0.019392	0.507534	0.861414	-0.992948	0.091006	-0.075973
273	2184760													9.699825	-0.027981	-1.141384	-0.116569	-0.856825	0.502257	-0.019343	0.507568	0.861395	-0.992994	0.090696	-0.075740
274	2184927													9.720692	-0.036499	-1.092099	-0.116254	-0.856791	0.502388	-0.019404	0.507680	0.861327	-0.993030	0.090385	-0.075645
275	2185093													9.722342	-0.082103	-1.100039	-0.115906	-0.856763	0.502517	-0.019519	0.507793	0.861258	-0.993068	0.090016	-0.075579
276	2185260													9.731446	-0.113374	-1.113335	-0.115573	-0.856763	0.502593	-0.019586	0.507851	0.861222	-0.993106	0.089690	-0.075475
277	2185427													9.715151	-0.144579	-1.108783	-0.115297	-0.856792	0.502607	-0.019654	0.507850	0.861221	-0.993137	0.089418	-0.075392
278	2185593													9.694556	-0.172915	-1.097926	-0.115082	-0.856880	0.502507	-0.019776	0.507744	0.861281	-0.993159	0.089180	-0.075378
279	2185760													9.690687	-0.158099	-1.100474	-0.114924	-0.857042	0.502266	-0.019938	0.507505	0.861418	-0.993174	0.088984	-0.075412
280	2185927													9.671887	-0.140941	-1.105677	-0.114818	-0.857236	0.501959	-0.020044	0.507197	0.861597	-0.993184	0.088865	-0.075418
281	2186093													9.697943	-0.146337	-1.107875	-0.114816	-0.857430	0.501628	-0.020165	0.506875	0.861783	-0.993182	0.088832	-0.075487
282	2186260													9.728312	-0.107064	-1.131206	-0.114851	-0.857648	0.501248	-0.020231	0.506502	0.862001	-0.993177	0.088860	-0.075523
283	2186427													9.741765	-0.065430	-1.124093	-0.114856	-0.857796	0.500993	-0.020134	0.506237	0.862159	-0.993178	0.088937	-0.075415
284	2186593													9.746571	-0.065924	-1.124649	-0.114804	-0.857825	0.500956	-0.020024	0.506186	0.862192	-0.993186	0.088952	-0.075290
285	2186760													9.718773	-0.094401	-1.120190	-0.114690	-0.857831	0.500971	-0.020006	0.506191	0.862189	-0.993200	0.088862	-0.075216
286	2186927													9.738089	-0.092144	-1.109736	-0.114538	-0.857790	0.501077	-0.020025	0.506287	0.862132	-0.993217	0.088713	-0.075166
287	2187093													9.738639	-0.097817	-1.131803	-0.114320	-0.857753	0.501190	-0.020045	0.506386	0.862074	-0.993242	0.088506	-0.075084
288	2187260													9.746371	-0.122350	-1.109208	-0.114027	-0.857722	0.501310	-0.019984	0.506479	0.862021	-0.993277	0.088275	-0.074893
289	2187427													9.744773	-0.138404	-1.106920	-0.113654	-0.857680	0.501465	-0.019899	0.506599	0.861952	-0.993321	0.087986	-0.074644
290	2187593													9.717196	-0.145559	-1.084304	-0.113236	-0.857694	0.501537	-0.019857	0.506636	0.861931	-0.993370	0.087643	-0.074401
291	2187760													9.685392	-0.149821	-1.075055	-0.112897	-0.857737	0.501539	-0.019914	0.506618	0.861940	-0.993407	0.087323	-0.074277
292	2187927													9.688806	-0.148533	-1.092727	-0.112691	-0.857796	0.501485	-0.019997	0.506555	0.861976	-0.993429	0.087109	-0.074237
293	2188093													9.688814	-0.112992	-1.096454	-0.112575	-0.857869	0.501386	-0.020039	0.506451	0.862036	-0.993441	0.086997	-0.074204
294	2188260													9.690999	-0.116625	-1.104890	-0.112596	-0.857890	0.501345	-0.020075	0.506415	0.862056	-0.993438	0.087000	-0.074242
295	2188427													9.753047	-0.148585	-1.123483	-0.112644	-0.857932	0.501263	-0.020153	0.506342	0.862097	-0.993431	0.087008	-0.074327
296	2188593													9.745218	-0.136305	-1.133290	-0.112666	-0.858031	0.501087	-0.020219	0.506174	0.862195	-0.993427	0.087009	-0.074377
297	2188760													9.742180	-0.123890	-1.124506	-0.112686	-0.858077	0.501005	-0.020262	0.506097	0.862239	-0.993424	0.087011	-0.074417
298	2188927													9.744030	-0.125023	-1.140530	-0.112688	-0.858162	0.500859	-0.020346	0.505957	0.862319	-0.993422	0.086983	-0.074475
299	2189093													9.764009	-0.130058	-1.122419	-0.112613	-0.858270	0.500691	-0.020460	0.505792	0.862413	-0.993428	0.086875	-0.074519
300	2189260													9.754941	-0.128707	-1.113944	-0.112487	-0.858342	0.500595	-0.020563	0.505696	0.862467	-0.993440	0.086723	-0.074534
301	2189427													9.737544	-0.132721	-1.105587	-0.112275	-0.858409	0.500529	-0.020684	0.505623	0.862506	-0.993462	0.086485	-0.074524
302	2189593													9.721726	-0.117920	-1.111717	-0.112047	-0.858467	0.500480	-0.020758	0.505564	0.862540	-0.993486	0.086256	-0.074467
303	2189760													9.694109	-0.136270	-1.099280	-0.111850	-0.858514	0.500444	-0.020776	0.505514	0.862568	-0.993508	0.086081	-0.074378
304	2189927													9.706539	-0.147967	-1.079490	-0.111669	-0.858553	0.500417	-0.020766	0.505473	0.862593	-0.993528	0.085934	-0.074274
305	2190093													9.720964	-0.146374	-1.094634	-0.111522	-0.858577	0.500408	-0.020752	0.505451	0.862606	-0.993545	0.085815	-0.074186
306	2190260													9.733721	-0.129373	-1.085948	-0.111356	-0.858602	0.500402	-0.020729	0.505431	0.862618	-0.993564	0.085685	-0.074080
307	2190427													9.756010	-0.114207	-1.077333	-0.111151	-0.858599	0.500453	-0.020668	0.505461	0.862602	-0.993589	0.085535	-0.073928
308	2190593													9.735286	-0.107278	-1.066473	-0.110836	-0.858582	0.500552	-0.020512	0.505524	0.862569	-0.993627	0.085337	-0.073641
309	2190760													9.748958	-0.104780	-1.078504	-0.110537	-0.858515	0.500732	-0.020328	0.505667	0.862489	-0.993664	0.085158	-0.073347
310	2190927													9.766402	-0.115059	-1.067641	-0.110150	-0.858429	0.500966	-0.020123	0.505856	0.862383	-0.993711	0.084910	-0.072994
311	2191093													9.745147	-0.107376	-1.069957	-0.109765	-0.858334	0.501213	-0.019982	0.506064	0.862265	-0.993757	0.084631	-0.072699
312	2191260													9.737193	-0.120157	-1.044420	-0.109393	-0.858233	0.501467	-0.019909	0.506286	0.862136	-0.993799	0.084328	-0.072471
313	2191427													9.706569	-0.116833	-1.048686	-0.109100	-0.858120	0.501725	-0.019856	0.506519	0.862000	-0.993832	0.084082	-0.072300
314	2191593													9.686474	-0.125964	-1.027782	-0.108880	-0.858030	0.501925	-0.019811	0.506700	0.861895	-0.993857	0.083899	-0.072168
315	2191760													9.689865	-0.163807	-1.041799	-0.108818	-0.857919	0.502129	-0.019762	0.506896	0.861781	-0.993865	0.083854	-0.072113
316	2191927													9.708792	-0.190791	-1.051841	-0.108839	-0.857868	0.502211	-0.019752	0.506979	0.861732	-0.993863	0.083870	-0.072123
317	2192093													9.675317	-0.161873	-1.070624	-0.108949	-0.857848	0.502222	-0.019681	0.506992	0.861726	-0.993852	0.084000	-0.072120
318	2192260													9.694540	-0.160611	-1.058493	-0.109185	-0.857866	0.502140	-0.019616	0.506921	0.861769	-0.993828	0.084242	-0.072176
319	2192427													9.762245	-0.169170	-1.082443	-0.109431	-0.857913	0.502007	-0.019595	0.506804	0.861839	-0.993801	0.084475	-0.072271
320	2192593													9.798858	-0.116666	-1.045422	-0.109514	-0.857962	0.501905	-0.019485	0.506698	0.861904	-0.993794	0.084611	-0.072208
321	2192760													9.806285	-0.117121	-1.051898	-0.109426	-0.857980	0.501892	-0.019289	0.506662	0.861929	-0.993808	0.084637	-0.071992
322	2192927													9.761768	-0.111052	-1.041874	-0.109178	-0.857973	0.501958	-0.019123	0.506696	0.861912	-0.993838	0.084503	-0.071727
323	2193093													9.730807	-0.087584	-1.049400	-0.108885	-0.857949	0.502064	-0.018968	0.506768	0.861874	-0.993873	0.084322	-0.071453
324	2193260													9.735248	-0.072877	-1.051234	-0.108543	-0.857835	0.502332	-0.018769	0.506996	0.861744	-0.993914	0.084108	-0.071132
325	2193427													9.734805	-0.071137	-1.039533	-0.108207	-0.857640	0.502737	-0.018510	0.507357	0.861537	-0.993956	0.083918	-0.070774
326	2193594													9.736869	-0.096596	-1.025319	-0.107862	-0.857397	0.503225	-0.018183	0.507795	0.861286	-0.994000	0.083750	-0.070361
327	2193760													9.709705	-0.139191	-1.012110	-0.107553	-0.857128	0.503749	-0.017881	0.508274	0.861010	-0.994038	0.083597	-0.069993
328	2193927													9.673658	-0.161804	-1.009816	-0.107357	-0.856906	0.504170	-0.017628	0.508661	0.860786	-0.994064	0.083524	-0.069714
329	2194094													9.675458	-0.168952	-1.029737	-0.107381	-0.856740	0.504445	-0.017469	0.508927	0.860633	-0.994064	0.083604	-0.069616
330	2194260													9.734000	-0.135910	-1.021361	-0.107487	-0.856617	0.504632	-0.017292	0.509106	0.860530	-0.994056	0.083769	-0.069535
331	2194427													9.715801	-0.135699	-1.027906	-0.107628	-0.856521	0.504765	-0.017088	0.509233	0.860459	-0.994044	0.083984	-0.069444
332	2194594													9.777183	-0.108595	-1.039325	-0.107801	-0.856483	0.504794	-0.016928	0.509260	0.860446	-0.994028	0.084212	-0.069397
333	2194760													9.738356	-0.070409	-1.050726	-0.107964	-0.856407	0.504887	-0.016681	0.509345	0.860401	-0.994015	0.084470	-0.069277
334	2194927													9.705063	-0.067548	-1.052655	-0.108152	-0.856319	0.504996	-0.016379	0.509442	0.860349	-0.993999	0.084777	-0.069123
335	2195094													9.694921	-0.066094	-1.064075	-0.108426	-0.856203	0.505134	-0.016145	0.509579	0.860272	-0.993973	0.085120	-0.069075
336	2195260													9.730881	-0.090236	-1.071893	-0.108713	-0.856127	0.505201	-0.015989	0.509653	0.860231	-0.993945	0.085441	-0.069095
337	2195427													9.730665	-0.107896	-1.075655	-0.108947	-0.856042	0.505294	-0.015915	0.509757	0.860171	-0.993920	0.085672	-0.069160
338	2195594													9.738567	-0.126670	-1.083964	-0.109114	-0.855999	0.505332	-0.015869	0.509803	0.860145	-0.993903	0.085835	-0.069211
339	2195760													9.780047	-0.092180	-1.118720	-0.109180	-0.856008	0.505302	-0.015769	0.509768	0.860167	-0.993897	0.085945	-0.069155
340	2195927													9.764380	-0.077310	-1.095475	-0.109105	-0.856029	0.505283	-0.015605	0.509730	0.860193	-0.993908	0.085966	-0.068973
341	2196094													9.782783	-0.069006	-1.109339	-0.108919	-0.856022	0.505334	-0.015396	0.509750	0.860185	-0.993931	0.085911	-0.068700
342	2196260													9.774669	-0.051980	-1.092020	-0.108684	-0.856014	0.505399	-0.015199	0.509782	0.860170	-0.993960	0.085805	-0.068415
343	2196427													9.778131	-0.015696	-1.086005	-0.108417	-0.855971	0.505530	-0.015057	0.509883	0.860112	-0.993992	0.085639	-0.068168
344	2196594													9.782241	-0.013661	-1.055121	-0.108102	-0.855890	0.505733	-0.015004	0.510061	0.860008	-0.994027	0.085380	-0.067980
345	2196760													9.779767	-0.038875	-1.045448	-0.107723	-0.855801	0.505964	-0.015050	0.510271	0.859882	-0.994067	0.085015	-0.067848
346	2196927													9.723991	-0.043987	-0.998041	-0.107353	-0.855704	0.506208	-0.015199	0.510503	0.859741	-0.994105	0.084601	-0.067810
347	2197094													9.716574	-0.078233	-1.044069	-0.107054	-0.855636	0.506386	-0.015404	0.510679	0.859634	-0.994134	0.084226	-0.067851
348	2197260													9.678432	-0.096632	-1.016550	-0.106797	-0.855559	0.506569	-0.015707	0.510871	0.859514	-0.994157	0.083837	-0.067997
349	2197427													9.707375	-0.095845	-1.025522	-0.106552	-0.855550	0.506636	-0.016041	0.510950	0.859461	-0.994178	0.083450	-0.068167
350	2197594													9.719373	-0.084014	-1.034818	-0.106347	-0.855577	0.506634	-0.016319	0.510957	0.859452	-0.994195	0.083132	-0.068301
351	2197760													9.732439	-0.100414	-1.016179	-0.106108	-0.855622	0.506608	-0.016595	0.510938	0.859458	-0.994216	0.082788	-0.068414
352	2197927													9.726357	-0.098416	-1.021022	-0.105908	-0.855654	0.506596	-0.016883	0.510935	0.859454	-0.994233	0.082470	-0.068559
353	2198094													9.717520	-0.109498	-1.015932	-0.105783	-0.855664	0.506605	-0.017237	0.510965	0.859429	-0.994240	0.082181	-0.068800
354	2198260													9.737145	-0.144651	-1.022005	-0.105719	-0.855712	0.506538	-0.017582	0.510921	0.859448	-0.994241	0.081954	-0.069059
355	2198427													9.720958	-0.110278	-1.000092	-0.105704	-0.855748	0.506481	-0.017821	0.510883	0.859466	-0.994238	0.081823	-0.069252
356	2198594													9.707415	-0.122563	-1.016596	-0.105742	-0.855732	0.506499	-0.017889	0.510909	0.859449	-0.994233	0.081819	-0.069333
357	2198760													9.740146	-0.176397	-1.040559	-0.105877	-0.855756	0.506430	-0.017963	0.510855	0.859479	-0.994217	0.081902	-0.069459
358	2198927													9.748191	-0.164108	-1.019571	-0.106001	-0.855796	0.506337	-0.018054	0.510778	0.859523	-0.994202	0.081969	-0.069594
359	2199094													9.738222	-0.106636	-1.022748	-0.106109	-0.855830	0.506257	-0.017969	0.510699	0.859572	-0.994192	0.082111	-0.069568
360	2199260													9.721916	-0.099640	-1.038770	-0.106196	-0.855832	0.506236	-0.017833	0.510672	0.859591	-0.994185	0.082257	-0.069493
361	2199427													9.745132	-0.094083	-1.023650	-0.106273	-0.855792	0.506287	-0.017695	0.510717	0.859567	-0.994180	0.082390	-0.069419
362	2199594													9.735033	-0.088858	-1.024973	-0.106338	-0.855713	0.506406	-0.017641	0.510837	0.859497	-0.994174	0.082464	-0.069417
363	2199760													9.726641	-0.092596	-1.008226	-0.106448	-0.855607	0.506562	-0.017617	0.510999	0.859401	-0.994162	0.082557	-0.069467
364	2199927													9.728761	-0.093178	-1.007838	-0.106564	-0.855468	0.506773	-0.017615	0.511219	0.859270	-0.994150	0.082641	-0.069546
365	2200094													9.727857	-0.129583	-1.041335	-0.106687	-0.855355	0.506938	-0.017615	0.511394	0.859166	-0.994137	0.082732	-0.069626
366	2200260													9.700241	-0.175000	-1.045701	-0.106861	-0.855289	0.507013	-0.017644	0.511484	0.859112	-0.994117	0.082860	-0.069748
367	2200427													9.706070	-0.180801	-1.066234	-0.107075	-0.855244	0.507042	-0.017713	0.511534	0.859080	-0.994093	0.083005	-0.069921
368	2200594													9.722630	-0.174341	-1.070054	-0.107347	-0.855275	0.506933	-0.017739	0.511446	0.859132	-0.994063	0.083233	-0.070074
369	2200760													9.768845	-0.147188	-1.077781	-0.107545	-0.855350	0.506764	-0.017713	0.511288	0.859227	-0.994042	0.083430	-0.070137
370	2200927													9.738521	-0.162107	-1.104274	-0.107734	-0.855458	0.506543	-0.017775	0.511084	0.859347	-0.994021	0.083577	-0.070267
371	2201094													9.784416	-0.135162	-1.121938	-0.107805	-0.855603	0.506282	-0.017939	0.510841	0.859488	-0.994010	0.083575	-0.070420
372	2201260													9.773146	-0.071504	-1.121636	-0.107795	-0.855739	0.506054	-0.018078	0.510623	0.859615	-0.994009	0.083513	-0.070513
373	2201427													9.715225	-0.074775	-1.139387	-0.107748	-0.855792	0.505975	-0.018126	0.510545	0.859660	-0.994013	0.083455	-0.070523
374	2201594													9.761447	-0.121033	-1.123605	-0.107746	-0.855766	0.506020	-0.018157	0.510592	0.859631	-0.994013	0.083434	-0.070553
375	2201760													9.798565	-0.185088	-1.114346	-0.107634	-0.855757	0.506058	-0.018193	0.510625	0.859611	-0.994024	0.083317	-0.070530
376	2201927													9.797755	-0.174480	-1.078411	-0.107399	-0.855774	0.506080	-0.018244	0.510635	0.859604	-0.994049	0.083088	-0.070455
377	2202094													9.792853	-0.154065	-1.059920	-0.106993	-0.855752	0.506203	-0.018230	0.510729	0.859549	-0.994093	0.082738	-0.070244
378	2202260													9.732068	-0.155689	-1.040821	-0.106489	-0.855741	0.506328	-0.018154	0.510812	0.859501	-0.994148	0.082336	-0.069931
379	2202427													9.711005	-0.179511	-1.032500	-0.105982	-0.855694	0.506514	-0.018050	0.510954	0.859419	-0.994204	0.081940	-0.069597
380	2202594													9.696424	-0.174476	-1.020144	-0.105526	-0.855684	0.506626	-0.017935	0.511025	0.859379	-0.994255	0.081601	-0.069274
381	2202760													9.718764	-0.158346	-0.999844	-0.105142	-0.855668	0.506732	-0.017775	0.511092	0.859342	-0.994298	0.081346	-0.068947
382	2202927													9.729201	-0.155597	-1.012778	-0.104794	-0.855643	0.506847	-0.017574	0.511167	0.859302	-0.994339	0.081142	-0.068604
383	2203094													9.733397	-0.132898	-1.000717	-0.104490	-0.855639	0.506916	-0.017313	0.511194	0.859291	-0.994375	0.081011	-0.068228
384	2203260													9.735678	-0.111717	-1.007715	-0.104231	-0.855629	0.506985	-0.017037	0.511223	0.859279	-0.994407	0.080926	-0.067862
385	2203427													9.776730	-0.111270	-1.008661	-0.103989	-0.855635	0.507026	-0.016759	0.511225	0.859283	-0.994437	0.080858	-0.067501
386	2203594													9.809091	-0.091664	-1.006481	-0.103645	-0.855672	0.507034	-0.016547	0.511192	0.859307	-0.994477	0.080673	-0.067142
387	2203760													9.790874	-0.082482	-0.992613	-0.103187	-0.855709	0.507065	-0.016359	0.511177	0.859320	-0.994527	0.080375	-0.066745
388	2203927													9.701983	-0.048782	-0.978886	-0.102734	-0.855756	0.507078	-0.016183	0.511146	0.859342	-0.994577	0.080077	-0.066361
389	2204094													9.693973	-0.042877	-0.962295	-0.102401	-0.855772	0.507118	-0.016038	0.511152	0.859341	-0.994614	0.079864	-0.066067
390	2204260													9.711999	-0.059880	-0.921252	-0.102130	-0.855772	0.507171	-0.015957	0.511181	0.859325	-0.994643	0.079670	-0.065863
391	2204427													9.737444	-0.055972	-0.951113	-0.101867	-0.855792	0.507192	-0.015957	0.511184	0.859323	-0.994670	0.079443	-0.065728
392	2204594													9.769623	-0.057601	-0.939034	-0.101546	-0.855875	0.507116	-0.016100	0.511099	0.859371	-0.994701	0.079101	-0.065680
393	2204760													9.747674	-0.082166	-0.936045	-0.101189	-0.855979	0.507011	-0.016280	0.510983	0.859437	-0.994734	0.078711	-0.065641
394	2204927													9.715092	-0.093479	-0.955506	-0.100883	-0.856133	0.506813	-0.016536	0.510784	0.859550	-0.994761	0.078334	-0.065687
395	2205094													9.683169	-0.114080	-0.918420	-0.100707	-0.856293	0.506577	-0.016863	0.510562	0.859676	-0.994773	0.078033	-0.065857
396	2205260													9.717207	-0.100497	-0.938794	-0.100708	-0.856472	0.506274	-0.017244	0.510288	0.859831	-0.994767	0.077861	-0.066159
397	2205427													9.711695	-0.090703	-0.966951	-0.100820	-0.856671	0.505915	-0.017589	0.509961	0.860018	-0.994749	0.077809	-0.066482
398	2205594													9.681849	-0.099844	-0.940486	-0.101090	-0.856805	0.505634	-0.017889	0.509721	0.860154	-0.994716	0.077908	-0.066855
399	2205760													9.733627	-0.109569	-0.984626	-0.101526	-0.856920	0.505351	-0.018175	0.509489	0.860285	-0.994667	0.078157	-0.067301
400	2205927													9.764284	-0.144456	-1.004056	-0.101997	-0.857042	0.505050	-0.018442	0.509240	0.860427	-0.994614	0.078446	-0.067747
401	2206094													9.760099	-0.129260	-1.025944	-0.102438	-0.857115	0.504837	-0.018543	0.509064	0.860529	-0.994566	0.078790	-0.068041
402	2206260													9.747512	-0.143752	-1.030666	-0.102814	-0.857137	0.504724	-0.018555	0.508977	0.860580	-0.994527	0.079115	-0.068235
403	2206427													9.742928	-0.160892	-1.021771	-0.103124	-0.857161	0.504619	-0.018591	0.508896	0.860627	-0.994495	0.079369	-0.068415
404	2206594													9.793189	-0.134841	-1.033759	-0.103294	-0.857198	0.504522	-0.018645	0.508815	0.860674	-0.994476	0.079495	-0.068540
405	2206760													9.831917	-0.116659	-1.060843	-0.103242	-0.857220	0.504495	-0.018621	0.508782	0.860694	-0.994482	0.079466	-0.068490
406	2206927													9.823643	-0.108639	-1.062328	-0.102906	-0.857217	0.504568	-0.018518	0.508824	0.860671	-0.994519	0.079225	-0.068235
407	2207094													9.752612	-0.087578	-1.040041	-0.102381	-0.857185	0.504730	-0.018373	0.508939	0.860606	-0.994576	0.078836	-0.067855
408	2207260													9.724247	-0.118434	-1.036368	-0.101815	-0.857127	0.504943	-0.018321	0.509110	0.860506	-0.994635	0.078361	-0.067539
409	2207427													9.765143	-0.148004	-1.016639	-0.101191	-0.857033	0.505227	-0.018438	0.509362	0.860355	-0.994696	0.077745	-0.067345
410	2207594													9.739326	-0.193243	-0.972122	-0.100467	-0.856986	0.505452	-0.018638	0.509555	0.860236	-0.994766	0.077004	-0.067166
411	2207760													9.731942	-0.179622	-0.960376	-0.099814	-0.856959	0.505627	-0.018815	0.509700	0.860147	-0.994828	0.076341	-0.066999
412	2207927													9.667481	-0.192095	-0.957138	-0.099299	-0.856948	0.505747	-0.018942	0.509795	0.860088	-0.994877	0.075826	-0.066854
413	2208094													9.716043	-0.213117	-0.947906	-0.099014	-0.857016	0.505687	-0.019075	0.509725	0.860126	-0.994903	0.075518	-0.066817
414	2208260													9.724313	-0.189747	-0.948824	-0.098827	-0.857169	0.505465	-0.019168	0.509497	0.860259	-0.994920	0.075328	-0.066782
415	2208427													9.713554	-0.166601	-0.968600	-0.098792	-0.857292	0.505263	-0.019238	0.509298	0.860375	-0.994922	0.075278	-0.066807
416	2208594													9.699723	-0.168703	-0.951869	-0.098909	-0.857401	0.505056	-0.019320	0.509103	0.860489	-0.994909	0.075353	-0.066920
417	2208760													9.730483	-0.155824	-0.984510	-0.099156	-0.857501	0.504837	-0.019438	0.508910	0.860600	-0.994882	0.075520	-0.067129
418	2208927													9.776226	-0.165245	-0.991680	-0.099426	-0.857590	0.504633	-0.019558	0.508732	0.860703	-0.994853	0.075706	-0.067354
419	2209094													9.791114	-0.165076	-0.976732	-0.099581	-0.857693	0.504427	-0.019728	0.508549	0.860807	-0.994834	0.075769	-0.067562
420	2209260													9.760624	-0.171941	-0.974615	-0.099650	-0.857788	0.504251	-0.019888	0.508389	0.860898	-0.994824	0.075760	-0.067721
421	2209427													9.747684	-0.173326	-0.988106	-0.099674	-0.857882	0.504087	-0.020027	0.508237	0.860984	-0.994819	0.075723	-0.067839
422	2209594													9.732212	-0.193384	-0.981150	-0.099657	-0.857946	0.503981	-0.020108	0.508135	0.861042	-0.994819	0.075675	-0.067891
423	2209760													9.726086	-0.186185	-0.996099	-0.099629	-0.857990	0.503912	-0.020150	0.508067	0.861082	-0.994821	0.075635	-0.067906
424	2209927													9.731750	-0.161977	-0.960652	-0.099601	-0.858017	0.503871	-0.020097	0.508020	0.861111	-0.994824	0.075641	-0.067843
425	2210094													9.775494	-0.155497	-0.967368	-0.099554	-0.858043	0.503836	-0.019962	0.507972	0.861142	-0.994832	0.075673	-0.067699
426	2210261													9.772963	-0.123351	-0.963570	-0.099491	-0.858016	0.503894	-0.019790	0.508013	0.861122	-0.994842	0.075702	-0.067523
427	2210427													9.730571	-0.098560	-0.981891	-0.099372	-0.857932	0.504062	-0.019612	0.508160	0.861040	-0.994857	0.075678	-0.067323
428	2210594													9.726876	-0.109911	-0.937252	-0.099298	-0.857797	0.504307	-0.019422	0.508386	0.860911	-0.994868	0.075692	-0.067141
429	2210761													9.758598	-0.123632	-0.952883	-0.099178	-0.857636	0.504603	-0.019250	0.508662	0.860751	-0.994883	0.075654	-0.066958
430	2210927													9.790775	-0.139277	-0.940798	-0.098975	-0.857471	0.504923	-0.019075	0.508956	0.860581	-0.994907	0.075545	-0.066730
431	2211094													9.784157	-0.157046	-0.935392	-0.098681	-0.857387	0.505123	-0.018967	0.509129	0.860481	-0.994938	0.075333	-0.066503
432	2211261													9.725558	-0.162254	-0.926822	-0.098296	-0.857356	0.505250	-0.018943	0.509229	0.860422	-0.994977	0.075005	-0.066296
433	2211427													9.696129	-0.150980	-0.933787	-0.098005	-0.857365	0.505293	-0.018919	0.509250	0.860410	-0.995006	0.074765	-0.066130
434	2211594													9.705659	-0.172470	-0.955620	-0.097819	-0.857399	0.505271	-0.018891	0.509214	0.860433	-0.995025	0.074622	-0.066008
435	2211761													9.724863	-0.154428	-0.957004	-0.097709	-0.857474	0.505165	-0.018904	0.509101	0.860499	-0.995035	0.074529	-0.065954
436	2211927													9.771573	-0.139305	-0.957785	-0.097643	-0.857554	0.505041	-0.018956	0.508977	0.860572	-0.995041	0.074455	-0.065953
437	2212094													9.773009	-0.117102	-0.937915	-0.097537	-0.857675	0.504857	-0.019014	0.508789	0.860682	-0.995050	0.074349	-0.065933
438	2212261													9.760041	-0.124717	-0.948493	-0.097414	-0.857757	0.504741	-0.019123	0.508673	0.860748	-0.995060	0.074196	-0.065955
439	2212427													9.772131	-0.149312	-0.973554	-0.097258	-0.857848	0.504616	-0.019243	0.508545	0.860820	-0.995073	0.074011	-0.065968
440	2212594													9.752808	-0.177299	-0.980889	-0.097005	-0.857918	0.504545	-0.019362	0.508467	0.860864	-0.995096	0.073739	-0.065935
441	2212761													9.710534	-0.199061	-0.964319	-0.096792	-0.858043	0.504374	-0.019498	0.508291	0.860965	-0.995114	0.073500	-0.065929
442	2212927													9.804812	-0.196709	-0.988529	-0.096544	-0.858241	0.504084	-0.019637	0.507994	0.861137	-0.995135	0.073239	-0.065898
443	2213094													9.784842	-0.154714	-1.007627	-0.096143	-0.858472	0.503768	-0.019732	0.507657	0.861334	-0.995172	0.072871	-0.065747
444	2213261													9.739984	-0.138705	-1.028361	-0.095721	-0.858694	0.503470	-0.019817	0.507336	0.861520	-0.995211	0.072488	-0.065580
445	2213427													9.795258	-0.134063	-1.061257	-0.095227	-0.858913	0.503191	-0.019934	0.507032	0.861697	-0.995256	0.072026	-0.065405
446	2213594													9.780864	-0.098108	-1.069898	-0.094579	-0.859094	0.503003	-0.020017	0.506807	0.861827	-0.995316	0.071442	-0.065129
447	2213761													9.817853	-0.092964	-1.080307	-0.093716	-0.859232	0.502929	-0.020078	0.506681	0.861900	-0.995396	0.070676	-0.064736
448	2213927													9.832700	-0.112905	-1.069635	-0.092522	-0.859364	0.502925	-0.020263	0.506612	0.861936	-0.995504	0.069558	-0.064286
449	2214094													9.921463	-0.110664	-1.036647	-0.090921	-0.859568	0.502869	-0.020591	0.506475	0.862009	-0.995645	0.068020	-0.063748
450	2214261													9.953461	-0.101691	-1.029625	-0.088717	-0.859786	0.502888	-0.021048	0.506385	0.862051	-0.995834	0.065893	-0.063022
451	2214427													9.856959	-0.142019	-1.024330	-0.086013	-0.860072	0.502869	-0.021645	0.506234	0.862125	-0.996059	0.063269	-0.062159
452	2214594													9.834760	-0.163910	-0.985587	-0.082987	-0.860432	0.502762	-0.022393	0.505985	0.862251	-0.996299	0.060298	-0.061258
453	2214761													9.818071	-0.200809	-0.982650	-0.079666	-0.860887	0.502521	-0.023292	0.505593	0.862458	-0.996549	0.057004	-0.060330
454	2214927													9.808439	-0.231985	-0.990228	-0.076104	-0.861462	0.502088	-0.024402	0.505006	0.862771	-0.996801	0.053408	-0.059454
455	2215094													9.864567	-0.252499	-0.993362	-0.072226	-0.862154	0.501472	-0.025668	0.504225	0.863191	-0.997058	0.049473	-0.058548
456	2215261													9.915158	-0.270969	-1.017906	-0.067852	-0.863008	0.500613	-0.027009	0.503174	0.863763	-0.997330	0.045087	-0.057450
457	2215427													9.988791	-0.262531	-1.032179	-0.062766	-0.863982	0.499595	-0.028478	0.501929	0.864440	-0.997622	0.040030	-0.056109
458	2215594													10.005708	-0.271016	-1.006062	-0.056875	-0.865052	0.498448	-0.030092	0.500515	0.865205	-0.997928	0.034209	-0.054498
459	2215761													10.077674	-0.289045	-0.979819	-0.050018	-0.866207	0.497175	-0.031886	0.498930	0.866056	-0.998239	0.027465	-0.052576
460	2215927													10.118134	-0.279570	-0.982122	-0.042003	-0.867441	0.495764	-0.033849	0.497153	0.867002	-0.998544	0.019635	-0.050244
461	2216094													10.153123	-0.277749	-0.956593	-0.032688	-0.868711	0.494239	-0.036012	0.495206	0.868029	-0.998817	0.010576	-0.047472
462	2216261													10.311494	-0.327967	-0.862140	-0.021929	-0.869957	0.492640	-0.038385	0.493128	0.869110	-0.999022	0.000149	-0.044207
463	2216427													10.598810	-0.368953	-0.774543	-0.009192	-0.871165	0.490904	-0.040898	0.490842	0.870288	-0.999121	-0.012078	-0.040141
464	2216594													10.580863	-0.421074	-0.651869	0.006008	-0.872290	0.488952	-0.043524	0.488269	0.871607	-0.999034	-0.026518	-0.035032
465	2216761													10.339397	-0.433770	-0.538414	0.023379	-0.873220	0.486765	-0.046234	0.485433	0.873051	-0.998657	-0.042916	-0.029023
466	2216927													10.172326	-0.486890	-0.391136	0.042542	-0.873851	0.484330	-0.048931	0.482364	0.874603	-0.997896	-0.060906	-0.022237
467	2217094													10.199633	-0.546799	-0.236799	0.063254	-0.874122	0.481571	-0.051597	0.479027	0.876282	-0.996663	-0.080276	-0.014801
468	2217261													10.100307	-0.500476	-0.043372	0.085440	-0.873911	0.478519	-0.054133	0.475494	0.878052	-0.994872	-0.100924	-0.006681
469	2217427													9.631314	-0.430266	0.295388	0.108382	-0.873082	0.475375	-0.056531	0.472005	0.879781	-0.992501	-0.122226	0.001801
470	2217594													9.376870	-0.381758	0.637382	0.130856	-0.871589	0.472450	-0.058742	0.468894	0.881299	-0.989660	-0.143076	0.010159
471	2217761													9.418265	-0.405631	0.886937	0.152760	-0.869455	0.469801	-0.060647	0.466237	0.882579	-0.986401	-0.163315	0.018492
472	2217927													9.550486	-0.407285	1.218913	0.174241	-0.866681	0.467445	-0.062188	0.464073	0.883611	-0.982737	-0.183030	0.026964
473	2218094													9.677589	-0.433830	1.535527	0.195628	-0.863219	0.465385	-0.063457	0.462417	0.884389	-0.978623	-0.202543	0.035684
474	2218261													9.689543	-0.525943	1.859717	0.217058	-0.859074	0.463549	-0.064544	0.461201	0.884945	-0.974022	-0.222004	0.044660
475	2218427													9.436166	-0.595895	2.105398	0.238465	-0.854415	0.461638	-0.065511	0.460116	0.885438	-0.968939	-0.241388	0.053748
476	2218594													9.046795	-0.626864	2.330879	0.259057	-0.849492	0.459622	-0.066453	0.459063	0.885915	-0.963573	-0.260046	0.062473
477	2218761													8.840123	-0.619162	2.497134	0.278288	-0.844518	0.457543	-0.067378	0.458022	0.886384	-0.958132	-0.277498	0.070560
478	2218927													8.822113	-0.629179	2.664896	0.296168	-0.839578	0.455405	-0.068258	0.456973	0.886858	-0.952694	-0.293744	0.078033
479	2219094													8.867559	-0.614117	2.814078	0.312884	-0.834717	0.453157	-0.069052	0.455858	0.887370	-0.947278	-0.308935	0.084992
480	2219261													9.207129	-0.662120	3.013873	0.328885	-0.829861	0.450739	-0.069893	0.454593	0.887953	-0.941780	-0.323538	0.091507
481	2219427													9.467851	-0.766905	3.237992	0.345040	-0.824839	0.447871	-0.070743	0.452963	0.888718	-0.935918	-0.338327	0.097939
482	2219594													9.240763	-0.796015	3.339362	0.361682	-0.819545	0.444446	-0.071671	0.450866	0.889709	-0.929543	-0.353646	0.104333
483	2219761													8.867174	-0.744881	3.451672	0.378083	-0.814200	0.440604	-0.072695	0.448352	0.890896	-0.922913	-0.368862	0.110326
484	2219927													8.603566	-0.622178	3.489805	0.393833	-0.808853	0.436638	-0.073862	0.445644	0.892158	-0.916210	-0.383612	0.115766
485	2220094													8.352199	-0.540368	3.537392	0.408517	-0.803655	0.432727	-0.074996	0.442935	0.893412	-0.909664	-0.397427	0.120676
486	2220261													8.551204	-0.485015	3.592068	0.422372	-0.798449	0.429047	-0.076093	0.440437	0.894553	-0.903223	-0.410482	0.125272
487	2220427													8.903255	-0.520569	3.763706	0.436319	-0.792899	0.425367	-0.077279	0.437971	0.895661	-0.896467	-0.423666	0.129820
488	2220594													10.045310	-0.693196	4.245701	0.451485	-0.786423	0.421545	-0.078727	0.435485	0.896747	-0.888799	-0.438054	0.134702
489	2220761													9.996526	-0.829787	4.617245	0.470021	-0.778250	0.416421	-0.080137	0.432209	0.898206	-0.879010	-0.455547	0.140781
490	2220927													8.936151	-0.755115	4.902215	0.490082	-0.768978	0.410478	-0.081765	0.428275	0.899941	-0.867833	-0.474608	0.147014
491	2221094													8.093636	-0.751731	5.059812	0.509703	-0.759436	0.404302	-0.083735	0.423907	0.901826	-0.856266	-0.493518	0.152476
492	2221261													7.575244	-0.670279	5.195247	0.527703	-0.750334	0.398157	-0.085955	0.419159	0.903835	-0.845069	-0.511180	0.156697
493	2221427													7.378544	-0.611981	5.397553	0.543577	-0.741931	0.392508	-0.088140	0.414588	0.905731	-0.834719	-0.526930	0.159967
494	2221594													7.745572	-0.719921	5.617583	0.557644	-0.734126	0.387416	-0.090132	0.410412	0.907435	-0.825172	-0.540945	0.162696
495	2221761													8.134985	-0.830955	5.781987	0.571024	-0.726386	0.382485	-0.091805	0.406488	0.909032	-0.815784	-0.554193	0.165428
496	2221927													8.148358	-0.901176	5.947630	0.584331	-0.718356	0.377520	-0.093077	0.402808	0.910540	-0.806160	-0.567195	0.168511
497	2222094													8.082720	-1.004093	6.070974	0.597770	-0.709908	0.372427	-0.093921	0.399348	0.911976	-0.796147	-0.580130	0.172043
498	2222261													7.935318	-1.050076	6.218074	0.611533	-0.700900	0.367107	-0.094286	0.396115	0.913347	-0.785581	-0.593155	0.176152
499	2222427													8.026099	-1.114290	6.363015	0.625849	-0.691113	0.361490	-0.094109	0.393180	0.914633	-0.774245	-0.606442	0.181031
500	2222594													8.012105	-1.085800	6.366488	0.641061	-0.680240	0.355406	-0.093434	0.390461	0.915866	-0.761781	-0.620333	0.186752
501	2222761													7.766322	-0.975468	6.386906	0.657058	-0.668156	0.349060	-0.092392	0.388174	0.916943	-0.748157	-0.634735	0.193321
502	2222927													7.620173	-0.966018	6.322287	0.673587	-0.654961	0.342500	-0.091032	0.386351	0.917849	-0.733481	-0.649429	0.200619
503	2223094													7.096749	-0.968916	6.440972	0.690226	-0.640996	0.335726	-0.089387	0.384884	0.918626	-0.718051	-0.664070	0.208361
504	2223261													6.763785	-0.994662	6.968851	0.705920	-0.627241	0.329008	-0.087558	0.383667	0.919311	-0.702859	-0.677768	0.215918
505	2223427													6.181254	-0.979976	7.531694	0.719988	-0.614484	0.322533	-0.085594	0.382577	0.919950	-0.688688	-0.689960	0.222854
506	2223594													6.002342	-0.865470	7.967244	0.731528	-0.603736	0.316811	-0.083725	0.381601	0.920527	-0.676651	-0.699917	0.228605
507	2223761													5.917452	-0.737229	8.206239	0.740748	-0.594873	0.312120	-0.082137	0.380929	0.920949	-0.666743	-0.707827	0.233311
508	2223927													5.832359	-0.656418	8.328016	0.747690	-0.588017	0.308538	-0.080936	0.380472	0.921244	-0.659097	-0.713777	0.236883
509	2224094													6.048956	-0.556342	8.262638	0.752909	-0.582701	0.305921	-0.080204	0.380134	0.921448	-0.653219	-0.718302	0.239472
510	2224261													6.257753	-0.355495	8.185234	0.757068	-0.578093	0.304394	-0.080021	0.380353	0.921373	-0.648417	-0.721901	0.241693
511	2224427													6.422094	-0.556704	7.973598	0.760726	-0.573483	0.303996	-0.080596	0.381270	0.920944	-0.644050	-0.725087	0.243822
512	2224594													6.385362	-0.754269	7.791639	0.764250	-0.568964	0.303647	-0.081570	0.381769	0.920651	-0.639740	-0.728377	0.245356
513	2224761													6.298868	-0.700863	7.754807	0.767542	-0.564698	0.303308	-0.082684	0.382006	0.920454	-0.635644	-0.731565	0.246514
514	2224927													6.342826	-0.786539	7.677761	0.770624	-0.560476	0.303325	-0.083848	0.382653	0.920080	-0.631750	-0.734469	0.247886
515	2225094													6.258451	-1.005618	7.622157	0.773645	-0.556382	0.303172	-0.084884	0.383154	0.919776	-0.627908	-0.737314	0.249198
516	2225261													6.347747	-0.945201	7.633907	0.776567	-0.552662	0.302504	-0.085480	0.383277	0.919670	-0.624209	-0.740043	0.250399
517	2225427													6.212087	-0.911460	7.657232	0.779463	-0.548921	0.301868	-0.085645	0.383971	0.919364	-0.620567	-0.742464	0.252279
518	2225594													6.254497	-1.225485	7.595527	0.782053	-0.545305	0.301722	-0.085844	0.385268	0.918803	-0.617272	-0.744454	0.254489
519	2225761													6.205396	-1.434926	7.566614	0.784484	-0.542350	0.300734	-0.085824	0.385326	0.918781	-0.614182	-0.746579	0.255735
520	2225927													6.673034	-0.776405	7.686220	0.786926	-0.539840	0.298865	-0.085154	0.384703	0.919104	-0.611144	-0.748716	0.256763
521	2226094													6.562987	-0.454802	7.702593	0.790049	-0.535881	0.297749	-0.084137	0.386311	0.918523	-0.607243	-0.750730	0.260117
522	2226261													6.385328	-0.912144	7.708651	0.793370	-0.531101	0.297483	-0.083403	0.389242	0.917352	-0.602999	-0.752610	0.264518
523	2226427													6.386646	-1.046769	7.821111	0.796872	-0.526254	0.296734	-0.082876	0.391298	0.916524	-0.598436	-0.754945	0.268201
524	2226594													6.246150	-0.657725	8.009108	0.800498	-0.521342	0.295644	-0.082570	0.392650	0.915974	-0.593620	-0.757646	0.271268
525	2226761													6.076441	-0.461317	8.226306	0.804071	-0.516156	0.295045	-0.082692	0.394347	0.915233	-0.588754	-0.760311	0.274402
526	2226928													5.802630	-0.641637	8.415449	0.807181	-0.511193	0.295195	-0.083318	0.396406	0.914287	-0.584394	-0.762590	0.277380
527	2227094													5.846027	-0.942021	8.516857	0.809672	-0.507099	0.295437	-0.084163	0.397869	0.913574	-0.580817	-0.764559	0.279465
528	2227261													5.823351	-0.875794	8.657155	0.811773	-0.504007	0.294959	-0.084505	0.398392	0.913314	-0.577826	-0.766330	0.280813
529	2227428													5.866284	-0.759329	8.730952	0.813437	-0.501556	0.294553	-0.084516	0.399114	0.912998	-0.575480	-0.767561	0.282265
530	2227594													5.829067	-1.082715	8.797264	0.814773	-0.499561	0.294252	-0.084554	0.399713	0.912732	-0.573581	-0.768550	0.283436
531	2227761													5.604835	-1.120973	8.913932	0.815606	-0.498717	0.293375	-0.084245	0.399278	0.912951	-0.572443	-0.769323	0.283639
532	2227928													5.539700	-0.889097	9.043038	0.815649	-0.499277	0.292299	-0.083461	0.398402	0.913406	-0.572496	-0.769414	0.283286
533	2228094													5.499777	-0.663523	9.097009	0.814819	-0.500762	0.292074	-0.082642	0.398340	0.913507	-0.573794	-0.768481	0.283192
534	2228261													5.444909	-0.977698	8.908570	0.813110	-0.503069	0.292871	-0.082200	0.398850	0.913325	-0.576277	-0.766707	0.282956
535	2228428													5.281829	-1.510213	8.825831	0.810418	-0.506904	0.293719	-0.081759	0.398591	0.913477	-0.580120	-0.764312	0.281581
536	2228594													5.146638	-1.172652	8.873061	0.806524	-0.513391	0.293171	-0.079961	0.396606	0.914500	-0.585769	-0.761008	0.278821
537	2228761													5.020552	-0.022815	8.942307	0.801161	-0.521308	0.293904	-0.077765	0.396258	0.914840	-0.593375	-0.755789	0.276927
538	2228928													4.897261	-0.886642	8.846953	0.793535	-0.530481	0.298148	-0.076791	0.398739	0.913844	-0.603660	-0.748062	0.275677
539	2229094													5.269634	-1.874977	8.643806	0.783727	-0.542958	0.301609	-0.075099	0.399199	0.913784	-0.616548	-0.738808	0.272087
540	2229261													5.790933	-0.873575	8.469543	0.772247	-0.558656	0.302551	-0.071791	0.396435	0.915252	-0.631253	-0.728521	0.266039
541	2229428													6.105089	-0.015877	8.101684	0.759833	-0.574674	0.303980	-0.068271	0.394459	0.916374	-0.646524	-0.717044	0.260490
542	2229594													5.927903	-0.204897	7.747186	0.746449	-0.590706	0.306399	-0.065186	0.393321	0.917087	-0.662242	-0.704532	0.255089
543	2229761													5.807245	-0.420088	7.624595	0.731213	-0.608003	0.309290	-0.062589	0.391694	0.917964	-0.679272	-0.690586	0.248357
544	2229928													6.074664	-0.279121	7.482055	0.713884	-0.626601	0.312634	-0.060508	0.389587	0.919000	-0.697645	-0.674976	0.240205
545	2230094													6.614256	-0.043335	7.138046	0.694933	-0.645536	0.316784	-0.059371	0.387530	0.919943	-0.716620	-0.658106	0.230982
546	2230261													6.959486	-0.020706	6.814335	0.675113	-0.663799	0.321858	-0.059361	0.385995	0.920589	-0.735322	-0.640608	0.221187
547	2230428													7.164251	-0.091383	6.716872	0.654424	-0.681353	0.327852	-0.060376	0.385122	0.920888	-0.753713	-0.622446	0.210896
548	2230594													7.436650	-0.246332	6.593758	0.632501	-0.698494	0.334736	-0.062320	0.384869	0.920865	-0.772048	-0.603309	0.199900
549	2230761													7.720144	-0.324502	6.298773	0.609669	-0.715054	0.342055	-0.064946	0.385017	0.920621	-0.789991	-0.583489	0.188293
550	2230928													7.941575	-0.397716	5.825169	0.586427	-0.730595	0.349763	-0.068070	0.385828	0.920056	-0.807137	-0.563354	0.176528
551	2231094													7.749155	-0.504791	5.515553	0.562760	-0.745252	0.357633	-0.071316	0.387259	0.919209	-0.823538	-0.542799	0.164785
552	2231261													7.675241	-0.652138	5.335339	0.537459	-0.759730	0.365990	-0.074654	0.389433	0.918024	-0.839979	-0.520723	0.152588
553	2231428													8.050236	-0.821756	5.168700	0.510065	-0.774311	0.374535	-0.078098	0.391947	0.916667	-0.856583	-0.496810	0.139446
554	2231594													8.793232	-0.772371	4.724190	0.481875	-0.788211	0.382778	-0.081610	0.394572	0.915234	-0.872431	-0.472267	0.125808
555	2231761													8.795541	-0.556243	4.344884	0.454356	-0.800644	0.390551	-0.084773	0.397566	0.913649	-0.886777	-0.448230	0.112764
556	2231928													8.252591	-0.443676	4.180437	0.426031	-0.812043	0.398852	-0.087618	0.401756	0.911545	-0.900456	-0.423293	0.100011
557	2232094													8.354133	-0.617393	3.989915	0.395309	-0.823013	0.407898	-0.090265	0.407113	0.908907	-0.914102	-0.396118	0.086647
558	2232261													9.248529	-0.824716	3.514072	0.363653	-0.833102	0.416771	-0.092986	0.412704	0.906107	-0.926882	-0.368262	0.072614
559	2232428													9.647411	-0.445983	3.034558	0.333246	-0.841650	0.424937	-0.095612	0.418209	0.903305	-0.937979	-0.341652	0.058894
560	2232594													8.974597	-0.139312	2.640462	0.303841	-0.848138	0.433984	-0.098187	0.425218	0.899749	-0.947650	-0.315993	0.045923
561	2232761													9.077382	-0.670197	2.308753	0.273479	-0.853017	0.444490	-0.100606	0.434205	0.895179	-0.956602	-0.289531	0.032927
562	2232928													10.035457	-1.354566	1.772121	0.244115	-0.856756	0.454288	-0.102942	0.442920	0.890632	-0.964267	-0.264181	0.019927
563	2233094													10.368060	-1.326483	1.416364	0.218022	-0.859485	0.462332	-0.105343	0.450236	0.886674	-0.970242	-0.242018	0.007621
564	2233261													9.662344	-1.047942	1.303506	0.194696	-0.861224	0.469453	-0.107096	0.457086	0.882951	-0.974999	-0.222184	-0.003241
565	2233428													9.471121	-1.246097	1.114438	0.171843	-0.862250	0.476440	-0.107412	0.464352	0.879113	-0.979251	-0.202244	-0.012820
566	2233594													9.983077	-1.462539	0.860449	0.149949	-0.863021	0.482400	-0.106687	0.470944	0.875688	-0.982921	-0.182775	-0.021455
567	2233761													10.012244	-1.269297	0.706375	0.130350	-0.863564	0.487100	-0.105749	0.476380	0.872857	-0.985812	-0.165287	-0.029225
568	2233928													9.080623	-1.181563	0.731287	0.111392	-0.863877	0.491232	-0.104533	0.481381	0.870256	-0.988264	-0.148289	-0.036682
569	2234094													8.928061	-1.250456	0.784388	0.089955	-0.864406	0.494682	-0.102978	0.485960	0.867893	-0.990608	-0.129013	-0.045301
570	2234261													9.938376	-1.199493	0.483327	0.067468	-0.865094	0.497051	-0.101261	0.489676	0.866004	-0.992569	-0.108760	-0.054563
571	2234428													10.454770	-1.002995	0.127229	0.046919	-0.865506	0.498696	-0.099418	0.492720	0.864490	-0.993939	-0.090141	-0.062929
572	2234594													9.683426	-0.836244	0.074902	0.028348	-0.865486	0.500130	-0.097038	0.495586	0.863121	-0.994877	-0.072999	-0.069936
573	2234761													9.675026	-0.922118	-0.014152	0.008993	-0.865038	0.501626	-0.093921	0.498698	0.861672	-0.995539	-0.054863	-0.076760
574	2234928													10.134960	-1.128499	-0.294449	-0.009766	-0.864392	0.502723	-0.090425	0.501451	0.860448	-0.995855	-0.037056	-0.083060
575	2235094													9.728179	-1.169665	-0.484762	-0.026824	-0.863852	0.503030	-0.087153	0.503316	0.859696	-0.995834	-0.020780	-0.088788
576	2235261													9.109031	-1.120785	-0.540075	-0.044446	-0.863434	0.502500	-0.083980	0.504446	0.859350	-0.995476	-0.004005	-0.094932
577	2235428													9.723877	-0.965445	-0.711927	-0.063412	-0.862967	0.501266	-0.080430	0.505062	0.859327	-0.994741	0.014175	-0.101435
578	2235594													10.422775	-0.888262	-1.009675	-0.081094	-0.862358	0.499763	-0.076828	0.505331	0.859499	-0.993741	0.031304	-0.107233
579	2235761													9.781047	-0.969182	-1.186273	-0.096511	-0.861724	0.498114	-0.073518	0.505255	0.859833	-0.992613	0.046363	-0.112115
580	2235928													9.212085	-0.760332	-1.193755	-0.112278	-0.861138	0.495817	-0.070299	0.504605	0.860483	-0.991187	0.061758	-0.117193
581	2236094													9.829660	-0.525673	-1.365596	-0.128880	-0.860076	0.493618	-0.066487	0.504144	0.861057	-0.989429	0.078154	-0.122158
582	2236261													9.847994	-0.634802	-1.640299	-0.143750	-0.858691	0.491921	-0.062317	0.503952	0.861481	-0.987650	0.093182	-0.125954
583	2236428													8.269850	-0.638259	-1.620057	-0.158477	-0.857093	0.490180	-0.057625	0.503636	0.861992	-0.985680	0.108359	-0.129205
584	2236594													8.676048	-0.445695	-1.674527	-0.177102	-0.854524	0.488286	-0.051096	0.503443	0.862516	-0.982865	0.127804	-0.132823
585	2236761													10.681757	-0.554455	-1.996097	-0.195664	-0.851160	0.487075	-0.043187	0.503673	0.862814	-0.979720	0.147787	-0.135309
586	2236928													11.396460	-0.756037	-2.333585	-0.209895	-0.848388	0.485986	-0.035832	0.503399	0.863311	-0.977067	0.163791	-0.136060
587	2237094													10.720915	-0.717705	-2.448007	-0.219669	-0.846647	0.484701	-0.029617	0.502395	0.864131	-0.975125	0.175468	-0.135436
588	2237261													9.586204	-0.480554	-2.529453	-0.227115	-0.845608	0.483080	-0.024669	0.500879	0.865166	-0.973555	0.184575	-0.134617
589	2237428													9.144273	-0.081579	-2.533523	-0.234742	-0.844622	0.481154	-0.020495	0.499176	0.866258	-0.971842	0.193486	-0.134487
590	2237594													9.617228	0.154801	-2.639277	-0.242410	-0.843382	0.479526	-0.016849	0.497853	0.867098	-0.970028	0.202114	-0.134895
591	2237761													10.053600	0.193705	-2.749311	-0.248769	-0.842161	0.478412	-0.013876	0.496988	0.867646	-0.968463	0.209205	-0.135321
592	2237928													10.192122	0.259452	-2.752859	-0.253308	-0.841140	0.477827	-0.011652	0.496554	0.867928	-0.967315	0.214286	-0.135582
593	2238094													9.780988	0.294417	-2.687196	-0.256158	-0.840291	0.477802	-0.010114	0.496597	0.867922	-0.966582	0.217492	-0.135706
594	2238261													9.561657	0.306421	-2.701873	-0.258261	-0.839326	0.478365	-0.009167	0.497270	0.867547	-0.966032	0.219669	-0.136120
595	2238428													9.588353	0.239698	-2.757080	-0.259713	-0.838277	0.479417	-0.008871	0.498503	0.866843	-0.965645	0.220877	-0.136904
596	2238594													9.631395	0.110985	-2.816573	-0.260447	-0.837241	0.480827	-0.009262	0.500158	0.865884	-0.965444	0.221064	-0.138019
597	2238761													9.512651	0.000981	-2.880083	-0.260422	-0.836354	0.482381	-0.010402	0.502022	0.864792	-0.965439	0.220193	-0.139437
598	2238928													9.206325	-0.029918	-2.852364	-0.260229	-0.835541	0.483893	-0.012090	0.503940	0.863654	-0.965471	0.218897	-0.141241
599	2239094													9.160493	-0.020715	-2.710516	-0.260595	-0.834542	0.485417	-0.013874	0.505974	0.862437	-0.965348	0.218012	-0.143433
600	2239261													9.401915	-0.056479	-2.657274	-0.261196	-0.833443	0.486980	-0.015580	0.508067	0.861177	-0.965160	0.217349	-0.145690
601	2239428													9.456411	-0.076652	-2.698060	-0.261398	-0.832430	0.488601	-0.016948	0.510081	0.859959	-0.965082	0.216511	-0.147442
602	2239594													8.976497	-0.124132	-2.629751	-0.261782	-0.831277	0.490356	-0.017619	0.512106	0.858742	-0.964966	0.216164	-0.148706
603	2239761													9.162926	-0.227533	-2.621849	-0.263106	-0.829785	0.492171	-0.017497	0.514165	0.857513	-0.964608	0.217005	-0.149799
604	2239928													9.487616	-0.373478	-2.669368	-0.264485	-0.828285	0.493954	-0.016907	0.516098	0.856363	-0.964242	0.218144	-0.150504
605	2240094													9.647193	-0.445295	-2.719171	-0.265381	-0.827050	0.495542	-0.016164	0.517715	0.855400	-0.964008	0.218997	-0.150760
606	2240261													9.769000	-0.428199	-2.763425	-0.265448	-0.826232	0.496869	-0.015365	0.518917	0.854687	-0.964003	0.219240	-0.150441
607	2240428													9.690392	-0.348319	-2.810209	-0.264494	-0.825879	0.497963	-0.014556	0.519711	0.854218	-0.964277	0.218688	-0.149482
608	2240594													9.457873	-0.231749	-2.792699	-0.262798	-0.825885	0.498850	-0.013828	0.520194	0.853936	-0.964752	0.217515	-0.148126
609	2240761													9.368938	-0.143645	-2.740248	-0.260848	-0.826073	0.499561	-0.013102	0.520458	0.853787	-0.965291	0.216163	-0.146584
610	2240928													9.420630	-0.086595	-2.708236	-0.258632	-0.826404	0.500166	-0.012438	0.520589	0.853717	-0.965896	0.214578	-0.144920
611	2241094													9.510085	-0.065861	-2.646176	-0.256103	-0.826886	0.500671	-0.011923	0.520607	0.853713	-0.966576	0.212669	-0.143188
612	2241261													9.524493	-0.064639	-2.629522	-0.253074	-0.827583	0.501058	-0.011636	0.520484	0.853792	-0.967377	0.210243	-0.141351
613	2241428													9.375125	-0.044839	-2.591791	-0.249858	-0.828420	0.501289	-0.011665	0.520248	0.853936	-0.968212	0.207516	-0.139652
614	2241594													9.236397	-0.023719	-2.513523	-0.246817	-0.829283	0.501369	-0.012054	0.519962	0.854104	-0.968987	0.204764	-0.138332
615	2241761													9.350594	-0.011879	-2.460933	-0.244079	-0.830104	0.501350	-0.012680	0.519674	0.854270	-0.969672	0.202152	-0.137368
616	2241928													9.601920	-0.047898	-2.414439	-0.241178	-0.830956	0.501343	-0.013502	0.519415	0.854415	-0.970387	0.199297	-0.136491
617	2242094													9.679322	-0.090559	-2.384943	-0.237704	-0.831967	0.501326	-0.014489	0.519099	0.854591	-0.971230	0.195876	-0.135446
618	2242261													9.434894	-0.096893	-2.320373	-0.233871	-0.833090	0.501265	-0.015698	0.518731	0.854794	-0.972141	0.192042	-0.134394
619	2242428													9.228193	-0.114481	-2.239267	-0.230376	-0.834145	0.501128	-0.016999	0.518351	0.854999	-0.972953	0.188452	-0.133596
620	2242594													9.357323	-0.139059	-2.198197	-0.227440	-0.835066	0.500934	-0.018196	0.517971	0.855205	-0.973622	0.185393	-0.133003
621	2242761													9.575631	-0.157541	-2.191132	-0.224646	-0.835911	0.500786	-0.019254	0.517630	0.855388	-0.974250	0.182518	-0.132378
622	2242928													9.747940	-0.188769	-2.207282	-0.221548	-0.836821	0.500647	-0.020274	0.517248	0.855596	-0.974939	0.179405	-0.131561
623	2243094													9.685251	-0.168304	-2.217338	-0.217873	-0.837859	0.500523	-0.021383	0.516818	0.855828	-0.975743	0.175759	-0.130516
624	2243261													9.645707	-0.170976	-2.197669	-0.214013	-0.838858	0.500516	-0.022547	0.516493	0.855994	-0.976570	0.171909	-0.129450
625	2243428													9.828368	-0.177325	-2.228352	-0.209740	-0.839881	0.500608	-0.023907	0.516249	0.856105	-0.977465	0.167591	-0.128357
626	2243595													9.864328	-0.151657	-2.268995	-0.204535	-0.841017	0.500856	-0.025449	0.516069	0.856169	-0.978528	0.162370	-0.126957
627	2243761													9.565547	-0.166507	-2.227162	-0.198433	-0.842259	0.501222	-0.027209	0.515928	0.856200	-0.979737	0.156261	-0.125294
628	2243928													9.113739	-0.216746	-2.150202	-0.192426	-0.843387	0.501668	-0.028997	0.515885	0.856167	-0.980883	0.150202	-0.123726
629	2244095													9.297633	-0.224285	-2.051803	-0.187205	-0.844302	0.502104	-0.030497	0.515889	0.856112	-0.981847	0.144956	-0.122325
630	2244261													9.621686	-0.280906	-1.955363	-0.181997	-0.845144	0.502601	-0.031684	0.515913	0.856055	-0.982788	0.139875	-0.120672
631	2244428													9.914111	-0.403492	-1.966801	-0.176155	-0.846119	0.503043	-0.032817	0.515799	0.856081	-0.983815	0.134295	-0.118627
632	2244595													10.092759	-0.454891	-1.970838	-0.169139	-0.847437	0.503232	-0.034167	0.515323	0.856315	-0.985000	0.127643	-0.116115
633	2244761													10.171688	-0.452912	-2.006738	-0.160547	-0.849152	0.503156	-0.035869	0.514451	0.856769	-0.986376	0.119504	-0.113051
634	2244928													10.224485	-0.376663	-1.959932	-0.150255	-0.851205	0.502865	-0.037952	0.513231	0.857411	-0.987919	0.109746	-0.109420
635	2245095													10.372115	-0.283282	-1.920747	-0.138030	-0.853446	0.502572	-0.040375	0.511855	0.858122	-0.989605	0.098156	-0.105109
636	2245261													10.538965	-0.241390	-1.833107	-0.123454	-0.855740	0.502462	-0.043166	0.510487	0.858801	-0.991411	0.084333	-0.099961
637	2245428													10.554122	-0.203892	-1.720590	-0.106229	-0.857923	0.502677	-0.046407	0.509264	0.859358	-0.993258	0.067961	-0.093912
638	2245595													10.424517	-0.213833	-1.727196	-0.086444	-0.859860	0.503157	-0.050116	0.508162	0.859802	-0.994995	0.049108	-0.087020
639	2245761													10.142276	-0.260158	-1.607835	-0.064438	-0.861374	0.503868	-0.054297	0.507196	0.860119	-0.996443	0.028066	-0.079453
640	2245928													9.890563	-0.346826	-1.337824	-0.040917	-0.862389	0.504590	-0.059036	0.506217	0.860383	-0.997417	0.005415	-0.071625
641	2246095													9.939459	-0.451287	-1.117077	-0.016333	-0.862840	0.505213	-0.064285	0.505141	0.860639	-0.997798	-0.018421	-0.063718
642	2246261													10.036714	-0.497142	-0.912791	0.009538	-0.862662	0.505691	-0.069843	0.503904	0.860931	-0.997512	-0.043531	-0.055444
643	2246428													9.894233	-0.610336	-0.692602	0.036804	-0.861788	0.505931	-0.075619	0.502421	0.861310	-0.996457	-0.069958	-0.046676
644	2246595													9.780151	-0.676385	-0.370388	0.065144	-0.860214	0.505755	-0.081596	0.500543	0.861858	-0.994534	-0.097413	-0.037582
645	2246761													9.906138	-0.699284	-0.024407	0.094651	-0.857754	0.505272	-0.087508	0.498417	0.862510	-0.991657	-0.125853	-0.027885
646	2246928													10.183649	-0.816540	0.432323	0.125609	-0.854210	0.504527	-0.093207	0.496145	0.863222	-0.987692	-0.155454	-0.017298
647	2247095													10.323194	-0.888471	0.654846	0.158442	-0.849527	0.503190	-0.098741	0.493440	0.864157	-0.982419	-0.186604	-0.005702
648	2247261													9.840247	-0.900938	0.942095	0.192827	-0.843470	0.501374	-0.104219	0.490468	0.865205	-0.975682	-0.219088	0.006670
649	2247428													9.062739	-1.009970	1.302786	0.227326	-0.836279	0.498960	-0.109636	0.487139	0.866416	-0.967627	-0.251663	0.019053
650	2247595													8.657155	-0.983599	1.775007	0.260517	-0.828326	0.495990	-0.114917	0.483474	0.867783	-0.958606	-0.283069	0.030764
651	2247761													8.679851	-1.055068	2.183956	0.292163	-0.819583	0.492874	-0.119883	0.479910	0.869088	-0.948825	-0.313002	0.041958
652	2247928													8.640848	-1.227571	2.529653	0.322599	-0.810161	0.489459	-0.124325	0.476358	0.870418	-0.938335	-0.341648	0.052949
653	2248095													8.485958	-1.290487	2.909993	0.351751	-0.800315	0.485559	-0.128047	0.472695	0.871873	-0.927294	-0.368857	0.063793
654	2248261													8.382993	-1.331167	3.266985	0.379450	-0.790095	0.481422	-0.131128	0.469160	0.873324	-0.915873	-0.394511	0.074419
655	2248428													8.481284	-1.390959	3.755362	0.405721	-0.779653	0.477003	-0.133540	0.465721	0.874798	-0.904189	-0.418623	0.084838
656	2248595													8.785013	-1.442042	4.138776	0.431089	-0.768781	0.472375	-0.135378	0.462485	0.876231	-0.892096	-0.441683	0.095296
657	2248761													8.330574	-1.510802	4.504231	0.455924	-0.757536	0.467195	-0.136548	0.459176	0.877788	-0.879481	-0.464000	0.105909
658	2248928													7.908303	-1.511927	4.760005	0.479350	-0.746395	0.461648	-0.136941	0.455965	0.879399	-0.866874	-0.484758	0.116355
659	2249095													7.871311	-1.515137	4.926992	0.501316	-0.735465	0.455821	-0.136565	0.452943	0.881018	-0.854419	-0.503918	0.126629
660	2249261													7.912656	-1.539500	5.091760	0.522299	-0.724618	0.449591	-0.135223	0.450171	0.882644	-0.841973	-0.521799	0.137139
661	2249428													8.055519	-1.568957	5.176941	0.542869	-0.713638	0.442735	-0.132900	0.447536	0.884335	-0.829235	-0.538918	0.148111
662	2249595													8.081505	-1.591022	5.266366	0.563620	-0.702218	0.434996	-0.129732	0.444822	0.886173	-0.815783	-0.555898	0.159611
663	2249761													7.993413	-1.530514	5.400616	0.584642	-0.690339	0.426176	-0.125940	0.441712	0.888274	-0.801457	-0.572995	0.171302
664	2249928													7.768863	-1.372465	5.664115	0.605920	-0.677900	0.416309	-0.121459	0.438345	0.890562	-0.786199	-0.590173	0.183265
665	2250095													7.653419	-1.239894	5.988804	0.627153	-0.664841	0.405790	-0.116403	0.435129	0.892812	-0.770149	-0.607165	0.195503
666	2250261													7.392664	-1.097166	6.329285	0.648287	-0.651047	0.394794	-0.110880	0.432259	0.894906	-0.753280	-0.623931	0.208040
667	2250428													7.214681	-0.891502	6.587422	0.668833	-0.636688	0.383783	-0.105367	0.429846	0.896733	-0.735907	-0.640203	0.220409
668	2250595													6.989495	-0.816941	7.007755	0.688576	-0.621938	0.372903	-0.100129	0.427763	0.898328	-0.718218	-0.655905	0.232273
669	2250761													6.844512	-0.641089	7.449522	0.707191	-0.607065	0.362427	-0.095335	0.426053	0.899661	-0.700566	-0.670784	0.243426
670	2250928													6.439188	-0.569697	7.825325	0.724236	-0.592292	0.353088	-0.091203	0.425276	0.900457	-0.683494	-0.684346	0.253981
671	2251095													5.802039	-0.651783	8.076365	0.738984	-0.578548	0.345232	-0.087929	0.425220	0.900809	-0.667960	-0.696039	0.263359
672	2251261													5.233750	-0.710640	8.282621	0.750705	-0.567174	0.338756	-0.085344	0.425216	0.901059	-0.655102	-0.705341	0.270807
673	2251428													5.223136	-0.449553	8.554065	0.759091	-0.558813	0.333931	-0.083223	0.425450	0.901147	-0.645643	-0.711843	0.276449
674	2251595													5.646381	-0.389830	8.604832	0.764920	-0.552418	0.331258	-0.081889	0.426703	0.900677	-0.638899	-0.716072	0.281157
675	2251761													6.007076	-0.623322	8.557609	0.769283	-0.547163	0.329874	-0.081180	0.428415	0.899928	-0.633730	-0.719078	0.285153
676	2251928													6.133532	-0.696872	8.461446	0.772942	-0.542746	0.328615	-0.080689	0.429639	0.899389	-0.629325	-0.721690	0.288292
677	2252095													5.738183	-0.447964	8.475910	0.775758	-0.539223	0.327777	-0.080310	0.430842	0.898847	-0.625899	-0.723612	0.290924
678	2252261													5.643673	-0.561269	8.386332	0.777295	-0.536783	0.328140	-0.080297	0.432663	0.897973	-0.623991	-0.724339	0.293205
679	2252428													5.788531	-1.016315	8.157889	0.777656	-0.535750	0.328973	-0.080687	0.433888	0.897346	-0.623491	-0.724371	0.294188
680	2252595													5.920660	-0.993669	8.301745	0.777068	-0.536504	0.329134	-0.080909	0.433437	0.897545	-0.624195	-0.724083	0.293402
681	2252761													6.498083	-0.587972	8.543180	0.776075	-0.537881	0.329228	-0.080804	0.432938	0.897795	-0.625442	-0.723359	0.292530
682	2252928													6.345506	-0.728190	8.583460	0.774926	-0.538806	0.330419	-0.080620	0.434240	0.897182	-0.626889	-0.721889	0.293066
683	2253095													6.213584	-1.067944	8.349216	0.773699	-0.540006	0.331335	-0.080176	0.435320	0.896698	-0.628459	-0.720340	0.293512
684	2253261													6.429950	-0.665546	8.051928	0.772360	-0.541809	0.331515	-0.079548	0.435303	0.896763	-0.630184	-0.718995	0.293111
685	2253428													6.218541	-0.342664	7.731468	0.771097	-0.543237	0.332118	-0.079385	0.435515	0.896674	-0.631749	-0.717789	0.292699
686	2253595													6.276212	-0.416715	7.597675	0.769522	-0.544613	0.333516	-0.079816	0.436131	0.896337	-0.633613	-0.716371	0.292143
687	2253761													6.918546	-0.738648	7.469522	0.768412	-0.545329	0.334900	-0.080917	0.436326	0.896143	-0.634819	-0.715707	0.291152
688	2253928													6.999798	-0.822915	7.325268	0.768672	-0.544840	0.335101	-0.082248	0.435348	0.896497	-0.634333	-0.716674	0.289828
689	2254095													6.496943	-0.734195	7.287570	0.769833	-0.543572	0.334495	-0.083555	0.433742	0.897155	-0.632753	-0.718608	0.288491
690	2254261													6.224180	-0.829897	7.430944	0.771015	-0.542331	0.333785	-0.084537	0.432341	0.897739	-0.631180	-0.720387	0.287494
691	2254428													6.376599	-0.958709	7.673678	0.772001	-0.541264	0.333238	-0.085210	0.431409	0.898123	-0.629884	-0.721747	0.286927
692	2254595													6.611985	-1.042111	7.720740	0.773224	-0.540192	0.332140	-0.085452	0.430233	0.898664	-0.628349	-0.723251	0.286506
693	2254761													6.266178	-0.830219	7.791868	0.774634	-0.538931	0.330902	-0.085435	0.429262	0.899130	-0.626612	-0.724767	0.286478
694	2254928													6.054264	-0.886766	7.850430	0.775503	-0.538119	0.330187	-0.085356	0.428825	0.899346	-0.625547	-0.725629	0.286623
695	2255095													6.231896	-0.913734	7.936615	0.775758	-0.537904	0.329938	-0.085291	0.428679	0.899422	-0.625240	-0.725875	0.286672
696	2255261													6.617510	-0.962761	8.055109	0.775875	-0.537889	0.329688	-0.085306	0.428333	0.899585	-0.625093	-0.726090	0.286448
697	2255428													6.498388	-0.636082	8.053196	0.776243	-0.537637	0.329233	-0.085246	0.427924	0.899786	-0.624644	-0.726518	0.286341
698	2255595													6.139598	-0.609469	8.039961	0.776353	-0.537304	0.329516	-0.085381	0.428326	0.899582	-0.624489	-0.726527	0.286657
699	2255761													6.223974	-0.890330	7.949338	0.775857	-0.537400	0.330525	-0.085783	0.429167	0.899142	-0.625049	-0.725960	0.286873
700	2255928													6.204186	-1.034823	7.902626	0.775020	-0.538145	0.331276	-0.086118	0.429392	0.899003	-0.626041	-0.725274	0.286443
701	2256095													6.374516	-0.882477	7.900981	0.774024	-0.539342	0.331658	-0.086292	0.429069	0.899140	-0.627248	-0.724576	0.285569
702	2256261													6.397249	-0.796308	7.907393	0.772975	-0.540609	0.332043	-0.086327	0.428876	0.899229	-0.628536	-0.723745	0.284841
703	2256428													6.327395	-0.845380	7.943279	0.771778	-0.541941	0.332653	-0.086257	0.429071	0.899143	-0.630014	-0.722633	0.284401
704	2256595													6.217090	-0.965641	7.896465	0.770263	-0.543687	0.333314	-0.086117	0.429197	0.899096	-0.631885	-0.721245	0.283774
705	2256761													6.302338	-0.909637	7.876724	0.768326	-0.546062	0.333903	-0.085899	0.428987	0.899217	-0.634268	-0.719574	0.282696
706	2256928													6.362603	-0.771036	7.881499	0.766140	-0.548742	0.334532	-0.085648	0.428709	0.899374	-0.636941	-0.717698	0.281452
707	2257095													6.422467	-0.698231	7.958590	0.763616	-0.551625	0.335560	-0.085368	0.428889	0.899315	-0.640002	-0.715377	0.280415
708	2257261													6.312735	-0.726221	8.072661	0.760563	-0.554820	0.337221	-0.085209	0.429601	0.898990	-0.643648	-0.712473	0.279463
709	2257428													6.168834	-0.822457	8.027871	0.756631	-0.558922	0.339286	-0.085317	0.430078	0.898751	-0.648252	-0.708970	0.277725
710	2257595													6.203573	-0.820514	7.924231	0.751685	-0.564164	0.341597	-0.085751	0.429947	0.898773	-0.653923	-0.704887	0.274807
711	2257761													6.302685	-0.799996	7.892471	0.745854	-0.570334	0.344123	-0.086237	0.429591	0.898896	-0.660504	-0.700122	0.271228
712	2257928													6.389853	-0.796131	7.899096	0.739131	-0.577264	0.347060	-0.086602	0.429539	0.898886	-0.667971	-0.694451	0.267493
713	2258095													6.255405	-0.846192	7.889731	0.731326	-0.585109	0.350442	-0.086799	0.429798	0.898743	-0.676482	-0.687692	0.263536
714	2258261													6.306698	-0.839587	7.768011	0.722145	-0.594079	0.354369	-0.086933	0.430283	0.898498	-0.686258	-0.679652	0.259082
715	2258428													6.363409	-0.864827	7.579136	0.711583	-0.604066	0.358822	-0.086977	0.431042	0.898130	-0.697198	-0.670303	0.254183
716	2258595													6.289245	-0.860466	7.403865	0.699863	-0.614798	0.363612	-0.086902	0.431993	0.897681	-0.708971	-0.659852	0.248909
717	2258761													6.293785	-0.767903	7.357809	0.686359	-0.626699	0.368998	-0.086706	0.433246	0.897095	-0.722076	-0.647724	0.243024
718	2258928													6.297744	-0.775605	7.345568	0.670543	-0.639962	0.375262	-0.086607	0.434846	0.896330	-0.736798	-0.633528	0.236158
719	2259095													6.911671	-0.850095	7.059408	0.652552	-0.654371	0.382066	-0.086529	0.436566	0.895501	-0.752788	-0.617421	0.228260
720	2259261													7.300332	-0.831663	6.677498	0.633436	-0.668993	0.388853	-0.086396	0.438240	0.894696	-0.768957	-0.600328	0.219799
721	2259428													7.382432	-0.757511	6.367976	0.613697	-0.683335	0.395511	-0.086251	0.439916	0.893887	-0.784816	-0.582689	0.211037
722	2259595													7.195084	-0.740579	6.214459	0.592755	-0.697686	0.402339	-0.086049	0.441840	0.892957	-0.800773	-0.563926	0.201868
723	2259761													7.472950	-0.813272	5.978288	0.569666	-0.712582	0.409521	-0.085780	0.444005	0.891909	-0.817387	-0.543219	0.191810
724	2259928													8.054434	-0.836074	5.590884	0.545157	-0.727484	0.416617	-0.085488	0.446127	0.890877	-0.833964	-0.521284	0.181018
725	2260095													8.129147	-0.822750	5.136181	0.520326	-0.741694	0.423263	-0.085157	0.448107	0.889915	-0.849711	-0.499090	0.170002
726	2260262													7.823577	-0.748648	4.861160	0.494586	-0.755536	0.429592	-0.084693	0.450031	0.888988	-0.864992	-0.476065	0.158590
727	2260428													8.070652	-0.802413	4.647583	0.466909	-0.769393	0.435926	-0.084050	0.452116	0.887991	-0.880302	-0.451250	0.146429
728	2260595													8.722159	-0.829910	4.351627	0.438048	-0.782731	0.442092	-0.083214	0.454368	0.886919	-0.895092	-0.425301	0.133901
729	2260762													9.285850	-0.873709	3.894650	0.409723	-0.794904	0.447497	-0.082275	0.456362	0.885982	-0.908492	-0.399825	0.121581
730	2260928													9.171653	-0.722966	3.457402	0.382836	-0.805705	0.451969	-0.081270	0.457971	0.885244	-0.920234	-0.375635	0.109848
731	2261095													9.101976	-0.585062	3.242844	0.356228	-0.815423	0.456275	-0.080160	0.459840	0.884377	-0.930954	-0.351615	0.098443
732	2261262													9.732888	-0.744178	2.975134	0.330387	-0.823891	0.460487	-0.079167	0.461975	0.883352	-0.940520	-0.328304	0.087405
733	2261428													10.127474	-0.916010	2.600814	0.306630	-0.831343	0.463515	-0.079341	0.462954	0.882824	-0.948516	-0.307476	0.075996
734	2261595													9.934892	-0.631308	2.257886	0.285560	-0.838046	0.464903	-0.080537	0.462402	0.883005	-0.954971	-0.289593	0.064550
735	2261762													9.099494	-0.509542	2.102338	0.265633	-0.844008	0.465929	-0.081733	0.461836	0.883191	-0.960603	-0.272686	0.053696
736	2261928													9.000412	-0.710954	2.101639	0.244400	-0.849881	0.466873	-0.082178	0.461589	0.883280	-0.966186	-0.254240	0.042971
737	2262095													9.873443	-0.945886	1.882164	0.222756	-0.855541	0.467364	-0.082044	0.461256	0.883465	-0.971416	-0.235142	0.032555
738	2262262													10.329470	-0.926361	1.670846	0.202880	-0.860637	0.467058	-0.081658	0.460446	0.883924	-0.975793	-0.217470	0.023137
739	2262428													9.856000	-0.827084	1.615643	0.184815	-0.865059	0.466387	-0.080906	0.459559	0.884454	-0.979437	-0.201194	0.014945
740	2262595													9.100332	-0.731409	1.643051	0.166263	-0.869117	0.465824	-0.079709	0.459008	0.884849	-0.982855	-0.184248	0.007040
741	2262762													9.466817	-0.657847	1.567637	0.145629	-0.872842	0.465768	-0.078345	0.459134	0.884905	-0.986232	-0.165358	-0.001519
742	2262928													10.151497	-0.701605	1.246658	0.125019	-0.875857	0.466094	-0.077165	0.459773	0.884677	-0.989149	-0.146568	-0.010105
743	2263095													10.024190	-0.711020	0.952504	0.105847	-0.878045	0.466727	-0.076176	0.460824	0.884216	-0.991460	-0.129145	-0.018109
744	2263262													9.334105	-0.711022	0.815440	0.086787	-0.879626	0.467682	-0.075269	0.462322	0.883512	-0.993379	-0.111880	-0.026085
745	2263428													9.051083	-0.682080	0.788083	0.065989	-0.880860	0.468755	-0.074399	0.464127	0.882638	-0.995043	-0.093119	-0.034907
746	2263595													9.963824	-0.660948	0.553575	0.043471	-0.881594	0.470003	-0.073641	0.466341	0.881535	-0.996337	-0.072933	-0.044650
747	2263762													10.694270	-0.679774	0.169328	0.022623	-0.881669	0.471326	-0.073083	0.468727	0.880314	-0.997069	-0.054362	-0.053831
748	2263928													10.284920	-0.718329	-0.181426	0.004671	-0.881195	0.472730	-0.072762	0.471182	0.879030	-0.997338	-0.038503	-0.061917
749	2264095													9.451626	-0.699557	-0.346407	-0.012247	-0.880389	0.474095	-0.072568	0.473663	0.877712	-0.997288	-0.023655	-0.069689
750	2264262													9.465931	-0.696732	-0.496035	-0.029709	-0.879225	0.475479	-0.072187	0.476334	0.876296	-0.996949	-0.008289	-0.077620
751	2264428													9.983322	-0.761083	-0.771585	-0.046612	-0.877713	0.476915	-0.071712	0.479142	0.874803	-0.996336	0.006576	-0.085276
752	2264595													9.866832	-0.745476	-0.904234	-0.061963	-0.876109	0.478114	-0.071456	0.481699	0.873418	-0.995517	0.019956	-0.092451
753	2264762													9.710048	-0.721005	-0.998210	-0.076659	-0.874302	0.479291	-0.071107	0.484275	0.872021	-0.994519	0.032768	-0.099293
754	2264928													9.537411	-0.743856	-1.077939	-0.090990	-0.872266	0.480492	-0.070269	0.486915	0.870618	-0.993370	0.045454	-0.105597
755	2265095													9.830071	-0.767350	-1.170029	-0.105593	-0.869999	0.481614	-0.069041	0.489567	0.869228	-0.992010	0.058534	-0.111761
756	2265262													10.091165	-0.789535	-1.374528	-0.118957	-0.867722	0.482605	-0.067713	0.492014	0.867950	-0.990588	0.070570	-0.117284
757	2265428													9.594245	-0.739324	-1.437028	-0.130955	-0.865437	0.483600	-0.066292	0.494354	0.866729	-0.989169	0.081443	-0.122110
758	2265595													9.186058	-0.744279	-1.427235	-0.143357	-0.862959	0.484511	-0.064540	0.496677	0.865532	-0.987564	0.092809	-0.126897
759	2265762													9.663105	-0.781039	-1.514461	-0.156857	-0.860273	0.485104	-0.062658	0.498863	0.864413	-0.985632	0.105194	-0.132153
760	2265928													10.214922	-0.764667	-1.726593	-0.169472	-0.857652	0.485502	-0.060975	0.500809	0.863408	-0.983647	0.116720	-0.137168
761	2266095													9.861136	-0.677359	-1.847279	-0.180355	-0.855269	0.485786	-0.059313	0.502443	0.862574	-0.981812	0.126756	-0.141347
762	2266262													9.186213	-0.445219	-1.818059	-0.190998	-0.852730	0.486180	-0.057348	0.504147	0.861712	-0.979914	0.136704	-0.145193
763	2266428													9.431689	-0.355881	-1.924942	-0.202763	-0.849620	0.486860	-0.054944	0.506275	0.860620	-0.977685	0.147752	-0.149335
764	2266595													10.136927	-0.519286	-2.125275	-0.214028	-0.846236	0.487931	-0.052613	0.508767	0.859295	-0.975410	0.158242	-0.153413
765	2266762													10.155180	-0.718152	-2.318037	-0.223399	-0.843174	0.489030	-0.051005	0.511134	0.857986	-0.973392	0.166730	-0.157193
766	2266928													9.600574	-0.602347	-2.334198	-0.231463	-0.840640	0.489642	-0.050445	0.513004	0.856902	-0.971535	0.173641	-0.161148
767	2267095													9.524543	-0.335347	-2.391594	-0.239456	-0.838146	0.490073	-0.050350	0.514799	0.855831	-0.969601	0.180259	-0.165472
768	2267262													9.756722	-0.262961	-2.506371	-0.246885	-0.835509	0.490890	-0.050189	0.516916	0.854563	-0.967744	0.186341	-0.169552
769	2267428													9.917841	-0.346693	-2.632080	-0.253154	-0.832938	0.492064	-0.049919	0.519202	0.853193	-0.966137	0.191426	-0.173018
770	2267595													9.953327	-0.449859	-2.703233	-0.258047	-0.830618	0.493442	-0.049588	0.521453	0.851838	-0.964859	0.195345	-0.175748
771	2267762													9.800708	-0.510467	-2.780815	-0.261445	-0.828708	0.494863	-0.049407	0.523513	0.850584	-0.963953	0.197931	-0.177814
772	2267928													9.382570	-0.520967	-2.806624	-0.263860	-0.827162	0.496166	-0.049263	0.525281	0.849501	-0.963302	0.199707	-0.179349
773	2268095													8.992647	-0.529510	-2.773645	-0.266319	-0.825742	0.497216	-0.048983	0.526774	0.848593	-0.962640	0.201641	-0.180737
774	2268262													9.178085	-0.494442	-2.820410	-0.269219	-0.824336	0.497987	-0.048504	0.528027	0.847841	-0.961857	0.204100	-0.182139
775	2268428													9.504668	-0.479715	-2.816979	-0.271892	-0.823062	0.498642	-0.047776	0.529068	0.847233	-0.961141	0.206533	-0.183172
776	2268595													9.647491	-0.444948	-2.842083	-0.273804	-0.822015	0.499323	-0.046890	0.529954	0.846729	-0.960642	0.208424	-0.183648
777	2268762													9.611909	-0.410234	-2.867360	-0.274857	-0.821195	0.500093	-0.045885	0.530736	0.846294	-0.960389	0.209663	-0.183558
778	2268928													9.331063	-0.405888	-2.822532	-0.275443	-0.820524	0.500871	-0.044839	0.531425	0.845918	-0.960271	0.210543	-0.183169
779	2269095													9.211995	-0.390174	-2.785685	-0.276097	-0.819891	0.501547	-0.043896	0.532043	0.845579	-0.960127	0.211446	-0.182885
780	2269262													9.317400	-0.366417	-2.784603	-0.276862	-0.819296	0.502096	-0.043083	0.532580	0.845282	-0.959943	0.212395	-0.182750
781	2269428													9.506397	-0.372099	-2.822072	-0.277402	-0.818784	0.502634	-0.042431	0.533096	0.844990	-0.959817	0.213074	-0.182624
782	2269595													9.499208	-0.365980	-2.852324	-0.277428	-0.818451	0.503161	-0.042040	0.533559	0.844717	-0.959826	0.213195	-0.182432
783	2269762													9.325853	-0.359633	-2.847234	-0.277233	-0.818233	0.503624	-0.041842	0.533955	0.844477	-0.959891	0.213044	-0.182267
784	2269928													9.252203	-0.404922	-2.763302	-0.277196	-0.818046	0.503947	-0.041710	0.534252	0.844296	-0.959908	0.213016	-0.182213
785	2270095													9.336694	-0.406207	-2.745812	-0.277265	-0.817939	0.504084	-0.041569	0.534375	0.844225	-0.959894	0.213120	-0.182164
786	2270262													9.422620	-0.418044	-2.749499	-0.277204	-0.817976	0.504056	-0.041462	0.534311	0.844271	-0.959916	0.213136	-0.182028
787	2270428													9.471927	-0.450683	-2.793534	-0.276801	-0.818198	0.503918	-0.041501	0.534098	0.844403	-0.960031	0.212819	-0.181795
788	2270595													9.547848	-0.452725	-2.775544	-0.275996	-0.818611	0.503688	-0.041829	0.533776	0.844591	-0.960248	0.212034	-0.181562
789	2270762													9.484840	-0.475149	-2.811437	-0.274564	-0.819293	0.503362	-0.042462	0.533299	0.844860	-0.960631	0.210594	-0.181214
790	2270928													9.231075	-0.434264	-2.767641	-0.272835	-0.820130	0.502939	-0.043346	0.532721	0.845180	-0.961084	0.208794	-0.180894
791	2271095													9.169887	-0.342095	-2.675784	-0.271381	-0.820876	0.502508	-0.044225	0.532185	0.845472	-0.961455	0.207221	-0.180728
792	2271262													9.357388	-0.335759	-2.630936	-0.270114	-0.821386	0.502358	-0.044738	0.531896	0.845627	-0.961788	0.205941	-0.180420
793	2271428													9.484772	-0.385338	-2.640796	-0.268678	-0.821791	0.502466	-0.045059	0.531799	0.845671	-0.962176	0.204572	-0.179912
794	2271595													9.558421	-0.448106	-2.622988	-0.266903	-0.822192	0.502756	-0.045296	0.531807	0.845654	-0.962658	0.202935	-0.179182
795	2271762													9.535035	-0.498814	-2.637537	-0.264624	-0.822715	0.503104	-0.045599	0.531794	0.845645	-0.963273	0.200837	-0.178241
796	2271928													9.327341	-0.483227	-2.574339	-0.262083	-0.823326	0.503435	-0.045993	0.531734	0.845662	-0.963949	0.198479	-0.177226
797	2272095													9.302949	-0.465823	-2.541796	-0.259693	-0.823884	0.503760	-0.046340	0.531689	0.845671	-0.964579	0.196271	-0.176255
798	2272262													9.472616	-0.469292	-2.504905	-0.257375	-0.824406	0.504097	-0.046594	0.531652	0.845681	-0.965188	0.194169	-0.175246
799	2272428													9.630939	-0.495752	-2.511609	-0.254721	-0.824988	0.504491	-0.046742	0.531594	0.845709	-0.965884	0.191839	-0.173969
800	2272595													9.669713	-0.517347	-2.519123	-0.251492	-0.825712	0.504927	-0.046857	0.531470	0.845780	-0.966724	0.189048	-0.172351
801	2272762													9.405343	-0.462636	-2.479088	-0.247706	-0.826568	0.505398	-0.046990	0.531291	0.845885	-0.967695	0.185782	-0.170444
802	2272928													9.115993	-0.472483	-2.371003	-0.244343	-0.827278	0.505873	-0.047044	0.531184	0.845949	-0.968547	0.182903	-0.168710
803	2273095													9.293676	-0.447757	-2.301641	-0.241670	-0.827835	0.506246	-0.047041	0.531092	0.846007	-0.969218	0.180640	-0.167292
804	2273262													9.504442	-0.425563	-2.302037	-0.239242	-0.828265	0.506695	-0.046869	0.531093	0.846017	-0.969828	0.178654	-0.165880
805	2273428													9.654330	-0.446473	-2.268922	-0.236618	-0.828690	0.507233	-0.046670	0.531149	0.845992	-0.970481	0.176505	-0.164354
806	2273595													9.573263	-0.478825	-2.243303	-0.233617	-0.829200	0.507790	-0.046566	0.531183	0.845977	-0.971213	0.173989	-0.162706
807	2273762													9.334240	-0.477094	-2.183173	-0.230688	-0.829703	0.508308	-0.046493	0.531200	0.845970	-0.971916	0.171522	-0.161117
808	2273928													9.354079	-0.448348	-2.119947	-0.228166	-0.830142	0.508728	-0.046403	0.531189	0.845982	-0.972516	0.169417	-0.159720
809	2274095													9.488617	-0.414483	-2.109806	-0.225855	-0.830534	0.509119	-0.046323	0.531188	0.845986	-0.973059	0.167487	-0.158444
810	2274262													9.605672	-0.419594	-2.085449	-0.223401	-0.830908	0.509592	-0.046249	0.531252	0.845950	-0.973629	0.165418	-0.157111
811	2274428													9.672506	-0.456455	-2.079657	-0.220604	-0.831345	0.510097	-0.046242	0.531308	0.845916	-0.974267	0.163025	-0.155651
812	2274595													9.535494	-0.467715	-2.041214	-0.217575	-0.831850	0.510575	-0.046424	0.531334	0.845889	-0.974939	0.160342	-0.154223
813	2274762													9.498590	-0.458332	-2.021199	-0.214699	-0.832375	0.510937	-0.046679	0.531284	0.845907	-0.975564	0.157765	-0.152921
814	2274928													9.585706	-0.408550	-2.027120	-0.211906	-0.832898	0.511250	-0.046907	0.531196	0.845950	-0.976164	0.155281	-0.151633
815	2275095													9.714206	-0.444268	-2.010616	-0.208891	-0.833433	0.511619	-0.047166	0.531137	0.845972	-0.976801	0.152585	-0.150259
816	2275262													9.828818	-0.468436	-2.046429	-0.205374	-0.834110	0.511940	-0.047561	0.530978	0.846050	-0.977527	0.149409	-0.148720
817	2275428													9.931812	-0.430661	-2.089926	-0.201029	-0.835007	0.512202	-0.048106	0.530661	0.846218	-0.978403	0.145474	-0.146847
818	2275595													9.893825	-0.387108	-2.113680	-0.195674	-0.836149	0.512412	-0.048840	0.530173	0.846482	-0.979452	0.140609	-0.144579
819	2275762													9.859115	-0.388970	-2.091262	-0.189394	-0.837419	0.512698	-0.049951	0.529689	0.846720	-0.980630	0.134754	-0.142150
820	2275928													9.992912	-0.426826	-2.077911	-0.181972	-0.838886	0.512988	-0.051491	0.529112	0.846988	-0.981955	0.127714	-0.139478
821	2276095													10.169441	-0.449241	-2.142111	-0.172977	-0.840572	0.513340	-0.053428	0.528437	0.847290	-0.983476	0.119135	-0.136317
822	2276262													10.240109	-0.483781	-2.157674	-0.162069	-0.842541	0.513672	-0.055857	0.527552	0.847684	-0.985197	0.108691	-0.132561
823	2276428													10.182526	-0.513160	-2.108868	-0.149199	-0.844742	0.513956	-0.058738	0.526427	0.848189	-0.987061	0.096360	-0.128161
824	2276595													9.983112	-0.499925	-1.949281	-0.134409	-0.847124	0.514115	-0.062150	0.525009	0.848825	-0.988975	0.082137	-0.123215
825	2276762													9.466474	-0.433085	-1.669872	-0.118572	-0.849397	0.514262	-0.065882	0.523504	0.849472	-0.990757	0.066843	-0.118033
826	2276929													9.259900	-0.506253	-1.344609	-0.103196	-0.851260	0.514497	-0.069535	0.522167	0.850004	-0.992228	0.051942	-0.113078
827	2277095													9.388892	-0.637159	-1.085396	-0.088748	-0.852776	0.514681	-0.072833	0.520893	0.850509	-0.993388	0.037995	-0.108339
828	2277262													9.702339	-0.737163	-0.947881	-0.074885	-0.854099	0.514692	-0.075749	0.519522	0.851093	-0.994311	0.024746	-0.103601
829	2277429													9.924001	-0.766591	-0.875565	-0.060881	-0.855306	0.514534	-0.078529	0.517997	0.851770	-0.995051	0.011451	-0.098702
830	2277595													9.846627	-0.779042	-0.795862	-0.046440	-0.856428	0.514174	-0.081290	0.516262	0.852564	-0.995608	-0.002204	-0.093594
831	2277762													9.721267	-0.756061	-0.668657	-0.031836	-0.857398	0.513669	-0.084032	0.514406	0.853420	-0.995954	-0.015995	-0.088425
832	2277929													9.687864	-0.774979	-0.469555	-0.017172	-0.858156	0.513101	-0.086795	0.512519	0.854278	-0.996078	-0.029865	-0.083284
833	2278095													9.920012	-0.796948	-0.336025	-0.002317	-0.858738	0.512410	-0.089600	0.510529	0.855180	-0.995975	-0.043931	-0.078126
834	2278262													9.982856	-0.752540	-0.220399	0.013173	-0.859071	0.511686	-0.092575	0.508485	0.856080	-0.995619	-0.058647	-0.072831
835	2278429													9.894179	-0.792918	-0.105116	0.029277	-0.859111	0.510950	-0.095769	0.506407	0.856960	-0.994973	-0.074022	-0.067450
836	2278595													9.872178	-0.847164	0.024574	0.045940	-0.858820	0.510214	-0.099215	0.504305	0.857807	-0.994005	-0.090029	-0.062040
837	2278762													10.037943	-0.902504	0.198610	0.063466	-0.858192	0.509391	-0.102919	0.502071	0.858681	-0.992663	-0.106923	-0.056460
838	2278929													10.257302	-0.994667	0.308917	0.082345	-0.857173	0.508403	-0.106881	0.499598	0.859639	-0.990856	-0.125126	-0.050476
839	2279095													10.266993	-1.009328	0.446649	0.103108	-0.855671	0.507145	-0.111045	0.496772	0.860747	-0.988452	-0.145066	-0.043796
840	2279262													10.050095	-1.026263	0.599164	0.125596	-0.853538	0.505666	-0.115285	0.493693	0.861961	-0.985360	-0.166555	-0.036394
841	2279429													9.783339	-1.092985	0.717449	0.149395	-0.850774	0.503849	-0.119538	0.490290	0.863323	-0.981525	-0.189205	-0.028453
842	2279595													9.534470	-1.128304	1.014202	0.173989	-0.847383	0.501667	-0.123800	0.486573	0.864824	-0.976935	-0.212576	-0.020248
843	2279762													9.639252	-1.235575	1.304589	0.199134	-0.843291	0.499205	-0.127925	0.482679	0.866404	-0.971587	-0.236391	-0.011760
844	2279929													9.715561	-1.402996	1.522671	0.225331	-0.838345	0.496390	-0.131766	0.478590	0.868095	-0.965331	-0.261017	-0.002624
845	2280095													9.548285	-1.452641	1.809339	0.252582	-0.832589	0.492948	-0.135067	0.474139	0.870028	-0.958102	-0.286334	0.007304
846	2280262													9.627528	-1.417424	2.155775	0.280499	-0.825839	0.489193	-0.137607	0.469790	0.871987	-0.949939	-0.311908	0.018134
847	2280429													9.382140	-1.478569	2.367376	0.309528	-0.817950	0.484923	-0.139421	0.465418	0.874041	-0.940614	-0.338149	0.030021
848	2280595													8.613728	-1.380601	2.691711	0.338498	-0.809227	0.480178	-0.140584	0.461083	0.876150	-0.930406	-0.364080	0.042312
849	2280762													8.509492	-1.427640	3.071711	0.366244	-0.799998	0.475256	-0.141292	0.457010	0.878168	-0.919729	-0.388774	0.054344
850	2280929													8.815607	-1.434844	3.474593	0.393153	-0.790295	0.469962	-0.141490	0.453034	0.880194	-0.908521	-0.412546	0.066293
851	2281095													8.977553	-1.465352	3.930976	0.419894	-0.779857	0.464233	-0.141213	0.449141	0.882231	-0.896520	-0.435999	0.078465
852	2281262													8.730606	-1.409630	4.282081	0.446427	-0.768711	0.458024	-0.140392	0.445352	0.884280	-0.883738	-0.459069	0.090897
853	2281429													7.891913	-1.223751	4.578866	0.471824	-0.757372	0.451408	-0.138937	0.441716	0.886331	-0.870677	-0.480910	0.103185
854	2281595													7.444361	-1.205558	4.935302	0.494503	-0.746521	0.445167	-0.137216	0.438698	0.888096	-0.858277	-0.500250	0.114503
855	2281762													7.568734	-1.352367	5.210303	0.514408	-0.736547	0.439184	-0.135333	0.435996	0.889715	-0.846799	-0.517113	0.124600
856	2281929													7.764618	-1.446272	5.546715	0.532266	-0.727375	0.433149	-0.133256	0.433285	0.891351	-0.836024	-0.532156	0.133696
857	2282095													8.152863	-1.503403	5.844073	0.548644	-0.718828	0.426937	-0.131003	0.430435	0.893065	-0.825729	-0.545905	0.141987
858	2282262													7.845090	-1.470130	6.016782	0.564173	-0.710586	0.420448	-0.128487	0.427465	0.894855	-0.815598	-0.558875	0.149863
859	2282429													7.415596	-1.377489	6.175765	0.578093	-0.703212	0.413886	-0.125798	0.424359	0.896713	-0.806215	-0.570450	0.156856
860	2282595													7.283046	-1.251779	6.271494	0.590108	-0.696915	0.407531	-0.122933	0.421338	0.898533	-0.797910	-0.580330	0.162961
861	2282762													7.275337	-1.100041	6.326790	0.600447	-0.691507	0.401599	-0.119978	0.418622	0.900201	-0.790613	-0.588706	0.168395
862	2282929													7.397745	-1.012390	6.370483	0.609468	-0.686733	0.396166	-0.116955	0.416353	0.901650	-0.784137	-0.595860	0.173437
863	2283095													7.644008	-0.958451	6.372562	0.617799	-0.682126	0.391188	-0.114043	0.414497	0.902877	-0.778022	-0.602408	0.178284
