// Start Time: Unknown
// Update Rate: 60.0Hz
//Filter Profile: human (46.1)
// Option Flags: AHS Disabled ICC Disabled
// Firmware Version: 4.0.2
0	sampleTimeFine	Year	Month	Day	Second	UTC_Nano	UTC_Year	UTC_Month	UTC_Day	UTC_Hour	UTC_Minute	UTC_Second	UTC_Valid	Acc_X	Acc_Y	Acc_Z	Mat[1][1]	Mat[2][1]	Mat[3][1]	Mat[1][2]	Mat[2][2]	Mat[3][2]	Mat[1][3]	Mat[2][3]	Mat[3][3]
0	1906769													0.578091	0.380696	-0.712672	-0.338083	-0.899376	0.277169	-0.107210	0.329399	0.938084	-0.934990	0.287435	-0.207786
1	1906936													9.200878	-1.000097	-3.286884	-0.337546	-0.899555	0.277242	-0.106769	0.329216	0.938199	-0.935234	0.287084	-0.207170
2	1907103													9.198915	-1.004058	-3.253445	-0.336578	-0.899563	0.278392	-0.106021	0.329963	0.938021	-0.935668	0.286202	-0.206431
3	1907269													9.142903	-1.014794	-3.278918	-0.335216	-0.900064	0.278416	-0.105506	0.329518	0.938236	-0.936215	0.285137	-0.205422
4	1907769													9.079063	-1.020468	-3.269429	-0.334481	-0.900505	0.277872	-0.105410	0.328754	0.938515	-0.936489	0.284625	-0.204884
5	1907936													9.029862	-1.032379	-3.278210	-0.334247	-0.900605	0.277829	-0.105591	0.328711	0.938509	-0.936552	0.284358	-0.204966
6	1908103													9.038150	-1.019484	-3.262070	-0.334484	-0.900694	0.277257	-0.105868	0.328252	0.938639	-0.936436	0.284607	-0.205149
7	1908269													9.059804	-1.040221	-3.267945	-0.334886	-0.900678	0.276822	-0.106074	0.327953	0.938720	-0.936269	0.285001	-0.205365
8	1908436													9.076486	-1.072255	-3.273811	-0.335356	-0.900568	0.276610	-0.106353	0.327925	0.938698	-0.936069	0.285379	-0.205750
9	1908603													9.135902	-1.064011	-3.284274	-0.335823	-0.900479	0.276333	-0.106726	0.327858	0.938679	-0.935859	0.285738	-0.206207
10	1908769													9.188418	-1.057025	-3.281211	-0.336152	-0.900558	0.275676	-0.107132	0.327373	0.938802	-0.935695	0.286047	-0.206526
11	1908936													9.184640	-1.068812	-3.315396	-0.336278	-0.900562	0.275509	-0.107580	0.327364	0.938754	-0.935598	0.286043	-0.206968
12	1909103													9.165516	-1.106572	-3.321122	-0.336244	-0.900645	0.275278	-0.108076	0.327268	0.938731	-0.935553	0.285891	-0.207380
13	1909269													9.162254	-1.041032	-3.321856	-0.336146	-0.900826	0.274805	-0.108496	0.326880	0.938817	-0.935540	0.285764	-0.207615
14	1909436													9.112897	-1.031234	-3.324990	-0.336018	-0.900908	0.274694	-0.108679	0.326791	0.938827	-0.935564	0.285609	-0.207717
15	1909603													9.130458	-1.069471	-3.248730	-0.335909	-0.901009	0.274496	-0.108842	0.326608	0.938872	-0.935585	0.285498	-0.207778
16	1909769													9.143206	-1.066698	-3.258831	-0.335727	-0.901116	0.274367	-0.109085	0.326507	0.938879	-0.935622	0.285277	-0.207915
17	1909936													9.141292	-1.045246	-3.237355	-0.335506	-0.901197	0.274370	-0.109370	0.326545	0.938832	-0.935668	0.284976	-0.208122
18	1910103													9.114124	-1.054397	-3.214665	-0.335239	-0.901283	0.274414	-0.109638	0.326611	0.938778	-0.935732	0.284629	-0.208308
19	1910269													9.033010	-1.096741	-3.223867	-0.335060	-0.901370	0.274349	-0.109961	0.326600	0.938744	-0.935758	0.284368	-0.208546
20	1910436													9.059258	-1.085674	-3.244422	-0.335075	-0.901421	0.274163	-0.110349	0.326528	0.938724	-0.935707	0.284289	-0.208882
21	1910603													9.101413	-1.070671	-3.240434	-0.335261	-0.901416	0.273951	-0.110692	0.326454	0.938709	-0.935600	0.284389	-0.209227
22	1910769													9.158460	-1.099034	-3.225782	-0.335445	-0.901402	0.273771	-0.111018	0.326409	0.938687	-0.935495	0.284484	-0.209564
23	1910936													9.195109	-1.128081	-3.266472	-0.335584	-0.901457	0.273421	-0.111292	0.326161	0.938740	-0.935413	0.284597	-0.209780
24	1911103													9.223084	-1.079899	-3.229968	-0.335631	-0.901557	0.273032	-0.111587	0.325856	0.938811	-0.935361	0.284627	-0.209970
25	1911269													9.088447	-1.081937	-3.246505	-0.335614	-0.901681	0.272643	-0.111921	0.325548	0.938878	-0.935327	0.284586	-0.210176
26	1911436													9.072814	-1.069568	-3.266667	-0.335695	-0.901777	0.272225	-0.112305	0.325249	0.938936	-0.935252	0.284624	-0.210458
27	1911603													9.035537	-1.028866	-3.240541	-0.335916	-0.901769	0.271980	-0.112641	0.325148	0.938931	-0.935132	0.284766	-0.210798
28	1911769													9.101795	-1.049015	-3.255320	-0.336305	-0.901673	0.271815	-0.112864	0.325136	0.938908	-0.934965	0.285082	-0.211112
29	1911936													9.123741	-1.113685	-3.269506	-0.336704	-0.901533	0.271788	-0.113067	0.325263	0.938840	-0.934797	0.285381	-0.211451
30	1912103													9.155233	-1.148073	-3.288001	-0.337076	-0.901419	0.271704	-0.113331	0.325344	0.938780	-0.934631	0.285647	-0.211825
31	1912269													9.142368	-1.140988	-3.273834	-0.337364	-0.901335	0.271626	-0.113627	0.325421	0.938717	-0.934491	0.285826	-0.212201
32	1912436													9.103293	-1.118354	-3.302070	-0.337575	-0.901305	0.271464	-0.113865	0.325375	0.938704	-0.934386	0.285973	-0.212465
33	1912603													9.076632	-1.091385	-3.308292	-0.337829	-0.901243	0.271354	-0.114001	0.325362	0.938692	-0.934278	0.286183	-0.212660
34	1912769													9.085122	-1.081555	-3.323266	-0.338098	-0.901166	0.271275	-0.114037	0.325355	0.938690	-0.934176	0.286434	-0.212768
35	1912936													9.126074	-1.085897	-3.339052	-0.338356	-0.901083	0.271227	-0.114002	0.325355	0.938695	-0.934087	0.286693	-0.212811
36	1913103													9.144627	-1.064426	-3.344759	-0.338552	-0.900963	0.271384	-0.113958	0.325552	0.938632	-0.934022	0.286849	-0.212888
37	1913269													9.152920	-1.058214	-3.328480	-0.338629	-0.900896	0.271510	-0.113905	0.325685	0.938592	-0.934000	0.286908	-0.212903
38	1913436													9.124807	-1.041849	-3.321821	-0.338596	-0.900835	0.271752	-0.113848	0.325913	0.938520	-0.934019	0.286840	-0.212911
39	1913603													9.089703	-1.045796	-3.322775	-0.338509	-0.900795	0.271991	-0.113714	0.326100	0.938471	-0.934067	0.286752	-0.212821
40	1913770													9.114444	-1.052680	-3.355339	-0.338484	-0.900728	0.272244	-0.113607	0.326324	0.938406	-0.934089	0.286707	-0.212784
41	1913936													9.158752	-1.086865	-3.299964	-0.338425	-0.900655	0.272560	-0.113542	0.326620	0.938311	-0.934118	0.286601	-0.212798
42	1914103													9.144494	-1.101261	-3.292852	-0.338242	-0.900680	0.272705	-0.113575	0.326737	0.938266	-0.934180	0.286388	-0.212811
43	1914270													9.150117	-1.073534	-3.300120	-0.338011	-0.900693	0.272947	-0.113650	0.326958	0.938180	-0.934255	0.286095	-0.212880
44	1914436													9.084960	-1.079317	-3.307010	-0.337729	-0.900783	0.273001	-0.113751	0.326978	0.938161	-0.934344	0.285790	-0.212895
45	1914603													9.073956	-1.073573	-3.320413	-0.337518	-0.900868	0.272981	-0.113861	0.326940	0.938161	-0.934408	0.285564	-0.212922
46	1914770													9.080716	-1.052310	-3.294556	-0.337355	-0.900961	0.272876	-0.113917	0.326810	0.938200	-0.934459	0.285421	-0.212886
47	1914936													9.088198	-1.036546	-3.303879	-0.337239	-0.901037	0.272766	-0.113908	0.326665	0.938251	-0.934502	0.285345	-0.212799
48	1915103													9.133122	-1.035137	-3.312255	-0.337161	-0.901065	0.272772	-0.113874	0.326643	0.938263	-0.934535	0.285284	-0.212739
49	1915270													9.170057	-1.041252	-3.292332	-0.337029	-0.901080	0.272886	-0.113863	0.326726	0.938235	-0.934584	0.285140	-0.212716
50	1915436													9.135242	-1.022234	-3.271160	-0.336862	-0.901115	0.272976	-0.113937	0.326802	0.938200	-0.934635	0.284942	-0.212757
51	1915603													9.125633	-1.049526	-3.262493	-0.336694	-0.901174	0.272987	-0.114099	0.326824	0.938172	-0.934676	0.284730	-0.212863
52	1915770													9.081756	-1.070775	-3.289854	-0.336594	-0.901232	0.272920	-0.114307	0.326794	0.938157	-0.934686	0.284582	-0.213014
53	1915936													9.126805	-1.015657	-3.265646	-0.336549	-0.901209	0.273052	-0.114369	0.326940	0.938099	-0.934695	0.284488	-0.213101
54	1916103													9.142009	-1.048676	-3.255175	-0.336486	-0.901188	0.273197	-0.114300	0.327054	0.938068	-0.934726	0.284420	-0.213055
55	1916270													9.150963	-1.091763	-3.264273	-0.336356	-0.901215	0.273268	-0.114347	0.327112	0.938042	-0.934767	0.284269	-0.213077
56	1916436													9.183751	-1.054812	-3.264378	-0.336139	-0.901262	0.273382	-0.114493	0.327224	0.937985	-0.934827	0.283993	-0.213181
57	1916603													9.155632	-1.023661	-3.246598	-0.335851	-0.901347	0.273455	-0.114643	0.327277	0.937948	-0.934912	0.283661	-0.213250
58	1916770													9.089861	-1.044863	-3.241510	-0.335563	-0.901430	0.273536	-0.114796	0.327338	0.937908	-0.934997	0.283326	-0.213323
59	1916936													9.067050	-1.082158	-3.237582	-0.335388	-0.901490	0.273553	-0.115016	0.327381	0.937866	-0.935033	0.283086	-0.213485
60	1917103													9.089205	-1.087386	-3.236829	-0.335349	-0.901537	0.273443	-0.115317	0.327349	0.937840	-0.935010	0.282971	-0.213739
61	1917270													9.116271	-1.072587	-3.241463	-0.335345	-0.901585	0.273291	-0.115604	0.327277	0.937830	-0.934976	0.282903	-0.213977
62	1917436													9.101447	-1.059282	-3.244379	-0.335388	-0.901631	0.273087	-0.115854	0.327150	0.937844	-0.934929	0.282903	-0.214179
63	1917603													9.122442	-1.054618	-3.270352	-0.335522	-0.901675	0.272779	-0.116059	0.326924	0.937897	-0.934856	0.283026	-0.214338
64	1917770													9.086108	-1.065973	-3.259931	-0.335660	-0.901671	0.272621	-0.116248	0.326850	0.937900	-0.934783	0.283124	-0.214528
65	1917936													9.100064	-1.082445	-3.282126	-0.335896	-0.901682	0.272292	-0.116573	0.326662	0.937925	-0.934658	0.283303	-0.214836
66	1918103													9.107403	-1.041786	-3.261378	-0.336182	-0.901681	0.271943	-0.116934	0.326477	0.937944	-0.934510	0.283520	-0.215193
67	1918270													9.139270	-1.014415	-3.283600	-0.336527	-0.901612	0.271743	-0.117168	0.326423	0.937934	-0.934356	0.283801	-0.215490
68	1918436													9.156047	-1.050888	-3.288726	-0.336806	-0.901529	0.271676	-0.117293	0.326458	0.937906	-0.934240	0.284027	-0.215696
69	1918603													9.133788	-1.075665	-3.311122	-0.337035	-0.901501	0.271484	-0.117377	0.326339	0.937937	-0.934147	0.284251	-0.215802
70	1918770													9.120056	-1.082324	-3.306868	-0.337226	-0.901415	0.271533	-0.117479	0.326467	0.937879	-0.934065	0.284378	-0.215991
71	1918936													9.079531	-1.087954	-3.312596	-0.337444	-0.901352	0.271470	-0.117595	0.326489	0.937858	-0.933972	0.284551	-0.216166
72	1919103													9.063882	-1.082542	-3.297232	-0.337681	-0.901291	0.271377	-0.117715	0.326486	0.937843	-0.933871	0.284747	-0.216343
73	1919270													9.087436	-1.079135	-3.309234	-0.337950	-0.901207	0.271324	-0.117837	0.326533	0.937812	-0.933758	0.284962	-0.216547
74	1919436													9.119546	-1.070354	-3.337008	-0.338201	-0.901141	0.271227	-0.117914	0.326516	0.937808	-0.933657	0.285186	-0.216685
75	1919603													9.145298	-1.079238	-3.318212	-0.338384	-0.901078	0.271209	-0.117986	0.326564	0.937782	-0.933582	0.285332	-0.216819
76	1919770													9.168594	-1.094734	-3.322161	-0.338462	-0.901089	0.271077	-0.118100	0.326480	0.937797	-0.933539	0.285395	-0.216920
77	1919936													9.160498	-1.078384	-3.313642	-0.338440	-0.901132	0.270961	-0.118273	0.326407	0.937800	-0.933526	0.285341	-0.217049
78	1920103													9.133863	-1.081513	-3.298196	-0.338346	-0.901142	0.271044	-0.118478	0.326533	0.937731	-0.933534	0.285164	-0.217247
79	1920270													9.109848	-1.071631	-3.293557	-0.338250	-0.901208	0.270944	-0.118748	0.326488	0.937712	-0.933534	0.285007	-0.217452
80	1920436													9.108313	-1.079717	-3.303461	-0.338166	-0.901271	0.270840	-0.118990	0.326434	0.937701	-0.933534	0.284871	-0.217631
81	1920603													9.093828	-1.090771	-3.277124	-0.338070	-0.901344	0.270718	-0.119252	0.326364	0.937692	-0.933535	0.284722	-0.217821
82	1920770													9.077846	-1.100891	-3.301595	-0.338036	-0.901403	0.270562	-0.119538	0.326280	0.937684	-0.933511	0.284629	-0.218047
83	1920936													9.101571	-1.114617	-3.291362	-0.338048	-0.901432	0.270452	-0.119764	0.326237	0.937670	-0.933477	0.284587	-0.218243
84	1921103													9.098813	-1.096848	-3.303648	-0.338048	-0.901459	0.270360	-0.119943	0.326196	0.937662	-0.933454	0.284547	-0.218394
85	1921270													9.131034	-1.082579	-3.313667	-0.338055	-0.901516	0.270162	-0.120036	0.326020	0.937711	-0.933440	0.284569	-0.218428
86	1921436													9.136726	-1.084546	-3.289878	-0.338011	-0.901589	0.269974	-0.120104	0.325834	0.937767	-0.933447	0.284551	-0.218420
87	1921603													9.087318	-1.110462	-3.319289	-0.337955	-0.901596	0.270021	-0.120224	0.325906	0.937727	-0.933452	0.284447	-0.218535
88	1921770													9.141814	-1.077328	-3.311803	-0.337910	-0.901658	0.269870	-0.120462	0.325811	0.937729	-0.933438	0.284359	-0.218710
89	1921936													9.148021	-1.074606	-3.314342	-0.337796	-0.901696	0.269886	-0.120697	0.325872	0.937678	-0.933448	0.284170	-0.218910
90	1922103													9.122115	-1.102471	-3.311282	-0.337637	-0.901756	0.269882	-0.120982	0.325915	0.937626	-0.933469	0.283927	-0.219137
91	1922270													9.088306	-1.150380	-3.325532	-0.337373	-0.901868	0.269841	-0.121327	0.325913	0.937582	-0.933520	0.283576	-0.219375
92	1922436													9.120494	-1.079410	-3.353637	-0.337144	-0.901993	0.269708	-0.121488	0.325768	0.937612	-0.933582	0.283343	-0.219412
93	1922603													9.154824	-1.088656	-3.335794	-0.336878	-0.902084	0.269736	-0.121485	0.325731	0.937625	-0.933678	0.283096	-0.219322
94	1922770													9.206546	-1.123344	-3.303022	-0.336520	-0.902227	0.269706	-0.121471	0.325609	0.937669	-0.933809	0.282783	-0.219168
95	1922936													9.221965	-1.083293	-3.273714	-0.335973	-0.902416	0.269754	-0.121607	0.325566	0.937666	-0.933988	0.282226	-0.219122
96	1923103													9.160926	-1.028419	-3.244004	-0.335240	-0.902619	0.269986	-0.121791	0.325684	0.937602	-0.934227	0.281440	-0.219113
97	1923270													9.105125	-1.021801	-3.220171	-0.334456	-0.902856	0.270166	-0.121930	0.325721	0.937571	-0.934490	0.280635	-0.219025
98	1923436													9.029426	-1.082181	-3.234788	-0.333780	-0.903026	0.270436	-0.122098	0.325888	0.937491	-0.934710	0.279896	-0.219033
99	1923603													9.010891	-1.126616	-3.232060	-0.333277	-0.903155	0.270626	-0.122378	0.326046	0.937399	-0.934853	0.279295	-0.219190
100	1923770													9.035418	-1.102474	-3.240669	-0.332968	-0.903314	0.270474	-0.122731	0.325919	0.937397	-0.934917	0.278928	-0.219385
101	1923936													9.107118	-1.094326	-3.254313	-0.332852	-0.903360	0.270462	-0.123025	0.325966	0.937343	-0.934919	0.278723	-0.219634
102	1924103													9.144205	-1.101181	-3.260336	-0.332763	-0.903471	0.270202	-0.123287	0.325753	0.937382	-0.934917	0.278614	-0.219785
103	1924270													9.134646	-1.138278	-3.256967	-0.332651	-0.903597	0.269918	-0.123537	0.325505	0.937436	-0.934924	0.278494	-0.219907
104	1924436													9.162875	-1.181300	-3.259875	-0.332569	-0.903753	0.269497	-0.123903	0.325157	0.937508	-0.934904	0.278394	-0.220115
105	1924603													9.170796	-1.116454	-3.282908	-0.332403	-0.903990	0.268907	-0.124349	0.324638	0.937629	-0.934904	0.278232	-0.220321
106	1924770													9.148288	-1.060375	-3.252570	-0.332211	-0.904212	0.268394	-0.124684	0.324158	0.937750	-0.934927	0.278067	-0.220430
107	1924936													9.160554	-1.062108	-3.251109	-0.332003	-0.904376	0.268101	-0.124950	0.323882	0.937810	-0.934966	0.277857	-0.220531
108	1925103													9.148137	-1.085483	-3.257074	-0.331809	-0.904514	0.267875	-0.125245	0.323688	0.937838	-0.934995	0.277633	-0.220689
109	1925270													9.133534	-1.088911	-3.242111	-0.331642	-0.904621	0.267722	-0.125563	0.323583	0.937831	-0.935012	0.277408	-0.220900
110	1925436													9.082383	-1.073518	-3.241963	-0.331488	-0.904688	0.267684	-0.125870	0.323598	0.937785	-0.935025	0.277171	-0.221142
111	1925603													9.066743	-1.074009	-3.235585	-0.331414	-0.904688	0.267776	-0.126058	0.323730	0.937714	-0.935026	0.277016	-0.221332
112	1925770													9.069405	-1.122961	-3.223167	-0.331444	-0.904630	0.267934	-0.126155	0.323930	0.937632	-0.935003	0.276971	-0.221488
113	1925936													9.115271	-1.150980	-3.248486	-0.331508	-0.904551	0.268123	-0.126196	0.324154	0.937549	-0.934974	0.276969	-0.221610
114	1926103													9.178046	-1.157929	-3.256941	-0.331537	-0.904487	0.268305	-0.126234	0.324360	0.937473	-0.934959	0.276937	-0.221714
115	1926270													9.222871	-1.157872	-3.229212	-0.331487	-0.904503	0.268309	-0.126257	0.324360	0.937470	-0.934973	0.276884	-0.221721
116	1926436													9.234445	-1.134458	-3.233471	-0.331245	-0.904553	0.268441	-0.126258	0.324437	0.937443	-0.935059	0.276631	-0.221675
117	1926603													9.210128	-1.115423	-3.217525	-0.330828	-0.904694	0.268480	-0.126276	0.324381	0.937460	-0.935204	0.276235	-0.221556
118	1926770													9.147768	-1.119627	-3.222751	-0.330314	-0.904873	0.268511	-0.126324	0.324301	0.937481	-0.935379	0.275744	-0.221428
119	1926936													9.071960	-1.123871	-3.238571	-0.329827	-0.905030	0.268579	-0.126443	0.324287	0.937470	-0.935535	0.275243	-0.221393
120	1927103													9.078397	-1.124851	-3.199196	-0.329430	-0.905189	0.268529	-0.126625	0.324191	0.937479	-0.935650	0.274832	-0.221418
121	1927270													9.089193	-1.133366	-3.198468	-0.329168	-0.905317	0.268420	-0.126875	0.324087	0.937481	-0.935709	0.274533	-0.221541
122	1927436													9.128992	-1.149567	-3.196393	-0.328924	-0.905464	0.268222	-0.127182	0.323913	0.937499	-0.935753	0.274253	-0.221702
123	1927603													9.132771	-1.188116	-3.200006	-0.328690	-0.905620	0.267984	-0.127517	0.323707	0.937525	-0.935790	0.273983	-0.221881
124	1927770													9.120758	-1.167954	-3.210771	-0.328496	-0.905773	0.267706	-0.127843	0.323466	0.937564	-0.935813	0.273761	-0.222055
125	1927936													9.115970	-1.163016	-3.206222	-0.328363	-0.905944	0.267287	-0.128089	0.323073	0.937666	-0.935826	0.273658	-0.222127
126	1928103													9.081326	-1.158862	-3.198781	-0.328303	-0.906059	0.266971	-0.128270	0.322784	0.937741	-0.935823	0.273618	-0.222191
127	1928270													9.180358	-1.132784	-3.224627	-0.328322	-0.906138	0.266680	-0.128427	0.322533	0.937806	-0.935794	0.273654	-0.222267
128	1928436													9.193373	-1.135831	-3.189108	-0.328232	-0.906228	0.266484	-0.128581	0.322353	0.937846	-0.935805	0.273566	-0.222330
129	1928603													9.155614	-1.142821	-3.205896	-0.328039	-0.906331	0.266372	-0.128747	0.322238	0.937863	-0.935850	0.273361	-0.222394
130	1928770													9.100241	-1.147741	-3.237871	-0.327866	-0.906438	0.266222	-0.128950	0.322100	0.937883	-0.935882	0.273171	-0.222491
131	1928936													9.134133	-1.122428	-3.242083	-0.327758	-0.906507	0.266119	-0.129045	0.321994	0.937906	-0.935907	0.273065	-0.222516
132	1929103													9.188242	-1.130089	-3.218172	-0.327661	-0.906531	0.266158	-0.128900	0.321968	0.937935	-0.935961	0.273017	-0.222348
133	1929270													9.218107	-1.188835	-3.186354	-0.327464	-0.906557	0.266312	-0.128758	0.322038	0.937930	-0.936049	0.272848	-0.222183
134	1929436													9.224714	-1.193108	-3.199581	-0.327083	-0.906694	0.266314	-0.128781	0.321953	0.937956	-0.936180	0.272493	-0.222070
135	1929603													9.213995	-1.159780	-3.166475	-0.326532	-0.906887	0.266332	-0.128869	0.321862	0.937975	-0.936360	0.271956	-0.221968
136	1929770													9.129770	-1.089346	-3.169763	-0.325846	-0.907100	0.266446	-0.128888	0.321818	0.937988	-0.936596	0.271298	-0.221778
137	1929936													9.100340	-1.120746	-3.129338	-0.325258	-0.907233	0.266711	-0.128835	0.321932	0.937956	-0.936808	0.270716	-0.221594
138	1930103													9.105852	-1.182907	-3.145532	-0.324770	-0.907383	0.266799	-0.128917	0.321927	0.937946	-0.936966	0.270222	-0.221530
139	1930270													9.167740	-1.168795	-3.134213	-0.324364	-0.907526	0.266806	-0.129093	0.321886	0.937936	-0.937082	0.269790	-0.221563
140	1930437													9.182671	-1.139093	-3.162747	-0.323958	-0.907673	0.266798	-0.129244	0.321822	0.937937	-0.937202	0.269370	-0.221568
141	1930603													9.151936	-1.116959	-3.149423	-0.323640	-0.907768	0.266859	-0.129326	0.321831	0.937923	-0.937300	0.269038	-0.221556
142	1930770													9.121380	-1.157080	-3.107805	-0.323357	-0.907831	0.266989	-0.129260	0.321878	0.937916	-0.937407	0.268770	-0.221428
143	1930937													9.081803	-1.212810	-3.128005	-0.323295	-0.907868	0.266940	-0.129308	0.321825	0.937928	-0.937422	0.268710	-0.221439
144	1931103													9.132715	-1.175131	-3.145770	-0.323309	-0.907912	0.266772	-0.129453	0.321696	0.937952	-0.937397	0.268714	-0.221539
145	1931270													9.147902	-1.118185	-3.129797	-0.323425	-0.907899	0.266673	-0.129525	0.321644	0.937960	-0.937347	0.268819	-0.221624
146	1931437													9.185534	-1.090253	-3.127286	-0.323592	-0.907845	0.266656	-0.129493	0.321658	0.937959	-0.937294	0.268986	-0.221646
147	1931603													9.163049	-1.123666	-3.121822	-0.323780	-0.907769	0.266689	-0.129436	0.321721	0.937945	-0.937237	0.269168	-0.221665
148	1931770													9.174882	-1.174835	-3.125874	-0.323988	-0.907692	0.266697	-0.129495	0.321798	0.937911	-0.937157	0.269336	-0.221801
149	1931937													9.157427	-1.188018	-3.123605	-0.324208	-0.907655	0.266556	-0.129625	0.321743	0.937912	-0.937063	0.269527	-0.221966
150	1932103													9.132895	-1.131576	-3.133432	-0.324453	-0.907621	0.266372	-0.129757	0.321651	0.937925	-0.936960	0.269749	-0.222131
151	1932270													9.124642	-1.161464	-3.143099	-0.324714	-0.907564	0.266250	-0.129794	0.321599	0.937938	-0.936864	0.270004	-0.222224
152	1932437													9.142367	-1.159066	-3.153265	-0.325026	-0.907502	0.266078	-0.129736	0.321481	0.937986	-0.936764	0.270350	-0.222226
153	1932603													9.147661	-1.163680	-3.161624	-0.325345	-0.907405	0.266022	-0.129619	0.321467	0.938007	-0.936669	0.270694	-0.222204
154	1932770													9.172409	-1.166497	-3.176282	-0.325701	-0.907327	0.265852	-0.129496	0.321344	0.938067	-0.936563	0.271103	-0.222157
155	1932937													9.210045	-1.094031	-3.191201	-0.326007	-0.907219	0.265845	-0.129357	0.321371	0.938076	-0.936475	0.271431	-0.222124
156	1933103													9.177052	-1.083652	-3.175830	-0.326276	-0.907090	0.265954	-0.129212	0.321508	0.938050	-0.936402	0.271699	-0.222107
157	1933270													9.164215	-1.080910	-3.181743	-0.326554	-0.906926	0.266172	-0.128995	0.321739	0.938000	-0.936335	0.271973	-0.222054
158	1933437													9.146206	-1.112606	-3.182884	-0.326837	-0.906712	0.266553	-0.128788	0.322142	0.937890	-0.936264	0.272209	-0.222061
159	1933603													9.142694	-1.150020	-3.183069	-0.327153	-0.906536	0.266765	-0.128719	0.322419	0.937804	-0.936164	0.272467	-0.222169
160	1933770													9.128865	-1.175478	-3.186031	-0.327501	-0.906380	0.266868	-0.128751	0.322620	0.937731	-0.936038	0.272748	-0.222356
161	1933937													9.097900	-1.167904	-3.205573	-0.327871	-0.906252	0.266847	-0.128887	0.322729	0.937675	-0.935889	0.273043	-0.222618
162	1934103													9.111835	-1.176997	-3.209730	-0.328293	-0.906150	0.266674	-0.129078	0.322709	0.937655	-0.935715	0.273404	-0.222907
163	1934270													9.128740	-1.157060	-3.218550	-0.328761	-0.906042	0.266467	-0.129174	0.322639	0.937666	-0.935538	0.273847	-0.223108
164	1934437													9.158477	-1.157047	-3.237429	-0.329244	-0.905953	0.266171	-0.129232	0.322469	0.937717	-0.935359	0.274340	-0.223249
165	1934603													9.164077	-1.169438	-3.239541	-0.329692	-0.905893	0.265821	-0.129299	0.322237	0.937787	-0.935193	0.274810	-0.223370
166	1934770													9.137608	-1.160434	-3.279600	-0.330038	-0.905903	0.265357	-0.129428	0.321881	0.937892	-0.935052	0.275195	-0.223482
167	1934937													9.079906	-1.120009	-3.262046	-0.330432	-0.905893	0.264899	-0.129602	0.321555	0.937980	-0.934889	0.275607	-0.223658
168	1935103													9.165267	-1.118511	-3.265894	-0.330912	-0.905833	0.264506	-0.129716	0.321300	0.938051	-0.934704	0.276102	-0.223823
169	1935270													9.252357	-1.095960	-3.272413	-0.331300	-0.905756	0.264286	-0.129648	0.321148	0.938113	-0.934576	0.276533	-0.223826
170	1935437													9.208734	-1.132302	-3.249435	-0.331481	-0.905712	0.264209	-0.129506	0.321072	0.938158	-0.934531	0.276765	-0.223725
171	1935603													9.145846	-1.152708	-3.238317	-0.331493	-0.905718	0.264174	-0.129495	0.321036	0.938172	-0.934529	0.276788	-0.223707
172	1935770													9.075249	-1.117810	-3.236988	-0.331445	-0.905744	0.264145	-0.129594	0.321022	0.938163	-0.934532	0.276718	-0.223780
173	1935937													9.083167	-1.098217	-3.228204	-0.331459	-0.905715	0.264227	-0.129695	0.321141	0.938109	-0.934513	0.276675	-0.223912
174	1936103													9.104390	-1.129151	-3.223437	-0.331504	-0.905656	0.264371	-0.129708	0.321305	0.938050	-0.934495	0.276676	-0.223984
175	1936270													9.122149	-1.194643	-3.222967	-0.331515	-0.905622	0.264474	-0.129804	0.321443	0.937990	-0.934478	0.276628	-0.224116
176	1936437													9.124417	-1.201393	-3.250374	-0.331502	-0.905639	0.264434	-0.129986	0.321452	0.937962	-0.934457	0.276563	-0.224283
177	1936603													9.083096	-1.185642	-3.246599	-0.331511	-0.905691	0.264242	-0.130233	0.321329	0.937970	-0.934420	0.276534	-0.224474
178	1936770													9.111314	-1.180532	-3.257748	-0.331623	-0.905722	0.263994	-0.130479	0.321173	0.937989	-0.934345	0.276613	-0.224686
179	1936937													9.144485	-1.197100	-3.255402	-0.331775	-0.905779	0.263610	-0.130607	0.320851	0.938081	-0.934273	0.276803	-0.224752
180	1937103													9.139475	-1.214643	-3.233573	-0.331947	-0.905833	0.263207	-0.130691	0.320501	0.938189	-0.934201	0.277030	-0.224774
181	1937270													9.189328	-1.225210	-3.261484	-0.332040	-0.905918	0.262795	-0.130841	0.320142	0.938291	-0.934147	0.277166	-0.224831
182	1937437													9.132252	-1.108059	-3.256966	-0.332101	-0.906006	0.262415	-0.130905	0.319782	0.938405	-0.934116	0.277294	-0.224801
183	1937603													9.095426	-1.080658	-3.235177	-0.332246	-0.906003	0.262242	-0.130856	0.319625	0.938465	-0.934072	0.277485	-0.224750
184	1937770													9.066268	-1.107130	-3.250222	-0.332466	-0.905909	0.262290	-0.130743	0.319696	0.938457	-0.934009	0.277712	-0.224729
185	1937937													9.106835	-1.150878	-3.252154	-0.332785	-0.905751	0.262429	-0.130699	0.319907	0.938391	-0.933902	0.277983	-0.224841
186	1938103													9.107625	-1.176753	-3.260058	-0.333116	-0.905591	0.262562	-0.130706	0.320129	0.938314	-0.933783	0.278249	-0.225006
187	1938270													9.130602	-1.193262	-3.254504	-0.333390	-0.905453	0.262688	-0.130710	0.320329	0.938245	-0.933684	0.278466	-0.225147
188	1938437													9.095978	-1.218358	-3.271981	-0.333566	-0.905361	0.262785	-0.130672	0.320462	0.938205	-0.933627	0.278615	-0.225200
189	1938603													9.115069	-1.208247	-3.274036	-0.333702	-0.905314	0.262774	-0.130588	0.320460	0.938218	-0.933590	0.278770	-0.225161
190	1938770													9.147095	-1.210156	-3.286731	-0.333755	-0.905316	0.262698	-0.130458	0.320355	0.938271	-0.933589	0.278882	-0.225026
191	1938937													9.158953	-1.188127	-3.276210	-0.333726	-0.905358	0.262592	-0.130332	0.320201	0.938342	-0.933617	0.278925	-0.224857
192	1939103													9.180682	-1.142226	-3.293433	-0.333586	-0.905415	0.262571	-0.130229	0.320113	0.938386	-0.933681	0.278838	-0.224696
193	1939270													9.184163	-1.124780	-3.278747	-0.333327	-0.905528	0.262513	-0.130143	0.319962	0.938449	-0.933786	0.278646	-0.224500
194	1939437													9.167063	-1.115381	-3.259519	-0.332939	-0.905630	0.262652	-0.130062	0.319986	0.938452	-0.933936	0.278286	-0.224323
195	1939603													9.133910	-1.107083	-3.264621	-0.332498	-0.905743	0.262821	-0.130026	0.320041	0.938439	-0.934098	0.277855	-0.224183
196	1939770													9.101247	-1.127455	-3.260313	-0.332017	-0.905847	0.263068	-0.130041	0.320182	0.938388	-0.934267	0.277351	-0.224103
197	1939937													9.076015	-1.162023	-3.253647	-0.331587	-0.905932	0.263320	-0.130145	0.320366	0.938311	-0.934405	0.276862	-0.224132
198	1940103													9.096295	-1.188694	-3.247375	-0.331262	-0.905994	0.263517	-0.130280	0.320530	0.938236	-0.934501	0.276471	-0.224213
199	1940270													9.156551	-1.176996	-3.232083	-0.331003	-0.906052	0.263642	-0.130377	0.320624	0.938191	-0.934579	0.276171	-0.224256
200	1940437													9.171930	-1.184003	-3.232050	-0.330698	-0.906147	0.263698	-0.130381	0.320607	0.938196	-0.934687	0.275879	-0.224168
201	1940603													9.147025	-1.186127	-3.220613	-0.330325	-0.906294	0.263658	-0.130354	0.320465	0.938248	-0.934822	0.275558	-0.223997
202	1940770													9.046375	-1.161451	-3.191346	-0.330044	-0.906418	0.263585	-0.130322	0.320310	0.938306	-0.934926	0.275331	-0.223843
203	1940937													9.109355	-1.151485	-3.216366	-0.329948	-0.906482	0.263488	-0.130250	0.320165	0.938365	-0.934970	0.275292	-0.223707
204	1941103													9.125143	-1.152200	-3.218140	-0.329907	-0.906534	0.263358	-0.130205	0.320007	0.938425	-0.934991	0.275302	-0.223608
205	1941270													9.084947	-1.142022	-3.191061	-0.329910	-0.906565	0.263248	-0.130198	0.319892	0.938465	-0.934991	0.275335	-0.223569
206	1941437													9.108340	-1.138415	-3.256071	-0.330033	-0.906551	0.263144	-0.130263	0.319833	0.938477	-0.934939	0.275450	-0.223645
207	1941603													9.158828	-1.121978	-3.252478	-0.330186	-0.906503	0.263115	-0.130188	0.319820	0.938492	-0.934895	0.275622	-0.223615
208	1941770													9.208676	-1.156016	-3.220729	-0.330272	-0.906450	0.263188	-0.130010	0.319864	0.938501	-0.934889	0.275744	-0.223490
209	1941937													9.213680	-1.188363	-3.216201	-0.330148	-0.906479	0.263245	-0.129935	0.319870	0.938509	-0.934943	0.275642	-0.223388
210	1942103													9.207392	-1.173163	-3.198663	-0.329780	-0.906600	0.263291	-0.129932	0.319826	0.938525	-0.935074	0.275297	-0.223269
211	1942270													9.182317	-1.133914	-3.195201	-0.329304	-0.906751	0.263365	-0.129902	0.319776	0.938546	-0.935246	0.274856	-0.223092
212	1942437													9.130092	-1.124841	-3.167792	-0.328766	-0.906887	0.263568	-0.129842	0.319836	0.938534	-0.935443	0.274336	-0.222904
213	1942603													9.092825	-1.135465	-3.156738	-0.328315	-0.906993	0.263767	-0.129763	0.319907	0.938521	-0.935613	0.273903	-0.222725
214	1942770													9.078835	-1.151246	-3.191190	-0.328019	-0.907060	0.263903	-0.129718	0.319963	0.938508	-0.935723	0.273616	-0.222616
215	1942937													9.091692	-1.131057	-3.169226	-0.327850	-0.907082	0.264039	-0.129648	0.320041	0.938491	-0.935792	0.273452	-0.222527
216	1943103													9.107970	-1.137152	-3.187495	-0.327811	-0.907047	0.264207	-0.129595	0.320190	0.938447	-0.935813	0.273394	-0.222510
217	1943270													9.149752	-1.157439	-3.176252	-0.327865	-0.906994	0.264322	-0.129527	0.320302	0.938418	-0.935803	0.273437	-0.222496
218	1943437													9.104649	-1.169112	-3.172933	-0.327894	-0.906956	0.264418	-0.129456	0.320387	0.938399	-0.935803	0.273465	-0.222464
219	1943603													9.123967	-1.210407	-3.192111	-0.328057	-0.906898	0.264414	-0.129498	0.320436	0.938377	-0.935740	0.273600	-0.222563
220	1943770													9.173828	-1.186489	-3.230357	-0.328212	-0.906894	0.264233	-0.129600	0.320317	0.938403	-0.935671	0.273751	-0.222666
221	1943937													9.155864	-1.137507	-3.205966	-0.328316	-0.906913	0.264040	-0.129599	0.320143	0.938463	-0.935635	0.273893	-0.222643
222	1944103													9.153488	-1.157614	-3.234866	-0.328413	-0.906947	0.263804	-0.129659	0.319940	0.938524	-0.935593	0.274019	-0.222666
223	1944270													9.123383	-1.154322	-3.230261	-0.328524	-0.906969	0.263588	-0.129771	0.319776	0.938564	-0.935538	0.274135	-0.222753
224	1944437													9.140919	-1.131763	-3.232171	-0.328671	-0.906977	0.263380	-0.129917	0.319640	0.938590	-0.935466	0.274270	-0.222888
225	1944603													9.127553	-1.127146	-3.214195	-0.328774	-0.906975	0.263256	-0.130020	0.319568	0.938601	-0.935416	0.274359	-0.222990
226	1944770													9.140616	-1.167744	-3.228604	-0.328856	-0.906982	0.263128	-0.130108	0.319481	0.938618	-0.935375	0.274436	-0.223069
227	1944937													9.135036	-1.192412	-3.243818	-0.328854	-0.906998	0.263078	-0.130262	0.319474	0.938599	-0.935354	0.274393	-0.223208
228	1945103													9.118016	-1.181540	-3.236887	-0.328810	-0.907050	0.262954	-0.130352	0.319361	0.938625	-0.935357	0.274352	-0.223245
229	1945270													9.117248	-1.141357	-3.248487	-0.328762	-0.907110	0.262806	-0.130376	0.319203	0.938675	-0.935370	0.274337	-0.223207
230	1945437													9.178357	-1.130675	-3.257199	-0.328673	-0.907127	0.262857	-0.130203	0.319183	0.938706	-0.935426	0.274303	-0.223018
231	1945603													9.211014	-1.165960	-3.248606	-0.328436	-0.907183	0.262964	-0.129971	0.319167	0.938744	-0.935541	0.274139	-0.222734
232	1945770													9.216377	-1.175154	-3.226407	-0.328031	-0.907292	0.263091	-0.129824	0.319156	0.938768	-0.935704	0.273789	-0.222481
233	1945937													9.204165	-1.152636	-3.246598	-0.327440	-0.907484	0.263164	-0.129809	0.319082	0.938795	-0.935913	0.273238	-0.222280
234	1946103													9.156331	-1.117721	-3.233449	-0.326746	-0.907685	0.263334	-0.129828	0.319093	0.938789	-0.936153	0.272557	-0.222106
235	1946270													9.142306	-1.118354	-3.219962	-0.326011	-0.907859	0.263646	-0.129816	0.319232	0.938743	-0.936411	0.271815	-0.221928
236	1946437													9.107895	-1.179059	-3.197280	-0.325353	-0.908009	0.263943	-0.129821	0.319379	0.938692	-0.936639	0.271140	-0.221790
237	1946603													9.099566	-1.225334	-3.223822	-0.324735	-0.908179	0.264117	-0.129903	0.319431	0.938663	-0.936842	0.270507	-0.221706
238	1946770													9.121901	-1.230615	-3.225654	-0.324121	-0.908357	0.264259	-0.130025	0.319463	0.938636	-0.937037	0.269871	-0.221654
239	1946937													9.185130	-1.175171	-3.269895	-0.323465	-0.908575	0.264313	-0.130076	0.319374	0.938659	-0.937257	0.269242	-0.221490
240	1947104													9.211521	-1.174254	-3.308302	-0.322567	-0.908816	0.264583	-0.129930	0.319391	0.938673	-0.937587	0.268408	-0.221107
241	1947270													9.258030	-1.191537	-3.318683	-0.321338	-0.909120	0.265034	-0.129636	0.319474	0.938686	-0.938049	0.267278	-0.220514
242	1947437													9.241323	-1.192026	-3.313834	-0.319722	-0.909502	0.265675	-0.129274	0.319642	0.938678	-0.938651	0.265771	-0.219771
243	1947604													9.250546	-1.173542	-3.281551	-0.317749	-0.909978	0.266414	-0.128969	0.319843	0.938652	-0.939363	0.263897	-0.218988
244	1947770													9.261583	-1.154818	-3.246061	-0.315498	-0.910523	0.267223	-0.128720	0.320068	0.938609	-0.940155	0.261732	-0.218183
245	1947937													9.260489	-1.087409	-3.192064	-0.312942	-0.911141	0.268123	-0.128446	0.320309	0.938565	-0.941047	0.259277	-0.217271
246	1948104													9.163439	-1.144943	-3.131510	-0.310213	-0.911762	0.269179	-0.128111	0.320658	0.938491	-0.941996	0.256647	-0.216279
247	1948270													9.127061	-1.236858	-3.041029	-0.307527	-0.912410	0.270065	-0.127976	0.320900	0.938427	-0.942894	0.254030	-0.215452
248	1948437													9.072064	-1.209623	-2.993796	-0.304993	-0.913098	0.270613	-0.128069	0.320894	0.938417	-0.943704	0.251553	-0.214810
249	1948604													9.193572	-1.150413	-2.975919	-0.302667	-0.913763	0.270981	-0.128223	0.320770	0.938438	-0.944432	0.249288	-0.214251
250	1948770													9.356849	-1.096866	-2.921074	-0.300251	-0.914419	0.271454	-0.128186	0.320684	0.938472	-0.945208	0.246981	-0.213501
251	1948937													9.525622	-1.100430	-2.953357	-0.297362	-0.915131	0.272233	-0.127780	0.320711	0.938518	-0.946175	0.244294	-0.212303
252	1949104													9.585621	-1.178249	-2.980818	-0.293740	-0.915965	0.273359	-0.126904	0.320812	0.938603	-0.947424	0.241015	-0.210475
253	1949270													9.459938	-1.276573	-2.969336	-0.289342	-0.916963	0.274701	-0.125705	0.320889	0.938738	-0.948936	0.237085	-0.208114
254	1949437													9.239253	-1.229290	-2.908680	-0.284594	-0.918076	0.275940	-0.124396	0.320776	0.938951	-0.950543	0.232894	-0.205496
255	1949604													9.230815	-1.141061	-2.833644	-0.279987	-0.919126	0.277156	-0.123063	0.320684	0.939158	-0.952083	0.228844	-0.202898
256	1949770													9.394661	-1.070450	-2.792431	-0.275307	-0.920119	0.278544	-0.121661	0.320757	0.939316	-0.953627	0.224712	-0.200249
257	1949937													9.491011	-1.102444	-2.754900	-0.270238	-0.921185	0.279983	-0.120276	0.320824	0.939471	-0.955251	0.220205	-0.197495
258	1950104													9.606745	-1.140051	-2.730665	-0.264514	-0.922427	0.281354	-0.119191	0.320779	0.939625	-0.956988	0.215009	-0.194795
259	1950270													9.619699	-1.079913	-2.705101	-0.258009	-0.923851	0.282718	-0.118379	0.320651	0.939771	-0.958863	0.209002	-0.192095
260	1950437													9.745702	-1.026995	-2.696288	-0.250659	-0.925432	0.284158	-0.117704	0.320485	0.939912	-0.960893	0.202151	-0.189259
261	1950604													9.870286	-1.079371	-2.656533	-0.242166	-0.927191	0.285786	-0.117035	0.320318	0.940053	-0.963150	0.194202	-0.186084
262	1950770													9.747893	-1.166677	-2.656418	-0.232248	-0.929231	0.287385	-0.116514	0.319916	0.940255	-0.965653	0.184888	-0.182568
263	1950937													9.486232	-1.141166	-2.530036	-0.221588	-0.931447	0.288627	-0.116397	0.319134	0.940535	-0.968169	0.174816	-0.179134
264	1951104													9.599116	-1.004731	-2.379840	-0.210549	-0.933662	0.289731	-0.116499	0.318226	0.940829	-0.970617	0.164337	-0.175773
265	1951270													9.790112	-1.004146	-2.290981	-0.198827	-0.935836	0.290997	-0.116526	0.317393	0.941108	-0.973083	0.153209	-0.172155
266	1951437													9.943232	-1.063314	-2.220776	-0.185948	-0.938020	0.292476	-0.116364	0.316596	0.941396	-0.975645	0.141017	-0.168022
267	1951604													9.660603	-1.122878	-2.047564	-0.171646	-0.940268	0.293997	-0.116119	0.315655	0.941742	-0.978291	0.127508	-0.163364
268	1951770													9.319963	-1.123252	-1.804111	-0.157310	-0.942377	0.295263	-0.116046	0.314553	0.942120	-0.980707	0.113940	-0.158842
269	1951937													9.395176	-1.057134	-1.614332	-0.143535	-0.944280	0.296197	-0.116045	0.313290	0.942541	-0.982818	0.100916	-0.154547
270	1952104													9.564362	-1.009810	-1.484936	-0.130159	-0.945939	0.297082	-0.115705	0.312075	0.942985	-0.984719	0.088364	-0.150069
271	1952270													9.688678	-1.087481	-1.390571	-0.116798	-0.947409	0.297949	-0.115060	0.310891	0.943455	-0.986468	0.075912	-0.145321
272	1952437													9.771725	-1.136248	-1.314044	-0.103149	-0.948776	0.298637	-0.114300	0.309556	0.943987	-0.988077	0.063237	-0.140375
273	1952604													9.775179	-1.145877	-1.208806	-0.088903	-0.950087	0.299051	-0.113498	0.307947	0.944609	-0.989553	0.050037	-0.135210
274	1952770													9.851024	-1.059162	-1.092911	-0.074205	-0.951310	0.299169	-0.112673	0.306073	0.945317	-0.990857	0.036439	-0.129899
275	1952937													10.007344	-1.025622	-1.023570	-0.058722	-0.952364	0.299256	-0.111629	0.304157	0.946059	-0.992013	0.022148	-0.124172
276	1953104													10.077433	-1.050796	-0.866144	-0.042101	-0.953231	0.299296	-0.110376	0.302165	0.946844	-0.992998	0.006828	-0.117935
277	1953270													10.122123	-1.084622	-0.723882	-0.024098	-0.953895	0.299170	-0.109111	0.299979	0.947685	-0.993737	-0.009805	-0.111310
278	1953437													9.949833	-1.051402	-0.643074	-0.004767	-0.954323	0.298738	-0.107950	0.297487	0.948603	-0.994145	-0.027727	-0.104437
279	1953604													9.788446	-0.915721	-0.535753	0.015283	-0.954429	0.298046	-0.106865	0.294815	0.949560	-0.994156	-0.046363	-0.097490
280	1953770													9.713779	-0.792683	-0.304411	0.035903	-0.954102	0.297324	-0.105628	0.292226	0.950498	-0.993757	-0.065531	-0.090288
281	1953937													9.697547	-0.831194	0.003060	0.057050	-0.953251	0.296747	-0.104261	0.289917	0.951356	-0.992912	-0.085214	-0.082847
282	1954104													9.630205	-0.953635	0.231348	0.078524	-0.951948	0.296022	-0.103070	0.287595	0.952190	-0.991570	-0.105281	-0.075534
283	1954270													9.563972	-0.945672	0.449380	0.099890	-0.950315	0.294828	-0.102195	0.284944	0.953081	-0.989736	-0.125333	-0.068654
284	1954437													9.580502	-0.816445	0.635460	0.120955	-0.948287	0.293463	-0.101338	0.282293	0.953961	-0.987472	-0.145125	-0.061953
285	1954604													9.677239	-0.740096	0.931149	0.142012	-0.945753	0.292205	-0.100363	0.279919	0.954763	-0.984764	-0.164914	-0.055167
286	1954770													9.665297	-0.725752	1.323610	0.163348	-0.942634	0.291134	-0.099194	0.277909	0.955472	-0.981569	-0.184954	-0.048107
287	1954937													9.506822	-0.857083	1.549537	0.184785	-0.938985	0.290108	-0.098085	0.276097	0.956112	-0.977872	-0.205130	-0.041082
288	1955104													9.259538	-0.841882	1.726066	0.205509	-0.935062	0.288833	-0.097126	0.274188	0.956759	-0.973824	-0.224676	-0.034471
289	1955270													9.205501	-0.838538	1.901015	0.225161	-0.930945	0.287479	-0.096233	0.272364	0.957370	-0.969558	-0.243227	-0.028262
290	1955437													9.331378	-0.845059	2.068671	0.244151	-0.926576	0.286091	-0.095427	0.270631	0.957942	-0.965030	-0.261184	-0.022346
291	1955604													9.377307	-0.801517	2.399252	0.263006	-0.921877	0.284552	-0.094746	0.268830	0.958516	-0.960131	-0.279056	-0.016640
292	1955770													9.396119	-0.792526	2.591522	0.281767	-0.916835	0.282879	-0.094115	0.266993	0.959092	-0.954856	-0.296863	-0.011058
293	1955937													9.147109	-0.806915	2.748598	0.300215	-0.911494	0.281158	-0.093308	0.265278	0.959646	-0.949297	-0.314335	-0.005409
294	1956104													9.082432	-0.809486	2.914654	0.317856	-0.906029	0.279425	-0.092196	0.263777	0.960167	-0.943646	-0.330957	0.000311
295	1956270													9.172714	-0.822793	3.047615	0.335203	-0.900291	0.277697	-0.090849	0.262489	0.960649	-0.937755	-0.347241	0.006196
296	1956437													9.344225	-0.937956	3.422050	0.352785	-0.894106	0.275892	-0.089638	0.261200	0.961114	-0.931401	-0.363797	0.012002
297	1956604													9.133725	-0.887925	3.793737	0.370756	-0.887515	0.273599	-0.088623	0.259442	0.961684	-0.924492	-0.380798	0.017535
298	1956770													8.595221	-0.730169	4.083386	0.387737	-0.880984	0.271161	-0.087591	0.257629	0.962266	-0.917599	-0.396857	0.022726
299	1956937													8.511064	-0.626780	4.325158	0.402651	-0.874969	0.268891	-0.086484	0.256078	0.962780	-0.911259	-0.410919	0.027439
300	1957104													8.630226	-0.576889	4.464673	0.415897	-0.869330	0.267010	-0.085333	0.255007	0.963167	-0.905399	-0.423363	0.031874
301	1957270													8.685450	-0.587014	4.524048	0.427930	-0.863957	0.265434	-0.084364	0.254218	0.963460	-0.899866	-0.434687	0.035900
302	1957437													8.698388	-0.549268	4.547499	0.439097	-0.858723	0.264176	-0.083770	0.253626	0.963668	-0.894526	-0.445274	0.039431
303	1957604													8.701418	-0.546260	4.583041	0.449681	-0.853534	0.263185	-0.083489	0.253200	0.963805	-0.889279	-0.455378	0.042598
304	1957770													8.754035	-0.561039	4.566708	0.459962	-0.848277	0.262413	-0.083330	0.252989	0.963874	-0.884020	-0.465212	0.045679
305	1957937													8.748672	-0.597100	4.575571	0.470317	-0.842761	0.261830	-0.083194	0.253030	0.963875	-0.878567	-0.475110	0.048891
306	1958104													8.757998	-0.642685	4.684131	0.480913	-0.836920	0.261321	-0.083184	0.253152	0.963844	-0.872813	-0.485262	0.052126
307	1958270													8.632127	-0.576489	4.823706	0.491677	-0.830791	0.260845	-0.083291	0.253311	0.963793	-0.866785	-0.495600	0.055350
308	1958437													8.373133	-0.583328	4.921120	0.502082	-0.824625	0.260589	-0.083561	0.253655	0.963679	-0.860774	-0.505621	0.058449
309	1958604													8.420446	-0.669641	4.989649	0.511932	-0.818585	0.260471	-0.083939	0.254097	0.963529	-0.854915	-0.515125	0.061369
310	1958770													8.477692	-0.737855	5.080637	0.521722	-0.812408	0.260383	-0.084377	0.254580	0.963364	-0.848932	-0.524579	0.064271
311	1958937													8.740702	-0.824494	5.379941	0.531712	-0.806015	0.260042	-0.084945	0.254740	0.963271	-0.842655	-0.534272	0.066981
312	1959104													8.463813	-0.800361	5.690701	0.542230	-0.799192	0.259381	-0.085422	0.254669	0.963248	-0.835877	-0.544459	0.069821
313	1959270													8.003411	-0.761063	5.866919	0.551982	-0.792747	0.258587	-0.085832	0.254447	0.963270	-0.829427	-0.553903	0.072407
314	1959437													7.937245	-0.762286	5.974853	0.560377	-0.787091	0.257809	-0.086084	0.254238	0.963303	-0.823752	-0.562006	0.074714
315	1959604													7.974138	-0.767679	6.005374	0.567625	-0.782118	0.257086	-0.086142	0.254132	0.963326	-0.818768	-0.568953	0.076878
316	1959770													7.979103	-0.751014	5.985377	0.574007	-0.777663	0.256431	-0.086141	0.254076	0.963341	-0.814307	-0.575053	0.078853
317	1959937													8.088993	-0.686082	5.949331	0.579864	-0.773526	0.255764	-0.086181	0.253933	0.963375	-0.810142	-0.580669	0.080584
318	1960104													8.114153	-0.692443	5.839731	0.585616	-0.769384	0.255153	-0.086347	0.253773	0.963402	-0.805977	-0.586215	0.082180
319	1960270													8.038762	-0.686473	5.767716	0.591435	-0.765148	0.254466	-0.086615	0.253467	0.963458	-0.801687	-0.591864	0.083636
320	1960437													8.150263	-0.727075	5.779153	0.597359	-0.760765	0.253768	-0.087044	0.253056	0.963528	-0.797236	-0.597661	0.084945
321	1960604													8.118655	-0.735687	5.828093	0.603723	-0.756034	0.252846	-0.087492	0.252416	0.963655	-0.792379	-0.603903	0.086243
322	1960770													8.039360	-0.683636	5.849477	0.610609	-0.750812	0.251869	-0.087902	0.251822	0.963773	-0.787039	-0.610628	0.087767
323	1960937													7.903670	-0.677567	5.832623	0.617831	-0.745204	0.250911	-0.088319	0.251312	0.963868	-0.781335	-0.617668	0.089453
324	1961104													7.856945	-0.648249	5.869547	0.625365	-0.739192	0.250026	-0.088823	0.250897	0.963930	-0.775260	-0.625016	0.091245
325	1961270													7.862370	-0.709866	6.015038	0.633306	-0.732684	0.249193	-0.089495	0.250500	0.963971	-0.768709	-0.632791	0.093071
326	1961437													8.028382	-0.768436	6.353947	0.641789	-0.725585	0.248262	-0.090366	0.249921	0.964040	-0.761539	-0.641145	0.094828
327	1961604													7.367312	-0.761829	6.639089	0.650312	-0.718296	0.247276	-0.091266	0.249275	0.964123	-0.754165	-0.649549	0.096551
328	1961770													7.256979	-0.885473	6.778148	0.657628	-0.711891	0.246448	-0.092154	0.248663	0.964196	-0.747685	-0.656794	0.097924
329	1961937													7.276471	-0.927702	6.862672	0.663967	-0.706300	0.245537	-0.092705	0.248076	0.964294	-0.741993	-0.663023	0.099237
330	1962104													7.368382	-0.946282	6.900219	0.669504	-0.701370	0.244630	-0.092874	0.247708	0.964373	-0.736979	-0.668372	0.100702
331	1962270													7.564218	-0.897524	6.869422	0.674964	-0.696506	0.243523	-0.092699	0.247382	0.964473	-0.732004	-0.673559	0.102409
332	1962437													7.349473	-0.825423	6.784427	0.680607	-0.691407	0.242344	-0.092332	0.247195	0.964556	-0.726807	-0.678860	0.104404
333	1962604													7.182001	-0.960422	6.635973	0.686139	-0.686277	0.241323	-0.091941	0.247262	0.964577	-0.721637	-0.684021	0.106560
334	1962770													7.225746	-0.921709	6.522775	0.691762	-0.681041	0.240102	-0.091375	0.247268	0.964629	-0.716322	-0.689233	0.108821
335	1962937													7.264937	-0.638869	6.524454	0.697746	-0.675278	0.239061	-0.090728	0.247730	0.964572	-0.710576	-0.694716	0.111586
336	1963104													7.384562	-0.648544	6.656260	0.704206	-0.668704	0.238596	-0.090420	0.248850	0.964312	-0.704214	-0.700649	0.114777
337	1963270													7.217381	-0.707348	6.848330	0.711266	-0.661370	0.238097	-0.090399	0.249847	0.964056	-0.697086	-0.707224	0.117920
338	1963437													6.959920	-0.590408	7.050249	0.718169	-0.654006	0.237715	-0.090643	0.250779	0.963791	-0.689940	-0.713712	0.120821
339	1963604													6.891439	-0.628799	7.124609	0.724704	-0.646766	0.237693	-0.091196	0.251893	0.963449	-0.682999	-0.719892	0.123565
340	1963771													6.743478	-0.679359	7.200346	0.730738	-0.639845	0.237952	-0.091985	0.253100	0.963057	-0.676433	-0.725630	0.126093
341	1963937													6.948397	-0.808369	7.330949	0.736341	-0.633223	0.238391	-0.093112	0.254146	0.962673	-0.670173	-0.731053	0.128178
342	1964104													6.898882	-0.852833	7.476210	0.742157	-0.626391	0.238406	-0.094254	0.254630	0.962434	-0.663565	-0.736748	0.129936
343	1964271													6.795878	-0.923892	7.708137	0.747820	-0.619709	0.238173	-0.095404	0.254714	0.962299	-0.657011	-0.742349	0.131357
344	1964437													6.648660	-0.921214	7.895939	0.753244	-0.613324	0.237607	-0.096285	0.254536	0.962258	-0.650656	-0.747693	0.132674
345	1964604													6.432889	-1.024549	8.005404	0.757966	-0.607725	0.236976	-0.096981	0.254267	0.962259	-0.645045	-0.752342	0.133788
346	1964771													6.383892	-1.063686	8.026868	0.761852	-0.603183	0.236119	-0.097344	0.253769	0.962354	-0.640395	-0.756156	0.134618
347	1964937													6.374123	-1.032158	8.013836	0.764995	-0.599581	0.235129	-0.097401	0.253179	0.962504	-0.636629	-0.759212	0.135280
348	1965104													6.428626	-0.990919	7.970214	0.767533	-0.596735	0.234094	-0.097229	0.252592	0.962675	-0.633593	-0.761646	0.135853
349	1965271													6.467569	-0.896398	7.912235	0.769844	-0.594177	0.233010	-0.096875	0.252070	0.962848	-0.630837	-0.763816	0.136494
350	1965437													6.493129	-0.818830	7.902785	0.772086	-0.591618	0.232101	-0.096536	0.251797	0.962953	-0.628143	-0.765889	0.137296
351	1965604													6.361054	-0.853798	7.866277	0.774327	-0.588985	0.231331	-0.096341	0.251583	0.963029	-0.625409	-0.767986	0.138064
352	1965771													6.260273	-0.844411	7.845243	0.776339	-0.586592	0.230668	-0.096321	0.251252	0.963117	-0.622913	-0.769923	0.138556
353	1965937													6.303678	-0.782558	7.859034	0.778100	-0.584422	0.230240	-0.096493	0.250981	0.963171	-0.620684	-0.771660	0.138895
354	1966104													6.315576	-0.841352	7.862985	0.779848	-0.582196	0.229966	-0.096865	0.250713	0.963203	-0.618428	-0.773428	0.139124
355	1966271													6.226140	-0.893860	7.892556	0.781533	-0.580027	0.229725	-0.097401	0.250271	0.963264	-0.616213	-0.775198	0.139100
356	1966437													6.209798	-0.973221	7.916795	0.783153	-0.577966	0.229404	-0.097948	0.249655	0.963368	-0.614066	-0.776935	0.138908
357	1966604													6.072975	-0.974183	8.012204	0.784551	-0.576164	0.229159	-0.098389	0.249216	0.963437	-0.612208	-0.778413	0.138835
358	1966771													6.170230	-1.073994	8.072044	0.785756	-0.574633	0.228878	-0.098581	0.248958	0.963484	-0.610630	-0.779626	0.138972
359	1966937													6.142252	-1.065669	8.098548	0.786873	-0.573313	0.228349	-0.098451	0.248666	0.963573	-0.609211	-0.780691	0.139225
360	1967104													6.123707	-1.041446	8.085461	0.787772	-0.572315	0.227750	-0.098098	0.248456	0.963663	-0.608105	-0.781489	0.139584
361	1967271													6.142944	-0.953407	8.101732	0.788496	-0.571554	0.227159	-0.097554	0.248440	0.963722	-0.607254	-0.782051	0.140136
362	1967437													6.161946	-0.852250	8.150894	0.789087	-0.570892	0.226766	-0.097015	0.248704	0.963709	-0.606572	-0.782450	0.140864
363	1967604													6.145858	-0.867681	8.165094	0.789588	-0.570271	0.226587	-0.096669	0.249044	0.963656	-0.605975	-0.782795	0.141515
364	1967771													6.067015	-0.930573	8.108017	0.789866	-0.569899	0.226554	-0.096545	0.249260	0.963612	-0.605633	-0.782997	0.141861
365	1967937													6.140770	-1.007954	8.010041	0.789886	-0.569910	0.226459	-0.096366	0.249338	0.963610	-0.605636	-0.782964	0.142028
366	1968104													6.257802	-0.950712	7.959984	0.789793	-0.570101	0.226298	-0.095966	0.249547	0.963596	-0.605819	-0.782759	0.142381
367	1968271													6.299167	-0.919283	7.964839	0.789729	-0.570245	0.226159	-0.095418	0.249994	0.963534	-0.605989	-0.782511	0.143017
368	1968437													6.266095	-0.852444	7.988959	0.789746	-0.570277	0.226021	-0.094813	0.250549	0.963450	-0.606062	-0.782311	0.143800
369	1968604													6.136867	-0.846701	7.959216	0.789601	-0.570498	0.225968	-0.094310	0.251049	0.963369	-0.606329	-0.781989	0.144425
370	1968771													6.166269	-0.844229	7.897393	0.789168	-0.571071	0.226035	-0.093972	0.251423	0.963305	-0.606946	-0.781450	0.144750
371	1968937													6.346271	-0.885414	7.849502	0.788679	-0.571749	0.226030	-0.093679	0.251594	0.963288	-0.607627	-0.780899	0.144866
372	1969104													6.354941	-0.775341	7.894815	0.788320	-0.572289	0.225912	-0.093313	0.251722	0.963290	-0.608148	-0.780462	0.145035
373	1969271													6.371100	-0.787579	7.985058	0.788084	-0.572621	0.225897	-0.092998	0.252006	0.963247	-0.608503	-0.780127	0.145350
374	1969437													6.127146	-0.790619	8.034348	0.787717	-0.573121	0.225908	-0.092736	0.252213	0.963218	-0.609017	-0.779693	0.145523
375	1969604													6.088244	-0.815450	8.016866	0.786820	-0.574277	0.226098	-0.092667	0.252261	0.963212	-0.610186	-0.778826	0.145268
376	1969771													6.185282	-0.812952	8.035190	0.785443	-0.576046	0.226388	-0.092642	0.252231	0.963222	-0.611962	-0.777529	0.144747
377	1969937													6.301256	-0.829426	8.149231	0.783808	-0.578116	0.226774	-0.092670	0.252199	0.963228	-0.614050	-0.776001	0.144101
378	1970104													6.003342	-0.791890	8.214559	0.781681	-0.580758	0.227365	-0.092709	0.252305	0.963196	-0.616750	-0.773991	0.143381
379	1970271													5.945212	-0.824452	8.276196	0.778478	-0.584622	0.228450	-0.092875	0.252669	0.963085	-0.620763	-0.770958	0.142401
380	1970437													6.308734	-0.989256	8.243472	0.774371	-0.589542	0.229759	-0.093077	0.253035	0.962969	-0.625848	-0.767081	0.141070
381	1970604													6.481847	-1.002885	8.086359	0.770387	-0.594454	0.230495	-0.092968	0.252918	0.963011	-0.630762	-0.763320	0.139580
382	1970771													6.406603	-0.875285	7.931343	0.766404	-0.599451	0.230831	-0.092594	0.252502	0.963156	-0.635650	-0.759540	0.138013
383	1970937													6.344195	-0.779756	7.850499	0.762396	-0.604489	0.230966	-0.092063	0.251968	0.963347	-0.640529	-0.755715	0.136448
384	1971104													6.196064	-0.701733	7.782353	0.757957	-0.609971	0.231166	-0.091498	0.251462	0.963532	-0.645856	-0.751467	0.134787
385	1971271													6.550799	-0.748622	7.708699	0.753043	-0.615884	0.231543	-0.091054	0.250974	0.963702	-0.651640	-0.746792	0.132916
386	1971437													6.659779	-0.778562	7.668298	0.748325	-0.621478	0.231892	-0.090709	0.250427	0.963877	-0.657101	-0.742328	0.131027
387	1971604													6.602185	-0.778484	7.659239	0.743566	-0.627020	0.232283	-0.090451	0.249873	0.964045	-0.662516	-0.737841	0.129083
388	1971771													6.418786	-0.688918	7.614693	0.738399	-0.632878	0.232880	-0.090208	0.249532	0.964156	-0.668304	-0.732939	0.127164
389	1971937													6.365216	-0.654895	7.572673	0.732203	-0.639618	0.234024	-0.090193	0.249520	0.964160	-0.675088	-0.727069	0.125010
390	1972104													6.672589	-0.677051	7.552795	0.724951	-0.647218	0.235701	-0.090432	0.249796	0.964066	-0.682838	-0.720216	0.122561
391	1972271													6.990942	-0.752989	7.441948	0.717359	-0.654896	0.237711	-0.090887	0.250312	0.963890	-0.690750	-0.713060	0.120043
392	1972437													7.175475	-0.847825	7.327980	0.709792	-0.662383	0.239676	-0.091410	0.250760	0.963724	-0.698456	-0.705952	0.117439
393	1972604													7.019165	-0.878880	7.178560	0.702329	-0.669623	0.241536	-0.091920	0.251156	0.963572	-0.705893	-0.698947	0.114842
394	1972771													7.022260	-0.855321	7.109258	0.694476	-0.677154	0.243238	-0.092146	0.251571	0.963442	-0.713591	-0.691501	0.112313
395	1972937													7.204172	-0.807568	6.992291	0.686232	-0.684887	0.244979	-0.092137	0.252236	0.963269	-0.721523	-0.683598	0.109989
396	1973104													7.386424	-0.891147	6.863998	0.677898	-0.692575	0.246563	-0.091933	0.252893	0.963117	-0.729385	-0.675562	0.107765
397	1973271													7.434312	-0.828632	6.783067	0.669642	-0.700093	0.247890	-0.091624	0.253351	0.963026	-0.737011	-0.667595	0.105509
398	1973437													7.274566	-0.771236	6.774627	0.661088	-0.707740	0.249133	-0.091407	0.253599	0.962981	-0.744720	-0.659388	0.102959
399	1973604													7.289232	-0.734879	6.650961	0.651770	-0.715835	0.250553	-0.091335	0.253875	0.962915	-0.752897	-0.650483	0.100087
400	1973771													7.412623	-0.824188	6.484533	0.641692	-0.724366	0.252043	-0.091395	0.254063	0.962860	-0.761498	-0.640894	0.096827
401	1973937													7.696688	-0.855332	6.308270	0.631177	-0.733069	0.253429	-0.091510	0.254075	0.962846	-0.770222	-0.630917	0.093283
402	1974104													7.749116	-0.775876	6.274734	0.620679	-0.741546	0.254692	-0.091648	0.253993	0.962854	-0.778690	-0.620965	0.089687
403	1974271													7.556313	-0.786058	6.340118	0.609439	-0.750339	0.256077	-0.091994	0.253884	0.962850	-0.787477	-0.610356	0.085700
404	1974437													7.590064	-0.770288	6.285662	0.596936	-0.759792	0.257650	-0.092479	0.253840	0.962815	-0.796941	-0.598566	0.081261
405	1974604													7.857993	-0.870490	6.071727	0.583316	-0.769754	0.259269	-0.092948	0.253845	0.962769	-0.806910	-0.585697	0.076525
406	1974771													8.103448	-0.875098	5.838758	0.569308	-0.779715	0.260641	-0.093254	0.253742	0.962766	-0.816818	-0.572416	0.071746
407	1974937													8.330622	-0.894615	5.650586	0.555392	-0.789290	0.261841	-0.093428	0.253651	0.962773	-0.826324	-0.559180	0.067134
408	1975104													8.277343	-0.877383	5.479693	0.541840	-0.798373	0.262699	-0.093436	0.253402	0.962838	-0.835272	-0.546249	0.062706
409	1975271													8.187994	-0.803221	5.305916	0.527949	-0.807371	0.263481	-0.093379	0.253177	0.962903	-0.844127	-0.532967	0.058273
410	1975437													8.340150	-0.794495	5.103425	0.513586	-0.816317	0.264304	-0.093357	0.253042	0.962940	-0.852945	-0.519227	0.053750
411	1975604													8.557291	-0.806307	4.922517	0.499164	-0.824960	0.265098	-0.093347	0.252962	0.962962	-0.861465	-0.505422	0.049262
412	1975771													8.583413	-0.750043	4.838954	0.484882	-0.833191	0.265860	-0.093479	0.252871	0.962974	-0.869569	-0.491781	0.044726
413	1975937													8.393598	-0.761786	4.746468	0.470091	-0.841334	0.266781	-0.093936	0.252854	0.962934	-0.877605	-0.477726	0.039832
414	1976104													8.443842	-0.829051	4.518841	0.454282	-0.849640	0.267842	-0.094669	0.252912	0.962846	-0.885814	-0.462760	0.034459
415	1976271													8.785899	-0.875640	4.232006	0.438000	-0.857818	0.268894	-0.095566	0.252986	0.962738	-0.893881	-0.447376	0.028830
416	1976437													8.992088	-0.846456	4.083085	0.422076	-0.865452	0.269899	-0.096399	0.253184	0.962603	-0.901421	-0.432309	0.023434
417	1976604													8.808654	-0.790148	4.099066	0.406163	-0.872699	0.270975	-0.097271	0.253562	0.962416	-0.908609	-0.417255	0.018099
418	1976771													8.620191	-0.709922	4.067854	0.388902	-0.880084	0.272409	-0.098335	0.254342	0.962102	-0.916016	-0.400951	0.012372
419	1976937													8.840603	-0.742885	3.893722	0.370040	-0.887591	0.274323	-0.099626	0.255667	0.961618	-0.923658	-0.383167	0.006180
420	1977104													9.131748	-0.941025	3.582635	0.350406	-0.894900	0.276351	-0.101034	0.257220	0.961057	-0.931132	-0.364681	-0.000283
421	1977271													9.308273	-0.977450	3.277149	0.330899	-0.901738	0.278164	-0.102313	0.258750	0.960511	-0.938103	-0.346292	-0.006640
422	1977437													8.992320	-0.963000	3.178930	0.311215	-0.908210	0.279819	-0.103533	0.260287	0.959964	-0.944683	-0.327726	-0.013024
423	1977604													9.109935	-0.961432	3.012375	0.290255	-0.914669	0.281307	-0.104711	0.261840	0.959414	-0.951203	-0.307930	-0.019776
424	1977771													9.401484	-0.983648	2.759644	0.268771	-0.920804	0.282635	-0.105769	0.263443	0.958859	-0.957379	-0.287608	-0.026587
425	1977937													9.752112	-1.079384	2.402796	0.247832	-0.926320	0.283744	-0.106757	0.264985	0.958324	-0.962903	-0.267796	-0.033220
426	1978104													9.791519	-1.057797	2.052729	0.228386	-0.931096	0.284429	-0.107651	0.266208	0.957886	-0.967601	-0.249387	-0.039435
427	1978271													9.358043	-0.962108	1.905156	0.209692	-0.935322	0.284959	-0.108509	0.267378	0.957463	-0.971728	-0.231693	-0.045423
428	1978437													9.394516	-0.939519	1.748941	0.190770	-0.939231	0.285399	-0.109353	0.268595	0.957026	-0.975525	-0.213781	-0.051468
429	1978604													9.707186	-0.984133	1.545055	0.171794	-0.942734	0.285901	-0.110369	0.269970	0.956522	-0.978931	-0.195879	-0.057669
430	1978771													9.980468	-1.022721	1.224835	0.153961	-0.945670	0.286363	-0.111595	0.271322	0.955997	-0.981755	-0.179143	-0.063759
431	1978937													9.887227	-1.021299	1.049821	0.137729	-0.948038	0.286802	-0.112933	0.272642	0.955464	-0.984011	-0.163985	-0.069514
432	1979104													9.528446	-0.909741	1.083962	0.121911	-0.950031	0.287367	-0.114257	0.274169	0.954870	-0.985943	-0.149243	-0.075123
433	1979271													9.671830	-0.909697	1.014391	0.105461	-0.951718	0.288290	-0.115546	0.276215	0.954125	-0.987688	-0.133933	-0.080837
434	1979437													9.891508	-1.047181	0.870281	0.089048	-0.953040	0.289456	-0.116765	0.278618	0.953278	-0.989159	-0.118686	-0.086471
435	1979604													10.070215	-1.132257	0.627982	0.073545	-0.954006	0.290628	-0.117942	0.281052	0.952418	-0.990293	-0.104323	-0.091847
436	1979771													9.749869	-1.080161	0.511916	0.059113	-0.954671	0.291733	-0.119076	0.283414	0.951576	-0.991124	-0.090989	-0.096925
437	1979937													9.576679	-1.082669	0.501161	0.044246	-0.955151	0.292796	-0.120297	0.285856	0.950692	-0.991751	-0.077287	-0.102254
438	1980104													9.758615	-1.103559	0.382873	0.028846	-0.955442	0.293765	-0.121568	0.288353	0.949776	-0.992164	-0.063110	-0.107833
439	1980271													10.009798	-1.186092	0.138018	0.013533	-0.955504	0.294669	-0.122834	0.290875	0.948843	-0.992335	-0.049036	-0.113432
440	1980438													10.111953	-1.243148	-0.139356	-0.000698	-0.955376	0.295392	-0.124166	0.293189	0.947957	-0.992261	-0.036016	-0.118830
441	1980604													9.703805	-1.244383	-0.271810	-0.013855	-0.955156	0.295777	-0.125583	0.295126	0.947169	-0.991986	-0.024022	-0.124040
442	1980771													9.323325	-1.194504	-0.353204	-0.027367	-0.954856	0.295805	-0.127001	0.296839	0.946444	-0.991525	-0.011666	-0.129392
443	1980938													9.539075	-1.156933	-0.413335	-0.041909	-0.954393	0.295597	-0.128311	0.298549	0.945730	-0.990848	0.001706	-0.134971
444	1981104													9.858493	-1.214190	-0.599934	-0.056336	-0.953731	0.295336	-0.129457	0.300286	0.945023	-0.989983	0.015006	-0.140384
445	1981271													10.071495	-1.318495	-0.798376	-0.069625	-0.952981	0.294922	-0.130628	0.301803	0.944379	-0.988984	0.027228	-0.145499
446	1981438													9.511282	-1.254704	-0.928963	-0.081726	-0.952233	0.294233	-0.131780	0.302953	0.943850	-0.987904	0.038364	-0.150244
447	1981604													9.313295	-1.213844	-0.940106	-0.094525	-0.951321	0.293349	-0.132779	0.304083	0.943347	-0.986628	0.050219	-0.155059
448	1981771													9.653070	-1.283259	-1.053923	-0.107892	-0.950204	0.292356	-0.133683	0.305268	0.942836	-0.985134	0.062641	-0.159962
449	1981938													9.984176	-1.307396	-1.215524	-0.120919	-0.948973	0.291254	-0.134572	0.306369	0.942353	-0.983498	0.074754	-0.164751
450	1982104													9.936014	-1.280318	-1.319460	-0.132475	-0.947779	0.290112	-0.135397	0.307252	0.941947	-0.981895	0.085504	-0.169030
451	1982271													9.270962	-1.211542	-1.338652	-0.143771	-0.946467	0.289015	-0.136000	0.308175	0.941558	-0.980221	0.096062	-0.173026
452	1982438													9.503787	-1.266074	-1.457096	-0.155835	-0.944890	0.287921	-0.136375	0.309271	0.941144	-0.978324	0.107398	-0.177055
453	1982604													9.720536	-1.334664	-1.591254	-0.167994	-0.943145	0.286804	-0.136686	0.310414	0.940723	-0.976266	0.118834	-0.181062
454	1982771													9.758274	-1.320255	-1.790352	-0.179499	-0.941366	0.285674	-0.136920	0.311470	0.940340	-0.974183	0.129676	-0.184801
455	1982938													9.398895	-1.247106	-1.871506	-0.190496	-0.939531	0.284591	-0.136832	0.312482	0.940017	-0.972105	0.140128	-0.188084
456	1983104													9.293134	-1.241190	-1.907456	-0.201953	-0.937434	0.283605	-0.136221	0.313642	0.939719	-0.969876	0.151147	-0.191039
457	1983271													9.524505	-1.310458	-2.031339	-0.213774	-0.935086	0.282692	-0.135325	0.314938	0.939415	-0.967465	0.162567	-0.193866
458	1983438													9.701337	-1.451876	-2.207402	-0.225247	-0.932700	0.281663	-0.134443	0.316081	0.939158	-0.964981	0.173675	-0.196592
459	1983604													9.491953	-1.409770	-2.341162	-0.235917	-0.930448	0.280373	-0.133630	0.316838	0.939019	-0.962541	0.184065	-0.199083
460	1983771													9.016291	-1.286537	-2.356844	-0.246331	-0.928169	0.278967	-0.132601	0.317405	0.938973	-0.960072	0.194307	-0.201263
461	1983938													8.937716	-1.201168	-2.413543	-0.258011	-0.925445	0.277457	-0.131161	0.318074	0.938949	-0.957198	0.205868	-0.203448
462	1984104													9.425897	-1.249886	-2.507032	-0.270350	-0.922332	0.276069	-0.129481	0.318974	0.938877	-0.954016	0.218079	-0.205659
463	1984271													9.726394	-1.257724	-2.698457	-0.282018	-0.919214	0.274794	-0.127850	0.319873	0.938795	-0.950852	0.229625	-0.207732
464	1984438													9.357603	-1.205367	-2.816097	-0.292585	-0.916258	0.273614	-0.126330	0.320666	0.938730	-0.947858	0.240093	-0.209573
465	1984604													9.076711	-1.132342	-2.909138	-0.303150	-0.913130	0.272568	-0.124554	0.321541	0.938668	-0.944768	0.250608	-0.211209
466	1984771													9.270997	-1.202765	-3.040661	-0.313856	-0.909795	0.271603	-0.122543	0.322479	0.938611	-0.941529	0.261306	-0.212701
467	1984938													9.464488	-1.259197	-3.168796	-0.323916	-0.906567	0.270581	-0.120644	0.323246	0.938593	-0.938362	0.271382	-0.214076
468	1985104													9.464845	-1.205851	-3.348657	-0.332869	-0.903621	0.269569	-0.119001	0.323839	0.938598	-0.935434	0.280352	-0.215328
469	1985271													9.147099	-1.089694	-3.416849	-0.340826	-0.900939	0.268602	-0.117581	0.324315	0.938613	-0.932745	0.288321	-0.216468
470	1985438													8.933969	-1.038331	-3.434471	-0.348520	-0.898212	0.267860	-0.115998	0.324914	0.938603	-0.930096	0.296051	-0.217430
471	1985604													8.981416	-1.115493	-3.524402	-0.356448	-0.895297	0.267186	-0.114392	0.325638	0.938549	-0.927286	0.303980	-0.218488
472	1985771													9.256911	-1.139110	-3.617644	-0.364204	-0.892400	0.266415	-0.113093	0.326323	0.938469	-0.924427	0.311665	-0.219772
473	1985938													9.484181	-1.095717	-3.743223	-0.371005	-0.889812	0.265688	-0.112235	0.326976	0.938344	-0.921824	0.318311	-0.221178
474	1986104													9.316814	-1.029498	-3.782324	-0.376714	-0.887580	0.265120	-0.111763	0.327664	0.938161	-0.919563	0.323788	-0.222635
475	1986271													8.954717	-0.907690	-3.745362	-0.381587	-0.885567	0.264881	-0.111341	0.328515	0.937913	-0.917603	0.328403	-0.223957
476	1986438													8.522263	-0.877234	-3.665518	-0.386854	-0.883226	0.265058	-0.110551	0.329786	0.937561	-0.915490	0.333397	-0.225220
477	1986604													8.751288	-1.000535	-3.674677	-0.393217	-0.880306	0.265407	-0.109486	0.331436	0.937103	-0.912904	0.339427	-0.226708
478	1986771													9.073325	-1.108448	-3.793694	-0.399738	-0.877294	0.265641	-0.108651	0.333108	0.936608	-0.910167	0.345536	-0.228474
479	1986938													9.121980	-1.118888	-3.871259	-0.405776	-0.874462	0.265824	-0.108133	0.334734	0.936088	-0.907553	0.351098	-0.230385
480	1987104													8.958813	-1.063385	-3.963959	-0.411481	-0.871766	0.265909	-0.107768	0.336244	0.935588	-0.905025	0.356320	-0.232307
481	1987271													8.805165	-1.022704	-4.015193	-0.417098	-0.869081	0.265948	-0.107425	0.337707	0.935101	-0.902491	0.361459	-0.234218
482	1987438													8.802655	-1.079192	-4.073072	-0.422731	-0.866369	0.265901	-0.106938	0.339043	0.934673	-0.899924	0.366680	-0.235971
483	1987604													8.895483	-1.134158	-4.158562	-0.428132	-0.863764	0.265735	-0.106441	0.340197	0.934310	-0.897426	0.371723	-0.237589
484	1987771													8.971169	-1.113928	-4.268147	-0.433050	-0.861407	0.265417	-0.106049	0.341105	0.934024	-0.895110	0.376332	-0.239067
485	1987938													8.775644	-1.059577	-4.358603	-0.437206	-0.859405	0.265091	-0.105769	0.341843	0.933786	-0.893120	0.380218	-0.240354
486	1988104													8.435247	-1.036704	-4.425830	-0.441210	-0.857474	0.264712	-0.105503	0.342492	0.933578	-0.891181	0.383976	-0.241576
487	1988271													8.143059	-0.949204	-4.432435	-0.445656	-0.855320	0.264231	-0.104865	0.343009	0.933460	-0.889041	0.388294	-0.242558
488	1988438													8.305954	-1.032834	-4.437635	-0.451138	-0.852602	0.263712	-0.103673	0.343557	0.933392	-0.886412	0.393749	-0.243384
489	1988604													8.764596	-1.109290	-4.466666	-0.456684	-0.849865	0.263000	-0.102604	0.343972	0.933357	-0.883692	0.399265	-0.244286
490	1988771													8.887887	-0.978318	-4.515757	-0.461455	-0.847514	0.262258	-0.101790	0.344242	0.933347	-0.881305	0.404002	-0.245121
491	1988938													8.739017	-0.900347	-4.537815	-0.465503	-0.845459	0.261738	-0.101002	0.344549	0.933319	-0.879264	0.408027	-0.245781
492	1989104													8.641489	-0.930743	-4.524778	-0.469130	-0.843557	0.261396	-0.100103	0.344874	0.933296	-0.877437	0.411671	-0.246233
493	1989271													8.675869	-0.976812	-4.577398	-0.472424	-0.841798	0.261134	-0.099145	0.345158	0.933293	-0.875777	0.415020	-0.246521
494	1989438													8.734737	-0.988945	-4.626648	-0.475252	-0.840302	0.260822	-0.098316	0.345302	0.933328	-0.874340	0.417922	-0.246721
495	1989604													8.749670	-0.995926	-4.661752	-0.477490	-0.839154	0.260430	-0.097688	0.345267	0.933406	-0.873190	0.420251	-0.246837
496	1989771													8.626039	-0.962749	-4.732615	-0.479083	-0.838374	0.260019	-0.097252	0.345100	0.933514	-0.872366	0.421943	-0.246865
497	1989938													8.462013	-0.960672	-4.745685	-0.480425	-0.837778	0.259462	-0.097049	0.344805	0.933644	-0.871650	0.423366	-0.246958
498	1990104													8.482180	-0.951367	-4.739685	-0.481690	-0.837275	0.258737	-0.097102	0.344423	0.933779	-0.870945	0.424668	-0.247207
499	1990271													8.621855	-0.939751	-4.761650	-0.482694	-0.836965	0.257869	-0.097505	0.343969	0.933905	-0.870344	0.425647	-0.247640
500	1990438													8.748329	-0.893891	-4.763758	-0.483100	-0.836995	0.257010	-0.098142	0.343451	0.934029	-0.870047	0.426006	-0.248066
501	1990604													8.702025	-0.854946	-4.780678	-0.482610	-0.837463	0.256403	-0.098940	0.343009	0.934107	-0.870229	0.425441	-0.248398
502	1990771													8.534193	-0.889016	-4.768363	-0.481604	-0.838140	0.256082	-0.099717	0.342710	0.934134	-0.870697	0.424347	-0.248627
503	1990938													8.556922	-0.941733	-4.730252	-0.480364	-0.838875	0.256006	-0.100292	0.342510	0.934146	-0.871316	0.423055	-0.248662
504	1991104													8.603471	-0.878441	-4.780279	-0.478794	-0.839743	0.256102	-0.100762	0.342346	0.934155	-0.872126	0.421463	-0.248528
505	1991271													8.360114	-0.833481	-4.791450	-0.477045	-0.840604	0.256541	-0.100910	0.342352	0.934137	-0.873066	0.419738	-0.248143
506	1991438													8.015273	-0.814620	-4.734238	-0.475855	-0.841092	0.257151	-0.100717	0.342562	0.934081	-0.873738	0.418587	-0.247722
507	1991604													8.176219	-0.868887	-4.588375	-0.475584	-0.841022	0.257880	-0.100237	0.343057	0.933951	-0.873941	0.418323	-0.247454
508	1991771													8.559525	-0.926144	-4.586498	-0.475511	-0.840840	0.258605	-0.099890	0.343673	0.933762	-0.874020	0.418182	-0.247412
509	1991938													8.683933	-0.894913	-4.571917	-0.475049	-0.840881	0.259320	-0.099834	0.344295	0.933538	-0.874278	0.417587	-0.247505
510	1992104													8.631926	-0.872356	-4.534940	-0.474248	-0.841061	0.260202	-0.099816	0.345013	0.933275	-0.874714	0.416632	-0.247574
511	1992271													8.548366	-0.949090	-4.534968	-0.473253	-0.841320	0.261177	-0.099838	0.345793	0.932984	-0.875251	0.415462	-0.247643
512	1992438													8.524294	-1.015137	-4.550560	-0.472245	-0.841614	0.262050	-0.099965	0.346506	0.932706	-0.875780	0.414270	-0.247768
513	1992604													8.599997	-1.025675	-4.561862	-0.471194	-0.841989	0.262736	-0.100186	0.347040	0.932484	-0.876321	0.413059	-0.247879
514	1992771													8.750791	-1.013244	-4.558474	-0.469867	-0.842542	0.263341	-0.100439	0.347413	0.932318	-0.877005	0.411616	-0.247862
515	1992938													8.803401	-1.012390	-4.533261	-0.467975	-0.843423	0.263887	-0.100698	0.347548	0.932239	-0.877986	0.409692	-0.247575
516	1993104													8.711759	-0.989447	-4.539097	-0.465548	-0.844580	0.264479	-0.100937	0.347559	0.932210	-0.879248	0.407293	-0.247055
517	1993271													8.530773	-1.005991	-4.513962	-0.462800	-0.845903	0.265073	-0.101125	0.347450	0.932230	-0.880676	0.404631	-0.246342
518	1993438													8.546014	-1.006596	-4.459951	-0.460067	-0.847220	0.265626	-0.101227	0.347267	0.932287	-0.882095	0.402026	-0.245527
519	1993604													8.670915	-1.000144	-4.437087	-0.457228	-0.848585	0.266170	-0.101297	0.347029	0.932368	-0.883562	0.399342	-0.244630
520	1993771													8.891286	-0.991939	-4.409113	-0.453920	-0.850166	0.266786	-0.101403	0.346751	0.932460	-0.885254	0.396209	-0.243607
521	1993938													8.933771	-0.995870	-4.436524	-0.449828	-0.852122	0.267475	-0.101608	0.346368	0.932580	-0.887316	0.392323	-0.242388
522	1994104													8.815596	-0.937343	-4.391345	-0.445106	-0.854309	0.268395	-0.101682	0.346003	0.932707	-0.889686	0.387863	-0.240876
523	1994271													8.745909	-0.952915	-4.326457	-0.440008	-0.856599	0.269502	-0.101608	0.345680	0.932835	-0.892227	0.383071	-0.239139
524	1994438													8.799981	-0.967696	-4.291980	-0.434647	-0.858952	0.270710	-0.101499	0.345393	0.932953	-0.894863	0.378029	-0.237306
525	1994604													9.002613	-0.968463	-4.227069	-0.428929	-0.861423	0.271973	-0.101463	0.345112	0.933061	-0.897622	0.372622	-0.235431
526	1994771													9.147797	-0.962545	-4.224378	-0.422316	-0.864246	0.273365	-0.101622	0.344818	0.933152	-0.900734	0.366305	-0.233448
527	1994938													8.941358	-0.952260	-4.157583	-0.414696	-0.867399	0.275037	-0.101853	0.344599	0.933208	-0.904242	0.358985	-0.231251
528	1995104													8.869351	-1.002129	-4.070620	-0.406822	-0.870582	0.276736	-0.102200	0.344411	0.933240	-0.907772	0.351381	-0.229087
529	1995271													8.947879	-1.017798	-3.999295	-0.398757	-0.873784	0.278378	-0.102663	0.344182	0.933273	-0.911292	0.343570	-0.226950
530	1995438													9.140668	-1.027472	-3.958930	-0.390334	-0.877087	0.279923	-0.103314	0.343850	0.933324	-0.914858	0.335388	-0.224832
531	1995604													9.216663	-0.961017	-3.922537	-0.381077	-0.880656	0.281470	-0.104070	0.343367	0.933418	-0.918667	0.326411	-0.222500
532	1995771													9.034413	-0.969010	-3.868374	-0.371124	-0.884337	0.283222	-0.104705	0.342913	0.933514	-0.922661	0.316795	-0.219858
533	1995938													8.687572	-1.027118	-3.754103	-0.361180	-0.887888	0.284964	-0.105132	0.342417	0.933648	-0.926551	0.307257	-0.217020
534	1996104													8.736507	-1.102132	-3.617010	-0.351853	-0.891135	0.286492	-0.105411	0.341838	0.933828	-0.930101	0.298371	-0.214212
535	1996271													8.982984	-1.090115	-3.509026	-0.342873	-0.894196	0.287839	-0.105552	0.341146	0.934065	-0.933433	0.289883	-0.211354
536	1996438													9.475081	-1.119287	-3.464741	-0.333751	-0.897246	0.289068	-0.105714	0.340342	0.934340	-0.936715	0.281279	-0.208441
537	1996604													9.971834	-1.148300	-3.332088	-0.323403	-0.900642	0.290265	-0.105943	0.339284	0.934699	-0.940312	0.271533	-0.205142
538	1996771													9.856795	-1.133827	-3.145697	-0.310777	-0.904622	0.291678	-0.106120	0.337978	0.935152	-0.944540	0.259671	-0.201034
539	1996938													9.294461	-1.134295	-2.982396	-0.296997	-0.908768	0.293144	-0.106000	0.336476	0.935707	-0.948977	0.246829	-0.196262
540	1997105													9.091558	-1.139381	-2.841548	-0.283355	-0.912717	0.294376	-0.105541	0.334770	0.936371	-0.953190	0.234256	-0.191188
541	1997271													9.135002	-1.118185	-2.720738	-0.270127	-0.916399	0.295373	-0.104843	0.332949	0.937098	-0.957100	0.222167	-0.186016
542	1997438													9.055289	-1.010163	-2.671109	-0.256930	-0.919942	0.296132	-0.104124	0.330985	0.937874	-0.960805	0.210134	-0.180827
543	1997605													8.884359	-0.916765	-2.547091	-0.244427	-0.923106	0.296867	-0.103364	0.329214	0.938581	-0.964143	0.198729	-0.175884
544	1997771													9.028992	-0.881464	-2.383362	-0.232754	-0.925887	0.297589	-0.102561	0.327655	0.939214	-0.967113	0.188084	-0.171222
545	1997938													9.099587	-0.804834	-2.231857	-0.221801	-0.928316	0.298385	-0.101637	0.326350	0.939769	-0.969781	0.178114	-0.166736
546	1998105													9.186549	-0.790381	-2.087650	-0.211615	-0.930356	0.299428	-0.100561	0.325466	0.940191	-0.972166	0.168848	-0.162431
547	1998271													9.403317	-0.830245	-1.973614	-0.201926	-0.932102	0.300686	-0.099457	0.324938	0.940491	-0.974338	0.160004	-0.158317
548	1998438													9.648368	-0.878002	-1.920357	-0.192279	-0.933696	0.302059	-0.098576	0.324623	0.940693	-0.976377	0.151100	-0.154459
549	1998605													9.671347	-0.880697	-1.852189	-0.182201	-0.935260	0.303466	-0.098039	0.324375	0.940834	-0.978361	0.141670	-0.150794
550	1998771													9.419473	-0.805947	-1.711128	-0.171964	-0.936720	0.304931	-0.097725	0.324237	0.940915	-0.980244	0.132004	-0.147298
551	1998938													9.328225	-0.797601	-1.557000	-0.162251	-0.937943	0.306493	-0.097416	0.324318	0.940919	-0.981929	0.122807	-0.143992
552	1999105													9.379029	-0.852119	-1.424253	-0.153308	-0.938929	0.308073	-0.097057	0.324558	0.940873	-0.983401	0.114342	-0.140887
553	1999271													9.490392	-0.885915	-1.321068	-0.145059	-0.939741	0.309587	-0.096752	0.324870	0.940797	-0.984681	0.106518	-0.138047
554	1999438													9.670140	-0.891819	-1.281231	-0.137119	-0.940470	0.310990	-0.096550	0.325149	0.940721	-0.985838	0.098964	-0.135387
555	1999605													9.802449	-0.915567	-1.254460	-0.129087	-0.941188	0.312253	-0.096512	0.325317	0.940667	-0.986926	0.091291	-0.132830
556	1999771													9.928663	-0.912798	-1.235857	-0.120560	-0.941931	0.313420	-0.096602	0.325357	0.940644	-0.987995	0.083127	-0.130218
557	1999938													9.970058	-0.932638	-1.238219	-0.111224	-0.942733	0.314457	-0.096841	0.325196	0.940675	-0.989066	0.074174	-0.127465
558	2000105													10.062483	-0.980518	-1.227445	-0.100817	-0.943611	0.315333	-0.097174	0.324772	0.940787	-0.990148	0.064206	-0.124437
559	2000271													10.182007	-1.019467	-1.158574	-0.089023	-0.944574	0.315999	-0.097631	0.324006	0.941004	-0.991233	0.052920	-0.121063
560	2000438													10.142097	-0.996956	-1.066446	-0.075460	-0.945600	0.316458	-0.098194	0.322867	0.941337	-0.992302	0.039959	-0.117216
561	2000605													9.961365	-1.011856	-0.942987	-0.060458	-0.946575	0.316765	-0.098809	0.321462	0.941753	-0.993268	0.025638	-0.112965
562	2000771													9.875648	-1.022077	-0.804209	-0.044622	-0.947421	0.316863	-0.099354	0.319816	0.942256	-0.994051	0.010564	-0.108401
563	2000938													9.867629	-1.018798	-0.687714	-0.028101	-0.948097	0.316738	-0.099781	0.317942	0.942845	-0.994613	-0.005109	-0.103536
564	2001105													9.801110	-1.009106	-0.509538	-0.010805	-0.948557	0.316421	-0.100198	0.315874	0.943496	-0.994909	-0.021510	-0.098456
565	2001271													9.872510	-1.039711	-0.312328	0.007107	-0.948756	0.315930	-0.100595	0.313657	0.944193	-0.994902	-0.038492	-0.093210
566	2001438													9.828393	-1.028732	-0.157227	0.025636	-0.948697	0.315147	-0.101013	0.311178	0.944968	-0.994555	-0.056059	-0.087854
567	2001605													9.792440	-0.943145	-0.030438	0.044524	-0.948350	0.314086	-0.101624	0.308467	0.945791	-0.993826	-0.074029	-0.082641
568	2001771													9.712406	-0.779496	0.196689	0.063653	-0.947597	0.313062	-0.102568	0.305826	0.946547	-0.992687	-0.092361	-0.077727
569	2001938													9.735353	-0.744637	0.450743	0.083162	-0.946333	0.312310	-0.103890	0.303455	0.947165	-0.991106	-0.111214	-0.073079
570	2002105													9.823197	-0.836799	0.752465	0.102973	-0.944550	0.311804	-0.105549	0.301324	0.947662	-0.989068	-0.130494	-0.068668
571	2002271													9.781250	-0.928977	1.033105	0.123024	-0.942293	0.311365	-0.107140	0.299304	0.948124	-0.986603	-0.150002	-0.064136
572	2002438													9.655724	-1.001913	1.251537	0.142997	-0.939632	0.310874	-0.108501	0.297326	0.948591	-0.983758	-0.169376	-0.059434
573	2002605													9.572134	-1.055507	1.416722	0.162770	-0.936637	0.310188	-0.109659	0.295260	0.949103	-0.980551	-0.188500	-0.054651
574	2002771													9.389688	-1.104946	1.664372	0.182310	-0.933339	0.309258	-0.110555	0.293076	0.949676	-0.977006	-0.207326	-0.049755
575	2002938													9.323673	-1.076593	1.847229	0.201433	-0.929811	0.308018	-0.111067	0.290754	0.950330	-0.973185	-0.225639	-0.044704
576	2003105													9.130280	-1.026582	2.015979	0.219635	-0.926143	0.306627	-0.111137	0.288503	0.951007	-0.969231	-0.242952	-0.039563
577	2003271													9.207143	-1.041007	2.248202	0.236934	-0.922345	0.305191	-0.110953	0.286391	0.951667	-0.965169	-0.259344	-0.034481
578	2003438													9.314059	-1.089311	2.473547	0.253641	-0.918416	0.303608	-0.110634	0.284269	0.952340	-0.960951	-0.275141	-0.029506
579	2003605													9.293794	-1.081978	2.709015	0.270067	-0.914302	0.301855	-0.110195	0.282094	0.953037	-0.956515	-0.290647	-0.024568
580	2003771													9.225595	-1.041931	2.832988	0.286075	-0.910049	0.299953	-0.109596	0.279906	0.953751	-0.951919	-0.305718	-0.019664
581	2003938													9.099147	-0.977530	2.939147	0.301491	-0.905702	0.298005	-0.108871	0.277803	0.954449	-0.947233	-0.320202	-0.014849
582	2004105													9.047837	-0.914273	3.142286	0.316172	-0.901291	0.296157	-0.108214	0.275872	0.955084	-0.942510	-0.334019	-0.010309
583	2004271													9.193201	-0.887164	3.440859	0.330313	-0.896734	0.294553	-0.107621	0.274253	0.955617	-0.937716	-0.347353	-0.005918
584	2004438													9.134966	-0.925561	3.633251	0.343971	-0.892028	0.293206	-0.107044	0.272973	0.956048	-0.932859	-0.360239	-0.001592
585	2004605													9.018991	-0.969687	3.752850	0.356925	-0.887313	0.292028	-0.106538	0.271912	0.956406	-0.928038	-0.372477	0.002520
586	2004771													8.943394	-0.962852	3.847038	0.369042	-0.882686	0.290989	-0.106050	0.271051	0.956705	-0.923343	-0.383923	0.006420
587	2004938													8.991385	-1.003409	3.897853	0.380589	-0.878053	0.290129	-0.105615	0.270415	0.956933	-0.918693	-0.394840	0.010181
588	2005105													8.987370	-1.063479	4.011637	0.391775	-0.873399	0.289287	-0.105319	0.269783	0.957144	-0.914013	-0.405453	0.013709
589	2005271													8.979056	-1.040794	4.071323	0.402722	-0.868710	0.288371	-0.105004	0.269122	0.957365	-0.909280	-0.415832	0.017164
590	2005438													8.906625	-1.013554	4.105165	0.413445	-0.863973	0.287425	-0.104605	0.268509	0.957581	-0.904500	-0.425973	0.020638
591	2005605													8.855927	-0.997905	4.120759	0.424133	-0.859085	0.286505	-0.104063	0.268040	0.957771	-0.899601	-0.436036	0.024286
592	2005771													8.924786	-0.984609	4.244898	0.434857	-0.853991	0.285656	-0.103471	0.267732	0.957921	-0.894535	-0.446116	0.028062
593	2005938													9.054267	-1.067374	4.481781	0.446004	-0.848537	0.284720	-0.102926	0.267376	0.958079	-0.889093	-0.456612	0.031914
594	2006105													8.847532	-1.035905	4.635044	0.457532	-0.842761	0.283581	-0.102354	0.266883	0.958278	-0.883283	-0.467468	0.035847
595	2006271													8.659389	-0.960426	4.727848	0.468828	-0.836919	0.282430	-0.101688	0.266482	0.958461	-0.877416	-0.478073	0.039830
596	2006438													8.594310	-0.945476	4.789376	0.479770	-0.831046	0.281395	-0.100909	0.266325	0.958587	-0.871572	-0.488297	0.043915
597	2006605													8.549478	-0.985260	4.849134	0.490450	-0.825120	0.280419	-0.100113	0.266302	0.958677	-0.865700	-0.498257	0.048003
598	2006771													8.519361	-1.028982	4.899233	0.501002	-0.819141	0.279294	-0.099411	0.266112	0.958802	-0.859718	-0.508127	0.051891
599	2006938													8.502498	-1.001509	5.006504	0.511546	-0.813048	0.277981	-0.098730	0.265755	0.958972	-0.853565	-0.518004	0.055674
600	2007105													8.610895	-1.039713	5.146147	0.522291	-0.806714	0.276449	-0.098036	0.265228	0.959189	-0.847113	-0.528077	0.059439
601	2007271													8.547805	-1.021267	5.321941	0.533483	-0.799999	0.274585	-0.097227	0.264486	0.959476	-0.840204	-0.538561	0.063318
602	2007438													8.297976	-0.990066	5.416111	0.544822	-0.793040	0.272502	-0.096292	0.263650	0.959800	-0.833005	-0.549160	0.067279
603	2007605													8.083030	-0.951334	5.459879	0.555846	-0.786121	0.270278	-0.095176	0.262811	0.960142	-0.825819	-0.559414	0.071262
604	2007771													8.003916	-0.852194	5.505409	0.566388	-0.779332	0.268042	-0.093912	0.262089	0.960463	-0.818771	-0.569167	0.075255
605	2007938													7.982457	-0.832619	5.608241	0.576491	-0.772617	0.265934	-0.092648	0.261553	0.960732	-0.811834	-0.578492	0.079202
606	2008105													8.129711	-0.863530	5.785100	0.586424	-0.765815	0.263882	-0.091501	0.261064	0.960975	-0.804819	-0.587685	0.083021
607	2008271													8.128574	-0.903215	5.970739	0.596570	-0.758685	0.261727	-0.090410	0.260508	0.961229	-0.797452	-0.597104	0.086818
608	2008438													7.860219	-0.841231	6.071084	0.606614	-0.751465	0.259462	-0.089370	0.259842	0.961507	-0.789957	-0.606451	0.090465
609	2008605													7.671838	-0.765799	6.113743	0.616120	-0.744441	0.257301	-0.088433	0.259224	0.961760	-0.782672	-0.615314	0.093880
610	2008771													7.582443	-0.705540	6.164642	0.624954	-0.737705	0.255390	-0.087615	0.258798	0.961950	-0.775730	-0.623550	0.097103
611	2008938													7.665086	-0.664156	6.257203	0.633314	-0.731079	0.253846	-0.087013	0.258663	0.962041	-0.768988	-0.631362	0.100201
612	2009105													7.758859	-0.759967	6.259454	0.641707	-0.724213	0.252443	-0.086714	0.258530	0.962103	-0.762032	-0.639279	0.103101
613	2009271													7.649598	-0.783773	6.306165	0.650250	-0.717050	0.251028	-0.086714	0.258211	0.962189	-0.754755	-0.647431	0.105723
614	2009438													7.539508	-0.804229	6.377585	0.658781	-0.709737	0.249561	-0.086910	0.257702	0.962308	-0.747298	-0.655640	0.108086
615	2009605													7.419606	-0.844345	6.481831	0.667186	-0.702370	0.248070	-0.087192	0.257100	0.962443	-0.739770	-0.663759	0.110293
616	2009771													7.419261	-0.849095	6.637916	0.675404	-0.695023	0.246523	-0.087458	0.256440	0.962595	-0.732244	-0.671701	0.112415
617	2009938													7.263961	-0.892836	6.707048	0.683420	-0.687743	0.244840	-0.087659	0.255650	0.962787	-0.724743	-0.679451	0.114429
618	2010105													7.190066	-0.828388	6.782260	0.691200	-0.680556	0.243074	-0.087725	0.254854	0.962992	-0.717319	-0.686944	0.116453
619	2010271													7.148600	-0.750554	6.849992	0.698833	-0.673322	0.241393	-0.087673	0.254302	0.963143	-0.709892	-0.694239	0.118683
620	2010438													7.127094	-0.729248	7.001470	0.706464	-0.665833	0.239948	-0.087700	0.254061	0.963204	-0.702295	-0.701512	0.121091
621	2010605													7.163412	-0.816969	7.217227	0.714220	-0.657998	0.238597	-0.087889	0.253880	0.963234	-0.694381	-0.708931	0.123495
622	2010771													6.872427	-0.813193	7.360214	0.722075	-0.649899	0.237149	-0.088148	0.253570	0.963292	-0.686177	-0.716473	0.125809
623	2010938													6.574748	-0.755483	7.454607	0.729333	-0.642242	0.235794	-0.088387	0.253309	0.963339	-0.678426	-0.723436	0.127980
624	2011105													6.502242	-0.745407	7.538727	0.735816	-0.635205	0.234713	-0.088618	0.253299	0.963321	-0.671358	-0.729626	0.130091
625	2011271													6.553771	-0.742464	7.662936	0.741613	-0.628740	0.233873	-0.088919	0.253424	0.963260	-0.664909	-0.735162	0.132035
626	2011438													6.677468	-0.840475	7.734577	0.747077	-0.622514	0.233135	-0.089244	0.253615	0.963180	-0.658719	-0.740375	0.133915
627	2011605													6.631876	-0.844912	7.772964	0.752435	-0.616371	0.232225	-0.089494	0.253629	0.963153	-0.652558	-0.745493	0.135678
628	2011771													6.592171	-0.821193	7.881947	0.757734	-0.610219	0.231240	-0.089724	0.253566	0.963148	-0.646366	-0.750557	0.137384
629	2011938													6.419434	-0.802803	7.966767	0.762918	-0.604126	0.230190	-0.089951	0.253402	0.963170	-0.640207	-0.755525	0.138983
630	2012105													6.298910	-0.771037	8.010910	0.767718	-0.598401	0.229184	-0.090152	0.253237	0.963194	-0.634414	-0.760123	0.140468
631	2012271													6.212158	-0.803002	8.050680	0.772116	-0.593047	0.228325	-0.090393	0.253147	0.963196	-0.629020	-0.764337	0.141852
632	2012438													6.221070	-0.885384	8.070402	0.776037	-0.588195	0.227579	-0.090696	0.253012	0.963202	-0.624131	-0.768122	0.143000
633	2012605													6.243110	-0.880838	8.083526	0.779667	-0.583694	0.226760	-0.090971	0.252704	0.963258	-0.619551	-0.771649	0.143926
634	2012771													6.237909	-0.882331	8.074256	0.783189	-0.579271	0.225965	-0.091221	0.252438	0.963304	-0.615056	-0.775061	0.144865
635	2012938													6.147602	-0.924852	8.060641	0.786580	-0.575006	0.225078	-0.091407	0.252062	0.963384	-0.610686	-0.778352	0.145707
636	2013105													6.062386	-0.931406	8.062511	0.789769	-0.571029	0.224033	-0.091432	0.251561	0.963513	-0.606552	-0.781436	0.146465
637	2013271													6.018307	-0.944806	8.060616	0.792689	-0.567430	0.222863	-0.091296	0.250955	0.963684	-0.602752	-0.784248	0.147125
638	2013438													5.992596	-0.897750	8.034594	0.795320	-0.564262	0.221530	-0.090989	0.250186	0.963913	-0.599323	-0.786776	0.147636
639	2013605													5.964652	-0.823830	8.031114	0.797700	-0.561438	0.220142	-0.090574	0.249363	0.964165	-0.596214	-0.789053	0.148065
640	2013772													6.031630	-0.724462	8.027527	0.799885	-0.558802	0.218915	-0.090180	0.248712	0.964370	-0.593339	-0.791127	0.148548
641	2013938													6.039732	-0.693664	8.008161	0.802081	-0.556011	0.217986	-0.089945	0.248375	0.964479	-0.590403	-0.793197	0.149206
642	2014105													5.976694	-0.746928	8.000314	0.804244	-0.553096	0.217432	-0.089905	0.248421	0.964471	-0.587459	-0.795218	0.150065
643	2014272													6.034709	-0.938593	8.036495	0.806460	-0.549990	0.217102	-0.090007	0.248703	0.964389	-0.584398	-0.797282	0.151066
644	2014438													6.115094	-1.017231	8.103003	0.808912	-0.546581	0.216588	-0.089937	0.249017	0.964314	-0.581010	-0.799525	0.152275
645	2014605													6.018976	-1.052971	8.204825	0.811536	-0.542953	0.215899	-0.089636	0.249439	0.964233	-0.577387	-0.801862	0.153761
646	2014772													5.986113	-1.045377	8.272545	0.814229	-0.539315	0.214873	-0.088977	0.249821	0.964195	-0.573685	-0.804194	0.155425
647	2014938													5.793721	-0.975664	8.317760	0.816852	-0.535817	0.213667	-0.088112	0.250161	0.964187	-0.570079	-0.806424	0.157132
648	2015105													5.643843	-0.873348	8.368282	0.819091	-0.532870	0.212461	-0.087112	0.250527	0.964183	-0.567011	-0.808261	0.158785
649	2015272													5.727468	-0.742667	8.430138	0.820851	-0.530553	0.211465	-0.086099	0.251071	0.964132	-0.564616	-0.809615	0.160412
650	2015438													5.770671	-0.752717	8.395415	0.822422	-0.528359	0.210851	-0.085305	0.251912	0.963983	-0.562445	-0.810788	0.162106
651	2015605													5.645607	-0.796640	8.409007	0.823740	-0.526449	0.210484	-0.084735	0.252763	0.963811	-0.560600	-0.811765	0.163602
652	2015772													5.658245	-0.828736	8.355049	0.824802	-0.524867	0.210276	-0.084369	0.253485	0.963653	-0.559092	-0.812564	0.164793
653	2015938													5.683568	-0.777069	8.348978	0.825709	-0.523493	0.210144	-0.084151	0.254052	0.963523	-0.557785	-0.813273	0.165721
654	2016105													5.794985	-0.680837	8.415150	0.826651	-0.522016	0.210114	-0.084020	0.254705	0.963362	-0.556408	-0.814017	0.166692
655	2016272													5.669469	-0.711850	8.440639	0.827683	-0.520321	0.210255	-0.084054	0.255491	0.963151	-0.554866	-0.814856	0.167730
656	2016438													5.583891	-0.708117	8.465894	0.828621	-0.518747	0.210449	-0.084135	0.256258	0.962940	-0.553451	-0.815619	0.168696
657	2016605													5.538172	-0.786225	8.455375	0.829334	-0.517494	0.210726	-0.084350	0.256861	0.962760	-0.552350	-0.816224	0.169373
658	2016772													5.462567	-0.755602	8.442216	0.829761	-0.516670	0.211064	-0.084703	0.257212	0.962636	-0.551653	-0.816636	0.169661
659	2016938													5.334389	-0.769128	8.470601	0.829672	-0.516604	0.211576	-0.085201	0.257380	0.962547	-0.551711	-0.816625	0.169526
660	2017105													5.480155	-0.721762	8.561253	0.828920	-0.517569	0.212167	-0.085630	0.257415	0.962499	-0.552775	-0.816002	0.169057
661	2017272													5.992111	-0.729361	8.582911	0.828292	-0.518250	0.212954	-0.086143	0.257765	0.962360	-0.553635	-0.815460	0.168861
662	2017438													5.691024	-0.883907	8.544109	0.827982	-0.518534	0.213466	-0.086504	0.258009	0.962262	-0.554042	-0.815202	0.168772
663	2017605													5.588554	-0.801352	8.547480	0.827558	-0.519052	0.213853	-0.086755	0.258118	0.962210	-0.554636	-0.814838	0.168577
664	2017772													5.500709	-0.789378	8.593714	0.826920	-0.519854	0.214371	-0.087012	0.258341	0.962127	-0.555546	-0.814255	0.168394
665	2017938													5.546892	-0.823623	8.620090	0.825898	-0.521210	0.215018	-0.087221	0.258661	0.962022	-0.557032	-0.813287	0.168167
666	2018105													5.673233	-0.849403	8.673282	0.824578	-0.523001	0.215732	-0.087416	0.258959	0.961924	-0.558953	-0.812041	0.167813
667	2018272													5.831206	-0.883405	8.710145	0.823114	-0.525048	0.216352	-0.087570	0.259071	0.961880	-0.561084	-0.810683	0.167267
668	2018438													5.682913	-0.820057	8.713886	0.821611	-0.527206	0.216815	-0.087588	0.259075	0.961878	-0.563279	-0.809280	0.166682
669	2018605													5.473148	-0.775056	8.734339	0.819627	-0.530040	0.217414	-0.087579	0.259114	0.961868	-0.566163	-0.807414	0.165957
670	2018772													5.400141	-0.750042	8.727894	0.816767	-0.534060	0.218337	-0.087580	0.259276	0.961824	-0.570281	-0.804709	0.164995
671	2018938													5.423670	-0.789443	8.720371	0.812864	-0.539504	0.219518	-0.087537	0.259447	0.961782	-0.575839	-0.801013	0.163669
672	2019105													5.736115	-0.817391	8.565269	0.808239	-0.545891	0.220801	-0.087429	0.259566	0.961760	-0.582328	-0.796636	0.162064
673	2019272													5.715430	-0.917330	8.457831	0.803288	-0.552727	0.221860	-0.087230	0.259304	0.961848	-0.589169	-0.791994	0.160082
674	2019438													5.441900	-0.847978	8.368720	0.797667	-0.560516	0.222597	-0.086737	0.258633	0.962074	-0.596829	-0.786721	0.157685
675	2019605													5.563857	-0.826567	8.282182	0.790787	-0.569909	0.223293	-0.085875	0.257896	0.962349	-0.606037	-0.780188	0.155000
676	2019772													6.199138	-0.783033	8.123149	0.783221	-0.580125	0.223651	-0.084655	0.256862	0.962733	-0.615953	-0.772966	0.152070
677	2019938													6.369175	-0.772484	7.929995	0.775829	-0.590026	0.223514	-0.083273	0.255400	0.963243	-0.625424	-0.765924	0.149013
678	2020105													6.367147	-0.797641	7.769927	0.768631	-0.599632	0.222819	-0.081828	0.253296	0.963922	-0.634438	-0.759133	0.145624
679	2020272													6.226995	-0.760526	7.646644	0.761322	-0.609281	0.221733	-0.080271	0.250782	0.964710	-0.643386	-0.752254	0.142018
680	2020438													6.221075	-0.710027	7.550590	0.753439	-0.619404	0.220609	-0.078718	0.248131	0.965523	-0.652788	-0.744829	0.138193
681	2020605													6.407535	-0.738227	7.395742	0.744922	-0.630006	0.219506	-0.077283	0.245319	0.966357	-0.662660	-0.736825	0.134055
682	2020772													6.762688	-0.745734	7.296100	0.736138	-0.640682	0.218234	-0.075945	0.242211	0.967247	-0.672557	-0.728601	0.129644
683	2020938													6.832533	-0.655430	7.294585	0.727423	-0.651049	0.216772	-0.074781	0.238811	0.968182	-0.682102	-0.720489	0.125030
684	2021105													6.801246	-0.467329	7.323580	0.718187	-0.661594	0.215640	-0.073990	0.235532	0.969046	-0.691905	-0.711911	0.120205
685	2021272													6.943456	-0.319011	7.276142	0.708227	-0.672340	0.215344	-0.073702	0.232947	0.969693	-0.702127	-0.702634	0.115426
686	2021438													7.245061	-0.381520	7.120368	0.697823	-0.682912	0.216041	-0.074007	0.231262	0.970073	-0.712436	-0.692928	0.110840
687	2021605													7.408044	-0.507363	6.980211	0.687474	-0.692940	0.217286	-0.074791	0.230056	0.970299	-0.722347	-0.683307	0.106331
688	2021772													7.393334	-0.541912	6.865876	0.677189	-0.702473	0.218966	-0.076029	0.229191	0.970408	-0.731870	-0.673797	0.101798
689	2021938													7.368414	-0.532307	6.793969	0.666612	-0.711851	0.221127	-0.077619	0.228751	0.970386	-0.741353	-0.664034	0.097235
690	2022105													7.529518	-0.565000	6.687510	0.655697	-0.721072	0.223867	-0.079529	0.228893	0.970197	-0.750824	-0.653960	0.092739
691	2022272													7.725989	-0.697508	6.487578	0.644789	-0.729889	0.226957	-0.081625	0.229476	0.969886	-0.759990	-0.643897	0.088387
692	2022438													7.757479	-0.743246	6.373835	0.634142	-0.738160	0.230181	-0.083779	0.230345	0.969496	-0.768664	-0.634083	0.084230
693	2022605													7.600908	-0.799946	6.340043	0.623348	-0.746232	0.233612	-0.085918	0.231585	0.969013	-0.777210	-0.624104	0.080243
694	2022772													7.557146	-0.876477	6.241532	0.611788	-0.754602	0.237260	-0.087986	0.233163	0.968449	-0.786113	-0.613361	0.076252
695	2022938													7.745880	-0.887788	6.047768	0.599578	-0.763133	0.241109	-0.089954	0.235097	0.967800	-0.795245	-0.601961	0.072313
696	2023105													7.806238	-0.957055	5.891895	0.587106	-0.771535	0.245030	-0.091748	0.237320	0.967089	-0.804294	-0.590265	0.068545
697	2023272													7.582934	-0.987654	5.887264	0.573941	-0.780151	0.248909	-0.093414	0.239599	0.966367	-0.813551	-0.577890	0.064639
698	2023438													7.614408	-0.938474	5.827905	0.559215	-0.789527	0.252836	-0.094958	0.241971	0.965626	-0.823566	-0.564001	0.060343
699	2023605													7.966770	-0.921175	5.711710	0.543038	-0.799454	0.256871	-0.096368	0.244550	0.964836	-0.834160	-0.548697	0.055758
700	2023772													8.328790	-0.922104	5.470649	0.526340	-0.809246	0.260935	-0.097627	0.247337	0.963999	-0.844651	-0.532866	0.051180
701	2023938													8.298018	-1.009953	5.278279	0.509591	-0.818620	0.264911	-0.098794	0.250181	0.963146	-0.854726	-0.516982	0.046615
702	2024105													8.327922	-1.055475	5.140451	0.492154	-0.828022	0.268634	-0.099876	0.252846	0.962338	-0.864760	-0.500448	0.041740
703	2024272													8.579728	-1.016128	4.893826	0.474280	-0.837230	0.272221	-0.100795	0.255538	0.961530	-0.874585	-0.483473	0.036808
704	2024438													8.910538	-1.023370	4.617823	0.456631	-0.845886	0.275618	-0.101528	0.258232	0.960733	-0.883844	-0.466684	0.032036
705	2024605													9.146502	-1.016797	4.362887	0.440047	-0.853595	0.278808	-0.102113	0.260905	0.959949	-0.892150	-0.450893	0.027648
706	2024772													8.864648	-1.084164	4.229533	0.424316	-0.860549	0.281801	-0.102660	0.263482	0.959186	-0.899676	-0.435928	0.023456
707	2024938													8.841123	-1.045061	4.120083	0.408267	-0.867386	0.284532	-0.103163	0.265855	0.958477	-0.907014	-0.420668	0.019058
708	2025105													9.022095	-1.018927	3.923465	0.391998	-0.874033	0.287060	-0.103627	0.268096	0.957803	-0.914111	-0.405204	0.014520
709	2025272													9.327407	-0.947764	3.666547	0.376290	-0.880086	0.289576	-0.103991	0.270454	0.957100	-0.920648	-0.390260	0.010248
710	2025438													9.161721	-0.964558	3.469049	0.361707	-0.885343	0.292122	-0.104232	0.272970	0.956359	-0.926447	-0.376371	0.006454
711	2025605													8.783472	-0.917217	3.419034	0.346634	-0.890513	0.294671	-0.104482	0.275537	0.955596	-0.932163	-0.362030	0.002467
712	2025772													9.070307	-0.929529	3.268321	0.330492	-0.895730	0.297392	-0.104866	0.278297	0.954753	-0.937965	-0.346725	-0.001957
713	2025938													9.508942	-0.937758	3.077775	0.314203	-0.900654	0.300164	-0.105376	0.281137	0.953865	-0.943489	-0.331338	-0.006573
714	2026105													9.715928	-0.993796	2.838179	0.298998	-0.904907	0.302892	-0.105939	0.283973	0.952962	-0.948355	-0.317021	-0.010958
715	2026272													9.180145	-1.011168	2.724386	0.284666	-0.908636	0.305524	-0.106691	0.286700	0.952061	-0.952671	-0.303616	-0.015329
716	2026438													8.766686	-1.056067	2.644873	0.268949	-0.912595	0.307956	-0.107820	0.289200	0.951177	-0.957101	-0.289022	-0.020616
717	2026605													9.197376	-1.078107	2.503108	0.251470	-0.916826	0.310151	-0.109288	0.291501	0.950307	-0.961675	-0.272870	-0.026894
718	2026772													9.752452	-1.057466	2.268935	0.233845	-0.920795	0.312176	-0.110941	0.293711	0.949435	-0.965924	-0.256654	-0.033471
719	2026938													10.024029	-1.091859	2.060881	0.217545	-0.924116	0.314138	-0.112577	0.295942	0.948549	-0.969536	-0.241717	-0.039653
720	2027105													9.758503	-1.117239	2.002202	0.202474	-0.926912	0.315971	-0.114176	0.298110	0.947678	-0.972609	-0.227957	-0.045472
721	2027272													9.624799	-1.099070	1.900280	0.187542	-0.929461	0.317694	-0.115598	0.300301	0.946814	-0.975431	-0.214292	-0.051125
722	2027438													9.702679	-1.032782	1.761908	0.172509	-0.931742	0.319528	-0.116717	0.302770	0.945890	-0.978068	-0.200469	-0.056520
723	2027605													9.989783	-1.025321	1.520524	0.158183	-0.933561	0.321623	-0.117607	0.305592	0.944871	-0.980381	-0.187288	-0.061453
724	2027772													9.647919	-1.024234	1.359379	0.145065	-0.934903	0.323901	-0.118332	0.308621	0.943796	-0.982321	-0.175240	-0.065859
725	2027938													9.344738	-1.038028	1.326766	0.131645	-0.936061	0.326281	-0.119002	0.311842	0.942652	-0.984128	-0.162923	-0.070340
726	2028105													9.553998	-1.073154	1.220934	0.117442	-0.937101	0.328707	-0.119752	0.315218	0.941433	-0.985833	-0.149927	-0.075199
727	2028272													9.883727	-1.137653	1.060825	0.103200	-0.937946	0.331071	-0.120697	0.318580	0.940180	-0.987310	-0.136986	-0.080330
728	2028438													9.942920	-1.107521	0.870596	0.090162	-0.938491	0.333326	-0.121737	0.321794	0.938951	-0.988459	-0.125236	-0.085235
729	2028605													9.447267	-1.119087	0.833413	0.077603	-0.938856	0.335452	-0.122734	0.324911	0.937747	-0.989401	-0.113943	-0.090016
730	2028772													9.372056	-1.101832	0.791867	0.063997	-0.939139	0.337523	-0.123546	0.328159	0.936508	-0.990273	-0.101633	-0.095026
731	2028938													9.717453	-1.181067	0.635367	0.049526	-0.939260	0.339614	-0.124135	0.331606	0.935215	-0.991029	-0.088476	-0.100172
732	2029105													10.023057	-1.261536	0.418820	0.035427	-0.939178	0.341598	-0.124521	0.335001	0.933953	-0.991584	-0.075624	-0.105079
733	2029272													9.741494	-1.279217	0.241872	0.022234	-0.938941	0.343359	-0.124718	0.338156	0.932789	-0.991943	-0.063563	-0.109584
734	2029438													9.255867	-1.233588	0.194342	0.008682	-0.938641	0.344786	-0.124744	0.341088	0.931718	-0.992151	-0.051099	-0.114128
735	2029605													9.624052	-1.196313	0.106100	-0.006231	-0.938247	0.345910	-0.124485	0.343954	0.930698	-0.992202	-0.037261	-0.118941
736	2029772													10.040481	-1.275914	-0.064535	-0.020980	-0.937675	0.346880	-0.123996	0.346718	0.929737	-0.992061	-0.023506	-0.123542
737	2029938													10.100192	-1.426947	-0.297705	-0.034602	-0.937042	0.347499	-0.123183	0.349054	0.928971	-0.991781	-0.010661	-0.127505
738	2030105													9.590078	-1.518396	-0.400282	-0.047282	-0.936561	0.347302	-0.121824	0.350502	0.928605	-0.991425	0.001596	-0.130668
739	2030272													9.268239	-1.412144	-0.476509	-0.060346	-0.936278	0.346036	-0.120057	0.350959	0.928662	-0.990931	0.014497	-0.133586
740	2030439													9.555739	-1.302169	-0.594796	-0.074593	-0.936006	0.343989	-0.118091	0.350814	0.928970	-0.990197	0.028673	-0.136702
741	2030605													10.042916	-1.221856	-0.789770	-0.088509	-0.935720	0.341460	-0.115992	0.350155	0.929482	-0.989299	0.042661	-0.139528
742	2030772													9.677226	-1.171926	-0.920742	-0.101186	-0.935471	0.338608	-0.113816	0.349005	0.930184	-0.988336	0.055582	-0.141785
743	2030939													9.391649	-1.159133	-0.997357	-0.114132	-0.935158	0.335339	-0.111777	0.347489	0.930998	-0.987157	0.068773	-0.144189
744	2031105													9.510606	-1.083590	-1.126854	-0.127935	-0.934714	0.331575	-0.110081	0.345639	0.931888	-0.985654	0.082721	-0.147114
745	2031272													9.921421	-0.980960	-1.307462	-0.141879	-0.934107	0.327589	-0.108741	0.343641	0.932784	-0.983893	0.096720	-0.150331
746	2031439													9.960397	-0.886877	-1.462664	-0.154558	-0.933437	0.323739	-0.107670	0.341638	0.933644	-0.982099	0.109446	-0.153306
747	2031605													9.335724	-0.933501	-1.552646	-0.166437	-0.932649	0.320100	-0.106839	0.339773	0.934419	-0.980247	0.121323	-0.156194
748	2031772													9.127071	-0.984907	-1.624080	-0.179371	-0.931563	0.316252	-0.106149	0.337916	0.935171	-0.978038	0.134173	-0.159497
749	2031939													9.595395	-0.959165	-1.795315	-0.193241	-0.930114	0.312323	-0.105729	0.336210	0.935833	-0.975438	0.147819	-0.163310
750	2032105													9.950629	-0.942380	-2.013655	-0.206489	-0.928500	0.308627	-0.105504	0.334715	0.936395	-0.972744	0.160794	-0.167075
751	2032272													9.528972	-0.854563	-2.112577	-0.218533	-0.926844	0.305292	-0.105313	0.333427	0.936875	-0.970130	0.172587	-0.170473
752	2032439													9.056267	-0.812357	-2.149605	-0.230752	-0.924847	0.302343	-0.104872	0.332558	0.937234	-0.967345	0.184561	-0.173728
753	2032605													9.372550	-0.887199	-2.286007	-0.243994	-0.922319	0.299656	-0.104306	0.332161	0.937437	-0.964151	0.197473	-0.177249
754	2032772													9.882424	-0.938114	-2.477532	-0.256872	-0.919582	0.297296	-0.103809	0.332092	0.937517	-0.960854	0.209960	-0.180767
755	2032939													10.006289	-0.891028	-2.647514	-0.268060	-0.917034	0.295285	-0.103513	0.332143	0.937532	-0.957825	0.220749	-0.183959
756	2033105													9.410918	-0.836004	-2.744346	-0.277699	-0.914657	0.293744	-0.103229	0.332411	0.937468	-0.955106	0.230011	-0.186729
757	2033272													8.951358	-0.847914	-2.789270	-0.287189	-0.912095	0.292585	-0.102881	0.333057	0.937277	-0.952333	0.239074	-0.189488
758	2033439													9.173242	-0.874676	-2.859141	-0.297533	-0.909129	0.291476	-0.102625	0.333989	0.936973	-0.949180	0.248868	-0.192672
759	2033605													9.661843	-0.896758	-3.051392	-0.307670	-0.906016	0.290643	-0.102488	0.335239	0.936542	-0.945957	0.258359	-0.195999
760	2033772													9.821029	-0.925064	-3.151659	-0.316389	-0.903203	0.290040	-0.102529	0.336514	0.936080	-0.943073	0.266428	-0.199073
761	2033939													9.361166	-0.926759	-3.215642	-0.323404	-0.900800	0.289775	-0.102766	0.337855	0.935571	-0.940664	0.272788	-0.201835
762	2034105													8.741879	-0.972312	-3.170151	-0.330220	-0.898412	0.289500	-0.103024	0.339179	0.935064	-0.938265	0.278951	-0.204562
763	2034272													8.888614	-1.060720	-3.240037	-0.338246	-0.895603	0.288939	-0.103352	0.340532	0.934535	-0.935365	0.286241	-0.207746
764	2034439													9.388871	-1.052538	-3.339228	-0.346492	-0.892721	0.288083	-0.103902	0.341742	0.934033	-0.932281	0.293703	-0.211166
765	2034605													9.530583	-1.034247	-3.461804	-0.353861	-0.890104	0.287222	-0.104562	0.342815	0.933566	-0.929435	0.300320	-0.214380
766	2034772													9.381628	-1.018152	-3.504585	-0.360130	-0.887832	0.286464	-0.105221	0.343765	0.933142	-0.926949	0.305910	-0.217218
767	2034939													9.099667	-1.046534	-3.543720	-0.365672	-0.885781	0.285789	-0.105786	0.344618	0.932763	-0.924712	0.310853	-0.219721
768	2035105													9.044156	-1.103557	-3.602781	-0.371196	-0.883722	0.285041	-0.106235	0.345375	0.932432	-0.922457	0.315834	-0.222084
769	2035272													9.203755	-1.168445	-3.693631	-0.376441	-0.881817	0.284062	-0.106787	0.345873	0.932185	-0.920266	0.320578	-0.224368
770	2035439													9.314904	-1.155226	-3.762872	-0.380999	-0.880159	0.283124	-0.107460	0.346300	0.931949	-0.918309	0.324647	-0.226522
771	2035605													9.323268	-1.074955	-3.822803	-0.384550	-0.878925	0.282155	-0.108172	0.346459	0.931808	-0.916744	0.327806	-0.228306
772	2035772													9.165745	-1.050052	-3.841812	-0.386879	-0.878121	0.281475	-0.108634	0.346521	0.931730	-0.915709	0.329889	-0.229456
773	2035939													8.892474	-1.109933	-3.779694	-0.388828	-0.877429	0.280947	-0.108761	0.346526	0.931714	-0.914868	0.331720	-0.230169
774	2036105													8.920014	-1.150007	-3.783159	-0.390868	-0.876728	0.280304	-0.108703	0.346368	0.931780	-0.914005	0.333733	-0.230687
775	2036272													9.046502	-1.169723	-3.803394	-0.392806	-0.876102	0.279552	-0.108565	0.346038	0.931918	-0.913191	0.335713	-0.231040
776	2036439													9.048674	-1.089567	-3.842705	-0.394215	-0.875693	0.278847	-0.108435	0.345620	0.932089	-0.912599	0.337206	-0.231204
777	2036605													8.708910	-1.027049	-3.829602	-0.395116	-0.875474	0.278261	-0.108124	0.345124	0.932308	-0.912246	0.338283	-0.231023
778	2036772													8.426635	-1.045391	-3.791353	-0.396731	-0.874914	0.277723	-0.107433	0.344729	0.932534	-0.911626	0.340129	-0.230759
779	2036939													8.696689	-1.098372	-3.812236	-0.399303	-0.873987	0.276954	-0.106642	0.344307	0.932781	-0.910596	0.342927	-0.230686
780	2037105													9.031688	-1.088850	-3.848575	-0.401989	-0.873022	0.276112	-0.105949	0.343873	0.933020	-0.909494	0.345810	-0.230728
781	2037272													9.137352	-1.036854	-3.921098	-0.404329	-0.872195	0.275309	-0.105402	0.343440	0.933241	-0.908520	0.348318	-0.230794
782	2037439													9.204758	-1.000437	-3.951215	-0.406318	-0.871483	0.274632	-0.104946	0.343081	0.933425	-0.907685	0.350446	-0.230858
783	2037605													9.307806	-1.014279	-3.942296	-0.407499	-0.871057	0.274235	-0.104533	0.342818	0.933568	-0.907203	0.351761	-0.230752
784	2037772													9.230717	-1.027623	-3.977773	-0.407535	-0.871063	0.274160	-0.104397	0.342695	0.933628	-0.907202	0.351865	-0.230597
785	2037939													9.058805	-1.001850	-3.962182	-0.406558	-0.871479	0.274290	-0.104504	0.342609	0.933648	-0.907628	0.350918	-0.230364
786	2038105													8.865785	-0.972268	-3.982872	-0.404975	-0.872093	0.274679	-0.104580	0.342626	0.933633	-0.908327	0.349372	-0.229958
787	2038272													8.816698	-1.000127	-3.975331	-0.403368	-0.872682	0.275173	-0.104578	0.342719	0.933599	-0.909042	0.347807	-0.229505
788	2038439													8.883238	-1.012946	-3.962723	-0.401749	-0.873262	0.275700	-0.104580	0.342847	0.933552	-0.909758	0.346221	-0.229064
789	2038605													8.964640	-0.999982	-3.965193	-0.400015	-0.873883	0.276254	-0.104674	0.343009	0.933482	-0.910512	0.344490	-0.228682
790	2038772													8.651641	-0.939766	-3.953518	-0.397973	-0.874613	0.276892	-0.104742	0.343169	0.933415	-0.911398	0.342472	-0.228181
791	2038939													8.192944	-0.952125	-3.857524	-0.396758	-0.874977	0.277485	-0.104542	0.343403	0.933352	-0.911951	0.341306	-0.227720
792	2039105													8.362372	-1.059878	-3.784283	-0.397074	-0.874705	0.277893	-0.104058	0.343740	0.933282	-0.911869	0.341665	-0.227510
793	2039272													8.774216	-1.116643	-3.785480	-0.398184	-0.874187	0.277933	-0.103731	0.343956	0.933239	-0.911421	0.342771	-0.227638
794	2039439													9.053301	-1.100969	-3.812076	-0.399300	-0.873740	0.277738	-0.103681	0.344027	0.933218	-0.910939	0.343837	-0.227960
795	2039605													9.150709	-1.034753	-3.842362	-0.400021	-0.873459	0.277583	-0.103671	0.344050	0.933210	-0.910624	0.344526	-0.228180
796	2039772													9.127230	-0.988045	-3.859528	-0.400277	-0.873350	0.277557	-0.103615	0.344070	0.933209	-0.910518	0.344783	-0.228216
797	2039939													9.027072	-0.982162	-3.886286	-0.400054	-0.873376	0.277795	-0.103436	0.344197	0.933182	-0.910636	0.344590	-0.228037
798	2040105													8.961761	-1.017073	-3.914871	-0.399572	-0.873487	0.278142	-0.103207	0.344352	0.933151	-0.910874	0.344154	-0.227743
799	2040272													9.012742	-1.045582	-3.911123	-0.398915	-0.873673	0.278501	-0.103070	0.344509	0.933108	-0.911177	0.343525	-0.227479
800	2040439													9.105467	-1.039972	-3.917804	-0.397689	-0.874072	0.279001	-0.103064	0.344714	0.933033	-0.911714	0.342302	-0.227174
801	2040605													8.898755	-0.976077	-3.900833	-0.395494	-0.874864	0.279638	-0.103052	0.344806	0.933000	-0.912669	0.340179	-0.226525
802	2040772													8.775709	-0.953445	-3.827578	-0.393381	-0.875561	0.280437	-0.102769	0.344996	0.932961	-0.913614	0.338189	-0.225695
803	2040939													8.916608	-0.983003	-3.810088	-0.391480	-0.876116	0.281361	-0.102395	0.345343	0.932874	-0.914472	0.336391	-0.224905
804	2041105													9.031588	-0.990737	-3.779157	-0.389422	-0.876705	0.282381	-0.102107	0.345784	0.932742	-0.915382	0.334397	-0.224174
805	2041272													9.088721	-1.006264	-3.770514	-0.387066	-0.877389	0.283493	-0.101918	0.346287	0.932576	-0.916402	0.332076	-0.223457
806	2041439													9.069532	-0.962688	-3.788605	-0.384262	-0.878226	0.284713	-0.101855	0.346836	0.932379	-0.917588	0.329279	-0.222728
807	2041605													8.925799	-0.966579	-3.723575	-0.381281	-0.879089	0.286056	-0.101762	0.347461	0.932156	-0.918841	0.326304	-0.221938
808	2041772													8.967733	-1.013846	-3.731721	-0.378332	-0.879925	0.287397	-0.101649	0.348089	0.931934	-0.920072	0.323367	-0.221137
809	2041939													9.150541	-1.039092	-3.718939	-0.375200	-0.880844	0.288683	-0.101566	0.348626	0.931742	-0.921363	0.320270	-0.220268
810	2042105													9.322199	-0.995290	-3.684418	-0.371503	-0.881987	0.289974	-0.101536	0.349050	0.931587	-0.922863	0.316645	-0.219226
811	2042272													9.335169	-0.987447	-3.676131	-0.366837	-0.883450	0.291456	-0.101540	0.349449	0.931437	-0.924727	0.312091	-0.217897
812	2042439													8.967633	-1.005235	-3.615532	-0.361280	-0.885272	0.292864	-0.101544	0.349562	0.931394	-0.926912	0.306756	-0.216184
813	2042605													8.778407	-1.003711	-3.511744	-0.356038	-0.886957	0.294184	-0.101479	0.349650	0.931368	-0.928945	0.301749	-0.214496
814	2042772													8.934598	-0.992807	-3.469072	-0.351260	-0.888480	0.295331	-0.101429	0.349684	0.931361	-0.930768	0.297195	-0.212948
815	2042939													9.130792	-0.983978	-3.420212	-0.346544	-0.889941	0.296500	-0.101365	0.349764	0.931338	-0.932541	0.292695	-0.211417
816	2043105													9.307563	-0.994150	-3.381897	-0.341565	-0.891458	0.297718	-0.101358	0.349860	0.931303	-0.934377	0.287925	-0.209856
817	2043272													9.352099	-0.975399	-3.341620	-0.335934	-0.893162	0.299014	-0.101462	0.349932	0.931264	-0.936405	0.282505	-0.208176
818	2043439													9.213474	-0.942309	-3.292169	-0.329817	-0.894980	0.300385	-0.101557	0.349979	0.931236	-0.938566	0.276632	-0.206320
819	2043605													9.259992	-0.943556	-3.237583	-0.323576	-0.896725	0.301966	-0.101519	0.350194	0.931160	-0.940740	0.270646	-0.204349
820	2043772													9.384726	-0.955430	-3.216508	-0.317042	-0.898485	0.303659	-0.101405	0.350455	0.931074	-0.942975	0.264397	-0.202220
821	2043939													9.475815	-0.980625	-3.134919	-0.309582	-0.900456	0.305514	-0.101358	0.350718	0.930980	-0.945455	0.257248	-0.199844
822	2044105													9.026567	-0.973351	-2.996569	-0.301286	-0.902593	0.307493	-0.101316	0.350954	0.930895	-0.948136	0.249312	-0.197184
823	2044272													8.975100	-1.034694	-2.839855	-0.293619	-0.904470	0.309389	-0.101285	0.351268	0.930780	-0.950542	0.241958	-0.194748
824	2044439													9.177993	-1.048374	-2.773532	-0.286426	-0.906226	0.310991	-0.101506	0.351466	0.930682	-0.952710	0.235004	-0.192656
825	2044605													9.408806	-1.016145	-2.730319	-0.279411	-0.907924	0.312416	-0.101959	0.351591	0.930585	-0.954743	0.228162	-0.190810
826	2044772													9.603215	-0.997298	-2.669050	-0.272299	-0.909634	0.313720	-0.102587	0.351626	0.930503	-0.956729	0.221191	-0.189064
827	2044939													9.741480	-0.999345	-2.607512	-0.264750	-0.911398	0.315057	-0.103230	0.351624	0.930432	-0.958776	0.213808	-0.187176
828	2045105													9.919438	-1.035051	-2.563767	-0.256466	-0.913322	0.316336	-0.103840	0.351424	0.930440	-0.960959	0.205778	-0.184967
829	2045272													10.114204	-1.039796	-2.525307	-0.246821	-0.915499	0.317711	-0.104534	0.351094	0.930487	-0.963406	0.196452	-0.182358
830	2045439													9.660437	-1.005660	-2.460827	-0.234605	-0.918094	0.319474	-0.105282	0.350710	0.930547	-0.966373	0.184676	-0.178937
831	2045605													9.082784	-1.066623	-2.286597	-0.222017	-0.920624	0.321184	-0.105815	0.350209	0.930675	-0.969284	0.172640	-0.175168
832	2045772													9.048765	-1.083891	-2.116932	-0.210367	-0.922868	0.322584	-0.106091	0.349570	0.930884	-0.971849	0.161604	-0.171445
833	2045939													9.325201	-0.988822	-1.989635	-0.199665	-0.924838	0.323740	-0.106040	0.348847	0.931161	-0.974109	0.151591	-0.167723
834	2046105													9.462624	-0.839524	-1.858025	-0.189023	-0.926578	0.325152	-0.105309	0.348339	0.931434	-0.976309	0.141821	-0.163421
835	2046272													9.281274	-1.025793	-1.717615	-0.178658	-0.927941	0.327120	-0.103858	0.348398	0.931575	-0.978414	0.132459	-0.158618
836	2046439													9.529144	-1.304225	-1.606710	-0.168858	-0.929158	0.328865	-0.102405	0.348389	0.931739	-0.980306	0.123654	-0.153978
837	2046605													9.869453	-1.340466	-1.547797	-0.158898	-0.930557	0.329872	-0.101765	0.347774	0.932039	-0.982036	0.114530	-0.149959
838	2046772													10.154600	-1.045880	-1.540048	-0.148006	-0.932172	0.330380	-0.101736	0.346637	0.932466	-0.983740	0.104399	-0.146140
839	2046939													10.336414	-0.854368	-1.498564	-0.135706	-0.933787	0.331097	-0.101578	0.345541	0.932890	-0.985528	0.092967	-0.141744
840	2047106													10.381423	-0.914728	-1.428622	-0.121530	-0.935370	0.332135	-0.101098	0.344540	0.933312	-0.987426	0.079847	-0.136435
841	2047272													10.318830	-0.984512	-1.360222	-0.105385	-0.936918	0.333286	-0.100426	0.343466	0.933780	-0.989348	0.064936	-0.130287
842	2047439													10.276075	-1.085256	-1.283191	-0.087071	-0.938414	0.334362	-0.099837	0.342166	0.934320	-0.991187	0.047970	-0.123481
843	2047606													10.187252	-1.131819	-1.198001	-0.066898	-0.939802	0.335108	-0.099335	0.340465	0.934995	-0.992803	0.029262	-0.116132
844	2047772													10.247864	-1.100902	-1.023930	-0.044877	-0.941018	0.335367	-0.098923	0.338241	0.935846	-0.994083	0.008823	-0.108268
845	2047939													10.017312	-1.069242	-0.804858	-0.020661	-0.941868	0.335348	-0.098541	0.335705	0.936799	-0.994918	-0.013691	-0.099749
846	2048106													9.769501	-1.077804	-0.561581	0.004726	-0.942237	0.334913	-0.098084	0.332865	0.937859	-0.995167	-0.037282	-0.090845
847	2048272													9.691486	-1.083033	-0.370674	0.030606	-0.942082	0.333984	-0.097431	0.329737	0.939032	-0.994772	-0.061280	-0.081696
848	2048439													9.679263	-1.105809	-0.178934	0.056769	-0.941426	0.332406	-0.096754	0.326188	0.940340	-0.993688	-0.085543	-0.072570
849	2048606													9.272355	-0.892955	0.193931	0.083618	-0.940171	0.330284	-0.095899	0.322314	0.941763	-0.991873	-0.110422	-0.063211
850	2048772													8.996061	-0.812070	0.560043	0.109129	-0.938302	0.328146	-0.094655	0.318808	0.943081	-0.989511	-0.133978	-0.054023
851	2048939													9.188005	-0.912569	0.899123	0.133016	-0.935964	0.326004	-0.092625	0.315748	0.944311	-0.986776	-0.155805	-0.044694
852	2049106													9.299286	-1.037238	1.112280	0.155379	-0.933326	0.323665	-0.089999	0.312908	0.945510	-0.983747	-0.176042	-0.035379
853	2049272													9.617555	-0.999223	1.291926	0.177102	-0.930319	0.321156	-0.087009	0.310237	0.946669	-0.980339	-0.195600	-0.026002
854	2049439													9.484718	-0.938394	1.677852	0.199421	-0.926710	0.318497	-0.084154	0.307628	0.947778	-0.976294	-0.215809	-0.016639
855	2049606													9.142571	-0.741846	1.995461	0.221419	-0.922622	0.315819	-0.081650	0.305180	0.948788	-0.971755	-0.235866	-0.007760
856	2049772													8.767305	-0.670590	2.350660	0.241696	-0.918361	0.313362	-0.079176	0.303195	0.949633	-0.967116	-0.254333	0.000569
857	2049939													8.843939	-0.662061	2.618618	0.259429	-0.914263	0.311160	-0.076840	0.301629	0.950324	-0.962701	-0.270451	0.008000
858	2050106													9.234140	-0.590187	2.756196	0.275572	-0.910225	0.309111	-0.074896	0.300254	0.950914	-0.958358	-0.285197	0.014569
859	2050272													9.331071	-0.483198	2.954108	0.291399	-0.905912	0.307261	-0.073279	0.299118	0.951398	-0.953791	-0.299752	0.020778
860	2050439													9.267792	-0.375019	3.173096	0.307205	-0.901210	0.305689	-0.071851	0.298340	0.951751	-0.948927	-0.314346	0.026899
861	2050606													8.864512	-0.533080	3.425377	0.322134	-0.896368	0.304556	-0.070629	0.298053	0.951933	-0.944056	-0.328160	0.032703
862	2050772													8.842180	-0.624794	3.620664	0.335479	-0.891839	0.303443	-0.069641	0.297750	0.952100	-0.939470	-0.340542	0.037781
863	2050939													9.088318	-0.664901	3.674241	0.347793	-0.887508	0.302274	-0.068941	0.297320	0.952286	-0.935033	-0.352037	0.042220
864	2051106													9.272503	-0.618442	3.736819	0.360108	-0.883023	0.300985	-0.068461	0.296747	0.952499	-0.930395	-0.363608	0.046408
