// Start Time: Unknown
// Update Rate: 60.0Hz
//Filter Profile: human (46.1)
// Option Flags: AHS Disabled ICC Disabled
// Firmware Version: 4.0.2
0	sampleTimeFine	Year	Month	Day	Second	UTC_Nano	UTC_Year	UTC_Month	UTC_Day	UTC_Hour	UTC_Minute	UTC_Second	UTC_Valid	Acc_X	Acc_Y	Acc_Z	Mat[1][1]	Mat[2][1]	Mat[3][1]	Mat[1][2]	Mat[2][2]	Mat[3][2]	Mat[1][3]	Mat[2][3]	Mat[3][3]
0	1906769													0.793653	-0.182230	-0.435859	0.369810	-0.885749	-0.280516	-0.031225	-0.313598	0.949042	-0.928582	-0.342206	-0.143630
1	1906936													9.098093	-0.243547	3.677128	0.369994	-0.885166	-0.282109	-0.030747	-0.315159	0.948541	-0.928525	-0.342280	-0.143823
2	1907103													9.103607	-0.268866	3.714138	0.370927	-0.884479	-0.283037	-0.029592	-0.315882	0.948337	-0.928190	-0.343388	-0.143342
3	1907269													9.105734	-0.290694	3.712170	0.372192	-0.883822	-0.283430	-0.028921	-0.316264	0.948230	-0.927705	-0.344727	-0.143272
4	1907769													9.125075	-0.277570	3.606830	0.373179	-0.883130	-0.284287	-0.028781	-0.317296	0.947890	-0.927313	-0.345550	-0.143825
5	1907936													9.102062	-0.267420	3.628513	0.372794	-0.883080	-0.284945	-0.028831	-0.317957	0.947667	-0.927466	-0.345069	-0.143993
6	1908103													9.110219	-0.237331	3.624165	0.372451	-0.883079	-0.285398	-0.028967	-0.318436	0.947502	-0.927600	-0.344631	-0.144182
7	1908269													9.145102	-0.282399	3.587656	0.372256	-0.883138	-0.285470	-0.029064	-0.318517	0.947472	-0.927675	-0.344405	-0.144237
8	1908436													9.138232	-0.299804	3.619481	0.372101	-0.883136	-0.285678	-0.029235	-0.318778	0.947379	-0.927732	-0.344169	-0.144436
9	1908603													9.153830	-0.272112	3.656955	0.372062	-0.883035	-0.286041	-0.029426	-0.319230	0.947220	-0.927741	-0.344007	-0.144757
10	1908769													9.106214	-0.312629	3.650226	0.372075	-0.882940	-0.286316	-0.029584	-0.319586	0.947095	-0.927731	-0.343920	-0.145030
11	1908936													9.024257	-0.323577	3.664946	0.371985	-0.882942	-0.286427	-0.029814	-0.319776	0.947024	-0.927760	-0.343739	-0.145276
12	1909103													9.138673	-0.243750	3.732670	0.371780	-0.882969	-0.286611	-0.029817	-0.319940	0.946969	-0.927842	-0.343519	-0.145274
13	1909269													9.184260	-0.259260	3.657766	0.371565	-0.882980	-0.286856	-0.029673	-0.320114	0.946914	-0.927933	-0.343329	-0.145144
14	1909436													9.096843	-0.348751	3.670373	0.371324	-0.883051	-0.286948	-0.029779	-0.320211	0.946878	-0.928026	-0.343054	-0.145198
15	1909603													9.052418	-0.304927	3.709720	0.370951	-0.883054	-0.287423	-0.029965	-0.320726	0.946698	-0.928169	-0.342566	-0.145434
16	1909769													9.125284	-0.248582	3.647359	0.370678	-0.882987	-0.287979	-0.030027	-0.321299	0.946502	-0.928276	-0.342200	-0.145612
17	1909936													9.064273	-0.302558	3.618811	0.370572	-0.882962	-0.288191	-0.030074	-0.321526	0.946423	-0.928317	-0.342051	-0.145703
18	1910103													9.068912	-0.352243	3.652997	0.370395	-0.883007	-0.288282	-0.030246	-0.321657	0.946373	-0.928382	-0.341813	-0.145848
19	1910269													9.111020	-0.343725	3.615413	0.370099	-0.883087	-0.288416	-0.030433	-0.321820	0.946312	-0.928494	-0.341452	-0.145980
20	1910436													9.117077	-0.301802	3.604176	0.369985	-0.883041	-0.288704	-0.030564	-0.322157	0.946193	-0.928535	-0.341253	-0.146182
21	1910603													9.113190	-0.297683	3.642913	0.369977	-0.882971	-0.288929	-0.030703	-0.322448	0.946089	-0.928534	-0.341160	-0.146408
22	1910769													9.135412	-0.318310	3.654341	0.369958	-0.882902	-0.289164	-0.030920	-0.322776	0.945970	-0.928534	-0.341028	-0.146713
23	1910936													9.137671	-0.304437	3.678164	0.370025	-0.882765	-0.289493	-0.031120	-0.323214	0.945814	-0.928500	-0.340966	-0.147069
24	1911103													9.109944	-0.287796	3.674075	0.369979	-0.882721	-0.289689	-0.031283	-0.323476	0.945719	-0.928513	-0.340834	-0.147293
25	1911269													9.084706	-0.331937	3.625072	0.369868	-0.882693	-0.289914	-0.031530	-0.323789	0.945604	-0.928549	-0.340608	-0.147590
26	1911436													9.064636	-0.319831	3.658073	0.369637	-0.882733	-0.290089	-0.031645	-0.323979	0.945535	-0.928637	-0.340324	-0.147689
27	1911603													9.135934	-0.276280	3.609576	0.369364	-0.882788	-0.290270	-0.031709	-0.324149	0.945474	-0.928744	-0.340020	-0.147722
28	1911769													9.124035	-0.307135	3.592912	0.369424	-0.882775	-0.290231	-0.031901	-0.324188	0.945455	-0.928713	-0.340015	-0.147925
29	1911936													9.119781	-0.354748	3.596311	0.369308	-0.882933	-0.289899	-0.032139	-0.323900	0.945545	-0.928751	-0.339881	-0.147996
30	1912103													9.150681	-0.315286	3.635830	0.369212	-0.882973	-0.289900	-0.032268	-0.323931	0.945530	-0.928785	-0.339747	-0.148091
31	1912269													9.116958	-0.295702	3.625301	0.369079	-0.883016	-0.289936	-0.032357	-0.323980	0.945510	-0.928834	-0.339587	-0.148147
32	1912436													9.102238	-0.306992	3.636384	0.368955	-0.883050	-0.289993	-0.032419	-0.324043	0.945487	-0.928882	-0.339440	-0.148185
33	1912603													9.112498	-0.307239	3.631141	0.368885	-0.883042	-0.290106	-0.032474	-0.324171	0.945441	-0.928908	-0.339338	-0.148257
34	1912769													9.110939	-0.307504	3.635258	0.368827	-0.883058	-0.290131	-0.032468	-0.324187	0.945436	-0.928931	-0.339282	-0.148240
35	1912936													9.127336	-0.286730	3.641466	0.368793	-0.883041	-0.290224	-0.032436	-0.324269	0.945409	-0.928945	-0.339246	-0.148231
36	1913103													9.130093	-0.295885	3.632851	0.368851	-0.882978	-0.290341	-0.032379	-0.324383	0.945371	-0.928924	-0.339300	-0.148239
37	1913269													9.120877	-0.294676	3.655828	0.368824	-0.882981	-0.290367	-0.032298	-0.324377	0.945376	-0.928938	-0.339299	-0.148156
38	1913436													9.127000	-0.292512	3.622569	0.368745	-0.883000	-0.290411	-0.032216	-0.324380	0.945378	-0.928972	-0.339248	-0.148060
39	1913603													9.095513	-0.301740	3.626595	0.368607	-0.883045	-0.290447	-0.032166	-0.324377	0.945381	-0.929029	-0.339132	-0.147971
40	1913770													9.112108	-0.310375	3.641198	0.368463	-0.883030	-0.290678	-0.032176	-0.324603	0.945303	-0.929086	-0.338956	-0.148017
41	1913936													9.125308	-0.319749	3.658832	0.368397	-0.883111	-0.290514	-0.032220	-0.324433	0.945360	-0.929110	-0.338907	-0.147974
42	1914103													9.125637	-0.318880	3.621911	0.368339	-0.883088	-0.290658	-0.032176	-0.324561	0.945317	-0.929135	-0.338845	-0.147963
43	1914270													9.141018	-0.310054	3.624222	0.368250	-0.883099	-0.290737	-0.032142	-0.324618	0.945299	-0.929171	-0.338761	-0.147925
44	1914436													9.119496	-0.309953	3.614641	0.368185	-0.883170	-0.290604	-0.032165	-0.324472	0.945348	-0.929196	-0.338715	-0.147873
45	1914603													9.107996	-0.298864	3.643647	0.368069	-0.883164	-0.290768	-0.032222	-0.324649	0.945285	-0.929240	-0.338561	-0.147950
46	1914770													9.127682	-0.271204	3.603205	0.368013	-0.883173	-0.290810	-0.032231	-0.324689	0.945272	-0.929262	-0.338500	-0.147955
47	1914936													9.097911	-0.269116	3.624700	0.367964	-0.883189	-0.290827	-0.032291	-0.324720	0.945259	-0.929279	-0.338430	-0.148005
48	1915103													9.144155	-0.275536	3.646512	0.367912	-0.883229	-0.290771	-0.032349	-0.324672	0.945273	-0.929298	-0.338371	-0.148023
49	1915270													9.146923	-0.306813	3.656997	0.367806	-0.883311	-0.290655	-0.032463	-0.324572	0.945304	-0.929336	-0.338253	-0.148055
50	1915436													9.074655	-0.317074	3.633998	0.367692	-0.883336	-0.290722	-0.032598	-0.324673	0.945264	-0.929376	-0.338090	-0.148174
51	1915603													9.081736	-0.302551	3.611676	0.367554	-0.883347	-0.290865	-0.032645	-0.324820	0.945212	-0.929429	-0.337921	-0.148226
52	1915770													9.185591	-0.262325	3.590168	0.367459	-0.883340	-0.291006	-0.032437	-0.324879	0.945199	-0.929474	-0.337882	-0.148033
53	1915936													9.189619	-0.290942	3.602413	0.367542	-0.883267	-0.291123	-0.032333	-0.324980	0.945168	-0.929445	-0.337976	-0.148002
54	1916103													9.046525	-0.319597	3.702624	0.367663	-0.883268	-0.290968	-0.032529	-0.324905	0.945187	-0.929390	-0.338045	-0.148188
55	1916270													9.073383	-0.278659	3.726110	0.367452	-0.883381	-0.290891	-0.032627	-0.324823	0.945212	-0.929470	-0.337829	-0.148179
56	1916436													9.094484	-0.258070	3.636391	0.367340	-0.883435	-0.290869	-0.032640	-0.324786	0.945224	-0.929514	-0.337724	-0.148142
57	1916603													9.093091	-0.301545	3.648679	0.367251	-0.883550	-0.290631	-0.032648	-0.324518	0.945316	-0.929549	-0.337680	-0.148026
58	1916770													9.094855	-0.330753	3.639781	0.367064	-0.883646	-0.290574	-0.032734	-0.324457	0.945334	-0.929620	-0.337486	-0.148022
59	1916936													9.113499	-0.311291	3.599622	0.366823	-0.883709	-0.290688	-0.032823	-0.324570	0.945292	-0.929712	-0.337213	-0.148065
60	1917103													9.128677	-0.260995	3.619609	0.366801	-0.883759	-0.290562	-0.032835	-0.324436	0.945338	-0.929720	-0.337210	-0.148022
61	1917270													9.112844	-0.287352	3.633115	0.366815	-0.883749	-0.290577	-0.032886	-0.324472	0.945323	-0.929712	-0.337203	-0.148084
62	1917436													9.137232	-0.302862	3.594455	0.366834	-0.883729	-0.290612	-0.032999	-0.324555	0.945291	-0.929701	-0.337175	-0.148220
63	1917603													9.130142	-0.288883	3.628105	0.366854	-0.883745	-0.290540	-0.033120	-0.324524	0.945297	-0.929689	-0.337164	-0.148322
64	1917770													9.085612	-0.296510	3.616264	0.366726	-0.883777	-0.290605	-0.033307	-0.324640	0.945251	-0.929733	-0.336969	-0.148490
65	1917936													9.113574	-0.294291	3.646462	0.366519	-0.883913	-0.290451	-0.033441	-0.324489	0.945298	-0.929809	-0.336757	-0.148490
66	1918103													9.138265	-0.232647	3.593495	0.366430	-0.883980	-0.290358	-0.033444	-0.324375	0.945337	-0.929844	-0.336689	-0.148424
67	1918270													9.132715	-0.288074	3.617248	0.366521	-0.884016	-0.290136	-0.033585	-0.324204	0.945391	-0.929803	-0.336761	-0.148517
68	1918436													9.113279	-0.304465	3.658136	0.366492	-0.884067	-0.290017	-0.033798	-0.324149	0.945402	-0.929807	-0.336680	-0.148677
69	1918603													9.132845	-0.290536	3.642366	0.366366	-0.884173	-0.289852	-0.033926	-0.323997	0.945450	-0.929852	-0.336547	-0.148698
70	1918770													9.140323	-0.289146	3.628477	0.366229	-0.884336	-0.289526	-0.034048	-0.323669	0.945558	-0.929901	-0.336433	-0.148647
71	1918936													9.090152	-0.305216	3.614700	0.366136	-0.884524	-0.289070	-0.034161	-0.323207	0.945712	-0.929934	-0.336384	-0.148554
72	1919103													9.119929	-0.300799	3.604156	0.366104	-0.884601	-0.288875	-0.034255	-0.323027	0.945769	-0.929943	-0.336355	-0.148563
73	1919270													9.128662	-0.283014	3.612563	0.366153	-0.884578	-0.288885	-0.034340	-0.323076	0.945750	-0.929921	-0.336369	-0.148672
74	1919436													9.107017	-0.307128	3.642518	0.366205	-0.884526	-0.288976	-0.034421	-0.323212	0.945700	-0.929897	-0.336374	-0.148809
75	1919603													9.103602	-0.315448	3.666900	0.366088	-0.884587	-0.288938	-0.034498	-0.323180	0.945709	-0.929941	-0.336245	-0.148829
76	1919770													9.117998	-0.313102	3.657240	0.365908	-0.884607	-0.289105	-0.034567	-0.323352	0.945647	-0.930009	-0.336026	-0.148896
77	1919936													9.134608	-0.279833	3.665861	0.365801	-0.884644	-0.289127	-0.034632	-0.323381	0.945635	-0.930048	-0.335901	-0.148930
78	1920103													9.122987	-0.312081	3.611762	0.365716	-0.884701	-0.289060	-0.034705	-0.323321	0.945653	-0.930079	-0.335808	-0.148947
79	1920270													9.110793	-0.298531	3.643965	0.365720	-0.884816	-0.288703	-0.034788	-0.322970	0.945770	-0.930075	-0.335843	-0.148897
80	1920436													9.094964	-0.326890	3.642185	0.365700	-0.884863	-0.288584	-0.034898	-0.322880	0.945796	-0.930078	-0.335806	-0.148958
81	1920603													9.083433	-0.317979	3.629301	0.365580	-0.884877	-0.288694	-0.034984	-0.323007	0.945750	-0.930122	-0.335647	-0.149041
82	1920770													9.138438	-0.323895	3.611082	0.365484	-0.884961	-0.288557	-0.035092	-0.322883	0.945788	-0.930156	-0.335545	-0.149063
83	1920936													9.142653	-0.304021	3.613375	0.365483	-0.884954	-0.288582	-0.035177	-0.322941	0.945765	-0.930153	-0.335509	-0.149160
84	1921103													9.121684	-0.296019	3.620702	0.365544	-0.884938	-0.288550	-0.035276	-0.322953	0.945757	-0.930125	-0.335537	-0.149271
85	1921270													9.110229	-0.302348	3.645655	0.365721	-0.884880	-0.288507	-0.035349	-0.322964	0.945751	-0.930053	-0.335682	-0.149394
86	1921436													9.129028	-0.325935	3.623699	0.365838	-0.884814	-0.288561	-0.035475	-0.323086	0.945704	-0.930002	-0.335738	-0.149586
87	1921603													9.131397	-0.334254	3.631757	0.365983	-0.884790	-0.288450	-0.035606	-0.323040	0.945715	-0.929940	-0.335845	-0.149731
88	1921770													9.133969	-0.299979	3.653600	0.366039	-0.884808	-0.288323	-0.035663	-0.322935	0.945749	-0.929916	-0.335899	-0.149761
89	1921936													9.110761	-0.314840	3.638258	0.366077	-0.884815	-0.288254	-0.035761	-0.322902	0.945756	-0.929897	-0.335912	-0.149849
90	1922103													9.048255	-0.337794	3.608486	0.366160	-0.884882	-0.287941	-0.035886	-0.322628	0.945845	-0.929860	-0.335997	-0.149889
91	1922270													9.147263	-0.286540	3.659329	0.366177	-0.884855	-0.288004	-0.035771	-0.322657	0.945840	-0.929857	-0.336043	-0.149802
92	1922436													9.227335	-0.301350	3.597550	0.366283	-0.884785	-0.288085	-0.035563	-0.322686	0.945838	-0.929824	-0.336199	-0.149660
93	1922603													9.121886	-0.343579	3.675600	0.366578	-0.884648	-0.288130	-0.035644	-0.322814	0.945791	-0.929704	-0.336436	-0.149869
94	1922770													9.058036	-0.309426	3.748985	0.366569	-0.884543	-0.288464	-0.035722	-0.323198	0.945657	-0.929705	-0.336344	-0.150072
95	1922936													9.081526	-0.244381	3.717782	0.366400	-0.884548	-0.288660	-0.035703	-0.323372	0.945598	-0.929772	-0.336161	-0.150065
96	1923103													9.053023	-0.276149	3.655109	0.366240	-0.884639	-0.288587	-0.035754	-0.323284	0.945626	-0.929833	-0.336008	-0.150029
97	1923270													9.077835	-0.337667	3.633130	0.365978	-0.884735	-0.288623	-0.035919	-0.323338	0.945602	-0.929930	-0.335703	-0.150113
98	1923436													9.111884	-0.322008	3.560698	0.365831	-0.884817	-0.288559	-0.036137	-0.323322	0.945599	-0.929979	-0.335502	-0.150256
99	1923603													9.130683	-0.300032	3.567131	0.365870	-0.884821	-0.288498	-0.036304	-0.323324	0.945592	-0.929958	-0.335490	-0.150417
100	1923770													9.109999	-0.304979	3.570035	0.366054	-0.884865	-0.288128	-0.036404	-0.322997	0.945700	-0.929881	-0.335688	-0.150447
101	1923936													9.145286	-0.319424	3.591758	0.366315	-0.884764	-0.288108	-0.036552	-0.323073	0.945668	-0.929773	-0.335881	-0.150687
102	1924103													9.139874	-0.332035	3.606423	0.366660	-0.884634	-0.288068	-0.036733	-0.323156	0.945633	-0.929629	-0.336145	-0.150983
103	1924270													9.101154	-0.347164	3.640853	0.366937	-0.884577	-0.287889	-0.036998	-0.323109	0.945638	-0.929510	-0.336338	-0.151288
104	1924436													9.099373	-0.311177	3.693511	0.367058	-0.884514	-0.287930	-0.037172	-0.323236	0.945588	-0.929455	-0.336383	-0.151525
105	1924603													9.103928	-0.254354	3.660304	0.367068	-0.884534	-0.287854	-0.037134	-0.323144	0.945621	-0.929453	-0.336418	-0.151462
106	1924770													9.117805	-0.285682	3.664968	0.367155	-0.884563	-0.287657	-0.037145	-0.322952	0.945686	-0.929418	-0.336528	-0.151431
107	1924936													9.107904	-0.332743	3.653270	0.367097	-0.884602	-0.287611	-0.037306	-0.322951	0.945680	-0.929434	-0.336427	-0.151555
108	1925103													9.146794	-0.332166	3.635910	0.366999	-0.884651	-0.287584	-0.037397	-0.322938	0.945681	-0.929469	-0.336309	-0.151601
109	1925270													9.110531	-0.271012	3.607610	0.366937	-0.884718	-0.287457	-0.037459	-0.322813	0.945721	-0.929491	-0.336253	-0.151593
110	1925436													9.085201	-0.287945	3.628656	0.366813	-0.884878	-0.287123	-0.037505	-0.322452	0.945842	-0.929538	-0.336179	-0.151467
111	1925603													9.088240	-0.317245	3.584039	0.366821	-0.884932	-0.286946	-0.037582	-0.322292	0.945894	-0.929532	-0.336190	-0.151481
112	1925770													9.093083	-0.299297	3.606646	0.366978	-0.884893	-0.286866	-0.037646	-0.322257	0.945903	-0.929468	-0.336326	-0.151574
113	1925936													9.108558	-0.285038	3.648500	0.367189	-0.884838	-0.286765	-0.037657	-0.322190	0.945926	-0.929384	-0.336535	-0.151625
114	1926103													9.109381	-0.334607	3.703320	0.367346	-0.884780	-0.286741	-0.037603	-0.322172	0.945934	-0.929324	-0.336703	-0.151619
115	1926270													9.093733	-0.330327	3.734921	0.367348	-0.884686	-0.287028	-0.037529	-0.322452	0.945841	-0.929326	-0.336681	-0.151654
116	1926436													9.128990	-0.329292	3.693632	0.367241	-0.884706	-0.287105	-0.037478	-0.322497	0.945828	-0.929371	-0.336586	-0.151591
117	1926603													9.104483	-0.319721	3.693320	0.367178	-0.884710	-0.287173	-0.037489	-0.322563	0.945805	-0.929395	-0.336513	-0.151605
118	1926770													9.100157	-0.312878	3.681175	0.367094	-0.884783	-0.287055	-0.037562	-0.322448	0.945842	-0.929425	-0.336431	-0.151603
119	1926936													9.090112	-0.337423	3.672894	0.366963	-0.884803	-0.287163	-0.037644	-0.322570	0.945797	-0.929474	-0.336263	-0.151679
120	1927103													9.068716	-0.347239	3.667218	0.366874	-0.884883	-0.287030	-0.037672	-0.322423	0.945846	-0.929508	-0.336193	-0.151624
121	1927270													9.088963	-0.327280	3.607213	0.366819	-0.884959	-0.286865	-0.037716	-0.322254	0.945902	-0.929528	-0.336155	-0.151586
122	1927436													9.108865	-0.341596	3.624257	0.366789	-0.885015	-0.286730	-0.037809	-0.322137	0.945938	-0.929535	-0.336119	-0.151618
123	1927603													9.130970	-0.357628	3.631689	0.366784	-0.884998	-0.286789	-0.037859	-0.322218	0.945908	-0.929536	-0.336086	-0.151689
124	1927770													9.124623	-0.319431	3.628006	0.366861	-0.884948	-0.286844	-0.037899	-0.322304	0.945877	-0.929503	-0.336135	-0.151779
125	1927936													9.074021	-0.318017	3.663588	0.366986	-0.884931	-0.286737	-0.037978	-0.322240	0.945896	-0.929451	-0.336241	-0.151866
126	1928103													9.083264	-0.315693	3.660258	0.366936	-0.884924	-0.286822	-0.038059	-0.322352	0.945854	-0.929467	-0.336152	-0.151962
127	1928270													9.156028	-0.290452	3.675951	0.367031	-0.884922	-0.286709	-0.038124	-0.322272	0.945879	-0.929427	-0.336236	-0.152021
128	1928436													9.155047	-0.362118	3.646257	0.367090	-0.884902	-0.286693	-0.038238	-0.322306	0.945863	-0.929399	-0.336254	-0.152152
129	1928603													9.056561	-0.344100	3.610641	0.367034	-0.884894	-0.286789	-0.038366	-0.322445	0.945810	-0.929416	-0.336141	-0.152298
130	1928770													9.096417	-0.273692	3.673282	0.366884	-0.884967	-0.286757	-0.038313	-0.322366	0.945840	-0.929477	-0.336027	-0.152177
131	1928936													9.209345	-0.262972	3.692193	0.366796	-0.884992	-0.286793	-0.038063	-0.322297	0.945873	-0.929523	-0.336026	-0.151903
132	1929103													9.174960	-0.354009	3.613693	0.366901	-0.884988	-0.286670	-0.038027	-0.322172	0.945917	-0.929483	-0.336156	-0.151859
133	1929270													9.038678	-0.359718	3.715191	0.367141	-0.884857	-0.286767	-0.038119	-0.322351	0.945852	-0.929384	-0.336330	-0.152078
134	1929436													9.068839	-0.298880	3.728184	0.367018	-0.884842	-0.286971	-0.038004	-0.322506	0.945804	-0.929437	-0.336221	-0.151993
135	1929603													9.076425	-0.253261	3.666302	0.366852	-0.884955	-0.286835	-0.037876	-0.322285	0.945885	-0.929508	-0.336136	-0.151749
136	1929770													9.053260	-0.300337	3.684046	0.366664	-0.885052	-0.286775	-0.037777	-0.322152	0.945934	-0.929586	-0.336006	-0.151556
137	1929936													9.070796	-0.359293	3.663222	0.366403	-0.885170	-0.286745	-0.037756	-0.322067	0.945964	-0.929690	-0.335778	-0.151427
138	1930103													9.123421	-0.362241	3.584419	0.366299	-0.885237	-0.286670	-0.037830	-0.321996	0.945985	-0.929728	-0.335669	-0.151435
139	1930270													9.155370	-0.283750	3.614973	0.366292	-0.885282	-0.286542	-0.037804	-0.321848	0.946036	-0.929732	-0.335693	-0.151358
140	1930437													9.111617	-0.286898	3.662740	0.366220	-0.885355	-0.286409	-0.037722	-0.321664	0.946102	-0.929764	-0.335677	-0.151197
141	1930603													9.125270	-0.333395	3.673006	0.366055	-0.885370	-0.286571	-0.037666	-0.321788	0.946062	-0.929831	-0.335517	-0.151140
142	1930770													9.115202	-0.353775	3.583334	0.365876	-0.885450	-0.286554	-0.037759	-0.321773	0.946064	-0.929897	-0.335322	-0.151162
143	1930937													9.148110	-0.304636	3.647081	0.365897	-0.885505	-0.286356	-0.037887	-0.321611	0.946113	-0.929884	-0.335331	-0.151226
144	1931103													9.097607	-0.279341	3.640887	0.365940	-0.885513	-0.286277	-0.037820	-0.321510	0.946151	-0.929869	-0.335408	-0.151144
145	1931270													9.125868	-0.317410	3.616074	0.365874	-0.885573	-0.286176	-0.037735	-0.321359	0.946205	-0.929899	-0.335393	-0.150994
146	1931437													9.083672	-0.310367	3.639966	0.365800	-0.885568	-0.286288	-0.037796	-0.321488	0.946159	-0.929926	-0.335284	-0.151071
147	1931603													9.146715	-0.337041	3.677202	0.365731	-0.885594	-0.286293	-0.037887	-0.321515	0.946146	-0.929949	-0.335188	-0.151141
148	1931770													9.087762	-0.315012	3.661065	0.365770	-0.885645	-0.286086	-0.038014	-0.321346	0.946198	-0.929929	-0.335216	-0.151205
149	1931937													9.077209	-0.319981	3.665126	0.365747	-0.885645	-0.286116	-0.038062	-0.321391	0.946181	-0.929936	-0.335173	-0.151257
150	1932103													9.073658	-0.294360	3.658611	0.365580	-0.885763	-0.285962	-0.038094	-0.321210	0.946242	-0.930000	-0.335034	-0.151170
151	1932270													9.102278	-0.306270	3.608741	0.365459	-0.885905	-0.285679	-0.038135	-0.320901	0.946345	-0.930046	-0.334955	-0.151060
152	1932437													9.123971	-0.293818	3.642489	0.365460	-0.885946	-0.285550	-0.038164	-0.320773	0.946387	-0.930044	-0.334969	-0.151041
153	1932603													9.116427	-0.313301	3.638848	0.365529	-0.885953	-0.285438	-0.038203	-0.320680	0.946417	-0.930016	-0.335038	-0.151064
154	1932770													9.108904	-0.299321	3.669575	0.365577	-0.885907	-0.285521	-0.038158	-0.320760	0.946391	-0.929999	-0.335084	-0.151067
155	1932937													9.128874	-0.279513	3.668162	0.365533	-0.885912	-0.285563	-0.038105	-0.320778	0.946388	-0.930018	-0.335054	-0.151012
156	1933103													9.108903	-0.291843	3.667449	0.365362	-0.885988	-0.285544	-0.038065	-0.320715	0.946410	-0.930087	-0.334914	-0.150902
157	1933270													9.114321	-0.284724	3.666034	0.365201	-0.886019	-0.285655	-0.038052	-0.320801	0.946382	-0.930150	-0.334750	-0.150872
158	1933437													9.122834	-0.304887	3.636777	0.365058	-0.886115	-0.285540	-0.038119	-0.320677	0.946421	-0.930204	-0.334614	-0.150844
159	1933603													9.123670	-0.319416	3.597765	0.364996	-0.886183	-0.285407	-0.038166	-0.320541	0.946465	-0.930226	-0.334563	-0.150818
160	1933770													9.131406	-0.325828	3.614355	0.365001	-0.886224	-0.285275	-0.038189	-0.320409	0.946509	-0.930224	-0.334582	-0.150793
161	1933937													9.108110	-0.334876	3.609688	0.364941	-0.886332	-0.285015	-0.038165	-0.320113	0.946610	-0.930248	-0.334580	-0.150649
162	1934103													9.082672	-0.314206	3.621439	0.364838	-0.886407	-0.284914	-0.038165	-0.319987	0.946653	-0.930288	-0.334501	-0.150573
163	1934270													9.126539	-0.330099	3.592852	0.364767	-0.886462	-0.284832	-0.038230	-0.319910	0.946676	-0.930314	-0.334427	-0.150582
164	1934437													9.163076	-0.304424	3.617139	0.364793	-0.886419	-0.284933	-0.038312	-0.320052	0.946625	-0.930300	-0.334406	-0.150713
165	1934603													9.167038	-0.358457	3.621837	0.364835	-0.886434	-0.284834	-0.038457	-0.320006	0.946635	-0.930278	-0.334411	-0.150839
166	1934770													9.090826	-0.337943	3.615578	0.364819	-0.886407	-0.284938	-0.038561	-0.320152	0.946581	-0.930280	-0.334343	-0.150979
167	1934937													9.075777	-0.258732	3.643109	0.364571	-0.886537	-0.284850	-0.038637	-0.320042	0.946615	-0.930374	-0.334103	-0.150931
168	1935103													9.210984	-0.278806	3.680076	0.364414	-0.886640	-0.284733	-0.038509	-0.319844	0.946687	-0.930441	-0.334021	-0.150699
169	1935270													9.214655	-0.349859	3.598650	0.364346	-0.886671	-0.284720	-0.038532	-0.319827	0.946692	-0.930466	-0.333952	-0.150693
170	1935437													9.067880	-0.363401	3.678234	0.364494	-0.886570	-0.284847	-0.038759	-0.320070	0.946601	-0.930399	-0.333990	-0.151026
171	1935603													9.044165	-0.293476	3.684915	0.364287	-0.886593	-0.285041	-0.038859	-0.320276	0.946527	-0.930476	-0.333731	-0.151124
172	1935770													9.094009	-0.262671	3.642225	0.364087	-0.886702	-0.284956	-0.038900	-0.320166	0.946562	-0.930552	-0.333546	-0.151061
173	1935937													9.071865	-0.318082	3.605010	0.363988	-0.886746	-0.284946	-0.038895	-0.320136	0.946573	-0.930591	-0.333459	-0.151016
174	1936103													9.112944	-0.339790	3.601978	0.364022	-0.886770	-0.284828	-0.038986	-0.320049	0.946599	-0.930574	-0.333478	-0.151076
175	1936270													9.115605	-0.348261	3.595778	0.364234	-0.886724	-0.284700	-0.039115	-0.319996	0.946611	-0.930486	-0.333651	-0.151238
176	1936437													9.132265	-0.340921	3.626611	0.364517	-0.886641	-0.284595	-0.039111	-0.319930	0.946633	-0.930375	-0.333933	-0.151298
177	1936603													9.133427	-0.354763	3.627272	0.364649	-0.886596	-0.284568	-0.039064	-0.319907	0.946643	-0.930325	-0.334076	-0.151288
178	1936770													9.167893	-0.323826	3.619726	0.364845	-0.886551	-0.284457	-0.039040	-0.319814	0.946676	-0.930249	-0.334285	-0.151293
179	1936937													9.127227	-0.341395	3.593942	0.365087	-0.886441	-0.284490	-0.039069	-0.319903	0.946645	-0.930153	-0.334493	-0.151425
180	1937103													9.094032	-0.328967	3.641896	0.365294	-0.886330	-0.284569	-0.039160	-0.320056	0.946589	-0.930068	-0.334639	-0.151623
181	1937270													9.154203	-0.296189	3.608758	0.365332	-0.886338	-0.284496	-0.039108	-0.319965	0.946622	-0.930055	-0.334706	-0.151557
182	1937437													9.174191	-0.315110	3.578043	0.365248	-0.886353	-0.284557	-0.039003	-0.319978	0.946622	-0.930093	-0.334653	-0.151442
183	1937603													9.094155	-0.301113	3.634056	0.365297	-0.886299	-0.284661	-0.039033	-0.320109	0.946576	-0.930072	-0.334670	-0.151530
184	1937770													9.137413	-0.336589	3.592665	0.365268	-0.886333	-0.284593	-0.039055	-0.320039	0.946599	-0.930083	-0.334648	-0.151515
185	1937937													9.135457	-0.330273	3.602056	0.365353	-0.886336	-0.284474	-0.039059	-0.319928	0.946636	-0.930049	-0.334745	-0.151506
186	1938103													9.095562	-0.331604	3.614955	0.365557	-0.886253	-0.284472	-0.038994	-0.319938	0.946636	-0.929972	-0.334956	-0.151514
187	1938270													9.088852	-0.333020	3.625133	0.365670	-0.886229	-0.284402	-0.038959	-0.319870	0.946660	-0.929929	-0.335085	-0.151493
188	1938437													9.104183	-0.328889	3.615599	0.365740	-0.886186	-0.284446	-0.038950	-0.319926	0.946642	-0.929902	-0.335145	-0.151527
189	1938603													9.109362	-0.304865	3.645321	0.365924	-0.886125	-0.284397	-0.038954	-0.319908	0.946648	-0.929829	-0.335323	-0.151580
190	1938770													9.118752	-0.332705	3.660799	0.366106	-0.886075	-0.284319	-0.038855	-0.319820	0.946681	-0.929761	-0.335539	-0.151517
191	1938937													9.124485	-0.329987	3.662319	0.366321	-0.885980	-0.284339	-0.038751	-0.319842	0.946678	-0.929681	-0.335770	-0.151497
192	1939103													9.117508	-0.307482	3.680922	0.366486	-0.885929	-0.284285	-0.038602	-0.319758	0.946712	-0.929623	-0.335983	-0.151386
193	1939270													9.116879	-0.308030	3.669750	0.366616	-0.885882	-0.284263	-0.038483	-0.319715	0.946732	-0.929576	-0.336148	-0.151304
194	1939437													9.102218	-0.312884	3.655513	0.366732	-0.885817	-0.284318	-0.038415	-0.319769	0.946717	-0.929533	-0.336269	-0.151298
195	1939603													9.108646	-0.311867	3.664783	0.366878	-0.885734	-0.284387	-0.038393	-0.319861	0.946686	-0.929476	-0.336400	-0.151356
196	1939770													9.100231	-0.330256	3.669017	0.367015	-0.885681	-0.284374	-0.038360	-0.319858	0.946689	-0.929424	-0.336541	-0.151367
197	1939937													9.102399	-0.332362	3.623496	0.366972	-0.885720	-0.284310	-0.038303	-0.319761	0.946724	-0.929443	-0.336532	-0.151269
198	1940103													9.161807	-0.326565	3.606981	0.367025	-0.885744	-0.284166	-0.038288	-0.319611	0.946775	-0.929423	-0.336610	-0.151218
199	1940270													9.129839	-0.317754	3.644634	0.367222	-0.885652	-0.284197	-0.038232	-0.319659	0.946761	-0.929347	-0.336806	-0.151246
200	1940437													9.094181	-0.332902	3.658800	0.367320	-0.885587	-0.284275	-0.038196	-0.319745	0.946733	-0.929310	-0.336896	-0.151274
201	1940603													9.113931	-0.334092	3.625551	0.367276	-0.885576	-0.284365	-0.038190	-0.319832	0.946704	-0.929328	-0.336841	-0.151287
202	1940770													9.121637	-0.319291	3.604679	0.367202	-0.885582	-0.284442	-0.038178	-0.319898	0.946682	-0.929357	-0.336765	-0.151277
203	1940937													9.141984	-0.273219	3.650177	0.367258	-0.885559	-0.284441	-0.038163	-0.319900	0.946682	-0.929336	-0.336821	-0.151281
204	1941103													9.132942	-0.345881	3.615370	0.367286	-0.885545	-0.284449	-0.038187	-0.319922	0.946674	-0.929324	-0.336837	-0.151319
205	1941270													9.032897	-0.334328	3.573088	0.367224	-0.885540	-0.284545	-0.038217	-0.320026	0.946638	-0.929347	-0.336753	-0.151363
206	1941437													9.169992	-0.267293	3.663606	0.367263	-0.885517	-0.284565	-0.038105	-0.320013	0.946646	-0.929336	-0.336825	-0.151271
207	1941603													9.203959	-0.288017	3.613929	0.367475	-0.885443	-0.284522	-0.037923	-0.319938	0.946679	-0.929260	-0.337091	-0.151148
208	1941770													9.102421	-0.373418	3.720138	0.367924	-0.885251	-0.284540	-0.037965	-0.320050	0.946640	-0.929080	-0.337489	-0.151363
209	1941937													8.995459	-0.318098	3.793996	0.368044	-0.885098	-0.284859	-0.037957	-0.320410	0.946518	-0.929033	-0.337548	-0.151521
210	1942103													9.073063	-0.253361	3.744114	0.367855	-0.885178	-0.284856	-0.037864	-0.320340	0.946546	-0.929112	-0.337406	-0.151355
211	1942270													9.091184	-0.302833	3.678415	0.367760	-0.885208	-0.284883	-0.037818	-0.320336	0.946549	-0.929151	-0.337330	-0.151283
212	1942437													9.100555	-0.316029	3.642987	0.367701	-0.885206	-0.284967	-0.037781	-0.320402	0.946528	-0.929176	-0.337273	-0.151256
213	1942603													9.117326	-0.305909	3.642138	0.367681	-0.885242	-0.284882	-0.037797	-0.320313	0.946557	-0.929184	-0.337263	-0.151233
214	1942770													9.129722	-0.281712	3.634789	0.367716	-0.885258	-0.284788	-0.037798	-0.320219	0.946589	-0.929170	-0.337311	-0.151211
215	1942937													9.145288	-0.321780	3.621643	0.367819	-0.885257	-0.284657	-0.037715	-0.320067	0.946644	-0.929132	-0.337458	-0.151114
216	1943103													9.120670	-0.341127	3.621576	0.367962	-0.885195	-0.284665	-0.037673	-0.320085	0.946640	-0.929077	-0.337603	-0.151127
217	1943270													9.154264	-0.321485	3.618295	0.368142	-0.885088	-0.284763	-0.037654	-0.320214	0.946597	-0.929007	-0.337760	-0.151211
218	1943437													9.102005	-0.324452	3.603649	0.368313	-0.885041	-0.284688	-0.037718	-0.320187	0.946603	-0.928936	-0.337908	-0.151312
219	1943603													9.115496	-0.324466	3.684198	0.368534	-0.884994	-0.284550	-0.037762	-0.320093	0.946633	-0.928847	-0.338121	-0.151384
220	1943770													9.127425	-0.299067	3.659472	0.368611	-0.884941	-0.284615	-0.037649	-0.320136	0.946623	-0.928821	-0.338221	-0.151322
221	1943937													9.142677	-0.330907	3.638158	0.368664	-0.884905	-0.284657	-0.037608	-0.320175	0.946612	-0.928801	-0.338277	-0.151317
222	1944103													9.106694	-0.301584	3.657579	0.368724	-0.884884	-0.284646	-0.037721	-0.320215	0.946594	-0.928773	-0.338295	-0.151450
223	1944270													9.176804	-0.306379	3.657469	0.368663	-0.884892	-0.284699	-0.037782	-0.320283	0.946568	-0.928795	-0.338209	-0.151509
224	1944437													9.099830	-0.311051	3.619239	0.368682	-0.884848	-0.284811	-0.037772	-0.320403	0.946528	-0.928788	-0.338210	-0.151549
225	1944603													9.094169	-0.325458	3.647658	0.368717	-0.884805	-0.284901	-0.037817	-0.320521	0.946486	-0.928772	-0.338211	-0.151642
226	1944770													9.095270	-0.320893	3.644650	0.368845	-0.884795	-0.284765	-0.037958	-0.320450	0.946505	-0.928715	-0.338305	-0.151781
227	1944937													9.097048	-0.308398	3.660567	0.368991	-0.884750	-0.284715	-0.038015	-0.320442	0.946505	-0.928655	-0.338428	-0.151874
228	1945103													9.139816	-0.296285	3.655342	0.369054	-0.884747	-0.284645	-0.038012	-0.320377	0.946527	-0.928630	-0.338499	-0.151867
229	1945270													9.145356	-0.289408	3.608948	0.369241	-0.884692	-0.284573	-0.037986	-0.320323	0.946546	-0.928557	-0.338694	-0.151882
230	1945437													9.112340	-0.312556	3.714238	0.369590	-0.884490	-0.284747	-0.037948	-0.320557	0.946469	-0.928420	-0.339000	-0.152040
231	1945603													9.082083	-0.306709	3.699098	0.369891	-0.884280	-0.285009	-0.037976	-0.320901	0.946351	-0.928299	-0.339223	-0.152280
232	1945770													9.126755	-0.311532	3.701241	0.370218	-0.884120	-0.285080	-0.037956	-0.321026	0.946310	-0.928169	-0.339520	-0.152407
233	1945937													9.127835	-0.292558	3.697601	0.370477	-0.884034	-0.285010	-0.037897	-0.320975	0.946329	-0.928068	-0.339792	-0.152416
234	1946103													9.096423	-0.310011	3.698378	0.370586	-0.884008	-0.284950	-0.037808	-0.320897	0.946359	-0.928028	-0.339934	-0.152343
235	1946270													9.085036	-0.358354	3.631356	0.370597	-0.883990	-0.284989	-0.037776	-0.320930	0.946349	-0.928025	-0.339949	-0.152330
236	1946437													9.156247	-0.360350	3.588205	0.370745	-0.883941	-0.284949	-0.037771	-0.320911	0.946356	-0.927966	-0.340094	-0.152363
237	1946603													9.158180	-0.339423	3.609020	0.371102	-0.883754	-0.285063	-0.037731	-0.321081	0.946300	-0.927825	-0.340418	-0.152499
238	1946770													9.108723	-0.300139	3.643831	0.371512	-0.883590	-0.285039	-0.037632	-0.321091	0.946300	-0.927665	-0.340835	-0.152541
239	1946937													9.112537	-0.271539	3.712973	0.372053	-0.883326	-0.285153	-0.037461	-0.321246	0.946254	-0.927455	-0.341375	-0.152611
240	1947104													9.090376	-0.254150	3.742075	0.372644	-0.882920	-0.285638	-0.037281	-0.321803	0.946072	-0.927225	-0.341899	-0.152835
241	1947270													9.103859	-0.295513	3.797602	0.372951	-0.882437	-0.286727	-0.036982	-0.322915	0.945705	-0.927114	-0.342098	-0.153066
242	1947437													9.102350	-0.368347	3.678379	0.372923	-0.881953	-0.288250	-0.036530	-0.324375	0.945223	-0.927143	-0.341966	-0.153185
243	1947604													9.117494	-0.302297	3.591804	0.372982	-0.881561	-0.289369	-0.036067	-0.325414	0.944883	-0.927137	-0.341988	-0.153169
244	1947770													9.166608	-0.248496	3.725837	0.373213	-0.881249	-0.290019	-0.035460	-0.325928	0.944729	-0.927068	-0.342302	-0.152889
245	1947937													9.097143	-0.341591	3.769793	0.373029	-0.880965	-0.291120	-0.034747	-0.326812	0.944450	-0.927169	-0.342192	-0.152521
246	1948104													9.057804	-0.459007	3.723488	0.372015	-0.880583	-0.293560	-0.034193	-0.329045	0.943695	-0.927597	-0.341031	-0.152519
247	1948270													9.095867	-0.353878	3.639495	0.371197	-0.880160	-0.295857	-0.033765	-0.331205	0.942955	-0.927940	-0.340032	-0.152660
248	1948437													9.170842	-0.219371	3.604010	0.370101	-0.879847	-0.298150	-0.033160	-0.333247	0.942256	-0.928399	-0.338843	-0.152511
249	1948604													9.130724	-0.248616	3.547295	0.369697	-0.879534	-0.299572	-0.032594	-0.334492	0.941835	-0.928580	-0.338430	-0.152328
250	1948770													9.147108	-0.296865	3.663651	0.369811	-0.879206	-0.300393	-0.032251	-0.335267	0.941571	-0.928547	-0.338516	-0.152341
251	1948937													9.123105	-0.314044	3.700149	0.370139	-0.878878	-0.300949	-0.032195	-0.335899	0.941348	-0.928418	-0.338740	-0.152625
252	1949104													9.142395	-0.298776	3.760186	0.370684	-0.878429	-0.301591	-0.032101	-0.336648	0.941083	-0.928204	-0.339163	-0.152989
253	1949270													9.041378	-0.180208	3.900668	0.371070	-0.877741	-0.303114	-0.031659	-0.338187	0.940546	-0.928065	-0.339412	-0.153280
254	1949437													9.017391	-0.120305	3.852050	0.370351	-0.877123	-0.305771	-0.031073	-0.340692	0.939661	-0.928372	-0.338504	-0.153431
255	1949604													9.194219	-0.297771	3.576373	0.370454	-0.876450	-0.307570	-0.030573	-0.342455	0.939037	-0.928348	-0.338466	-0.153660
256	1949770													9.217011	-0.331386	3.578090	0.371484	-0.875588	-0.308780	-0.030129	-0.343774	0.938569	-0.927950	-0.339360	-0.154087
257	1949937													9.070804	-0.286149	3.658605	0.372782	-0.874729	-0.309648	-0.029776	-0.344806	0.938202	-0.927441	-0.340525	-0.154583
258	1950104													9.014431	-0.230931	3.707231	0.373867	-0.874151	-0.309972	-0.029266	-0.345160	0.938087	-0.927020	-0.341649	-0.154627
259	1950270													9.124301	-0.238968	3.644004	0.374935	-0.873746	-0.309826	-0.028758	-0.345008	0.938159	-0.926605	-0.342839	-0.154483
260	1950437													9.166576	-0.232848	3.707561	0.376890	-0.873194	-0.309008	-0.028565	-0.344407	0.938386	-0.925817	-0.344842	-0.154746
261	1950604													9.143698	-0.246348	3.704461	0.379913	-0.872590	-0.307006	-0.028597	-0.342811	0.938969	-0.924580	-0.347947	-0.155191
262	1950770													9.012585	-0.217527	3.983683	0.382849	-0.871861	-0.305425	-0.028486	-0.341598	0.939414	-0.923371	-0.350954	-0.155616
263	1950937													8.852405	-0.301578	3.987499	0.383741	-0.871282	-0.305957	-0.027994	-0.342147	0.939229	-0.923016	-0.351856	-0.155687
264	1951104													9.026004	-0.269090	3.643295	0.384590	-0.870924	-0.305911	-0.027512	-0.342067	0.939273	-0.922677	-0.352819	-0.155516
265	1951270													9.351188	-0.183909	3.520687	0.387032	-0.870413	-0.304283	-0.027343	-0.340690	0.939778	-0.921661	-0.355404	-0.155658
266	1951437													9.304091	-0.173278	3.668043	0.391173	-0.869334	-0.302061	-0.027201	-0.338992	0.940396	-0.919915	-0.359641	-0.156252
267	1951604													8.790421	-0.235155	4.233997	0.393649	-0.868138	-0.302286	-0.026483	-0.339409	0.940266	-0.918879	-0.362129	-0.156599
268	1951770													8.774274	-0.281445	3.928216	0.392116	-0.868056	-0.304507	-0.025692	-0.341221	0.939632	-0.919557	-0.360621	-0.156100
269	1951937													9.266975	-0.235046	3.353119	0.392265	-0.867969	-0.304562	-0.024926	-0.341008	0.939730	-0.919515	-0.361031	-0.155401
270	1952104													9.565249	-0.103819	3.452219	0.395036	-0.867093	-0.303474	-0.024490	-0.340164	0.940047	-0.918339	-0.363920	-0.155613
271	1952270													9.118225	-0.147259	3.722071	0.399814	-0.865430	-0.301960	-0.024169	-0.339276	0.940376	-0.916278	-0.368677	-0.156564
272	1952437													8.859054	-0.189876	4.042656	0.404804	-0.863858	-0.299806	-0.024018	-0.337803	0.940910	-0.914088	-0.373683	-0.157492
273	1952604													8.824865	-0.230257	4.145822	0.409338	-0.862322	-0.298066	-0.023832	-0.336684	0.941316	-0.912072	-0.378213	-0.158369
274	1952770													8.879171	-0.165501	4.087823	0.413487	-0.860790	-0.296764	-0.023670	-0.335984	0.941570	-0.910202	-0.382302	-0.159300
275	1952937													8.981483	-0.187881	4.140434	0.418145	-0.859179	-0.294900	-0.023509	-0.334770	0.942006	-0.908076	-0.386962	-0.160181
276	1953104													8.915960	-0.200698	4.208243	0.423231	-0.857283	-0.293158	-0.023248	-0.333735	0.942380	-0.905723	-0.392030	-0.161177
277	1953270													8.759542	-0.136763	4.309548	0.427560	-0.855520	-0.292022	-0.022882	-0.333177	0.942587	-0.903697	-0.396331	-0.162029
278	1953437													8.775982	-0.138211	4.389147	0.430910	-0.854250	-0.290815	-0.022541	-0.332359	0.942883	-0.902113	-0.399742	-0.162473
279	1953604													8.876126	-0.192871	4.374565	0.433817	-0.853142	-0.289745	-0.022078	-0.331550	0.943179	-0.900730	-0.402771	-0.162667
280	1953770													8.861116	-0.193187	4.376996	0.436794	-0.851912	-0.288888	-0.021656	-0.331009	0.943379	-0.899301	-0.405806	-0.163032
281	1953937													8.780625	-0.238271	4.208924	0.439324	-0.850677	-0.288692	-0.021238	-0.331111	0.943353	-0.898078	-0.408306	-0.163532
282	1954104													8.845047	-0.215157	4.063181	0.441438	-0.849546	-0.288798	-0.020627	-0.331378	0.943273	-0.897055	-0.410439	-0.163806
283	1954270													9.069392	-0.167379	4.268446	0.444122	-0.848126	-0.288854	-0.019549	-0.331490	0.943256	-0.895753	-0.413274	-0.163802
284	1954437													9.073982	-0.098753	4.288346	0.448040	-0.846191	-0.288482	-0.018452	-0.331366	0.943322	-0.893823	-0.417322	-0.164079
285	1954604													8.836828	-0.163795	4.417930	0.452686	-0.843709	-0.288499	-0.017557	-0.331920	0.943144	-0.891497	-0.421883	-0.165068
286	1954770													8.545633	-0.187422	4.374386	0.456496	-0.841473	-0.289024	-0.016629	-0.332858	0.942830	-0.889570	-0.425592	-0.165941
287	1954937													8.831442	-0.106409	4.351181	0.458657	-0.840088	-0.289631	-0.015695	-0.333544	0.942604	-0.888475	-0.427787	-0.166168
288	1955104													9.107133	-0.148664	4.250352	0.462357	-0.837967	-0.289891	-0.014095	-0.333839	0.942525	-0.886582	-0.431697	-0.166164
289	1955270													8.964004	0.035387	4.516484	0.467863	-0.834532	-0.290965	-0.012505	-0.335438	0.941979	-0.883713	-0.437079	-0.167375
290	1955437													8.558442	-0.047575	4.731651	0.473515	-0.830880	-0.292272	-0.010757	-0.337261	0.941350	-0.880720	-0.442599	-0.168636
291	1955604													8.411771	-0.122951	4.766344	0.477750	-0.827775	-0.294182	-0.008797	-0.339361	0.940615	-0.878452	-0.446791	-0.169411
292	1955770													8.601827	-0.065367	4.611156	0.480084	-0.825597	-0.296495	-0.006917	-0.341545	0.939840	-0.877195	-0.449152	-0.169681
293	1955937													9.136621	0.041904	4.572648	0.483635	-0.822940	-0.298105	-0.005174	-0.343269	0.939223	-0.875254	-0.452699	-0.170275
294	1956104													8.859323	0.117373	4.745005	0.490230	-0.818416	-0.299783	-0.003472	-0.345779	0.938309	-0.871586	-0.458946	-0.172353
295	1956270													8.332492	0.264036	5.123975	0.497202	-0.813894	-0.300611	-0.002081	-0.347589	0.937645	-0.867632	-0.465573	-0.174515
296	1956437													8.192760	0.073175	4.929213	0.501737	-0.811311	-0.300057	-0.001810	-0.347862	0.937544	-0.865018	-0.469858	-0.176004
297	1956604													8.586864	-0.232021	4.487459	0.504916	-0.809482	-0.299663	-0.001038	-0.347736	0.937592	-0.863168	-0.473094	-0.176417
298	1956770													8.950956	0.014000	4.802798	0.510450	-0.805977	-0.299738	0.000428	-0.348331	0.937371	-0.859907	-0.478610	-0.177461
299	1956937													8.291480	0.304311	5.292878	0.517504	-0.801855	-0.298695	0.001184	-0.348402	0.937344	-0.855680	-0.485433	-0.179350
300	1957104													7.992215	0.248060	5.440399	0.522624	-0.799451	-0.296212	0.001060	-0.346827	0.937929	-0.852562	-0.490498	-0.180412
301	1957270													8.265942	0.008025	5.270099	0.526858	-0.797690	-0.293447	0.000689	-0.344850	0.938658	-0.849953	-0.494741	-0.181137
302	1957437													8.311874	-0.131291	5.308426	0.531512	-0.795638	-0.290610	0.000392	-0.342854	0.939389	-0.847050	-0.499411	-0.181920
303	1957604													8.176774	-0.068201	5.417932	0.536417	-0.793097	-0.288535	0.000483	-0.341597	0.939846	-0.843953	-0.504289	-0.182856
304	1957770													8.162581	0.148613	5.567194	0.541205	-0.790564	-0.286540	0.000496	-0.340458	0.940260	-0.840890	-0.509016	-0.183865
305	1957937													8.180019	0.210950	5.541548	0.546164	-0.788122	-0.283846	0.000028	-0.338832	0.940847	-0.837678	-0.513865	-0.185036
306	1958104													8.196383	0.040579	5.375313	0.551321	-0.785734	-0.280476	-0.000843	-0.336709	0.941608	-0.834293	-0.518892	-0.186297
307	1958270													8.195898	0.038222	5.392492	0.556714	-0.783122	-0.277108	-0.001778	-0.334704	0.942321	-0.830702	-0.524111	-0.187727
308	1958437													8.091956	0.001702	5.534592	0.562834	-0.779929	-0.273731	-0.002624	-0.332850	0.942976	-0.826566	-0.530021	-0.189386
309	1958604													7.971653	0.028499	5.664678	0.569121	-0.776339	-0.270924	-0.003168	-0.331557	0.943430	-0.822248	-0.536067	-0.191156
310	1958770													7.983705	-0.018556	5.669678	0.575569	-0.772597	-0.267983	-0.003755	-0.330200	0.943903	-0.817745	-0.542275	-0.192954
311	1958937													8.057777	-0.104688	5.416799	0.581462	-0.769163	-0.265122	-0.004484	-0.328899	0.944355	-0.813561	-0.547918	-0.194691
312	1959104													8.154057	-0.116222	5.630410	0.587206	-0.765744	-0.262346	-0.005068	-0.327581	0.944810	-0.809421	-0.553469	-0.196238
313	1959270													7.757149	-0.011806	5.883330	0.592852	-0.762254	-0.259797	-0.005633	-0.326521	0.945173	-0.805292	-0.558884	-0.197873
314	1959437													7.667495	0.137081	5.952698	0.597858	-0.759080	-0.257609	-0.006138	-0.325694	0.945455	-0.801578	-0.563667	-0.199378
315	1959604													7.762585	0.073268	5.989481	0.602587	-0.756170	-0.255138	-0.006861	-0.324598	0.945827	-0.798023	-0.568193	-0.200787
316	1959770													7.649427	-0.087101	6.054444	0.607135	-0.753374	-0.252618	-0.007668	-0.323459	0.946211	-0.794562	-0.572540	-0.202160
317	1959937													7.719501	-0.147497	6.108203	0.611496	-0.750457	-0.250773	-0.008108	-0.322861	0.946412	-0.791206	-0.576694	-0.203513
318	1960104													7.696276	-0.126680	6.201518	0.616015	-0.747326	-0.249055	-0.008562	-0.322499	0.946531	-0.787688	-0.580945	-0.205063
319	1960270													7.560377	-0.076875	6.136674	0.620361	-0.744318	-0.247270	-0.009152	-0.322117	0.946656	-0.784263	-0.585006	-0.206641
320	1960437													7.729019	-0.075249	6.190567	0.624590	-0.741433	-0.245283	-0.009872	-0.321553	0.946840	-0.780890	-0.588965	-0.208159
321	1960604													7.698310	0.022259	6.346007	0.629248	-0.738201	-0.243118	-0.010596	-0.320929	0.947044	-0.777132	-0.593350	-0.209766
322	1960770													7.643469	0.003830	6.367336	0.634338	-0.734698	-0.240486	-0.011667	-0.320148	0.947296	-0.772967	-0.598100	-0.211654
323	1960937													7.518188	-0.017033	6.305599	0.639826	-0.730821	-0.237747	-0.012840	-0.319479	0.947506	-0.768412	-0.603187	-0.213795
324	1961104													7.480207	-0.100445	6.337538	0.645577	-0.726740	-0.234689	-0.014220	-0.318693	0.947751	-0.763562	-0.608510	-0.216075
325	1961270													7.411661	-0.131610	6.220128	0.651500	-0.722427	-0.231616	-0.015661	-0.318043	0.947947	-0.758487	-0.613961	-0.218519
326	1961437													7.603024	-0.134389	6.202633	0.656777	-0.718607	-0.228580	-0.017159	-0.317286	0.948175	-0.753890	-0.618817	-0.220717
327	1961604													7.223629	-0.106276	6.401052	0.662440	-0.714401	-0.225399	-0.018681	-0.316548	0.948393	-0.748882	-0.624042	-0.223040
328	1961770													7.182077	-0.000228	6.502128	0.667669	-0.710395	-0.222614	-0.019928	-0.315976	0.948558	-0.744191	-0.628887	-0.225125
329	1961937													7.188107	-0.066480	6.652858	0.672846	-0.706377	-0.219794	-0.021025	-0.315246	0.948777	-0.739483	-0.633760	-0.226964
330	1962104													7.196207	-0.171763	6.808618	0.677976	-0.702245	-0.217255	-0.021872	-0.314692	0.948942	-0.734758	-0.638608	-0.228713
331	1962270													7.253566	-0.168204	6.967550	0.683174	-0.697947	-0.214810	-0.022584	-0.314209	0.949085	-0.729907	-0.643539	-0.230422
332	1962437													7.068728	-0.248922	6.908545	0.688558	-0.693230	-0.212882	-0.022945	-0.314237	0.949067	-0.724818	-0.648604	-0.232277
333	1962604													7.012022	-0.103173	6.931997	0.694158	-0.688060	-0.211463	-0.022921	-0.314751	0.948897	-0.719457	-0.653838	-0.234258
334	1962770													6.940361	-0.063152	6.906066	0.700131	-0.682556	-0.209605	-0.022940	-0.314910	0.948844	-0.713646	-0.659507	-0.236136
335	1962937													6.883686	-0.127659	6.968795	0.706366	-0.676866	-0.207122	-0.023171	-0.314562	0.948954	-0.707467	-0.665510	-0.237880
336	1963104													6.900964	-0.385208	6.871855	0.712369	-0.671191	-0.205020	-0.023059	-0.314360	0.949024	-0.701426	-0.671328	-0.239418
337	1963270													6.912157	-0.227196	6.887854	0.718510	-0.665210	-0.203073	-0.022824	-0.314368	0.949027	-0.695142	-0.677251	-0.241060
338	1963437													6.781749	-0.131641	6.900404	0.724640	-0.659184	-0.200932	-0.022802	-0.314350	0.949033	-0.688750	-0.683126	-0.242821
339	1963604													6.734214	-0.147894	6.953886	0.730659	-0.653240	-0.198534	-0.023101	-0.314277	0.949050	-0.682352	-0.688845	-0.244719
340	1963771													6.550191	-0.207571	7.048753	0.736584	-0.647312	-0.196041	-0.023587	-0.314261	0.949043	-0.675935	-0.694426	-0.246748
341	1963937													6.684535	-0.239089	7.158417	0.742094	-0.641740	-0.193561	-0.024157	-0.314187	0.949054	-0.669860	-0.699611	-0.248659
342	1964104													6.516191	-0.342131	7.387061	0.747406	-0.636383	-0.190790	-0.024982	-0.313893	0.949130	-0.663897	-0.704619	-0.250504
343	1964271													6.469206	-0.314304	7.342098	0.751899	-0.631842	-0.188212	-0.025960	-0.313634	0.949189	-0.658767	-0.708808	-0.252224
344	1964437													6.441954	-0.291544	7.332219	0.756040	-0.627603	-0.185789	-0.026879	-0.313384	0.949246	-0.653973	-0.712674	-0.253800
345	1964604													6.339198	-0.252710	7.346505	0.759700	-0.623699	-0.183999	-0.027461	-0.313475	0.949199	-0.649694	-0.716054	-0.255274
346	1964771													6.276731	-0.268612	7.384358	0.762927	-0.620205	-0.182449	-0.027920	-0.313563	0.949157	-0.645881	-0.719044	-0.256542
347	1964937													6.252186	-0.271980	7.439649	0.765741	-0.617134	-0.181071	-0.028301	-0.313598	0.949134	-0.642526	-0.721666	-0.257600
348	1965104													6.261281	-0.337112	7.497171	0.768155	-0.614449	-0.179974	-0.028561	-0.313698	0.949093	-0.639627	-0.723911	-0.258517
349	1965271													6.198051	-0.335664	7.659342	0.770340	-0.611912	-0.179275	-0.028627	-0.314063	0.948971	-0.636990	-0.725898	-0.259452
350	1965437													6.198178	-0.253968	7.675185	0.772275	-0.609602	-0.178823	-0.028618	-0.314580	0.948800	-0.634644	-0.727616	-0.260388
351	1965604													6.109961	-0.311631	7.676819	0.774101	-0.607461	-0.178210	-0.028763	-0.314963	0.948668	-0.632408	-0.729239	-0.261286
352	1965771													6.076468	-0.322527	7.644876	0.775811	-0.605379	-0.177859	-0.028779	-0.315541	0.948476	-0.630309	-0.730719	-0.262222
353	1965937													6.091679	-0.269792	7.669701	0.777463	-0.603354	-0.177528	-0.028829	-0.316162	0.948267	-0.628268	-0.732124	-0.263198
354	1966104													6.018332	-0.318541	7.723504	0.779010	-0.601514	-0.176988	-0.029062	-0.316608	0.948111	-0.626338	-0.733444	-0.264121
355	1966271													5.965138	-0.403047	7.670413	0.780388	-0.599837	-0.176610	-0.029261	-0.317164	0.947919	-0.624611	-0.734577	-0.265063
356	1966437													5.977575	-0.204915	7.692353	0.781574	-0.598455	-0.176050	-0.029689	-0.317581	0.947766	-0.623105	-0.735523	-0.265981
357	1966604													5.937320	-0.263092	7.769459	0.782690	-0.597193	-0.175377	-0.030097	-0.317754	0.947695	-0.621684	-0.736473	-0.266677
358	1966771													5.945492	-0.237009	7.801397	0.783732	-0.595965	-0.174901	-0.030228	-0.317865	0.947654	-0.620363	-0.737420	-0.267136
359	1966937													5.917615	-0.354749	7.817133	0.784625	-0.594950	-0.174353	-0.030383	-0.317790	0.947674	-0.619226	-0.738271	-0.267422
360	1967104													5.944988	-0.327251	7.779011	0.785334	-0.594095	-0.174075	-0.030341	-0.317785	0.947677	-0.618329	-0.738961	-0.267593
361	1967271													5.909727	-0.268598	7.821767	0.785899	-0.593396	-0.173907	-0.030165	-0.317697	0.947712	-0.617619	-0.739560	-0.267578
362	1967437													5.929940	-0.285555	7.816598	0.786304	-0.592885	-0.173821	-0.029937	-0.317567	0.947763	-0.617114	-0.740026	-0.267453
363	1967604													5.919720	-0.325452	7.813454	0.786565	-0.592566	-0.173728	-0.029729	-0.317349	0.947843	-0.616792	-0.740375	-0.267232
364	1967771													5.905534	-0.341984	7.795554	0.786654	-0.592436	-0.173768	-0.029472	-0.317168	0.947911	-0.616691	-0.740557	-0.266961
365	1967937													5.972452	-0.319170	7.761494	0.786645	-0.592387	-0.173977	-0.029079	-0.317024	0.947972	-0.616721	-0.740658	-0.266611
366	1968104													6.047436	-0.242276	7.770807	0.786590	-0.592369	-0.174284	-0.028576	-0.316872	0.948038	-0.616814	-0.740737	-0.266176
367	1968271													6.050123	-0.244645	7.760306	0.786461	-0.592474	-0.174510	-0.028126	-0.316604	0.948141	-0.616999	-0.740767	-0.265661
368	1968437													6.032518	-0.293789	7.745749	0.786284	-0.592630	-0.174779	-0.027636	-0.316324	0.948248	-0.617247	-0.740762	-0.265099
369	1968604													5.969437	-0.273878	7.715970	0.786001	-0.592862	-0.175262	-0.027053	-0.316203	0.948306	-0.617633	-0.740628	-0.264575
370	1968771													6.058064	-0.310881	7.656545	0.785667	-0.593179	-0.175688	-0.026559	-0.316066	0.948366	-0.618079	-0.740434	-0.264077
371	1968937													6.070574	-0.306152	7.707160	0.785380	-0.593397	-0.176237	-0.025907	-0.315966	0.948417	-0.618472	-0.740301	-0.263527
372	1969104													6.083912	-0.204349	7.725086	0.785067	-0.593631	-0.176837	-0.025255	-0.315933	0.948445	-0.618895	-0.740127	-0.263021
373	1969271													6.095466	-0.219300	7.734959	0.784638	-0.594057	-0.177311	-0.024802	-0.315858	0.948482	-0.619457	-0.739818	-0.262568
374	1969437													5.977270	-0.228265	7.700269	0.784130	-0.594578	-0.177811	-0.024414	-0.315849	0.948495	-0.620116	-0.739402	-0.262183
375	1969604													6.005057	-0.223239	7.667555	0.783504	-0.595208	-0.178461	-0.023972	-0.315937	0.948477	-0.620924	-0.738858	-0.261807
376	1969771													6.012377	-0.210527	7.601229	0.782655	-0.596092	-0.179237	-0.023554	-0.316106	0.948432	-0.622010	-0.738073	-0.261442
377	1969937													6.101388	-0.142955	7.566553	0.781511	-0.597355	-0.180022	-0.023217	-0.316192	0.948411	-0.623460	-0.737014	-0.260976
378	1970104													5.920992	-0.106764	7.639484	0.780049	-0.598999	-0.180896	-0.022951	-0.316296	0.948383	-0.625297	-0.735633	-0.260475
379	1970271													5.956960	-0.136856	7.645385	0.778312	-0.600907	-0.182046	-0.022543	-0.316496	0.948326	-0.627473	-0.733990	-0.259879
380	1970437													6.144668	-0.152470	7.735569	0.776181	-0.603185	-0.183606	-0.021822	-0.316727	0.948266	-0.630133	-0.732019	-0.259000
381	1970604													6.085147	-0.261281	7.847314	0.773871	-0.605629	-0.185302	-0.020955	-0.316902	0.948227	-0.632996	-0.729922	-0.257933
382	1970771													6.090603	-0.195814	7.769316	0.771235	-0.608359	-0.187339	-0.019960	-0.317271	0.948125	-0.636238	-0.727487	-0.256834
383	1970937													6.077468	-0.141534	7.721909	0.768554	-0.611137	-0.189304	-0.019057	-0.317623	0.948026	-0.639501	-0.725001	-0.255756
384	1971104													5.991748	-0.161371	7.616128	0.765680	-0.614105	-0.191335	-0.018248	-0.318084	0.947887	-0.642963	-0.722287	-0.254757
385	1971271													6.231709	-0.126640	7.565355	0.762620	-0.617237	-0.193466	-0.017411	-0.318571	0.947739	-0.646612	-0.719397	-0.253696
386	1971437													6.219121	-0.128910	7.577243	0.759472	-0.620432	-0.195616	-0.016538	-0.319015	0.947605	-0.650330	-0.716445	-0.252544
387	1971604													6.244834	-0.063368	7.502663	0.755923	-0.623961	-0.198125	-0.015463	-0.319570	0.947436	-0.654478	-0.713125	-0.251219
388	1971771													6.244505	-0.018935	7.417843	0.752330	-0.627489	-0.200641	-0.014417	-0.320171	0.947250	-0.658628	-0.709752	-0.249921
389	1971937													6.229643	0.026143	7.394063	0.748667	-0.631053	-0.203150	-0.013507	-0.320891	0.947020	-0.662809	-0.706258	-0.248764
390	1972104													6.388283	-0.023526	7.362942	0.744782	-0.634892	-0.205456	-0.012850	-0.321475	0.946831	-0.667184	-0.702542	-0.247587
391	1972271													6.530063	-0.151021	7.344270	0.740715	-0.638930	-0.207628	-0.012380	-0.321982	0.946665	-0.671706	-0.698638	-0.246407
392	1972437													6.571359	-0.148597	7.308220	0.736286	-0.643140	-0.210366	-0.011551	-0.322784	0.946402	-0.676571	-0.694393	-0.245090
393	1972604													6.654509	-0.061743	7.315665	0.731660	-0.647471	-0.213203	-0.010563	-0.323497	0.946170	-0.681588	-0.690023	-0.243529
394	1972771													6.589209	0.021113	7.292675	0.726999	-0.651757	-0.216068	-0.009540	-0.324232	0.945929	-0.686573	-0.685628	-0.241934
395	1972937													6.754241	-0.019853	7.193346	0.722146	-0.656270	-0.218668	-0.008826	-0.324828	0.945732	-0.691685	-0.681026	-0.240366
396	1973104													6.806417	-0.059566	7.050201	0.717192	-0.660856	-0.221143	-0.008283	-0.325396	0.945541	-0.696826	-0.676304	-0.238845
397	1973271													6.864389	-0.078771	6.950222	0.711941	-0.665623	-0.223799	-0.007669	-0.326044	0.945324	-0.702198	-0.671298	-0.237228
398	1973437													6.862816	-0.079354	6.890111	0.706675	-0.670255	-0.226644	-0.006774	-0.326722	0.945096	-0.707505	-0.666341	-0.235427
399	1973604													6.853419	-0.014688	6.913041	0.701301	-0.674904	-0.229524	-0.005970	-0.327523	0.944824	-0.712840	-0.661236	-0.233722
400	1973771													7.026683	-0.015971	6.844863	0.695778	-0.679709	-0.232141	-0.005483	-0.328218	0.944586	-0.718236	-0.655949	-0.232093
401	1973937													7.069918	-0.056648	6.793922	0.690209	-0.684488	-0.234709	-0.005069	-0.328924	0.944343	-0.723593	-0.650604	-0.230496
402	1974104													7.237391	-0.057581	6.694302	0.684312	-0.689359	-0.237701	-0.004428	-0.329902	0.944005	-0.729176	-0.644941	-0.228809
403	1974271													7.213050	-0.099768	6.627477	0.678641	-0.693678	-0.241366	-0.003173	-0.331392	0.943488	-0.734464	-0.639523	-0.227097
404	1974437													7.136746	0.030489	6.672757	0.672762	-0.698099	-0.245050	-0.002119	-0.333028	0.942915	-0.739856	-0.633838	-0.225528
405	1974604													7.325748	0.049260	6.667359	0.666642	-0.702747	-0.248466	-0.001496	-0.334602	0.942358	-0.745377	-0.627844	-0.224111
406	1974771													7.334069	0.015584	6.548246	0.660443	-0.707484	-0.251559	-0.001243	-0.336050	0.941843	-0.750876	-0.621721	-0.222821
407	1974937													7.355757	-0.006518	6.534620	0.654078	-0.712365	-0.254399	-0.001129	-0.337236	0.941420	-0.756426	-0.615475	-0.221382
408	1975104													7.464764	-0.090187	6.427384	0.647388	-0.717344	-0.257500	-0.000653	-0.338377	0.941010	-0.762160	-0.609031	-0.219530
409	1975271													7.460220	0.073158	6.391548	0.641195	-0.721879	-0.260307	-0.000232	-0.339398	0.940643	-0.767378	-0.603075	-0.217788
410	1975437													7.471294	0.094552	6.409617	0.635179	-0.726338	-0.262641	-0.000217	-0.340215	0.940348	-0.772365	-0.597232	-0.216255
411	1975604													7.575063	0.016365	6.247264	0.628934	-0.731027	-0.264654	-0.000500	-0.340789	0.940140	-0.777458	-0.591154	-0.214700
412	1975771													7.662339	-0.069013	6.036215	0.622776	-0.735636	-0.266440	-0.000743	-0.341098	0.940028	-0.782400	-0.585228	-0.212974
413	1975937													7.762251	0.067929	5.965156	0.617461	-0.739779	-0.267337	-0.001116	-0.340687	0.940176	-0.786601	-0.580224	-0.211187
414	1976104													7.671446	0.102791	6.083890	0.612857	-0.743328	-0.268084	-0.001593	-0.340426	0.940270	-0.790192	-0.575824	-0.209817
415	1976271													7.711916	0.045979	6.116862	0.607595	-0.747324	-0.268953	-0.002318	-0.340294	0.940316	-0.794244	-0.570708	-0.208493
416	1976437													7.899112	-0.052181	5.846045	0.602119	-0.751343	-0.270066	-0.002917	-0.340324	0.940304	-0.798401	-0.565387	-0.207108
417	1976604													7.998580	-0.034647	5.704552	0.596869	-0.755029	-0.271438	-0.003217	-0.340558	0.940218	-0.802333	-0.560313	-0.205697
418	1976771													7.930611	0.083696	5.758234	0.592193	-0.758427	-0.272205	-0.003812	-0.340442	0.940258	-0.805787	-0.555776	-0.204498
419	1976937													7.850159	0.097208	5.880605	0.587467	-0.761884	-0.272792	-0.004680	-0.340286	0.940310	-0.809235	-0.551124	-0.203473
420	1977104													8.014868	-0.018724	5.786887	0.582302	-0.765685	-0.273223	-0.005886	-0.340041	0.940392	-0.812952	-0.545984	-0.202513
421	1977271													8.114211	-0.152660	5.737415	0.577177	-0.769311	-0.273911	-0.006952	-0.340038	0.940386	-0.816589	-0.540865	-0.201610
422	1977437													8.085531	-0.147771	5.553117	0.571719	-0.773005	-0.274956	-0.007632	-0.340125	0.940349	-0.820414	-0.535517	-0.200356
423	1977604													7.953582	0.008654	5.557861	0.566631	-0.776539	-0.275530	-0.008423	-0.339834	0.940448	-0.823929	-0.530566	-0.199101
424	1977771													8.084482	0.066450	5.699169	0.561448	-0.780230	-0.275711	-0.009520	-0.339249	0.940648	-0.827457	-0.525500	-0.197899
425	1977937													8.184242	-0.034316	5.611272	0.556365	-0.783889	-0.275638	-0.010744	-0.338477	0.940913	-0.830869	-0.520530	-0.196739
426	1978104													8.139093	-0.165602	5.577567	0.551171	-0.787533	-0.275684	-0.011840	-0.337750	0.941161	-0.834308	-0.515477	-0.195482
427	1978271													8.169772	-0.177046	5.434480	0.545512	-0.791312	-0.276119	-0.012615	-0.337172	0.941359	-0.838008	-0.510039	-0.193914
428	1978437													8.119386	-0.050358	5.297188	0.540252	-0.794776	-0.276512	-0.013412	-0.336684	0.941522	-0.841396	-0.504951	-0.192554
429	1978604													8.273194	-0.033380	5.266429	0.535265	-0.798062	-0.276747	-0.014448	-0.336235	0.941667	-0.844561	-0.500043	-0.191505
430	1978771													8.406301	-0.115651	5.190718	0.530900	-0.801081	-0.276433	-0.015545	-0.335352	0.941965	-0.847292	-0.495792	-0.190491
431	1978937													8.400315	-0.239941	5.348871	0.526541	-0.803996	-0.276306	-0.016023	-0.334335	0.942318	-0.849999	-0.491742	-0.188923
432	1979104													8.352758	-0.132460	5.123822	0.521497	-0.807191	-0.276556	-0.016353	-0.333515	0.942603	-0.853096	-0.487042	-0.187127
433	1979271													8.441345	-0.032715	4.928984	0.516988	-0.810092	-0.276541	-0.017140	-0.332797	0.942843	-0.855821	-0.482698	-0.185936
434	1979437													8.579640	-0.079687	4.979300	0.513449	-0.812478	-0.276133	-0.018168	-0.332009	0.943101	-0.857928	-0.479218	-0.185230
435	1979604													8.515131	-0.159016	5.068850	0.510524	-0.814490	-0.275629	-0.019103	-0.331214	0.943362	-0.859651	-0.476343	-0.184652
436	1979771													8.315969	-0.204949	5.143820	0.506459	-0.816953	-0.275839	-0.019783	-0.330826	0.943484	-0.862037	-0.472379	-0.183712
437	1979937													8.350408	-0.235906	4.763029	0.501241	-0.820035	-0.276225	-0.020400	-0.330332	0.943644	-0.865067	-0.467358	-0.182304
438	1980104													8.678325	-0.108808	4.724311	0.496536	-0.822827	-0.276421	-0.021038	-0.329766	0.943828	-0.867761	-0.462829	-0.181051
439	1980271													8.775520	-0.111379	4.780591	0.492883	-0.825083	-0.276231	-0.021874	-0.329122	0.944034	-0.869820	-0.459256	-0.180267
440	1980438													8.559984	-0.210378	4.944166	0.489429	-0.827258	-0.275869	-0.022763	-0.328360	0.944278	-0.871746	-0.455877	-0.179540
441	1980604													8.422356	-0.329803	4.935384	0.484938	-0.829983	-0.275613	-0.023580	-0.327443	0.944577	-0.874230	-0.451563	-0.178360
442	1980771													8.529206	-0.259969	4.615695	0.479551	-0.833030	-0.275845	-0.024071	-0.326718	0.944815	-0.877184	-0.446448	-0.176730
443	1980938													8.820191	-0.108738	4.450264	0.475019	-0.835560	-0.276036	-0.024602	-0.326173	0.944990	-0.879631	-0.442097	-0.175495
444	1981104													8.882188	-0.186305	4.481413	0.471948	-0.837479	-0.275488	-0.025422	-0.325275	0.945278	-0.881260	-0.439118	-0.174803
445	1981271													8.618688	-0.304077	4.785345	0.469391	-0.839105	-0.274909	-0.026181	-0.324428	0.945548	-0.882602	-0.436634	-0.174252
446	1981438													8.453608	-0.292717	4.891347	0.465387	-0.841714	-0.273739	-0.027026	-0.322641	0.946135	-0.884695	-0.432921	-0.172901
447	1981604													8.557671	-0.268375	4.370210	0.460780	-0.844411	-0.273225	-0.027625	-0.321350	0.946557	-0.887084	-0.428607	-0.171399
448	1981771													8.973956	-0.127028	4.283745	0.457152	-0.846555	-0.272685	-0.028329	-0.320302	0.946892	-0.888938	-0.425148	-0.170408
449	1981938													9.050004	-0.199896	4.416168	0.455023	-0.848034	-0.271648	-0.029147	-0.319078	0.947280	-0.890002	-0.423117	-0.169906
450	1982104													8.602439	-0.239534	4.746829	0.452727	-0.849689	-0.270310	-0.029940	-0.317473	0.947795	-0.891146	-0.420999	-0.169168
451	1982271													8.491103	-0.356820	4.437260	0.448485	-0.852210	-0.269442	-0.030659	-0.315951	0.948280	-0.893264	-0.417029	-0.167827
452	1982438													8.784828	-0.176770	4.130424	0.444676	-0.854153	-0.269605	-0.031161	-0.315572	0.948390	-0.895149	-0.413325	-0.166944
453	1982604													9.148884	-0.220403	4.224841	0.441955	-0.855695	-0.269188	-0.031802	-0.314843	0.948611	-0.896473	-0.410682	-0.166360
454	1982771													8.911685	-0.267144	4.434907	0.439936	-0.857150	-0.267862	-0.032547	-0.313300	0.949096	-0.897439	-0.408824	-0.165729
455	1982938													8.660483	-0.350094	4.497425	0.436922	-0.859318	-0.265842	-0.033339	-0.310812	0.949886	-0.898881	-0.406164	-0.164449
456	1983104													8.675580	-0.205997	4.189040	0.433280	-0.861368	-0.265168	-0.033971	-0.309619	0.950254	-0.900619	-0.402718	-0.163413
457	1983271													9.044256	-0.221250	4.027780	0.430286	-0.863021	-0.264666	-0.034676	-0.308782	0.950500	-0.902026	-0.399810	-0.162791
458	1983438													9.111914	-0.299594	4.103681	0.428494	-0.864001	-0.264378	-0.035233	-0.308356	0.950618	-0.902857	-0.398020	-0.162570
459	1983604													8.822757	-0.316696	4.355678	0.426559	-0.865204	-0.263571	-0.035843	-0.307354	0.950920	-0.903749	-0.396176	-0.162116
460	1983771													8.623944	-0.333012	4.362419	0.423337	-0.867080	-0.262599	-0.036396	-0.305896	0.951369	-0.905241	-0.393192	-0.161056
461	1983938													8.943583	-0.222829	3.842441	0.420198	-0.868567	-0.262725	-0.036794	-0.305596	0.951450	-0.906686	-0.390130	-0.160369
462	1984104													9.132121	-0.275178	3.895387	0.418479	-0.869374	-0.262802	-0.037150	-0.305500	0.951467	-0.907467	-0.388406	-0.160142
463	1984271													8.982231	-0.386704	4.128814	0.417233	-0.870130	-0.262279	-0.037692	-0.304919	0.951632	-0.908018	-0.387166	-0.160019
464	1984438													8.774755	-0.446021	4.394230	0.414870	-0.871687	-0.260853	-0.038176	-0.303113	0.952190	-0.909079	-0.385077	-0.159030
465	1984604													8.786016	-0.416935	4.084555	0.411582	-0.873560	-0.259795	-0.038375	-0.301418	0.952720	-0.910564	-0.382152	-0.157581
466	1984771													9.103493	-0.245674	3.877869	0.409261	-0.874554	-0.260116	-0.038588	-0.301420	0.952710	-0.911601	-0.379870	-0.157107
467	1984938													9.106167	-0.288066	3.910453	0.408086	-0.875149	-0.259961	-0.038981	-0.301194	0.952766	-0.912111	-0.378677	-0.157028
468	1985104													8.929475	-0.394649	4.236266	0.406878	-0.875942	-0.259183	-0.039344	-0.300271	0.953042	-0.912635	-0.377574	-0.156636
469	1985271													8.754043	-0.491401	4.277628	0.404404	-0.877603	-0.257430	-0.039682	-0.298045	0.953726	-0.913719	-0.375476	-0.155356
470	1985438													8.845864	-0.431923	3.787526	0.400945	-0.879409	-0.256675	-0.039938	-0.296695	0.954137	-0.915231	-0.372305	-0.154080
471	1985604													9.224829	-0.303672	3.649080	0.398587	-0.880341	-0.257153	-0.039958	-0.296791	0.954106	-0.916260	-0.370019	-0.153474
472	1985771													9.305110	-0.368630	3.797457	0.397622	-0.880801	-0.257071	-0.039894	-0.296502	0.954199	-0.916682	-0.369155	-0.153034
473	1985938													9.008380	-0.432225	3.967882	0.397057	-0.881118	-0.256859	-0.039948	-0.296192	0.954293	-0.916924	-0.368648	-0.152804
474	1986104													8.800251	-0.451654	4.246814	0.395357	-0.882097	-0.256120	-0.040124	-0.295157	0.954606	-0.917651	-0.367133	-0.152085
475	1986271													8.665124	-0.380628	4.276465	0.391772	-0.884090	-0.254754	-0.040274	-0.293101	0.955233	-0.919180	-0.363974	-0.150434
476	1986438													9.039393	-0.320658	3.553219	0.386892	-0.886315	-0.254483	-0.040450	-0.292021	0.955556	-0.921238	-0.359403	-0.148831
477	1986604													9.516666	-0.299879	3.276580	0.384454	-0.887257	-0.254892	-0.040670	-0.292124	0.955515	-0.922248	-0.356985	-0.148393
478	1986771													9.254467	-0.347446	3.612676	0.383559	-0.887733	-0.254585	-0.040958	-0.291750	0.955617	-0.922608	-0.356108	-0.148263
479	1986938													8.939077	-0.381813	3.818355	0.382479	-0.888222	-0.254502	-0.041103	-0.291529	0.955678	-0.923049	-0.355067	-0.148012
480	1987104													9.054837	-0.430402	3.787248	0.381403	-0.888623	-0.254717	-0.041089	-0.291570	0.955667	-0.923495	-0.354028	-0.147718
481	1987271													9.151049	-0.452257	3.690342	0.380411	-0.888886	-0.255283	-0.041051	-0.291993	0.955539	-0.923906	-0.353018	-0.147567
482	1987438													9.152170	-0.442364	3.617840	0.380190	-0.888655	-0.256412	-0.040991	-0.293147	0.955188	-0.924000	-0.352642	-0.147879
483	1987604													9.157141	-0.379436	3.686445	0.380560	-0.888176	-0.257521	-0.041033	-0.294418	0.954795	-0.923846	-0.352790	-0.148488
484	1987771													9.076106	-0.370582	3.755449	0.381537	-0.887472	-0.258501	-0.041033	-0.295641	0.954418	-0.923442	-0.353538	-0.149213
485	1987938													8.943252	-0.426445	3.988138	0.382110	-0.887108	-0.258906	-0.041051	-0.296183	0.954249	-0.923205	-0.353999	-0.149591
486	1988104													8.911826	-0.467575	4.004011	0.381563	-0.887478	-0.258442	-0.040785	-0.295488	0.954476	-0.923443	-0.353652	-0.148943
487	1988271													9.118664	-0.335431	3.742571	0.380620	-0.887965	-0.258161	-0.040475	-0.294903	0.954670	-0.923845	-0.352917	-0.148186
488	1988438													9.343046	-0.302314	3.479387	0.381029	-0.887681	-0.258534	-0.040204	-0.295271	0.954567	-0.923689	-0.353324	-0.148196
489	1988604													9.224937	-0.300342	3.556106	0.382401	-0.887014	-0.258797	-0.040078	-0.295743	0.954426	-0.923127	-0.354601	-0.148642
490	1988771													9.057422	-0.383569	3.852063	0.383523	-0.886506	-0.258877	-0.039818	-0.295925	0.954381	-0.922672	-0.355719	-0.148793
491	1988938													8.938802	-0.448400	3.789029	0.383315	-0.886562	-0.258991	-0.039435	-0.295863	0.954416	-0.922775	-0.355629	-0.148371
492	1989104													9.015947	-0.335634	3.690510	0.382796	-0.886717	-0.259230	-0.039176	-0.295931	0.954406	-0.923002	-0.355187	-0.148019
493	1989271													9.164584	-0.301744	3.583472	0.382549	-0.886784	-0.259365	-0.039077	-0.295996	0.954390	-0.923108	-0.354966	-0.147886
494	1989438													9.132850	-0.317772	3.645694	0.382552	-0.886722	-0.259574	-0.038969	-0.296179	0.954337	-0.923112	-0.354968	-0.147859
495	1989604													9.104322	-0.334120	3.753559	0.382677	-0.886635	-0.259685	-0.038913	-0.296299	0.954302	-0.923062	-0.355084	-0.147888
496	1989771													9.017356	-0.376183	3.934736	0.382328	-0.886797	-0.259646	-0.038781	-0.296146	0.954355	-0.923212	-0.354807	-0.147616
497	1989938													9.057731	-0.433721	3.761519	0.381356	-0.887117	-0.259982	-0.038650	-0.296291	0.954315	-0.923620	-0.353885	-0.147279
498	1990104													9.191176	-0.391440	3.588802	0.380816	-0.887093	-0.260855	-0.038488	-0.297075	0.954078	-0.923850	-0.353288	-0.147273
499	1990271													9.210631	-0.324986	3.625529	0.380958	-0.886822	-0.261569	-0.038326	-0.297805	0.953857	-0.923798	-0.353354	-0.147440
500	1990438													9.075438	-0.340923	3.746190	0.381557	-0.886374	-0.262213	-0.038237	-0.298567	0.953622	-0.923554	-0.353835	-0.147812
501	1990604													8.950852	-0.408483	3.968205	0.381265	-0.886362	-0.262678	-0.038241	-0.299018	0.953481	-0.923675	-0.353483	-0.147901
502	1990771													8.970658	-0.363102	3.822572	0.379976	-0.886917	-0.262671	-0.038137	-0.298749	0.953569	-0.924210	-0.352316	-0.147342
503	1990938													9.177397	-0.228280	3.676130	0.378898	-0.887276	-0.263018	-0.038064	-0.298910	0.953522	-0.924656	-0.351276	-0.147029
504	1991104													9.217176	-0.237032	3.624317	0.378493	-0.887390	-0.263214	-0.038093	-0.299063	0.953473	-0.924820	-0.350856	-0.146997
505	1991271													9.058043	-0.301328	3.882495	0.378220	-0.887578	-0.262972	-0.038087	-0.298754	0.953570	-0.924932	-0.350643	-0.146800
506	1991438													9.021247	-0.328827	3.818314	0.377484	-0.888086	-0.262316	-0.038089	-0.297925	0.953829	-0.925232	-0.350064	-0.146288
507	1991604													9.180121	-0.283051	3.517025	0.377573	-0.888055	-0.262292	-0.038198	-0.297955	0.953815	-0.925191	-0.350116	-0.146422
508	1991771													9.286243	-0.316982	3.472980	0.378495	-0.887766	-0.261941	-0.038364	-0.297798	0.953858	-0.924808	-0.350982	-0.146773
509	1991938													9.096086	-0.368579	3.641989	0.379557	-0.887443	-0.261500	-0.038435	-0.297532	0.953938	-0.924370	-0.352023	-0.147039
510	1992104													8.979198	-0.421687	3.774668	0.380052	-0.887291	-0.261295	-0.038538	-0.297436	0.953964	-0.924162	-0.352486	-0.147236
511	1992271													9.087652	-0.394272	3.655070	0.380240	-0.887199	-0.261333	-0.038743	-0.297587	0.953908	-0.924076	-0.352589	-0.147527
512	1992438													9.179060	-0.341944	3.601601	0.380817	-0.886925	-0.261424	-0.038944	-0.297861	0.953815	-0.923830	-0.353048	-0.147971
513	1992604													9.119961	-0.314499	3.703639	0.381774	-0.886521	-0.261399	-0.039059	-0.298044	0.953753	-0.923430	-0.353908	-0.148412
514	1992771													9.015594	-0.326025	3.820267	0.382622	-0.886144	-0.261437	-0.039077	-0.298238	0.953691	-0.923078	-0.354687	-0.148740
515	1992938													9.010792	-0.372526	3.872287	0.383096	-0.885907	-0.261546	-0.039118	-0.298453	0.953622	-0.922880	-0.355098	-0.148991
516	1993104													9.047418	-0.399153	3.793450	0.383230	-0.885748	-0.261888	-0.039171	-0.298865	0.953491	-0.922822	-0.355148	-0.149229
517	1993271													9.067383	-0.344384	3.800840	0.383130	-0.885719	-0.262132	-0.039228	-0.299132	0.953405	-0.922861	-0.354995	-0.149352
518	1993438													9.128047	-0.299776	3.734011	0.383206	-0.885695	-0.262102	-0.039304	-0.299142	0.953399	-0.922826	-0.355047	-0.149444
519	1993604													9.111744	-0.330281	3.728363	0.383603	-0.885485	-0.262230	-0.039383	-0.299380	0.953321	-0.922658	-0.355369	-0.149717
520	1993771													8.987963	-0.376260	3.723670	0.384150	-0.885181	-0.262457	-0.039461	-0.299750	0.953201	-0.922427	-0.355815	-0.150079
521	1993938													9.074247	-0.332188	3.892204	0.384438	-0.884960	-0.262779	-0.039345	-0.300103	0.953095	-0.922312	-0.356067	-0.150190
522	1994104													9.124918	-0.408523	3.825161	0.384385	-0.884948	-0.262898	-0.039111	-0.300132	0.953096	-0.922344	-0.356074	-0.149977
523	1994271													9.018569	-0.382061	3.781886	0.384403	-0.884947	-0.262874	-0.039164	-0.300129	0.953094	-0.922334	-0.356077	-0.150028
524	1994438													9.042240	-0.292083	3.762822	0.384738	-0.884752	-0.263043	-0.039260	-0.300407	0.953003	-0.922191	-0.356329	-0.150313
525	1994604													9.088077	-0.297338	3.748855	0.385514	-0.884372	-0.263183	-0.039219	-0.300679	0.952919	-0.921868	-0.357042	-0.150600
526	1994771													8.981866	-0.352880	3.892623	0.386534	-0.883877	-0.263351	-0.039264	-0.301057	0.952797	-0.921439	-0.357948	-0.151073
527	1994938													8.995386	-0.471352	3.931979	0.386224	-0.884145	-0.262905	-0.039365	-0.300561	0.952950	-0.921565	-0.357703	-0.150888
528	1995104													9.027066	-0.385655	3.735586	0.385745	-0.884396	-0.262764	-0.039270	-0.300288	0.953040	-0.921769	-0.357311	-0.150564
529	1995271													9.204009	-0.301969	3.604992	0.385897	-0.884261	-0.262993	-0.039245	-0.300551	0.952958	-0.921707	-0.357422	-0.150684
530	1995438													9.204217	-0.286485	3.627096	0.387314	-0.883519	-0.263406	-0.039195	-0.301227	0.952747	-0.921114	-0.358688	-0.151299
531	1995604													9.010965	-0.410848	3.981251	0.388479	-0.883073	-0.263183	-0.039346	-0.301253	0.952732	-0.920617	-0.359761	-0.151776
532	1995771													8.983179	-0.506426	3.929308	0.389130	-0.882969	-0.262570	-0.039376	-0.300718	0.952900	-0.920341	-0.360463	-0.151786
533	1995938													9.021372	-0.406153	3.837946	0.388857	-0.883374	-0.261614	-0.039345	-0.299626	0.953245	-0.920458	-0.360383	-0.151268
534	1996104													9.178853	-0.259705	3.615670	0.389460	-0.883156	-0.261452	-0.039167	-0.299488	0.953296	-0.920210	-0.361030	-0.151229
535	1996271													9.160600	-0.279193	3.552043	0.391357	-0.882281	-0.261573	-0.039181	-0.299962	0.953146	-0.919404	-0.362772	-0.151961
536	1996438													8.980387	-0.307735	3.645307	0.394252	-0.880876	-0.261961	-0.039075	-0.300859	0.952868	-0.918171	-0.365434	-0.153035
537	1996604													8.678809	-0.350586	4.024621	0.396607	-0.879863	-0.261809	-0.039055	-0.301113	0.952788	-0.917157	-0.367658	-0.153786
538	1996771													8.754875	-0.518932	4.366977	0.395403	-0.880691	-0.260845	-0.039033	-0.299843	0.953190	-0.917678	-0.366712	-0.152935
539	1996938													9.158099	-0.544328	3.766810	0.392004	-0.882372	-0.260294	-0.038464	-0.298412	0.953662	-0.919159	-0.363827	-0.150918
540	1997105													9.413119	-0.264664	3.470183	0.390278	-0.882986	-0.260805	-0.037625	-0.298328	0.953721	-0.919928	-0.362404	-0.149653
541	1997271													9.226032	-0.160762	3.605585	0.391405	-0.882226	-0.261687	-0.037079	-0.299264	0.953450	-0.919471	-0.363482	-0.149845
542	1997438													8.959482	-0.249560	4.143287	0.392960	-0.881513	-0.261759	-0.036765	-0.299492	0.953390	-0.918820	-0.365021	-0.150097
543	1997605													9.084533	-0.516354	3.920899	0.393244	-0.881712	-0.260659	-0.036331	-0.298179	0.953818	-0.918716	-0.365613	-0.149290
544	1997771													8.963167	-0.403193	3.702850	0.394487	-0.881066	-0.260965	-0.035301	-0.298317	0.953814	-0.918223	-0.367055	-0.148785
545	1997938													9.133686	-0.202676	3.890956	0.395831	-0.880264	-0.261636	-0.034386	-0.298914	0.953660	-0.917679	-0.368492	-0.148589
546	1998105													9.230795	-0.288779	3.725728	0.398008	-0.879195	-0.261927	-0.033551	-0.299274	0.953577	-0.916768	-0.370744	-0.148611
547	1998271													9.041128	-0.267295	3.797228	0.401298	-0.877575	-0.262338	-0.032887	-0.300032	0.953362	-0.915357	-0.373955	-0.149263
548	1998438													8.985554	-0.262759	3.963938	0.404979	-0.875735	-0.262831	-0.032500	-0.301065	0.953050	-0.913748	-0.377423	-0.150386
549	1998605													8.968113	-0.320273	4.144497	0.408646	-0.873966	-0.263042	-0.032036	-0.301762	0.952845	-0.912131	-0.380949	-0.151313
550	1998771													8.960244	-0.413593	4.126966	0.411055	-0.872874	-0.262914	-0.031425	-0.301803	0.952852	-0.911069	-0.383413	-0.151488
551	1998938													8.959211	-0.343897	3.941286	0.413287	-0.871564	-0.263763	-0.030422	-0.302712	0.952596	-0.910093	-0.385671	-0.151621
552	1999105													8.967527	-0.144221	3.930833	0.415801	-0.870063	-0.264765	-0.029776	-0.303993	0.952209	-0.908968	-0.388046	-0.152307
553	1999271													9.100161	-0.160794	3.976948	0.419113	-0.868274	-0.265413	-0.029361	-0.305134	0.951857	-0.907459	-0.391142	-0.153379
554	1999438													8.971294	-0.219160	4.091905	0.423008	-0.866325	-0.265603	-0.029097	-0.305955	0.951601	-0.905659	-0.394807	-0.154629
555	1999605													8.832470	-0.270544	4.165133	0.426978	-0.864335	-0.265733	-0.028956	-0.306785	0.951338	-0.903798	-0.398506	-0.156018
556	1999771													8.816104	-0.242720	4.233357	0.431289	-0.862035	-0.266243	-0.028795	-0.308101	0.950918	-0.901754	-0.402454	-0.157703
557	1999938													8.822533	-0.246722	4.320927	0.435959	-0.859558	-0.266644	-0.028754	-0.309435	0.950486	-0.899507	-0.406706	-0.159617
558	2000105													8.752851	-0.244842	4.401129	0.441113	-0.856903	-0.266715	-0.028769	-0.310540	0.950125	-0.896990	-0.411439	-0.161636
559	2000271													8.637232	-0.223282	4.624028	0.446044	-0.854363	-0.266662	-0.028856	-0.311516	0.949803	-0.894546	-0.415958	-0.163603
560	2000438													8.707634	-0.366117	4.719039	0.449103	-0.852888	-0.266249	-0.028939	-0.311720	0.949733	-0.893011	-0.418823	-0.164676
561	2000605													8.871260	-0.425755	4.439049	0.451133	-0.851964	-0.265775	-0.028615	-0.311457	0.949829	-0.891998	-0.420895	-0.164887
562	2000771													8.873982	-0.250671	4.313013	0.454096	-0.850350	-0.265897	-0.027922	-0.311877	0.949712	-0.890515	-0.423836	-0.165366
563	2000938													8.776736	-0.077596	4.480937	0.457985	-0.848140	-0.266287	-0.027386	-0.312868	0.949402	-0.888538	-0.427519	-0.166516
564	2001105													8.800570	-0.175850	4.596631	0.461649	-0.846230	-0.266038	-0.026995	-0.313172	0.949313	-0.886652	-0.431067	-0.167419
565	2001271													8.742663	-0.304331	4.342257	0.465355	-0.844264	-0.265825	-0.026317	-0.313390	0.949260	-0.884733	-0.434747	-0.168056
566	2001438													8.666741	-0.179365	4.495713	0.469384	-0.841952	-0.266076	-0.025579	-0.314173	0.949021	-0.882624	-0.438649	-0.169003
567	2001605													8.687901	-0.074122	4.626380	0.473910	-0.839347	-0.266281	-0.025066	-0.315131	0.948717	-0.880217	-0.442932	-0.170383
568	2001771													8.504077	-0.178438	4.735919	0.478609	-0.836613	-0.266480	-0.024763	-0.316240	0.948356	-0.877679	-0.447293	-0.172072
569	2001938													8.457224	-0.371554	4.642794	0.482328	-0.834380	-0.266775	-0.024456	-0.317249	0.948027	-0.875649	-0.450736	-0.173424
570	2002105													8.808382	-0.377478	4.449192	0.484179	-0.833021	-0.267668	-0.023491	-0.318183	0.947738	-0.874653	-0.452587	-0.173626
571	2002271													8.980999	-0.039344	4.290538	0.487399	-0.830960	-0.268230	-0.022364	-0.318967	0.947502	-0.872893	-0.455813	-0.174048
572	2002438													8.825397	0.037121	4.737966	0.492113	-0.828183	-0.268212	-0.021945	-0.319806	0.947229	-0.870255	-0.460258	-0.175556
573	2002605													8.471449	-0.224702	4.928567	0.496708	-0.825658	-0.267524	-0.022072	-0.320154	0.947108	-0.867637	-0.464532	-0.177247
574	2002771													8.349977	-0.415332	4.897510	0.499877	-0.823914	-0.267001	-0.021970	-0.320245	0.947080	-0.865818	-0.467557	-0.178184
575	2002938													8.588082	-0.294219	4.858078	0.502183	-0.822389	-0.267374	-0.021397	-0.320910	0.946868	-0.864497	-0.469780	-0.178752
576	2003105													8.682385	-0.077223	4.866214	0.505024	-0.820302	-0.268432	-0.020713	-0.322437	0.946364	-0.862857	-0.472376	-0.179830
577	2003271													8.431519	-0.086949	4.865024	0.509313	-0.817544	-0.268742	-0.020200	-0.323550	0.945995	-0.860345	-0.476379	-0.181303
578	2003438													8.313149	-0.098749	4.999989	0.513210	-0.815061	-0.268869	-0.019790	-0.324426	0.945704	-0.858035	-0.480024	-0.182629
579	2003605													8.440844	-0.113615	4.998347	0.516626	-0.812903	-0.268861	-0.019380	-0.325035	0.945503	-0.855992	-0.483262	-0.183676
580	2003771													8.556064	-0.100050	5.035350	0.520586	-0.810335	-0.268974	-0.018863	-0.325867	0.945228	-0.853601	-0.486999	-0.184927
581	2003938													8.412229	-0.108866	5.277342	0.525522	-0.807160	-0.268922	-0.018489	-0.326850	0.944895	-0.850579	-0.491591	-0.186690
582	2004105													8.187156	-0.218116	5.310022	0.530229	-0.804108	-0.268827	-0.018168	-0.327770	0.944583	-0.847660	-0.495961	-0.188402
583	2004271													8.236787	-0.265598	5.114665	0.534043	-0.801523	-0.268997	-0.017601	-0.328638	0.944292	-0.845274	-0.499558	-0.189615
584	2004438													8.435047	-0.140427	5.035515	0.538028	-0.798902	-0.268852	-0.017068	-0.329211	0.944102	-0.842754	-0.503365	-0.190761
585	2004605													8.457969	-0.037138	5.325933	0.542944	-0.795757	-0.268295	-0.016711	-0.329662	0.943951	-0.839602	-0.508030	-0.192286
586	2004771													8.184291	-0.050268	5.532625	0.548198	-0.792460	-0.267367	-0.016592	-0.329926	0.943861	-0.836184	-0.512987	-0.194013
587	2004938													8.077169	-0.157174	5.585670	0.553031	-0.789424	-0.266398	-0.016723	-0.330196	0.943764	-0.832993	-0.517475	-0.195810
588	2005105													8.118937	-0.248895	5.507662	0.557365	-0.786649	-0.265570	-0.016707	-0.330423	0.943685	-0.830099	-0.521541	-0.197309
589	2005271													8.215302	-0.163854	5.557680	0.561849	-0.783727	-0.264759	-0.016478	-0.330590	0.943630	-0.827076	-0.525815	-0.198656
590	2005438													8.185909	-0.098639	5.672535	0.566856	-0.780440	-0.263795	-0.016315	-0.330783	0.943566	-0.823655	-0.530562	-0.200239
591	2005605													7.994119	-0.068653	5.756615	0.572162	-0.777043	-0.262364	-0.016433	-0.330699	0.943593	-0.819976	-0.535577	-0.201983
592	2005771													7.851688	-0.204119	5.671439	0.577229	-0.773847	-0.260707	-0.016790	-0.330446	0.943676	-0.816410	-0.540340	-0.203735
593	2005938													7.970246	-0.245532	5.490767	0.581674	-0.771072	-0.259044	-0.017048	-0.329948	0.943845	-0.813243	-0.544594	-0.205067
594	2006105													8.207830	-0.113614	5.736243	0.586588	-0.767904	-0.257368	-0.017117	-0.329467	0.944012	-0.809704	-0.549341	-0.206406
595	2006271													7.957417	-0.068414	5.899213	0.591966	-0.764491	-0.255205	-0.017505	-0.328767	0.944249	-0.805773	-0.554496	-0.208001
596	2006438													7.736161	-0.173210	6.008217	0.596866	-0.761440	-0.252904	-0.018174	-0.327957	0.944518	-0.802135	-0.559154	-0.209585
597	2006605													7.821522	-0.296177	5.963144	0.601522	-0.758494	-0.250715	-0.018777	-0.327181	0.944775	-0.798635	-0.563596	-0.211049
598	2006771													7.852701	-0.257666	6.018941	0.606464	-0.755276	-0.248514	-0.019237	-0.326398	0.945037	-0.794878	-0.568350	-0.212478
599	2006938													7.805542	-0.207331	5.974532	0.611792	-0.751693	-0.246309	-0.019630	-0.325714	0.945265	-0.790775	-0.573470	-0.214025
600	2007105													7.771167	-0.252101	6.058492	0.617136	-0.748021	-0.244146	-0.019793	-0.324940	0.945527	-0.786607	-0.578687	-0.215338
601	2007271													7.835716	-0.184304	6.094489	0.622570	-0.744260	-0.241833	-0.020082	-0.324119	0.945803	-0.782306	-0.583972	-0.216733
602	2007438													7.731879	-0.163502	6.245887	0.628162	-0.740455	-0.239037	-0.020685	-0.322997	0.946174	-0.777807	-0.589406	-0.218211
603	2007605													7.568693	-0.178383	6.262048	0.633895	-0.736607	-0.235769	-0.021564	-0.321554	0.946646	-0.773119	-0.594990	-0.219716
604	2007771													7.510497	-0.220467	6.250766	0.639637	-0.732690	-0.232445	-0.022532	-0.320138	0.947103	-0.768347	-0.600564	-0.221281
605	2007938													7.436632	-0.366368	6.288292	0.645560	-0.728452	-0.229370	-0.023265	-0.318955	0.947484	-0.763355	-0.606321	-0.222852
606	2008105													7.452620	-0.330282	6.234324	0.651164	-0.724138	-0.227179	-0.023549	-0.318473	0.947639	-0.758572	-0.611718	-0.224431
607	2008271													7.588994	-0.268806	6.376318	0.656677	-0.719741	-0.225273	-0.023541	-0.318119	0.947759	-0.753805	-0.617068	-0.225845
608	2008438													7.426496	-0.207866	6.492229	0.662491	-0.715105	-0.223005	-0.023750	-0.317611	0.947924	-0.748694	-0.622694	-0.227398
609	2008605													7.261281	-0.132241	6.514711	0.668255	-0.710507	-0.220490	-0.024214	-0.317000	0.948116	-0.743539	-0.628244	-0.229041
610	2008771													7.237880	-0.190513	6.523446	0.674201	-0.705699	-0.217813	-0.024793	-0.316380	0.948309	-0.738132	-0.633950	-0.230800
611	2008938													7.171966	-0.282673	6.564813	0.680182	-0.700764	-0.215132	-0.025440	-0.315867	0.948462	-0.732602	-0.639654	-0.232675
612	2009105													7.202390	-0.348064	6.635868	0.686019	-0.695706	-0.213007	-0.025694	-0.315741	0.948497	-0.727130	-0.645214	-0.234480
613	2009271													7.178575	-0.268788	6.707255	0.692037	-0.690353	-0.210943	-0.025841	-0.315726	0.948498	-0.721399	-0.650945	-0.236334
614	2009438													7.095212	-0.211244	6.713954	0.698224	-0.684803	-0.208635	-0.026105	-0.315600	0.948533	-0.715403	-0.656842	-0.238236
615	2009605													6.982663	-0.218257	6.721143	0.704453	-0.679210	-0.205961	-0.026572	-0.315223	0.948646	-0.709253	-0.662803	-0.240108
616	2009771													7.007227	-0.310030	6.793715	0.710595	-0.673559	-0.203404	-0.026891	-0.314877	0.948751	-0.703087	-0.668708	-0.241863
617	2009938													6.920588	-0.285777	6.957560	0.716870	-0.667567	-0.201125	-0.026983	-0.314821	0.948767	-0.696684	-0.674716	-0.243699
618	2010105													6.827740	-0.169975	7.073110	0.723404	-0.661107	-0.199057	-0.026809	-0.314990	0.948716	-0.689904	-0.680969	-0.245589
619	2010271													6.723782	-0.173142	7.171498	0.730130	-0.654365	-0.196763	-0.026727	-0.315085	0.948687	-0.682785	-0.687406	-0.247542
620	2010438													6.572905	-0.319943	7.197093	0.736717	-0.647523	-0.194837	-0.026424	-0.315482	0.948563	-0.675684	-0.693675	-0.249531
621	2010605													6.594276	-0.264809	7.254677	0.742803	-0.641003	-0.193286	-0.025961	-0.316056	0.948385	-0.669007	-0.699445	-0.251408
622	2010771													6.480826	-0.136492	7.337408	0.748854	-0.634431	-0.191612	-0.025504	-0.316496	0.948251	-0.662245	-0.705214	-0.253189
623	2010938													6.291284	-0.128672	7.367111	0.754705	-0.627988	-0.189874	-0.025203	-0.316951	0.948107	-0.655581	-0.710755	-0.255032
624	2011105													6.227646	-0.168262	7.420181	0.760292	-0.621758	-0.188078	-0.025065	-0.317402	0.947960	-0.649097	-0.716012	-0.256902
625	2011271													6.174790	-0.220598	7.458197	0.765536	-0.615771	-0.186495	-0.024928	-0.318031	0.947752	-0.642910	-0.720890	-0.258814
626	2011438													6.238813	-0.225420	7.555630	0.770363	-0.610041	-0.185446	-0.024533	-0.318993	0.947439	-0.637133	-0.725323	-0.260707
627	2011605													6.155641	-0.169642	7.732332	0.775001	-0.604491	-0.184291	-0.024127	-0.319708	0.947209	-0.631499	-0.729642	-0.262359
628	2011771													6.092128	-0.150797	7.754759	0.779236	-0.599386	-0.183106	-0.023884	-0.320349	0.946998	-0.626276	-0.733561	-0.263943
629	2011938													5.987987	-0.153090	7.799672	0.783178	-0.594635	-0.181773	-0.023849	-0.320847	0.946831	-0.621340	-0.737202	-0.265462
630	2012105													5.925329	-0.157253	7.809330	0.786764	-0.590301	-0.180407	-0.024011	-0.321321	0.946666	-0.616787	-0.740471	-0.266978
631	2012271													5.873669	-0.190002	7.766104	0.789998	-0.586359	-0.179129	-0.024249	-0.321818	0.946491	-0.612630	-0.743382	-0.268454
632	2012438													5.839232	-0.205362	7.789367	0.792927	-0.582721	-0.178052	-0.024388	-0.322334	0.946312	-0.608828	-0.746014	-0.269799
633	2012605													5.876653	-0.120549	7.861610	0.795548	-0.579473	-0.176961	-0.024547	-0.322653	0.946199	-0.605394	-0.748402	-0.270910
634	2012771													5.821407	-0.196894	7.928154	0.797996	-0.576483	-0.175698	-0.024852	-0.322765	0.946153	-0.602150	-0.750659	-0.271892
635	2012938													5.779125	-0.252527	7.933884	0.800230	-0.573714	-0.174599	-0.025041	-0.322860	0.946115	-0.599170	-0.752737	-0.272729
636	2013105													5.746738	-0.267622	7.893353	0.802344	-0.571062	-0.173584	-0.025154	-0.322922	0.946091	-0.596331	-0.754725	-0.273459
637	2013271													5.733161	-0.256522	7.876780	0.804301	-0.568560	-0.172739	-0.025146	-0.323004	0.946063	-0.593689	-0.756576	-0.274090
638	2013438													5.690200	-0.229729	7.863179	0.806155	-0.566154	-0.172000	-0.025076	-0.323114	0.946028	-0.591173	-0.758332	-0.274677
639	2013605													5.691185	-0.227772	7.872242	0.807913	-0.563914	-0.171104	-0.025115	-0.323035	0.946054	-0.588766	-0.760032	-0.275147
640	2013772													5.693435	-0.216086	7.891078	0.809527	-0.561818	-0.170369	-0.025139	-0.323103	0.946030	-0.586544	-0.761554	-0.275685
641	2013938													5.687054	-0.222524	7.909117	0.811089	-0.559744	-0.169767	-0.025072	-0.323241	0.945984	-0.584385	-0.763022	-0.276211
642	2014105													5.689329	-0.198550	7.981935	0.812620	-0.557624	-0.169425	-0.024885	-0.323645	0.945851	-0.582263	-0.764401	-0.276876
643	2014272													5.695887	-0.142852	8.069923	0.814235	-0.555480	-0.168710	-0.024923	-0.323791	0.945800	-0.580000	-0.765899	-0.277486
644	2014438													5.715626	-0.225664	8.058378	0.815812	-0.553421	-0.167856	-0.024991	-0.323715	0.945824	-0.577777	-0.767420	-0.277922
645	2014605													5.702382	-0.229069	8.108997	0.817375	-0.551329	-0.167134	-0.024874	-0.323612	0.945863	-0.575568	-0.768968	-0.278226
646	2014772													5.679140	-0.298147	8.087994	0.818883	-0.549373	-0.166189	-0.024777	-0.323114	0.946036	-0.573425	-0.770575	-0.278204
647	2014938													5.602411	-0.304711	8.087370	0.820280	-0.547479	-0.165552	-0.024464	-0.322763	0.946163	-0.571438	-0.772069	-0.278150
648	2015105													5.519851	-0.223482	8.037096	0.821620	-0.545652	-0.164938	-0.024124	-0.322371	0.946306	-0.569525	-0.773525	-0.278030
649	2015272													5.560646	-0.246017	8.045887	0.822816	-0.544007	-0.164406	-0.023788	-0.322006	0.946439	-0.567809	-0.774834	-0.277893
650	2015438													5.521285	-0.190059	8.085219	0.823885	-0.542491	-0.164061	-0.023381	-0.321761	0.946532	-0.566274	-0.775998	-0.277778
651	2015605													5.471160	-0.231741	8.086946	0.824786	-0.541245	-0.163653	-0.023097	-0.321430	0.946652	-0.564973	-0.777005	-0.277612
652	2015772													5.459834	-0.247549	8.104202	0.825615	-0.540092	-0.163281	-0.022812	-0.321099	0.946771	-0.563772	-0.777944	-0.277425
653	2015938													5.466641	-0.192897	8.199771	0.826416	-0.538985	-0.162888	-0.022483	-0.320648	0.946931	-0.562611	-0.778897	-0.277107
654	2016105													5.487581	-0.196129	8.235701	0.827123	-0.538035	-0.162435	-0.022265	-0.320162	0.947101	-0.561579	-0.779753	-0.276793
655	2016272													5.429369	-0.199692	8.259270	0.827767	-0.537178	-0.161993	-0.022170	-0.319811	0.947222	-0.560633	-0.780488	-0.276638
656	2016438													5.419661	-0.263006	8.212679	0.828351	-0.536414	-0.161537	-0.022144	-0.319478	0.947335	-0.559772	-0.781149	-0.276518
657	2016605													5.381479	-0.265489	8.141587	0.828828	-0.535732	-0.161355	-0.022014	-0.319392	0.947367	-0.559070	-0.781652	-0.276515
658	2016772													5.345706	-0.175008	8.153698	0.829281	-0.535127	-0.161035	-0.021995	-0.319195	0.947434	-0.558399	-0.782147	-0.276472
659	2016938													5.258284	-0.180611	8.214584	0.829710	-0.534535	-0.160794	-0.021952	-0.319084	0.947472	-0.557764	-0.782597	-0.276482
660	2017105													5.397442	-0.213736	8.101455	0.829915	-0.534271	-0.160612	-0.022013	-0.319027	0.947490	-0.557456	-0.782800	-0.276526
661	2017272													5.555099	-0.243132	8.185053	0.830132	-0.534001	-0.160383	-0.022178	-0.319045	0.947480	-0.557125	-0.782977	-0.276693
662	2017438													5.392671	-0.207047	8.208210	0.830052	-0.534102	-0.160465	-0.022229	-0.319191	0.947430	-0.557243	-0.782849	-0.276818
663	2017605													5.353719	-0.168379	8.188526	0.829920	-0.534246	-0.160665	-0.022122	-0.319280	0.947402	-0.557443	-0.782714	-0.276796
664	2017772													5.313229	-0.124561	8.210560	0.829605	-0.534635	-0.161000	-0.021984	-0.319402	0.947364	-0.557918	-0.782398	-0.276731
665	2017938													5.344765	-0.168635	8.155390	0.829069	-0.535317	-0.161495	-0.021781	-0.319524	0.947328	-0.558722	-0.781883	-0.276567
666	2018105													5.421937	-0.230770	8.164951	0.828295	-0.536305	-0.162186	-0.021538	-0.319730	0.947264	-0.559878	-0.781121	-0.276381
667	2018272													5.507449	-0.216140	8.198472	0.827310	-0.537541	-0.163121	-0.021079	-0.319885	0.947222	-0.561351	-0.780207	-0.275975
668	2018438													5.386037	-0.154280	8.230338	0.826007	-0.539138	-0.164448	-0.020431	-0.320196	0.947131	-0.563290	-0.778977	-0.275499
669	2018605													5.360538	-0.123691	8.171658	0.824457	-0.541000	-0.166102	-0.019530	-0.320530	0.947037	-0.565587	-0.777547	-0.274829
670	2018772													5.322611	-0.101269	8.112062	0.822570	-0.543231	-0.168164	-0.018464	-0.321074	0.946874	-0.568365	-0.775765	-0.274135
671	2018938													5.366852	-0.153946	8.074821	0.820424	-0.545726	-0.170550	-0.017168	-0.321670	0.946696	-0.571498	-0.773764	-0.273275
672	2019105													5.488198	-0.241039	8.038328	0.817884	-0.548704	-0.173174	-0.015849	-0.322342	0.946491	-0.575164	-0.771375	-0.272335
673	2019272													5.443033	-0.259146	8.036124	0.815155	-0.551525	-0.177039	-0.013462	-0.323593	0.946101	-0.579087	-0.768835	-0.271203
674	2019438													5.370043	-0.060861	8.084776	0.812252	-0.554284	-0.181706	-0.010363	-0.325173	0.945598	-0.583215	-0.766180	-0.269866
675	2019605													5.428166	0.042544	8.109036	0.808901	-0.557816	-0.185795	-0.007995	-0.326415	0.945193	-0.587890	-0.763082	-0.268497
676	2019772													5.767617	-0.054438	8.075589	0.805043	-0.562223	-0.189237	-0.006464	-0.327297	0.944899	-0.593181	-0.759461	-0.267123
677	2019938													5.788190	-0.118988	8.019041	0.800991	-0.566899	-0.192457	-0.005313	-0.328189	0.944597	-0.598653	-0.755591	-0.265889
678	2020105													5.854171	-0.026633	7.890703	0.796714	-0.571750	-0.195830	-0.004199	-0.329260	0.944230	-0.604342	-0.751459	-0.264727
679	2020272													5.821995	0.116282	7.801489	0.792467	-0.576542	-0.198986	-0.003310	-0.330313	0.943866	-0.609906	-0.747324	-0.263670
680	2020438													5.863094	0.125758	7.782382	0.788094	-0.581569	-0.201706	-0.002894	-0.331179	0.943563	-0.615548	-0.743033	-0.262684
681	2020605													6.003150	0.053647	7.725806	0.783559	-0.586824	-0.204137	-0.002836	-0.331930	0.943300	-0.621310	-0.738553	-0.261751
682	2020772													6.148719	0.033511	7.647972	0.778874	-0.592244	-0.206405	-0.002925	-0.332525	0.943090	-0.627174	-0.733944	-0.260728
683	2020938													6.335395	0.069877	7.519084	0.774215	-0.597623	-0.208417	-0.003153	-0.332931	0.942946	-0.632915	-0.729385	-0.259645
684	2021105													6.246438	0.149614	7.541121	0.769890	-0.602673	-0.209895	-0.003647	-0.333047	0.942903	-0.638167	-0.725166	-0.258607
685	2021272													6.322300	0.101264	7.572454	0.765184	-0.608223	-0.211090	-0.004648	-0.333085	0.942885	-0.643795	-0.720499	-0.257698
686	2021438													6.473186	0.018771	7.485182	0.760446	-0.613733	-0.212258	-0.005751	-0.333203	0.942837	-0.649376	-0.715756	-0.256913
687	2021605													6.490855	-0.003494	7.444779	0.755723	-0.619042	-0.213705	-0.006719	-0.333632	0.942680	-0.654857	-0.710969	-0.256292
688	2021772													6.555263	0.017202	7.339532	0.750943	-0.624376	-0.215033	-0.007733	-0.333918	0.942570	-0.660322	-0.706154	-0.255582
689	2021938													6.540147	0.050772	7.342680	0.746519	-0.629277	-0.216148	-0.008771	-0.334136	0.942484	-0.665306	-0.701686	-0.254958
690	2022105													6.554893	-0.020298	7.380936	0.741952	-0.634327	-0.217111	-0.009982	-0.334243	0.942434	-0.670379	-0.697073	-0.254324
691	2022272													6.630358	-0.103302	7.271936	0.737044	-0.639647	-0.218216	-0.011222	-0.334417	0.942358	-0.675752	-0.692110	-0.253658
692	2022438													6.766549	-0.089285	7.096526	0.732214	-0.644748	-0.219458	-0.012294	-0.334683	0.942251	-0.680964	-0.687231	-0.252986
693	2022605													6.790726	0.045256	7.083354	0.727885	-0.649485	-0.219890	-0.013783	-0.334474	0.942304	-0.685560	-0.682859	-0.252410
694	2022772													6.644075	0.031049	7.145596	0.723919	-0.654084	-0.219353	-0.015695	-0.333488	0.942624	-0.689707	-0.678940	-0.251684
695	2022938													6.705737	-0.122444	7.124004	0.719611	-0.658928	-0.219029	-0.017628	-0.332667	0.942880	-0.694154	-0.674646	-0.251006
696	2023105													6.877108	-0.264534	7.053952	0.715267	-0.663608	-0.219128	-0.019054	-0.331957	0.943102	-0.698591	-0.670395	-0.250082
697	2023272													6.860502	-0.114334	6.899899	0.711377	-0.667676	-0.219435	-0.019793	-0.331133	0.943376	-0.702532	-0.666753	-0.248776
698	2023438													6.840367	-0.053279	6.959896	0.708644	-0.670885	-0.218489	-0.020782	-0.329377	0.943970	-0.705260	-0.664398	-0.247354
699	2023605													6.847880	-0.352357	7.089425	0.705224	-0.674779	-0.217561	-0.022134	-0.327667	0.944534	-0.708639	-0.661292	-0.246014
700	2023772													6.954061	-0.401091	6.975446	0.701318	-0.678723	-0.217919	-0.023066	-0.327148	0.944692	-0.712476	-0.657502	-0.245090
701	2023938													7.023228	-0.329267	6.858104	0.697400	-0.682516	-0.218644	-0.023610	-0.326792	0.944801	-0.716293	-0.653742	-0.244019
702	2024105													6.961449	-0.220305	6.829239	0.693852	-0.685939	-0.219218	-0.024144	-0.326409	0.944920	-0.719712	-0.650342	-0.243041
703	2024272													6.935137	-0.179646	7.023048	0.690377	-0.689254	-0.219790	-0.024678	-0.326069	0.945024	-0.723028	-0.646999	-0.242120
704	2024438													6.970907	-0.284053	7.038686	0.686354	-0.693091	-0.220327	-0.025339	-0.325558	0.945183	-0.726826	-0.643147	-0.241010
705	2024605													7.034504	-0.406598	6.938276	0.681726	-0.697348	-0.221260	-0.025794	-0.325151	0.945310	-0.731153	-0.638735	-0.239652
706	2024772													7.151305	-0.388385	6.645378	0.676465	-0.701895	-0.223022	-0.025814	-0.325235	0.945281	-0.736023	-0.633692	-0.238129
707	2024938													7.255796	-0.215998	6.552116	0.671679	-0.706034	-0.224419	-0.025911	-0.325126	0.945316	-0.740389	-0.629134	-0.236674
708	2025105													7.333680	-0.185368	6.639218	0.667517	-0.709736	-0.225159	-0.026291	-0.324669	0.945462	-0.744131	-0.625192	-0.235381
709	2025272													7.315304	-0.251409	6.591442	0.663478	-0.713322	-0.225763	-0.026957	-0.324338	0.945557	-0.747710	-0.621271	-0.234420
710	2025438													7.296047	-0.420782	6.545898	0.659069	-0.717092	-0.226730	-0.027450	-0.324204	0.945589	-0.751581	-0.616985	-0.233357
711	2025605													7.351974	-0.252278	6.290374	0.654147	-0.721088	-0.228308	-0.027891	-0.324639	0.945427	-0.755853	-0.612080	-0.232473
712	2025772													7.544802	-0.259135	6.264477	0.649895	-0.724751	-0.228851	-0.028834	-0.324405	0.945479	-0.759477	-0.607863	-0.231727
713	2025938													7.726648	-0.280317	6.244312	0.646284	-0.728026	-0.228679	-0.030003	-0.323683	0.945690	-0.762507	-0.604324	-0.231034
714	2026105													7.680531	-0.297091	6.358659	0.643462	-0.730665	-0.228223	-0.031278	-0.322993	0.945884	-0.764839	-0.601502	-0.230688
715	2026272													7.472407	-0.369442	6.382280	0.640229	-0.733559	-0.228030	-0.032475	-0.322423	0.946038	-0.767497	-0.598276	-0.230247
716	2026438													7.419881	-0.399958	6.148241	0.636151	-0.737111	-0.227989	-0.033689	-0.321744	0.946227	-0.770828	-0.594263	-0.229510
717	2026605													7.645638	-0.402046	6.058136	0.632490	-0.740350	-0.227681	-0.034701	-0.320734	0.946533	-0.773791	-0.590772	-0.228552
718	2026772													7.893341	-0.373979	6.075312	0.629359	-0.743084	-0.227449	-0.035466	-0.319844	0.946806	-0.776305	-0.587814	-0.227651
719	2026938													7.795156	-0.326091	6.125231	0.626891	-0.745203	-0.227333	-0.035965	-0.319154	0.947020	-0.778277	-0.585502	-0.226876
720	2027105													7.584160	-0.302521	6.197215	0.623935	-0.747695	-0.227283	-0.036443	-0.318359	0.947269	-0.780626	-0.582752	-0.225883
721	2027272													7.543594	-0.162253	6.114779	0.620059	-0.751134	-0.226550	-0.037393	-0.316728	0.947779	-0.783664	-0.579207	-0.224477
722	2027438													7.899137	-0.037439	6.028401	0.615837	-0.755144	-0.224726	-0.038966	-0.314075	0.948598	-0.786909	-0.575425	-0.222844
723	2027605													7.980511	-0.273058	5.935953	0.612837	-0.758326	-0.222200	-0.040635	-0.311061	0.949521	-0.789164	-0.572872	-0.221444
724	2027772													7.654769	-0.514314	6.131958	0.610364	-0.760848	-0.220376	-0.041762	-0.308732	0.950232	-0.791019	-0.570784	-0.220213
725	2027938													7.455353	-0.503850	6.037158	0.606310	-0.764161	-0.220106	-0.042518	-0.307537	0.950586	-0.794091	-0.566991	-0.218953
726	2028105													7.801528	-0.432741	5.926359	0.601747	-0.767740	-0.220173	-0.043243	-0.306583	0.950861	-0.797515	-0.562657	-0.217685
727	2028272													8.074924	-0.428082	5.787389	0.598128	-0.770563	-0.220173	-0.043615	-0.305628	0.951152	-0.800213	-0.559308	-0.216413
728	2028438													7.915989	-0.384491	5.936388	0.595615	-0.772581	-0.219911	-0.043829	-0.304619	0.951465	-0.802073	-0.557068	-0.215297
729	2028605													7.647753	-0.350766	6.002053	0.592455	-0.775098	-0.219591	-0.044133	-0.303397	0.951841	-0.804394	-0.554232	-0.213957
730	2028772													7.725608	-0.359918	5.793602	0.588276	-0.778375	-0.219234	-0.044797	-0.302059	0.952236	-0.807418	-0.550357	-0.212563
731	2028938													8.100752	-0.465375	5.601945	0.584229	-0.781471	-0.219041	-0.045414	-0.300947	0.952559	-0.810317	-0.546565	-0.211312
732	2029105													8.182989	-0.474611	5.574537	0.581414	-0.783548	-0.219112	-0.045767	-0.300380	0.952721	-0.812319	-0.543898	-0.210506
733	2029272													7.982267	-0.429044	5.859615	0.578981	-0.785202	-0.219635	-0.045700	-0.300206	0.952779	-0.814060	-0.541603	-0.209697
734	2029438													7.769263	-0.362366	5.824469	0.575250	-0.787695	-0.220507	-0.045380	-0.299893	0.952893	-0.816718	-0.538145	-0.208259
735	2029605													8.034225	-0.389628	5.538471	0.571474	-0.790310	-0.220972	-0.045413	-0.299318	0.953072	-0.819363	-0.534621	-0.206943
736	2029772													8.251471	-0.428674	5.543670	0.568577	-0.792236	-0.221543	-0.045600	-0.299249	0.953085	-0.821365	-0.531800	-0.206272
737	2029938													8.148288	-0.442884	5.604205	0.566239	-0.793687	-0.222339	-0.045609	-0.299508	0.953003	-0.822979	-0.529486	-0.205792
738	2030105													7.898977	-0.416875	5.678557	0.563202	-0.795571	-0.223317	-0.045431	-0.299659	0.952964	-0.825069	-0.526566	-0.204912
739	2030272													7.913765	-0.366652	5.518430	0.559299	-0.798061	-0.224239	-0.045347	-0.299554	0.953001	-0.827725	-0.522844	-0.203730
740	2030439													8.237154	-0.494070	5.279458	0.555644	-0.800453	-0.224799	-0.045442	-0.299213	0.953104	-0.830178	-0.519371	-0.202630
741	2030605													8.424131	-0.542517	5.305157	0.553218	-0.801980	-0.225339	-0.045334	-0.299087	0.953148	-0.831802	-0.517083	-0.201817
742	2030772													8.185828	-0.499317	5.505519	0.550749	-0.803399	-0.226331	-0.045055	-0.299381	0.953069	-0.833454	-0.514705	-0.201081
743	2030939													7.956452	-0.393539	5.408094	0.547090	-0.805574	-0.227472	-0.044730	-0.299493	0.953049	-0.835878	-0.511228	-0.199883
744	2031105													8.316124	-0.368937	5.216417	0.543526	-0.807738	-0.228340	-0.044451	-0.299346	0.953109	-0.838215	-0.507889	-0.198607
745	2031272													8.458911	-0.474496	5.255532	0.541154	-0.809120	-0.229077	-0.044211	-0.299409	0.953100	-0.839760	-0.505646	-0.197799
746	2031439													8.181433	-0.498645	5.446171	0.538917	-0.810465	-0.229595	-0.044169	-0.299376	0.953112	-0.841200	-0.503508	-0.197136
747	2031605													7.946210	-0.532375	5.521360	0.534961	-0.813025	-0.229800	-0.044253	-0.298583	0.953357	-0.843717	-0.499839	-0.195709
748	2031772													8.310410	-0.274697	5.038535	0.529885	-0.815965	-0.231135	-0.043984	-0.298618	0.953359	-0.846928	-0.495004	-0.194123
749	2031939													8.690642	-0.270637	4.923640	0.526743	-0.817864	-0.231605	-0.044030	-0.298355	0.953439	-0.848883	-0.492020	-0.193167
750	2032105													8.448790	-0.326784	5.224718	0.524986	-0.819104	-0.231212	-0.044244	-0.297557	0.953678	-0.849960	-0.490438	-0.192454
751	2032272													8.129725	-0.392919	5.452433	0.522206	-0.821068	-0.230539	-0.044756	-0.296338	0.954034	-0.851644	-0.487884	-0.191497
752	2032439													8.194256	-0.431008	5.061978	0.517855	-0.823625	-0.231230	-0.044916	-0.296102	0.954100	-0.854288	-0.483700	-0.190331
753	2032605													8.693329	-0.373142	4.694070	0.514435	-0.825479	-0.232252	-0.044997	-0.296451	0.953987	-0.856348	-0.480314	-0.189649
754	2032772													8.638787	-0.321548	4.909205	0.512653	-0.826445	-0.232757	-0.045186	-0.296685	0.953906	-0.857406	-0.478505	-0.189440
755	2032939													8.279755	-0.293331	5.295487	0.510949	-0.827516	-0.232697	-0.045486	-0.296348	0.953996	-0.858407	-0.476859	-0.189059
756	2033105													8.081414	-0.382582	5.388106	0.507420	-0.829595	-0.233018	-0.045749	-0.295972	0.954100	-0.860484	-0.473469	-0.188135
757	2033272													8.392789	-0.465812	4.898397	0.503090	-0.831824	-0.234453	-0.045796	-0.296563	0.953915	-0.863020	-0.469168	-0.187292
758	2033439													8.832145	-0.419339	4.549311	0.500082	-0.833216	-0.235945	-0.045730	-0.297490	0.953629	-0.864770	-0.466103	-0.186872
759	2033605													8.745927	-0.377423	4.766540	0.498807	-0.833809	-0.236545	-0.045771	-0.297883	0.953504	-0.865503	-0.464788	-0.186750
760	2033772													8.393300	-0.358015	5.106803	0.497571	-0.834450	-0.236887	-0.045976	-0.298079	0.953433	-0.866204	-0.463510	-0.186681
761	2033939													8.167889	-0.380476	5.310462	0.494541	-0.836123	-0.237332	-0.046386	-0.298062	0.953419	-0.867916	-0.460496	-0.186188
762	2034105													8.466105	-0.504895	4.638573	0.489872	-0.838485	-0.238682	-0.046641	-0.298597	0.953239	-0.870546	-0.455832	-0.185382
763	2034272													8.955143	-0.533811	4.356236	0.487305	-0.839585	-0.240065	-0.046592	-0.299523	0.952951	-0.871988	-0.453193	-0.185077
764	2034439													8.774398	-0.401354	4.637222	0.486164	-0.840000	-0.240923	-0.046510	-0.300179	0.952748	-0.872629	-0.451987	-0.185005
765	2034605													8.465884	-0.342970	4.902124	0.484978	-0.840556	-0.241375	-0.046569	-0.300437	0.952664	-0.873286	-0.450780	-0.184849
766	2034772													8.344344	-0.390980	5.033514	0.482745	-0.841764	-0.241642	-0.046787	-0.300317	0.952691	-0.874510	-0.448601	-0.184360
767	2034939													8.558383	-0.444414	4.738166	0.479153	-0.843777	-0.241769	-0.047218	-0.299828	0.952824	-0.876460	-0.445133	-0.183505
768	2035105													8.847613	-0.490125	4.409144	0.476369	-0.845132	-0.242537	-0.047482	-0.300172	0.952703	-0.877962	-0.442322	-0.183121
769	2035272													8.719963	-0.487619	4.527905	0.474515	-0.846047	-0.242979	-0.047718	-0.300353	0.952634	-0.878953	-0.440445	-0.182894
770	2035439													8.626253	-0.399629	4.726036	0.472780	-0.846870	-0.243496	-0.047711	-0.300526	0.952580	-0.879888	-0.438743	-0.182488
771	2035605													8.561711	-0.397281	4.841733	0.470655	-0.848039	-0.243543	-0.047633	-0.300046	0.952735	-0.881031	-0.436809	-0.181612
772	2035772													8.513110	-0.378799	4.817238	0.467042	-0.849972	-0.243761	-0.048029	-0.299653	0.952839	-0.882930	-0.433308	-0.180774
773	2035939													8.670282	-0.467184	4.478177	0.463047	-0.851857	-0.244800	-0.048495	-0.300130	0.952665	-0.885006	-0.429257	-0.180286
774	2036105													8.913815	-0.461440	4.331175	0.460356	-0.853050	-0.245720	-0.048727	-0.300659	0.952486	-0.886396	-0.426510	-0.179977
775	2036272													8.858032	-0.416483	4.365852	0.458441	-0.853823	-0.246613	-0.048824	-0.301268	0.952289	-0.887383	-0.424528	-0.179800
776	2036439													8.673218	-0.433119	4.627584	0.456816	-0.854699	-0.246593	-0.049044	-0.300984	0.952367	-0.888208	-0.422963	-0.179412
777	2036605													8.456291	-0.468302	4.723135	0.453863	-0.856409	-0.246114	-0.049374	-0.299946	0.952678	-0.889703	-0.420233	-0.178419
778	2036772													8.789102	-0.475012	4.228669	0.450414	-0.858277	-0.245942	-0.049737	-0.299159	0.952906	-0.891433	-0.416970	-0.177434
779	2036939													9.077805	-0.463536	4.078012	0.449073	-0.858916	-0.246164	-0.049782	-0.299132	0.952912	-0.892107	-0.415672	-0.177091
780	2037105													8.863390	-0.445546	4.302781	0.448137	-0.859322	-0.246454	-0.049849	-0.299278	0.952863	-0.892574	-0.414728	-0.176954
781	2037272													8.783358	-0.463260	4.447883	0.447260	-0.859678	-0.246805	-0.049815	-0.299459	0.952808	-0.893016	-0.413858	-0.176761
782	2037439													8.806807	-0.505388	4.399437	0.446880	-0.859738	-0.247284	-0.049680	-0.299843	0.952694	-0.893213	-0.413455	-0.176705
783	2037605													8.770856	-0.514646	4.397602	0.446979	-0.859530	-0.247827	-0.049630	-0.300444	0.952507	-0.893166	-0.413452	-0.176951
784	2037772													8.643800	-0.534769	4.613719	0.446107	-0.860006	-0.247747	-0.049641	-0.300170	0.952593	-0.893602	-0.412660	-0.176599
785	2037939													8.687684	-0.425777	4.472626	0.443898	-0.861244	-0.247414	-0.049536	-0.299271	0.952881	-0.894707	-0.410726	-0.175508
786	2038105													8.796558	-0.421030	4.409321	0.441039	-0.862840	-0.246967	-0.049620	-0.298198	0.953214	-0.896115	-0.408150	-0.174331
787	2038272													8.835982	-0.460316	4.217934	0.438139	-0.864371	-0.246774	-0.049886	-0.297484	0.953423	-0.897522	-0.405421	-0.173459
788	2038439													8.929813	-0.501162	4.169980	0.435855	-0.865544	-0.246706	-0.050104	-0.297023	0.953555	-0.898621	-0.403251	-0.172826
789	2038605													8.905815	-0.492847	4.191382	0.433944	-0.866470	-0.246826	-0.050208	-0.296797	0.953620	-0.899540	-0.401425	-0.172297
790	2038772													8.786340	-0.463904	4.405576	0.431764	-0.867777	-0.246052	-0.050378	-0.295564	0.953994	-0.900578	-0.399505	-0.171331
791	2038939													8.745046	-0.435447	4.212653	0.429281	-0.869211	-0.245335	-0.050497	-0.294312	0.954375	-0.901758	-0.397306	-0.170235
792	2039105													9.084847	-0.452527	3.893735	0.428276	-0.869796	-0.245020	-0.050674	-0.293835	0.954512	-0.902226	-0.396379	-0.169918
793	2039272													9.079291	-0.500230	3.937965	0.428792	-0.869664	-0.244587	-0.050745	-0.293498	0.954612	-0.901977	-0.396918	-0.169981
794	2039439													8.841597	-0.503765	4.173297	0.429287	-0.869449	-0.244482	-0.050613	-0.293427	0.954641	-0.901749	-0.397441	-0.169970
795	2039605													8.841055	-0.436285	4.237418	0.429532	-0.869204	-0.244921	-0.050337	-0.293838	0.954529	-0.901648	-0.397672	-0.169966
796	2039772													8.927459	-0.436795	4.212637	0.429846	-0.868863	-0.245581	-0.050141	-0.294542	0.954322	-0.901509	-0.397898	-0.170173
797	2039939													8.852828	-0.506306	4.273140	0.430111	-0.868619	-0.245979	-0.050108	-0.295020	0.954176	-0.901384	-0.398076	-0.170416
798	2040105													8.839044	-0.488910	4.221139	0.430496	-0.868318	-0.246366	-0.050061	-0.295504	0.954029	-0.901203	-0.398372	-0.170682
799	2040272													8.905787	-0.465794	4.225415	0.431134	-0.867986	-0.246421	-0.050034	-0.295685	0.953974	-0.900900	-0.398961	-0.170909
800	2040439													8.761451	-0.453685	4.404302	0.431481	-0.868053	-0.245576	-0.050069	-0.294844	0.954233	-0.900732	-0.399437	-0.170682
801	2040605													8.685304	-0.433597	4.411528	0.430380	-0.868914	-0.244463	-0.050135	-0.293421	0.954668	-0.901254	-0.398614	-0.169845
802	2040772													8.898312	-0.425117	4.099380	0.428913	-0.869616	-0.244546	-0.050150	-0.293216	0.954730	-0.901953	-0.397232	-0.169375
803	2040939													9.053710	-0.502990	4.059156	0.428741	-0.869754	-0.244353	-0.050134	-0.292962	0.954809	-0.902035	-0.397115	-0.169209
804	2041105													8.854657	-0.449533	4.154226	0.428764	-0.869758	-0.244302	-0.050086	-0.292890	0.954834	-0.902027	-0.397162	-0.169143
805	2041272													8.907796	-0.444108	4.200119	0.428905	-0.869678	-0.244335	-0.049947	-0.292894	0.954840	-0.901968	-0.397332	-0.169062
806	2041439													8.920906	-0.467665	4.294102	0.429099	-0.869711	-0.243878	-0.049831	-0.292381	0.955003	-0.901882	-0.397638	-0.168799
807	2041605													8.877834	-0.533891	4.131008	0.429469	-0.869616	-0.243565	-0.049691	-0.292051	0.955111	-0.901714	-0.398087	-0.168639
808	2041772													8.963926	-0.466531	4.120154	0.430496	-0.869089	-0.243635	-0.049536	-0.292270	0.955052	-0.901232	-0.399078	-0.168872
809	2041939													8.999307	-0.433513	4.132972	0.432258	-0.868210	-0.243647	-0.049147	-0.292475	0.955010	-0.900410	-0.400836	-0.169095
810	2042105													8.880770	-0.453231	4.253725	0.434234	-0.867167	-0.243849	-0.048733	-0.292922	0.954894	-0.899481	-0.402764	-0.169457
811	2042272													8.710628	-0.492506	4.476759	0.435522	-0.866598	-0.243573	-0.048757	-0.292895	0.954901	-0.898857	-0.404005	-0.169815
812	2042439													8.588542	-0.453211	4.549776	0.434832	-0.867038	-0.243242	-0.048844	-0.292427	0.955040	-0.899186	-0.403401	-0.169506
813	2042605													8.875621	-0.395215	4.108636	0.434061	-0.867299	-0.243687	-0.048717	-0.292699	0.954963	-0.899566	-0.402640	-0.169301
814	2042772													9.157546	-0.433028	3.972076	0.435129	-0.866642	-0.244121	-0.048487	-0.293296	0.954791	-0.899062	-0.403621	-0.169643
815	2042939													8.923179	-0.465993	4.138018	0.437035	-0.865603	-0.244401	-0.048402	-0.293963	0.954590	-0.898141	-0.405360	-0.170369
816	2043105													8.783440	-0.458668	4.291674	0.439117	-0.864442	-0.244777	-0.048236	-0.294741	0.954359	-0.897134	-0.407268	-0.171123
817	2043272													8.816999	-0.444799	4.358137	0.441074	-0.863426	-0.244844	-0.048072	-0.295153	0.954240	-0.896182	-0.409120	-0.171691
818	2043439													8.793309	-0.444382	4.384205	0.442819	-0.862588	-0.244650	-0.047932	-0.295245	0.954219	-0.895329	-0.410820	-0.172086
819	2043605													8.848532	-0.425579	4.290749	0.444975	-0.861439	-0.244785	-0.047749	-0.295771	0.954065	-0.894269	-0.412847	-0.172744
820	2043772													8.910168	-0.402441	4.337513	0.448024	-0.859871	-0.244736	-0.047656	-0.296329	0.953896	-0.892750	-0.415705	-0.173741
821	2043939													8.559387	-0.400953	4.770103	0.450079	-0.859253	-0.243134	-0.047993	-0.295152	0.954244	-0.891698	-0.417816	-0.174080
822	2044105													8.477367	-0.463218	4.554161	0.449406	-0.860020	-0.241661	-0.048302	-0.293515	0.954733	-0.892021	-0.417390	-0.173448
823	2044272													8.851847	-0.417769	4.156346	0.449120	-0.860225	-0.241463	-0.048122	-0.293149	0.954855	-0.892175	-0.417225	-0.173055
824	2044439													9.116903	-0.435993	4.096162	0.450407	-0.859701	-0.240932	-0.047804	-0.292688	0.955012	-0.891543	-0.418627	-0.172926
825	2044605													8.841899	-0.464317	4.296694	0.452506	-0.858774	-0.240303	-0.047511	-0.292305	0.955144	-0.890495	-0.420791	-0.173071
826	2044772													8.716013	-0.477033	4.369604	0.455063	-0.857531	-0.239912	-0.047221	-0.292286	0.955165	-0.889206	-0.423331	-0.173502
827	2044939													8.819508	-0.432259	4.364979	0.458720	-0.855481	-0.240265	-0.046777	-0.293265	0.954886	-0.887349	-0.426787	-0.174543
828	2045105													8.837289	-0.395777	4.368062	0.464062	-0.852333	-0.241195	-0.046206	-0.295211	0.954314	-0.884597	-0.431717	-0.176379
829	2045272													8.553535	-0.400478	4.924644	0.470614	-0.848572	-0.241759	-0.045802	-0.297123	0.953740	-0.881150	-0.437770	-0.178697
830	2045439													8.054120	-0.674101	5.512131	0.471707	-0.848737	-0.239035	-0.046265	-0.294540	0.954518	-0.880541	-0.439194	-0.178204
831	2045605													8.298649	-0.535266	4.549590	0.470199	-0.849604	-0.238928	-0.045779	-0.293836	0.954759	-0.881372	-0.437989	-0.177055
832	2045772													9.135697	-0.198082	4.128327	0.470948	-0.848819	-0.240239	-0.045060	-0.295120	0.954397	-0.881009	-0.438646	-0.177234
833	2045939													9.256029	-0.254967	4.126511	0.475401	-0.846162	-0.240842	-0.044479	-0.296522	0.953990	-0.878644	-0.442815	-0.178603
834	2046105													8.589571	-0.361576	4.998283	0.480057	-0.843858	-0.239686	-0.044619	-0.296363	0.954033	-0.876102	-0.447295	-0.179923
835	2046272													8.457404	-0.651749	4.702867	0.482888	-0.843056	-0.236803	-0.044936	-0.293921	0.954773	-0.874528	-0.450408	-0.179814
836	2046439													8.646373	-0.310996	4.461821	0.486408	-0.841378	-0.235565	-0.044749	-0.293243	0.954990	-0.872585	-0.453974	-0.180287
837	2046605													8.848216	-0.235231	4.612770	0.490646	-0.839162	-0.234677	-0.044661	-0.293187	0.955011	-0.870213	-0.458092	-0.181330
838	2046772													8.641065	-0.401839	4.711962	0.496138	-0.836151	-0.233877	-0.044014	-0.293243	0.955024	-0.867128	-0.463530	-0.182291
839	2046939													8.297563	-0.413746	5.036876	0.502373	-0.832436	-0.233817	-0.043173	-0.294231	0.954759	-0.863572	-0.469551	-0.183752
840	2047106													8.180130	-0.413619	5.217167	0.508682	-0.828386	-0.234560	-0.042503	-0.296272	0.954157	-0.859905	-0.475394	-0.185917
841	2047272													8.248595	-0.424810	5.184794	0.514514	-0.824599	-0.235186	-0.042077	-0.298224	0.953568	-0.856449	-0.480728	-0.188137
842	2047439													8.324132	-0.383323	5.320308	0.519338	-0.821588	-0.235118	-0.041907	-0.299284	0.953243	-0.853541	-0.485203	-0.189860
843	2047606													8.379310	-0.377142	4.992171	0.524165	-0.818407	-0.235502	-0.041418	-0.300707	0.952817	-0.850609	-0.489679	-0.191517
844	2047772													8.301508	-0.296218	5.276805	0.529813	-0.814533	-0.236294	-0.040627	-0.302665	0.952231	-0.847141	-0.494904	-0.193448
845	2047939													8.168812	-0.484050	5.500383	0.532564	-0.812885	-0.235785	-0.040404	-0.302676	0.952237	-0.845425	-0.497600	-0.194038
846	2048106													8.326843	-0.557604	5.014585	0.534450	-0.811474	-0.236374	-0.039608	-0.303405	0.952038	-0.844271	-0.499455	-0.194296
847	2048272													8.417054	-0.306285	5.023042	0.538158	-0.808479	-0.238219	-0.038254	-0.305776	0.951335	-0.841975	-0.502856	-0.195483
848	2048439													8.442915	-0.180669	5.290491	0.542839	-0.804887	-0.239755	-0.037290	-0.308297	0.950559	-0.839008	-0.507060	-0.197370
849	2048606													8.382112	-0.404690	5.473501	0.546462	-0.802355	-0.240014	-0.036724	-0.309271	0.950265	-0.836678	-0.510469	-0.198470
850	2048772													8.369170	-0.622163	4.897552	0.548191	-0.801354	-0.239411	-0.036196	-0.308720	0.950464	-0.835569	-0.512370	-0.198244
851	2048939													8.193702	-0.343892	4.908505	0.552367	-0.798109	-0.240651	-0.034587	-0.310382	0.949982	-0.832883	-0.516415	-0.199049
852	2049106													8.292592	0.034658	5.524858	0.556160	-0.794696	-0.243196	-0.033042	-0.313541	0.949000	-0.830418	-0.519760	-0.200637
853	2049272													8.427272	-0.055067	5.436994	0.559255	-0.791861	-0.245339	-0.031870	-0.316265	0.948135	-0.828383	-0.522430	-0.202109
854	2049439													8.187950	-0.375184	5.449310	0.562900	-0.788741	-0.247045	-0.030406	-0.318454	0.947450	-0.825966	-0.525808	-0.203240
