// Start Time: Unknown
// Update Rate: 60.0Hz
//Filter Profile: human (46.1)
// Option Flags: AHS Disabled ICC Disabled
// Firmware Version: 4.0.2
0	sampleTimeFine	Year	Month	Day	Second	UTC_Nano	UTC_Year	UTC_Month	UTC_Day	UTC_Hour	UTC_Minute	UTC_Second	UTC_Valid	Acc_X	Acc_Y	Acc_Z	Mat[1][1]	Mat[2][1]	Mat[3][1]	Mat[1][2]	Mat[2][2]	Mat[3][2]	Mat[1][3]	Mat[2][3]	Mat[3][3]
0	1667794													-0.005133	-0.047084	0.190734	-0.340795	-0.883026	0.322683	-0.040309	0.356638	0.933373	-0.939273	0.305082	-0.157134
1	1667961													9.166680	-0.402172	-3.350288	-0.341411	-0.882760	0.322760	-0.040748	0.356971	0.933226	-0.939030	0.305462	-0.157845
2	1668127													9.166838	-0.389128	-3.354409	-0.342037	-0.882860	0.321820	-0.041081	0.356198	0.933507	-0.938788	0.306073	-0.158102
3	1668294													9.133696	-0.363354	-3.365171	-0.342572	-0.882890	0.321169	-0.041178	0.355636	0.933717	-0.938589	0.306641	-0.158186
4	1668461													9.128945	-0.337522	-3.359679	-0.343138	-0.882863	0.320638	-0.040934	0.355095	0.933934	-0.938393	0.307343	-0.157985
5	1668627													9.143421	-0.333506	-3.364836	-0.343573	-0.882581	0.320949	-0.040432	0.355337	0.933863	-0.938255	0.307874	-0.157769
6	1668794													9.164663	-0.337676	-3.373848	-0.343829	-0.882357	0.321291	-0.039893	0.355568	0.933799	-0.938185	0.308250	-0.157454
7	1668961													9.176430	-0.357034	-3.371652	-0.343881	-0.882353	0.321245	-0.039360	0.355353	0.933903	-0.938188	0.308507	-0.156929
8	1669127													9.169888	-0.340126	-3.366001	-0.343775	-0.882322	0.321445	-0.038957	0.355414	0.933897	-0.938244	0.308528	-0.156555
9	1669294													9.129107	-0.341794	-3.332512	-0.343529	-0.882342	0.321654	-0.038625	0.355482	0.933885	-0.938348	0.308392	-0.156199
10	1669461													9.138732	-0.360757	-3.319780	-0.343204	-0.882393	0.321859	-0.038378	0.355561	0.933865	-0.938476	0.308154	-0.155895
11	1669627													9.179779	-0.364037	-3.331350	-0.342800	-0.882371	0.322349	-0.038147	0.355933	0.933733	-0.938634	0.307787	-0.155674
12	1669794													9.177294	-0.375280	-3.294725	-0.342254	-0.882488	0.322608	-0.038003	0.356064	0.933689	-0.938838	0.307299	-0.155401
13	1669961													9.079789	-0.395162	-3.307353	-0.341716	-0.882704	0.322590	-0.037954	0.355934	0.933740	-0.939036	0.306831	-0.155131
14	1670127													9.121519	-0.399544	-3.314698	-0.341376	-0.882808	0.322665	-0.038063	0.355990	0.933714	-0.939156	0.306466	-0.155129
15	1670294													9.126925	-0.352616	-3.294341	-0.341126	-0.882978	0.322464	-0.038214	0.355783	0.933787	-0.939241	0.306216	-0.155109
16	1670461													9.172695	-0.337382	-3.292433	-0.340909	-0.883129	0.322280	-0.038235	0.355557	0.933872	-0.939318	0.306043	-0.154980
17	1670627													9.173619	-0.322145	-3.290246	-0.340714	-0.883196	0.322303	-0.038235	0.355548	0.933876	-0.939389	0.305862	-0.154909
18	1670794													9.143829	-0.314148	-3.288022	-0.340499	-0.883326	0.322172	-0.038268	0.355383	0.933937	-0.939466	0.305676	-0.154811
19	1670961													9.133444	-0.288264	-3.281231	-0.340346	-0.883399	0.322134	-0.038267	0.355315	0.933963	-0.939521	0.305544	-0.154735
20	1671127													9.137642	-0.272039	-3.262517	-0.340284	-0.883360	0.322306	-0.038203	0.355466	0.933908	-0.939546	0.305481	-0.154707
21	1671294													9.137099	-0.291255	-3.271422	-0.340224	-0.883284	0.322580	-0.038125	0.355719	0.933815	-0.939571	0.305408	-0.154699
22	1671461													9.149266	-0.309291	-3.249315	-0.340178	-0.883153	0.322985	-0.038021	0.356106	0.933672	-0.939592	0.305335	-0.154718
23	1671627													9.128415	-0.334768	-3.268838	-0.340146	-0.882984	0.323481	-0.037961	0.356605	0.933484	-0.939606	0.305242	-0.154817
24	1671794													9.107520	-0.370529	-3.280464	-0.340211	-0.882852	0.323774	-0.037987	0.356934	0.933357	-0.939582	0.305239	-0.154969
25	1671961													9.123975	-0.356207	-3.312870	-0.340355	-0.882772	0.323839	-0.038049	0.357048	0.933311	-0.939527	0.305335	-0.155112
26	1672127													9.190336	-0.354740	-3.303618	-0.340509	-0.882701	0.323871	-0.038089	0.357123	0.933281	-0.939469	0.305455	-0.155225
27	1672294													9.208347	-0.340995	-3.298944	-0.340552	-0.882631	0.324018	-0.038059	0.357275	0.933223	-0.939455	0.305479	-0.155263
28	1672461													9.214259	-0.341224	-3.306404	-0.340492	-0.882646	0.324040	-0.037981	0.357262	0.933232	-0.939480	0.305450	-0.155168
29	1672627													9.147143	-0.347772	-3.304708	-0.340324	-0.882719	0.324017	-0.037947	0.357198	0.933258	-0.939542	0.305314	-0.155060
30	1672794													9.128373	-0.361061	-3.302427	-0.340247	-0.882781	0.323930	-0.038035	0.357121	0.933283	-0.939567	0.305226	-0.155086
31	1672961													9.158597	-0.348162	-3.303375	-0.340154	-0.882874	0.323773	-0.038276	0.357017	0.933313	-0.939590	0.305078	-0.155233
32	1673127													9.133705	-0.306052	-3.302030	-0.340064	-0.882958	0.323639	-0.038426	0.356908	0.933349	-0.939617	0.304963	-0.155300
33	1673294													9.154894	-0.310926	-3.268435	-0.339987	-0.883026	0.323533	-0.038513	0.356812	0.933382	-0.939641	0.304878	-0.155320
34	1673461													9.128484	-0.314231	-3.276607	-0.339956	-0.883048	0.323506	-0.038566	0.356794	0.933387	-0.939650	0.304834	-0.155350
35	1673627													9.108025	-0.331368	-3.290218	-0.339999	-0.883038	0.323490	-0.038626	0.356804	0.933380	-0.939632	0.304853	-0.155422
36	1673794													9.096916	-0.315833	-3.304176	-0.340150	-0.883054	0.323285	-0.038689	0.356635	0.933442	-0.939575	0.305003	-0.155474
37	1673961													9.111953	-0.283410	-3.304522	-0.340406	-0.882954	0.323289	-0.038708	0.356690	0.933421	-0.939482	0.305228	-0.155596
38	1674127													9.118611	-0.293825	-3.302233	-0.340686	-0.882823	0.323352	-0.038651	0.356787	0.933386	-0.939382	0.305494	-0.155674
39	1674294													9.121676	-0.328574	-3.332943	-0.341029	-0.882627	0.323526	-0.038566	0.357004	0.933307	-0.939261	0.305808	-0.155788
40	1674461													9.161094	-0.332157	-3.333808	-0.341359	-0.882438	0.323693	-0.038519	0.357223	0.933225	-0.939143	0.306096	-0.155932
41	1674627													9.176437	-0.332844	-3.335064	-0.341615	-0.882240	0.323962	-0.038518	0.357552	0.933099	-0.939050	0.306282	-0.156127
42	1674794													9.190688	-0.322424	-3.326137	-0.341754	-0.882126	0.324126	-0.038505	0.357746	0.933025	-0.939000	0.306385	-0.156227
43	1674961													9.182534	-0.323692	-3.336371	-0.341769	-0.882072	0.324256	-0.038459	0.357871	0.932979	-0.938997	0.306393	-0.156233
44	1675127													9.196800	-0.319852	-3.361970	-0.341656	-0.881992	0.324594	-0.038371	0.358179	0.932864	-0.939041	0.306263	-0.156217
45	1675294													9.169476	-0.338499	-3.328790	-0.341478	-0.881976	0.324825	-0.038287	0.358365	0.932796	-0.939110	0.306092	-0.156142
46	1675461													9.144142	-0.335762	-3.327275	-0.341233	-0.882026	0.324945	-0.038232	0.358431	0.932773	-0.939201	0.305870	-0.156031
47	1675627													9.133450	-0.334912	-3.327848	-0.341028	-0.882094	0.324977	-0.038253	0.358436	0.932770	-0.939275	0.305669	-0.155979
48	1675794													9.127901	-0.318697	-3.304644	-0.340831	-0.882170	0.324977	-0.038298	0.358416	0.932776	-0.939344	0.305473	-0.155945
49	1675961													9.128132	-0.325201	-3.295650	-0.340628	-0.882275	0.324906	-0.038402	0.358339	0.932801	-0.939414	0.305261	-0.155942
50	1676127													9.137329	-0.325629	-3.297621	-0.340439	-0.882335	0.324940	-0.038561	0.358393	0.932774	-0.939475	0.305023	-0.156035
51	1676294													9.135387	-0.312351	-3.290872	-0.340311	-0.882413	0.324862	-0.038719	0.358340	0.932788	-0.939515	0.304860	-0.156114
52	1676461													9.160552	-0.322911	-3.266159	-0.340234	-0.882493	0.324725	-0.038928	0.358250	0.932814	-0.939535	0.304734	-0.156242
53	1676627													9.178053	-0.312626	-3.281583	-0.340017	-0.882653	0.324518	-0.039137	0.358060	0.932878	-0.939605	0.304493	-0.156291
54	1676794													9.065152	-0.327971	-3.284554	-0.339852	-0.882743	0.324447	-0.039379	0.358034	0.932878	-0.939654	0.304264	-0.156440
55	1676961													9.088250	-0.332954	-3.291803	-0.339881	-0.882785	0.324303	-0.039635	0.357970	0.932891	-0.939633	0.304219	-0.156657
56	1677127													9.122834	-0.312194	-3.294180	-0.340017	-0.882812	0.324084	-0.039823	0.357824	0.932940	-0.939576	0.304310	-0.156822
57	1677294													9.197353	-0.284387	-3.303357	-0.340191	-0.882713	0.324171	-0.039865	0.357960	0.932886	-0.939511	0.304437	-0.156964
58	1677461													9.236081	-0.298245	-3.303550	-0.340224	-0.882663	0.324274	-0.039846	0.358068	0.932845	-0.939500	0.304455	-0.156993
59	1677627													9.211373	-0.310558	-3.309733	-0.340127	-0.882650	0.324411	-0.039840	0.358194	0.932797	-0.939535	0.304344	-0.156996
60	1677794													9.179799	-0.301320	-3.306074	-0.339940	-0.882715	0.324430	-0.039885	0.358196	0.932794	-0.939601	0.304154	-0.156972
61	1677961													9.141222	-0.292193	-3.278832	-0.339704	-0.882770	0.324528	-0.039944	0.358277	0.932760	-0.939684	0.303899	-0.156970
62	1678127													9.158450	-0.291066	-3.281078	-0.339458	-0.882713	0.324940	-0.040024	0.358694	0.932597	-0.939769	0.303572	-0.157091
63	1678294													9.129318	-0.309932	-3.277181	-0.339182	-0.882751	0.325125	-0.040104	0.358867	0.932527	-0.939866	0.303258	-0.157123
64	1678461													9.108367	-0.320152	-3.255074	-0.339001	-0.882747	0.325325	-0.040176	0.359069	0.932446	-0.939928	0.303030	-0.157190
65	1678628													9.095247	-0.336101	-3.280959	-0.338901	-0.882740	0.325449	-0.040327	0.359231	0.932377	-0.939957	0.302859	-0.157342
66	1678794													9.118368	-0.331612	-3.268137	-0.338909	-0.882676	0.325613	-0.040528	0.359471	0.932276	-0.939946	0.302760	-0.157601
67	1678961													9.146252	-0.335671	-3.281570	-0.339010	-0.882643	0.325598	-0.040740	0.359541	0.932239	-0.939900	0.302774	-0.157847
68	1679128													9.182661	-0.342033	-3.267867	-0.339074	-0.882631	0.325564	-0.040937	0.359581	0.932216	-0.939869	0.302762	-0.158057
69	1679294													9.210440	-0.315140	-3.294008	-0.339086	-0.882649	0.325503	-0.041117	0.359576	0.932209	-0.939856	0.302715	-0.158219
70	1679461													9.141010	-0.342677	-3.276065	-0.338998	-0.882704	0.325446	-0.041304	0.359560	0.932207	-0.939880	0.302574	-0.158349
71	1679628													9.114181	-0.358038	-3.315937	-0.339059	-0.882759	0.325232	-0.041592	0.359437	0.932242	-0.939845	0.302558	-0.158586
72	1679794													9.163123	-0.331058	-3.308204	-0.339143	-0.882789	0.325061	-0.041890	0.359368	0.932255	-0.939802	0.302551	-0.158858
73	1679961													9.113043	-0.324047	-3.282045	-0.339271	-0.882815	0.324857	-0.042038	0.359224	0.932304	-0.939749	0.302647	-0.158986
74	1680128													9.143758	-0.334663	-3.307298	-0.339465	-0.882776	0.324761	-0.042168	0.359198	0.932308	-0.939673	0.302792	-0.159160
75	1680294													9.145952	-0.331935	-3.329360	-0.339712	-0.882712	0.324676	-0.042281	0.359190	0.932306	-0.939579	0.302988	-0.159343
76	1680461													9.149326	-0.330919	-3.310328	-0.339942	-0.882634	0.324649	-0.042447	0.359255	0.932273	-0.939488	0.303138	-0.159591
77	1680628													9.131874	-0.330057	-3.320407	-0.340180	-0.882547	0.324637	-0.042621	0.359341	0.932232	-0.939394	0.303291	-0.159855
78	1680794													9.162243	-0.314332	-3.307695	-0.340373	-0.882507	0.324543	-0.042770	0.359325	0.932232	-0.939317	0.303426	-0.160049
79	1680961													9.145079	-0.303170	-3.310524	-0.340497	-0.882410	0.324676	-0.042850	0.359514	0.932155	-0.939269	0.303483	-0.160225
80	1681128													9.137764	-0.318937	-3.321542	-0.340602	-0.882341	0.324753	-0.042899	0.359630	0.932108	-0.939228	0.303546	-0.160342
81	1681294													9.161275	-0.347499	-3.337513	-0.340670	-0.882288	0.324827	-0.042959	0.359740	0.932063	-0.939201	0.303572	-0.160455
82	1681461													9.163277	-0.378964	-3.335357	-0.340696	-0.882233	0.324948	-0.043044	0.359901	0.931997	-0.939188	0.303541	-0.160592
83	1681628													9.157569	-0.360049	-3.351468	-0.340664	-0.882241	0.324961	-0.043162	0.359946	0.931974	-0.939194	0.303464	-0.160700
84	1681794													9.153628	-0.332827	-3.330733	-0.340597	-0.882318	0.324821	-0.043270	0.359821	0.932017	-0.939213	0.303387	-0.160732
85	1681961													9.151376	-0.332780	-3.345971	-0.340498	-0.882374	0.324773	-0.043361	0.359782	0.932028	-0.939245	0.303272	-0.160766
86	1682128													9.145628	-0.338563	-3.336051	-0.340369	-0.882395	0.324852	-0.043467	0.359876	0.931987	-0.939287	0.303099	-0.160846
87	1682294													9.151285	-0.357935	-3.307505	-0.340257	-0.882466	0.324776	-0.043593	0.359816	0.932004	-0.939322	0.302963	-0.160899
88	1682461													9.192003	-0.337297	-3.311523	-0.340064	-0.882577	0.324677	-0.043740	0.359724	0.932033	-0.939385	0.302750	-0.160933
89	1682628													9.207108	-0.330906	-3.305820	-0.339782	-0.882704	0.324627	-0.043915	0.359677	0.932043	-0.939479	0.302435	-0.160976
90	1682794													9.174028	-0.335997	-3.289417	-0.339410	-0.882829	0.324675	-0.044057	0.359706	0.932025	-0.939606	0.302034	-0.160983
91	1683294													9.122076	-0.340095	-3.286399	-0.339011	-0.882931	0.324815	-0.044151	0.359812	0.931980	-0.939746	0.301610	-0.160963
92	1683461													9.105244	-0.365680	-3.258655	-0.338695	-0.883053	0.324814	-0.044208	0.359771	0.931993	-0.939857	0.301302	-0.160891
93	1683628													9.120080	-0.374207	-3.265900	-0.338489	-0.883172	0.324705	-0.044251	0.359633	0.932044	-0.939929	0.301118	-0.160812
94	1683794													9.103397	-0.361440	-3.250973	-0.338313	-0.883278	0.324599	-0.044327	0.359514	0.932086	-0.939989	0.300948	-0.160782
95	1683961													9.090669	-0.353644	-3.272312	-0.338300	-0.883323	0.324491	-0.044434	0.359431	0.932113	-0.939989	0.300915	-0.160845
96	1684128													9.151761	-0.336650	-3.306007	-0.338360	-0.883275	0.324558	-0.044554	0.359551	0.932061	-0.939961	0.300912	-0.161011
97	1684294													9.209474	-0.316069	-3.288069	-0.338418	-0.883323	0.324366	-0.044607	0.359377	0.932126	-0.939938	0.300980	-0.161022
98	1684461													9.237058	-0.346720	-3.282958	-0.338334	-0.883384	0.324288	-0.044636	0.359288	0.932158	-0.939967	0.300906	-0.160991
99	1684628													9.192048	-0.374216	-3.282489	-0.338148	-0.883489	0.324196	-0.044742	0.359192	0.932191	-0.940029	0.300713	-0.160989
100	1684794													9.133900	-0.361884	-3.278638	-0.337924	-0.883597	0.324134	-0.044920	0.359142	0.932201	-0.940101	0.300454	-0.161054
101	1684961													9.080969	-0.357069	-3.265481	-0.337782	-0.883622	0.324214	-0.045037	0.359239	0.932158	-0.940146	0.300264	-0.161140
102	1685128													9.121768	-0.345208	-3.252843	-0.337725	-0.883657	0.324179	-0.045134	0.359222	0.932160	-0.940162	0.300182	-0.161201
103	1685294													9.133411	-0.318565	-3.262510	-0.337650	-0.883688	0.324173	-0.045138	0.359204	0.932167	-0.940189	0.300114	-0.161173
104	1685461													9.149787	-0.336653	-3.262992	-0.337578	-0.883746	0.324091	-0.045115	0.359097	0.932209	-0.940216	0.300072	-0.161093
105	1685628													9.168545	-0.350039	-3.277430	-0.337431	-0.883817	0.324050	-0.045148	0.359038	0.932230	-0.940267	0.299934	-0.161053
106	1685794													9.108771	-0.348051	-3.263879	-0.337306	-0.883860	0.324061	-0.045245	0.359058	0.932218	-0.940307	0.299780	-0.161103
107	1685961													9.112659	-0.340333	-3.259806	-0.337271	-0.883809	0.324238	-0.045370	0.359278	0.932127	-0.940314	0.299669	-0.161272
108	1686128													9.156122	-0.340407	-3.279429	-0.337271	-0.883788	0.324295	-0.045524	0.359388	0.932077	-0.940306	0.299599	-0.161445
109	1686294													9.200116	-0.346688	-3.282611	-0.337280	-0.883718	0.324476	-0.045582	0.359598	0.931993	-0.940300	0.299552	-0.161567
110	1686461													9.154880	-0.383269	-3.266593	-0.337200	-0.883702	0.324603	-0.045611	0.359727	0.931942	-0.940328	0.299445	-0.161607
111	1686628													9.139094	-0.416195	-3.272079	-0.337193	-0.883672	0.324691	-0.045681	0.359841	0.931895	-0.940327	0.299396	-0.161702
112	1686794													9.202880	-0.418306	-3.243036	-0.337157	-0.883719	0.324600	-0.045856	0.359794	0.931904	-0.940331	0.299313	-0.161831
113	1686961													9.187160	-0.386148	-3.264848	-0.337096	-0.883829	0.324365	-0.045983	0.359576	0.931982	-0.940347	0.299252	-0.161853
114	1687128													9.175387	-0.365462	-3.272239	-0.337039	-0.883930	0.324149	-0.046035	0.359353	0.932065	-0.940365	0.299220	-0.161808
115	1687294													9.122236	-0.336811	-3.264970	-0.337068	-0.884015	0.323887	-0.046026	0.359079	0.932171	-0.940355	0.299298	-0.161722
116	1687461													9.117683	-0.330241	-3.265522	-0.337198	-0.884008	0.323771	-0.045950	0.358957	0.932222	-0.940312	0.299467	-0.161660
117	1687628													9.117834	-0.330735	-3.266388	-0.337474	-0.883940	0.323670	-0.045875	0.358877	0.932257	-0.940216	0.299764	-0.161662
118	1687794													9.117578	-0.311965	-3.280568	-0.337836	-0.883829	0.323593	-0.045821	0.358844	0.932272	-0.940089	0.300128	-0.161728
119	1687961													9.129416	-0.302214	-3.290122	-0.338257	-0.883653	0.323636	-0.045775	0.358951	0.932233	-0.939940	0.300520	-0.161867
120	1688128													9.145446	-0.319937	-3.293117	-0.338659	-0.883441	0.323793	-0.045689	0.359162	0.932156	-0.939799	0.300890	-0.161997
121	1688294													9.143073	-0.315653	-3.320002	-0.339070	-0.883218	0.323970	-0.045568	0.359386	0.932076	-0.939657	0.301277	-0.162104
122	1688461													9.205906	-0.330733	-3.341880	-0.339408	-0.883015	0.324172	-0.045418	0.359611	0.931996	-0.939542	0.301604	-0.162159
123	1688628													9.215850	-0.335231	-3.352285	-0.339575	-0.882838	0.324479	-0.045276	0.359920	0.931884	-0.939489	0.301754	-0.162191
124	1688794													9.180859	-0.342012	-3.327150	-0.339619	-0.882713	0.324771	-0.045178	0.360205	0.931779	-0.939477	0.301777	-0.162212
125	1688961													9.155609	-0.338509	-3.350713	-0.339604	-0.882668	0.324910	-0.045090	0.360321	0.931738	-0.939487	0.301772	-0.162166
126	1689128													9.132836	-0.351370	-3.316585	-0.339559	-0.882644	0.325023	-0.045019	0.360409	0.931707	-0.939507	0.301737	-0.162116
127	1689294													9.131370	-0.334500	-3.331240	-0.339513	-0.882580	0.325242	-0.044977	0.360619	0.931628	-0.939525	0.301672	-0.162131
128	1689461													9.140085	-0.339725	-3.318574	-0.339468	-0.882560	0.325346	-0.044920	0.360701	0.931599	-0.939544	0.301634	-0.162091
129	1689628													9.149887	-0.331289	-3.311575	-0.339395	-0.882574	0.325384	-0.044825	0.360698	0.931605	-0.939575	0.301596	-0.161981
130	1689794													9.236439	-0.317381	-3.295400	-0.339218	-0.882595	0.325511	-0.044706	0.360762	0.931586	-0.939645	0.301458	-0.161835
131	1689961													9.190651	-0.307149	-3.296350	-0.338806	-0.882706	0.325640	-0.044601	0.360790	0.931580	-0.939799	0.301101	-0.161607
132	1690128													9.114717	-0.301476	-3.309144	-0.338409	-0.882828	0.325721	-0.044521	0.360777	0.931589	-0.939945	0.300757	-0.161395
133	1690294													9.188911	-0.301308	-3.281254	-0.338065	-0.882875	0.325950	-0.044457	0.360937	0.931530	-0.940072	0.300427	-0.161270
134	1690461													9.165314	-0.313249	-3.269582	-0.337652	-0.882970	0.326122	-0.044441	0.361038	0.931492	-0.940221	0.300027	-0.161145
135	1690628													9.078385	-0.317777	-3.257183	-0.337349	-0.883037	0.326255	-0.044449	0.361125	0.931457	-0.940330	0.299724	-0.161075
136	1690794													9.100317	-0.352214	-3.281460	-0.337224	-0.883067	0.326301	-0.044509	0.361171	0.931437	-0.940372	0.299579	-0.161100
137	1690961													9.154401	-0.330359	-3.268256	-0.337233	-0.883104	0.326192	-0.044489	0.361051	0.931484	-0.940369	0.299615	-0.161047
138	1691128													9.189254	-0.324651	-3.267006	-0.337265	-0.883129	0.326092	-0.044370	0.360913	0.931543	-0.940364	0.299708	-0.160907
139	1691294													9.189848	-0.336478	-3.269722	-0.337209	-0.883158	0.326072	-0.044208	0.360830	0.931583	-0.940391	0.299723	-0.160717
140	1691461													9.155231	-0.330524	-3.269448	-0.337146	-0.883213	0.325986	-0.044101	0.360695	0.931641	-0.940419	0.299723	-0.160558
141	1691628													9.155427	-0.300688	-3.260025	-0.337068	-0.883245	0.325980	-0.044033	0.360653	0.931660	-0.940450	0.299679	-0.160457
142	1691794													9.179764	-0.263495	-3.263475	-0.336969	-0.883287	0.325969	-0.043966	0.360602	0.931683	-0.940489	0.299617	-0.160347
143	1691961													9.161390	-0.252517	-3.258779	-0.336833	-0.883263	0.326176	-0.043845	0.360758	0.931628	-0.940543	0.299501	-0.160242
144	1692128													9.206646	-0.250844	-3.249041	-0.336610	-0.883226	0.326505	-0.043721	0.361024	0.931531	-0.940629	0.299288	-0.160140
145	1692294													9.160524	-0.279722	-3.260752	-0.336330	-0.883184	0.326906	-0.043650	0.361375	0.931398	-0.940732	0.298987	-0.160093
146	1692461													9.117711	-0.318833	-3.246963	-0.336102	-0.883168	0.327185	-0.043684	0.361639	0.931294	-0.940812	0.298718	-0.160128
147	1692628													9.139609	-0.334786	-3.246788	-0.335972	-0.883161	0.327337	-0.043782	0.361807	0.931224	-0.940854	0.298534	-0.160224
148	1692794													9.128245	-0.344369	-3.244833	-0.335907	-0.883165	0.327394	-0.043901	0.361893	0.931186	-0.940872	0.298419	-0.160334
149	1692961													9.160680	-0.344664	-3.225603	-0.335863	-0.883185	0.327383	-0.043992	0.361902	0.931177	-0.940883	0.298346	-0.160402
150	1693128													9.205040	-0.346073	-3.248823	-0.335792	-0.883268	0.327233	-0.044071	0.361757	0.931230	-0.940904	0.298279	-0.160402
151	1693294													9.108819	-0.358450	-3.250590	-0.335679	-0.883386	0.327032	-0.044185	0.361560	0.931301	-0.940940	0.298168	-0.160400
152	1693461													9.134438	-0.344884	-3.268579	-0.335756	-0.883461	0.326750	-0.044385	0.361341	0.931377	-0.940903	0.298212	-0.160535
153	1693628													9.171923	-0.314634	-3.263011	-0.335823	-0.883546	0.326449	-0.044554	0.361088	0.931467	-0.940871	0.298264	-0.160627
154	1693794													9.170326	-0.295331	-3.260345	-0.335928	-0.883605	0.326183	-0.044657	0.360860	0.931550	-0.940828	0.298367	-0.160682
155	1693961													9.193457	-0.297336	-3.264262	-0.336027	-0.883609	0.326069	-0.044673	0.360763	0.931587	-0.940792	0.298472	-0.160699
156	1694128													9.167670	-0.298628	-3.280340	-0.336087	-0.883592	0.326052	-0.044664	0.360752	0.931592	-0.940771	0.298533	-0.160709
157	1694294													9.143404	-0.323772	-3.268721	-0.336181	-0.883554	0.326059	-0.044688	0.360784	0.931578	-0.940736	0.298608	-0.160773
158	1694461													9.131520	-0.318037	-3.302032	-0.336321	-0.883545	0.325940	-0.044723	0.360695	0.931611	-0.940685	0.298744	-0.160824
159	1694628													9.120791	-0.316570	-3.295422	-0.336542	-0.883439	0.325997	-0.044717	0.360794	0.931573	-0.940606	0.298936	-0.160927
160	1694794													9.146227	-0.313474	-3.287571	-0.336811	-0.883328	0.326022	-0.044652	0.360848	0.931555	-0.940513	0.299201	-0.160980
161	1694961													9.180998	-0.320740	-3.295764	-0.337017	-0.883184	0.326199	-0.044493	0.361021	0.931496	-0.940447	0.299416	-0.160965
162	1695128													9.171728	-0.321773	-3.309798	-0.337178	-0.883095	0.326272	-0.044364	0.361086	0.931477	-0.940395	0.299599	-0.160928
163	1695295													9.196335	-0.320392	-3.316442	-0.337309	-0.883005	0.326380	-0.044288	0.361199	0.931436	-0.940352	0.299727	-0.160942
164	1695461													9.170325	-0.346678	-3.325701	-0.337302	-0.883007	0.326382	-0.044243	0.361185	0.931444	-0.940356	0.299738	-0.160895
165	1695628													9.140024	-0.323393	-3.315509	-0.337241	-0.883019	0.326414	-0.044271	0.361218	0.931430	-0.940377	0.299666	-0.160910
166	1695795													9.151213	-0.330225	-3.316993	-0.337169	-0.883038	0.326437	-0.044329	0.361248	0.931416	-0.940400	0.299574	-0.160946
167	1695961													9.130944	-0.318558	-3.288802	-0.337125	-0.883030	0.326504	-0.044365	0.361321	0.931385	-0.940414	0.299508	-0.160986
168	1696128													9.135532	-0.337962	-3.283666	-0.337115	-0.883040	0.326488	-0.044410	0.361317	0.931385	-0.940416	0.299484	-0.161021
169	1696295													9.194368	-0.346420	-3.281389	-0.337029	-0.883075	0.326479	-0.044415	0.361294	0.931394	-0.940446	0.299406	-0.160989
170	1696461													9.213881	-0.363077	-3.306899	-0.336777	-0.883188	0.326436	-0.044431	0.361208	0.931426	-0.940536	0.299179	-0.160888
171	1696628													9.198683	-0.352720	-3.284213	-0.336372	-0.883330	0.326469	-0.044385	0.361155	0.931449	-0.940683	0.298823	-0.160689
172	1696795													9.182017	-0.321585	-3.284791	-0.335838	-0.883527	0.326485	-0.044272	0.361040	0.931499	-0.940879	0.298379	-0.160367
173	1696961													9.141003	-0.299765	-3.285292	-0.335262	-0.883749	0.326476	-0.044188	0.360901	0.931557	-0.941088	0.297890	-0.160047
174	1697128													9.145677	-0.294934	-3.258931	-0.334720	-0.883965	0.326449	-0.044134	0.360758	0.931615	-0.941284	0.297422	-0.159765
175	1697295													9.207513	-0.273429	-3.268528	-0.334169	-0.884147	0.326521	-0.044110	0.360728	0.931627	-0.941481	0.296918	-0.159544
176	1697461													9.280090	-0.292527	-3.261584	-0.333483	-0.884328	0.326731	-0.044108	0.360826	0.931590	-0.941724	0.296257	-0.159335
177	1697628													9.149551	-0.323786	-3.207486	-0.332705	-0.884556	0.326906	-0.044171	0.360891	0.931561	-0.941996	0.295496	-0.159142
178	1697795													9.080851	-0.369736	-3.227780	-0.332163	-0.884695	0.327081	-0.044292	0.361018	0.931507	-0.942182	0.294925	-0.159102
179	1697961													9.095934	-0.378180	-3.204219	-0.331877	-0.884787	0.327125	-0.044474	0.361069	0.931478	-0.942274	0.294587	-0.159181
180	1698128													9.155762	-0.362494	-3.200397	-0.331741	-0.884850	0.327090	-0.044532	0.361027	0.931492	-0.942319	0.294448	-0.159172
181	1698295													9.176412	-0.355786	-3.213430	-0.331686	-0.884896	0.327023	-0.044474	0.360928	0.931533	-0.942341	0.294432	-0.159069
182	1698461													9.191628	-0.363010	-3.199036	-0.331638	-0.884920	0.327006	-0.044401	0.360880	0.931555	-0.942361	0.294420	-0.158973
183	1698628													9.201288	-0.338313	-3.220912	-0.331545	-0.884987	0.326919	-0.044339	0.360752	0.931607	-0.942397	0.294374	-0.158845
184	1698795													9.199218	-0.307329	-3.200041	-0.331401	-0.885034	0.326938	-0.044233	0.360713	0.931627	-0.942452	0.294281	-0.158689
185	1698961													9.201260	-0.274431	-3.172704	-0.331198	-0.885040	0.327126	-0.044093	0.360831	0.931588	-0.942531	0.294116	-0.158531
186	1699128													9.168913	-0.266763	-3.186790	-0.330936	-0.885049	0.327367	-0.043898	0.360978	0.931541	-0.942632	0.293910	-0.158312
187	1699295													9.200290	-0.297350	-3.182130	-0.330684	-0.885013	0.327720	-0.043708	0.361246	0.931446	-0.942729	0.293690	-0.158141
188	1699461													9.151890	-0.322088	-3.190265	-0.330474	-0.884955	0.328087	-0.043535	0.361541	0.931339	-0.942810	0.293500	-0.158007
189	1699628													9.195237	-0.343676	-3.191753	-0.330342	-0.884885	0.328410	-0.043380	0.361810	0.931242	-0.942864	0.293382	-0.157907
190	1699795													9.226556	-0.333452	-3.203226	-0.330152	-0.884867	0.328650	-0.043144	0.361955	0.931197	-0.942941	0.293258	-0.157677
191	1699961													9.170484	-0.307490	-3.185177	-0.329973	-0.884851	0.328871	-0.042829	0.362058	0.931171	-0.943018	0.293176	-0.157367
192	1700128													9.203630	-0.298263	-3.196224	-0.329840	-0.884830	0.329061	-0.042481	0.362127	0.931160	-0.943081	0.293155	-0.157033
193	1700295													9.185653	-0.267721	-3.187870	-0.329663	-0.884825	0.329252	-0.042141	0.362191	0.931151	-0.943158	0.293091	-0.156689
194	1700461													9.133636	-0.284348	-3.203384	-0.329591	-0.884784	0.329434	-0.041967	0.362316	0.931110	-0.943191	0.293060	-0.156548
195	1700628													9.240830	-0.269474	-3.199636	-0.329549	-0.884773	0.329506	-0.042006	0.362397	0.931077	-0.943204	0.292994	-0.156593
196	1700795													9.183254	-0.247015	-3.181364	-0.329437	-0.884806	0.329530	-0.042112	0.362435	0.931057	-0.943238	0.292848	-0.156660
197	1700961													9.184784	-0.233034	-3.201156	-0.329358	-0.884785	0.329666	-0.042209	0.362594	0.930991	-0.943261	0.292714	-0.156769
198	1701128													9.136671	-0.244296	-3.215348	-0.329356	-0.884740	0.329786	-0.042269	0.362739	0.930932	-0.943259	0.292668	-0.156867
199	1701295													9.129101	-0.306374	-3.215466	-0.329485	-0.884652	0.329894	-0.042361	0.362904	0.930863	-0.943210	0.292731	-0.157047
200	1701461													9.138917	-0.340782	-3.230115	-0.329751	-0.884547	0.329910	-0.042578	0.363035	0.930802	-0.943107	0.292886	-0.157374
201	1701628													9.155568	-0.344339	-3.214803	-0.330118	-0.884481	0.329720	-0.042902	0.363000	0.930801	-0.942964	0.293128	-0.157779
202	1701795													9.204699	-0.325825	-3.220231	-0.330457	-0.884436	0.329502	-0.043242	0.362936	0.930810	-0.942830	0.293344	-0.158179
203	1701961													9.215251	-0.308268	-3.227579	-0.330685	-0.884440	0.329263	-0.043569	0.362826	0.930838	-0.942735	0.293468	-0.158516
204	1702128													9.214725	-0.318188	-3.247851	-0.330855	-0.884450	0.329065	-0.043816	0.362725	0.930865	-0.942664	0.293563	-0.158763
205	1702295													9.207547	-0.341483	-3.222048	-0.330934	-0.884489	0.328881	-0.044033	0.362612	0.930899	-0.942626	0.293585	-0.158947
206	1702461													9.169815	-0.329632	-3.247738	-0.330988	-0.884535	0.328702	-0.044277	0.362510	0.930927	-0.942595	0.293572	-0.159151
207	1702628													9.162980	-0.329676	-3.255243	-0.331018	-0.884581	0.328547	-0.044500	0.362422	0.930951	-0.942574	0.293542	-0.159332
208	1702795													9.157475	-0.336126	-3.255481	-0.331062	-0.884613	0.328416	-0.044657	0.362341	0.930975	-0.942552	0.293545	-0.159461
209	1702961													9.147724	-0.328715	-3.235592	-0.331126	-0.884624	0.328324	-0.044804	0.362301	0.930984	-0.942522	0.293562	-0.159602
210	1703128													9.135448	-0.328222	-3.264947	-0.331223	-0.884597	0.328298	-0.044911	0.362324	0.930970	-0.942483	0.293614	-0.159738
211	1703295													9.166130	-0.311627	-3.269791	-0.331348	-0.884566	0.328255	-0.044913	0.362302	0.930978	-0.942439	0.293734	-0.159777
212	1703461													9.172049	-0.334350	-3.253515	-0.331406	-0.884547	0.328249	-0.044856	0.362288	0.930986	-0.942421	0.293810	-0.159741
213	1703628													9.202457	-0.345555	-3.254445	-0.331336	-0.884583	0.328222	-0.044813	0.362234	0.931009	-0.942448	0.293768	-0.159662
214	1703795													9.259511	-0.351987	-3.247903	-0.331082	-0.884686	0.328200	-0.044776	0.362154	0.931042	-0.942539	0.293556	-0.159515
215	1703961													9.243215	-0.345180	-3.255714	-0.330581	-0.884889	0.328158	-0.044731	0.362006	0.931102	-0.942717	0.293125	-0.159254
216	1704128													9.234214	-0.352263	-3.236533	-0.329942	-0.885135	0.328137	-0.044736	0.361872	0.931154	-0.942941	0.292547	-0.158994
217	1704295													9.186380	-0.340936	-3.192215	-0.329216	-0.885426	0.328081	-0.044745	0.361688	0.931225	-0.943194	0.291895	-0.158692
218	1704461													9.156022	-0.326759	-3.194032	-0.328518	-0.885706	0.328026	-0.044757	0.361510	0.931293	-0.943437	0.291265	-0.158404
219	1704628													9.163364	-0.329167	-3.162828	-0.327908	-0.885922	0.328051	-0.044744	0.361426	0.931327	-0.943649	0.290711	-0.158155
220	1704795													9.182438	-0.329382	-3.164596	-0.327274	-0.886155	0.328057	-0.044790	0.361334	0.931360	-0.943867	0.290117	-0.157946
221	1704961													9.101355	-0.359787	-3.168725	-0.326798	-0.886345	0.328018	-0.044872	0.361235	0.931395	-0.944029	0.289659	-0.157822
222	1705128													9.164686	-0.362907	-3.158817	-0.326489	-0.886471	0.327985	-0.045002	0.361185	0.931408	-0.944129	0.289334	-0.157816
223	1705295													9.233898	-0.362476	-3.147806	-0.326252	-0.886582	0.327921	-0.045064	0.361095	0.931439	-0.944208	0.289107	-0.157761
224	1705461													9.249374	-0.383656	-3.147620	-0.325943	-0.886682	0.327958	-0.044977	0.361054	0.931460	-0.944319	0.288852	-0.157564
225	1705628													9.245484	-0.416499	-3.104882	-0.325574	-0.886807	0.327985	-0.044842	0.360976	0.931496	-0.944453	0.288564	-0.157291
226	1705795													9.249088	-0.407430	-3.137781	-0.325120	-0.886973	0.327987	-0.044759	0.360873	0.931540	-0.944613	0.288182	-0.157027
227	1705961													9.168428	-0.375422	-3.115898	-0.324704	-0.887123	0.327994	-0.044574	0.360751	0.931596	-0.944765	0.287873	-0.156680
228	1706128													9.205226	-0.355685	-3.118927	-0.324373	-0.887221	0.328057	-0.044323	0.360684	0.931634	-0.944890	0.287656	-0.156320
229	1706295													9.218607	-0.329537	-3.084561	-0.324089	-0.887271	0.328201	-0.043974	0.360680	0.931652	-0.945004	0.287506	-0.155909
230	1706461													9.214694	-0.321033	-3.098073	-0.323851	-0.887276	0.328423	-0.043592	0.360755	0.931641	-0.945103	0.287396	-0.155509
231	1706628													9.208161	-0.337869	-3.091264	-0.323681	-0.887237	0.328696	-0.043196	0.360892	0.931607	-0.945180	0.287345	-0.155139
232	1706795													9.177301	-0.327042	-3.105130	-0.323591	-0.887175	0.328952	-0.042870	0.361047	0.931562	-0.945225	0.287343	-0.154864
233	1706961													9.168050	-0.317041	-3.102551	-0.323632	-0.887023	0.329321	-0.042526	0.361336	0.931465	-0.945227	0.287447	-0.154662
234	1707128													9.164767	-0.318246	-3.120690	-0.323794	-0.886842	0.329649	-0.042168	0.361600	0.931379	-0.945188	0.287674	-0.154480
235	1707295													9.188747	-0.346525	-3.110075	-0.324102	-0.886602	0.329993	-0.041839	0.361914	0.931272	-0.945096	0.288021	-0.154391
236	1707461													9.233335	-0.332898	-3.105097	-0.324422	-0.886380	0.330273	-0.041537	0.362171	0.931186	-0.945000	0.288379	-0.154314
237	1707628													9.159750	-0.353621	-3.149018	-0.324717	-0.886172	0.330542	-0.041280	0.362425	0.931098	-0.944910	0.288699	-0.154266
238	1707795													9.231484	-0.349891	-3.144145	-0.325142	-0.885949	0.330723	-0.041058	0.362621	0.931032	-0.944774	0.289139	-0.154278
239	1707961													9.245379	-0.344396	-3.169250	-0.325444	-0.885776	0.330889	-0.040778	0.362761	0.930990	-0.944682	0.289492	-0.154179
240	1708128													9.195519	-0.319237	-3.147801	-0.325747	-0.885600	0.331062	-0.040411	0.362882	0.930958	-0.944593	0.289878	-0.153996
241	1708295													9.196923	-0.297180	-3.160402	-0.326055	-0.885432	0.331206	-0.039981	0.362954	0.930949	-0.944505	0.290299	-0.153744
242	1708461													9.199300	-0.294924	-3.176640	-0.326383	-0.885237	0.331404	-0.039539	0.363083	0.930917	-0.944410	0.290733	-0.153506
243	1708628													9.213012	-0.278725	-3.194563	-0.326684	-0.885062	0.331576	-0.039106	0.363182	0.930897	-0.944324	0.291143	-0.153257
244	1708795													9.195648	-0.252948	-3.181177	-0.326967	-0.884877	0.331790	-0.038674	0.363322	0.930861	-0.944244	0.291529	-0.153016
245	1708961													9.177516	-0.228364	-3.174116	-0.327250	-0.884655	0.332103	-0.038252	0.363570	0.930781	-0.944163	0.291895	-0.152818
246	1709128													9.162753	-0.233794	-3.201085	-0.327572	-0.884371	0.332541	-0.037830	0.363955	0.930648	-0.944068	0.292275	-0.152677
247	1709295													9.157527	-0.232055	-3.198308	-0.327934	-0.884063	0.333005	-0.037352	0.364356	0.930510	-0.943962	0.292707	-0.152506
248	1709461													9.161169	-0.258469	-3.205368	-0.328378	-0.883695	0.333543	-0.036863	0.364846	0.930338	-0.943827	0.293207	-0.152383
249	1709628													9.194181	-0.273502	-3.192173	-0.328822	-0.883363	0.333985	-0.036393	0.365241	0.930201	-0.943690	0.293716	-0.152247
250	1709795													9.214027	-0.280328	-3.222315	-0.329194	-0.883078	0.334371	-0.035957	0.365574	0.930087	-0.943577	0.294157	-0.152098
251	1709961													9.170798	-0.274482	-3.221088	-0.329547	-0.882818	0.334710	-0.035531	0.365859	0.929992	-0.943470	0.294583	-0.151935
252	1710128													9.189650	-0.255290	-3.227587	-0.329928	-0.882580	0.334963	-0.035120	0.366062	0.929928	-0.943352	0.295046	-0.151770
253	1710295													9.196064	-0.250691	-3.217667	-0.330271	-0.882370	0.335177	-0.034697	0.366213	0.929884	-0.943248	0.295484	-0.151566
254	1710461													9.196423	-0.224558	-3.213704	-0.330535	-0.882185	0.335405	-0.034264	0.366362	0.929841	-0.943172	0.295852	-0.151322
255	1710628													9.175729	-0.196410	-3.229790	-0.330775	-0.882020	0.335603	-0.033792	0.366463	0.929819	-0.943105	0.296220	-0.151022
256	1710795													9.169907	-0.197623	-3.256037	-0.331034	-0.881842	0.335813	-0.033387	0.366601	0.929779	-0.943028	0.296576	-0.150799
257	1710961													9.162814	-0.191994	-3.231550	-0.331279	-0.881662	0.336044	-0.033032	0.366774	0.929724	-0.942954	0.296898	-0.150628
258	1711128													9.153678	-0.182790	-3.238087	-0.331541	-0.881478	0.336269	-0.032773	0.366974	0.929654	-0.942872	0.297198	-0.150555
259	1711295													9.192759	-0.164148	-3.243513	-0.331784	-0.881299	0.336500	-0.032561	0.367191	0.929575	-0.942793	0.297462	-0.150524
260	1711461													9.178723	-0.153915	-3.241143	-0.331998	-0.881092	0.336829	-0.032317	0.367497	0.929463	-0.942726	0.297694	-0.150483
261	1711628													9.190311	-0.153433	-3.257896	-0.332172	-0.880896	0.337171	-0.031992	0.367785	0.929361	-0.942676	0.297921	-0.150349
262	1711795													9.205069	-0.179413	-3.264181	-0.332332	-0.880696	0.337535	-0.031667	0.368094	0.929249	-0.942631	0.298131	-0.150218
263	1711962													9.223164	-0.183871	-3.259922	-0.332426	-0.880527	0.337884	-0.031380	0.368386	0.929143	-0.942607	0.298268	-0.150092
264	1712128													9.234074	-0.199983	-3.247352	-0.332390	-0.880456	0.338103	-0.031219	0.368561	0.929079	-0.942625	0.298261	-0.149993
265	1712295													9.136941	-0.216394	-3.236300	-0.332285	-0.880439	0.338252	-0.031172	0.368685	0.929032	-0.942664	0.298159	-0.149954
266	1712462													9.102514	-0.252668	-3.264084	-0.332315	-0.880485	0.338102	-0.031283	0.368568	0.929074	-0.942650	0.298168	-0.150025
267	1712628													9.142452	-0.221320	-3.258477	-0.332445	-0.880535	0.337844	-0.031455	0.368371	0.929146	-0.942598	0.298263	-0.150160
268	1712795													9.207727	-0.204264	-3.252262	-0.332626	-0.880583	0.337542	-0.031502	0.368097	0.929254	-0.942532	0.298461	-0.150179
269	1712962													9.237067	-0.222368	-3.227403	-0.332692	-0.880663	0.337267	-0.031561	0.367837	0.929354	-0.942507	0.298544	-0.150171
270	1713128													9.226653	-0.201809	-3.228650	-0.332620	-0.880813	0.336945	-0.031693	0.367527	0.929473	-0.942528	0.298482	-0.150162
271	1713295													9.191831	-0.186694	-3.225292	-0.332449	-0.880979	0.336681	-0.031895	0.367284	0.929562	-0.942582	0.298293	-0.150202
272	1713462													9.195230	-0.164638	-3.237553	-0.332203	-0.881145	0.336489	-0.032051	0.367089	0.929633	-0.942663	0.298042	-0.150190
273	1713628													9.175195	-0.153489	-3.203305	-0.331939	-0.881255	0.336460	-0.032124	0.367037	0.929651	-0.942754	0.297779	-0.150143
274	1713795													9.158471	-0.190836	-3.209628	-0.331694	-0.881319	0.336536	-0.032161	0.367088	0.929630	-0.942839	0.297530	-0.150105
275	1713962													9.167820	-0.210867	-3.216624	-0.331457	-0.881376	0.336618	-0.032257	0.367165	0.929596	-0.942919	0.297263	-0.150130
276	1714128													9.168821	-0.234398	-3.207882	-0.331268	-0.881454	0.336600	-0.032469	0.367182	0.929582	-0.942978	0.297012	-0.150255
277	1714295													9.166458	-0.243425	-3.209587	-0.331104	-0.881533	0.336555	-0.032669	0.367170	0.929580	-0.943029	0.296792	-0.150370
278	1714462													9.188724	-0.234751	-3.186513	-0.330971	-0.881640	0.336405	-0.032802	0.367031	0.929630	-0.943071	0.296646	-0.150396
279	1714628													9.202333	-0.244247	-3.201760	-0.330857	-0.881727	0.336290	-0.032879	0.366914	0.929674	-0.943108	0.296532	-0.150386
280	1714795													9.182186	-0.229462	-3.181031	-0.330758	-0.881818	0.336148	-0.032916	0.366759	0.929734	-0.943141	0.296453	-0.150334
281	1714962													9.163170	-0.215348	-3.175499	-0.330663	-0.881919	0.335979	-0.032954	0.366577	0.929804	-0.943174	0.296380	-0.150276
282	1715128													9.102599	-0.248514	-3.181681	-0.330757	-0.881991	0.335696	-0.033118	0.366346	0.929889	-0.943135	0.296450	-0.150381
283	1715295													9.179679	-0.213355	-3.210876	-0.330943	-0.882040	0.335385	-0.033366	0.366128	0.929966	-0.943061	0.296575	-0.150598
284	1715462													9.161091	-0.212456	-3.210281	-0.331185	-0.882068	0.335072	-0.033629	0.365922	0.930038	-0.942967	0.296746	-0.150851
285	1715628													9.188062	-0.205721	-3.210250	-0.331486	-0.882054	0.334810	-0.033831	0.365759	0.930094	-0.942853	0.296986	-0.151085
286	1715795													9.180081	-0.229172	-3.225569	-0.331779	-0.882011	0.334633	-0.033982	0.365670	0.930124	-0.942745	0.297224	-0.151294
287	1715962													9.185716	-0.246293	-3.236014	-0.332040	-0.881980	0.334457	-0.034165	0.365586	0.930150	-0.942646	0.297420	-0.151522
288	1716128													9.204453	-0.260783	-3.259487	-0.332242	-0.881994	0.334219	-0.034380	0.365437	0.930201	-0.942567	0.297561	-0.151737
289	1716295													9.213961	-0.246481	-3.271558	-0.332364	-0.882006	0.334065	-0.034601	0.365365	0.930221	-0.942516	0.297612	-0.151953
290	1716462													9.186797	-0.239357	-3.263667	-0.332350	-0.882040	0.333989	-0.034781	0.365339	0.930224	-0.942515	0.297543	-0.152098
291	1716628													9.129389	-0.266997	-3.289622	-0.332324	-0.882070	0.333937	-0.034918	0.365323	0.930226	-0.942519	0.297476	-0.152206
292	1716795													9.164127	-0.284469	-3.293782	-0.332387	-0.882093	0.333813	-0.035152	0.365277	0.930235	-0.942488	0.297464	-0.152421
293	1716962													9.126760	-0.303010	-3.285200	-0.332487	-0.882101	0.333691	-0.035414	0.365248	0.930236	-0.942443	0.297474	-0.152679
294	1717128													9.150543	-0.293128	-3.300195	-0.332604	-0.882122	0.333519	-0.035702	0.365178	0.930253	-0.942391	0.297498	-0.152953
295	1717295													9.184298	-0.303643	-3.290529	-0.332697	-0.882159	0.333329	-0.035961	0.365075	0.930283	-0.942348	0.297516	-0.153183
296	1717462													9.152012	-0.291955	-3.264090	-0.332780	-0.882175	0.333204	-0.036132	0.365012	0.930301	-0.942312	0.297547	-0.153343
297	1717628													9.217227	-0.297435	-3.255123	-0.332783	-0.882222	0.333077	-0.036226	0.364908	0.930339	-0.942307	0.297535	-0.153395
298	1717795													9.164066	-0.299114	-3.258573	-0.332689	-0.882296	0.332974	-0.036295	0.364805	0.930376	-0.942338	0.297441	-0.153389
299	1717962													9.135246	-0.300916	-3.235023	-0.332627	-0.882369	0.332842	-0.036335	0.364668	0.930428	-0.942358	0.297392	-0.153359
300	1718128													9.113678	-0.303713	-3.226933	-0.332660	-0.882412	0.332695	-0.036369	0.364529	0.930481	-0.942345	0.297434	-0.153356
301	1718295													9.138211	-0.287262	-3.221438	-0.332857	-0.882386	0.332566	-0.036407	0.364439	0.930515	-0.942274	0.297621	-0.153432
302	1718462													9.161347	-0.281273	-3.244071	-0.333069	-0.882346	0.332461	-0.036460	0.364381	0.930536	-0.942197	0.297812	-0.153534
303	1718628													9.140574	-0.277285	-3.264799	-0.333316	-0.882301	0.332334	-0.036514	0.364307	0.930563	-0.942108	0.298037	-0.153646
304	1718795													9.177888	-0.261650	-3.250672	-0.333607	-0.882207	0.332291	-0.036524	0.364315	0.930559	-0.942005	0.298304	-0.153760
305	1718962													9.202406	-0.283095	-3.260158	-0.333793	-0.882133	0.332299	-0.036483	0.364343	0.930550	-0.941940	0.298488	-0.153798
306	1719128													9.200462	-0.294178	-3.256605	-0.333883	-0.882081	0.332349	-0.036484	0.364411	0.930523	-0.941908	0.298560	-0.153852
307	1719295													9.183254	-0.282459	-3.263340	-0.333893	-0.882065	0.332380	-0.036502	0.364451	0.930507	-0.941904	0.298557	-0.153885
308	1719462													9.208782	-0.285777	-3.252349	-0.333825	-0.882074	0.332426	-0.036512	0.364491	0.930491	-0.941928	0.298483	-0.153882
309	1719628													9.227412	-0.286861	-3.277367	-0.333605	-0.882118	0.332529	-0.036472	0.364549	0.930470	-0.942007	0.298282	-0.153787
310	1719795													9.202170	-0.328433	-3.261809	-0.333206	-0.882221	0.332656	-0.036443	0.364606	0.930449	-0.942149	0.297908	-0.153640
311	1719962													9.127248	-0.345529	-3.300703	-0.332732	-0.882387	0.332690	-0.036457	0.364564	0.930464	-0.942317	0.297466	-0.153471
312	1720128													9.147772	-0.356002	-3.323486	-0.332263	-0.882593	0.332614	-0.036513	0.364421	0.930518	-0.942480	0.297032	-0.153310
313	1720295													9.213645	-0.314477	-3.330787	-0.331667	-0.882876	0.332455	-0.036510	0.364150	0.930624	-0.942690	0.296520	-0.153011
314	1720462													9.260251	-0.304782	-3.336513	-0.330795	-0.883231	0.332381	-0.036372	0.363880	0.930735	-0.943002	0.295793	-0.152494
315	1720628													9.268497	-0.290682	-3.354143	-0.329606	-0.883657	0.332431	-0.036180	0.363670	0.930825	-0.943425	0.294778	-0.151838
316	1720795													9.288221	-0.281192	-3.348538	-0.328010	-0.884215	0.332526	-0.035947	0.363429	0.930928	-0.943990	0.293401	-0.150993
317	1720962													9.275697	-0.294853	-3.353932	-0.326024	-0.884884	0.332699	-0.035709	0.363203	0.931025	-0.944687	0.291656	-0.150011
318	1721128													9.276048	-0.303820	-3.335623	-0.323670	-0.885660	0.332933	-0.035441	0.362976	0.931124	-0.945506	0.289578	-0.148873
319	1721295													9.318575	-0.324533	-3.330557	-0.320866	-0.886555	0.333263	-0.035220	0.362794	0.931204	-0.946470	0.287054	-0.147632
320	1721462													9.365413	-0.294687	-3.297294	-0.317605	-0.887561	0.333710	-0.035011	0.362668	0.931260	-0.947577	0.284089	-0.146260
321	1721628													9.354524	-0.245566	-3.252740	-0.313862	-0.888619	0.334435	-0.034591	0.362702	0.931263	-0.948838	0.280720	-0.144577
322	1721795													9.403331	-0.192369	-3.192168	-0.309717	-0.889708	0.335402	-0.033975	0.362877	0.931218	-0.950222	0.277018	-0.142617
323	1721962													9.368726	-0.192443	-3.159975	-0.305095	-0.890787	0.336772	-0.033092	0.363336	0.931070	-0.951747	0.272920	-0.140330
324	1722128													9.277591	-0.201325	-3.084698	-0.300256	-0.891839	0.338332	-0.032113	0.363949	0.930865	-0.953318	0.268633	-0.137918
325	1722295													9.235070	-0.198177	-3.029209	-0.295324	-0.892851	0.340002	-0.031079	0.364664	0.930620	-0.954891	0.264268	-0.135443
326	1722462													9.265675	-0.181300	-2.973980	-0.290381	-0.893810	0.341734	-0.030058	0.365466	0.930339	-0.956439	0.259881	-0.132990
327	1722628													9.279712	-0.203547	-2.930511	-0.285365	-0.894761	0.343467	-0.029129	0.366300	0.930041	-0.957976	0.255396	-0.130593
328	1722795													9.373789	-0.195456	-2.903659	-0.280282	-0.895719	0.345152	-0.028315	0.367122	0.929742	-0.959500	0.250817	-0.128260
329	1722962													9.457361	-0.213532	-2.858625	-0.274902	-0.896780	0.346719	-0.027613	0.367828	0.929484	-0.961076	0.245943	-0.125879
330	1723128													9.450741	-0.251166	-2.826707	-0.269229	-0.897990	0.348036	-0.027030	0.368283	0.929321	-0.962697	0.240793	-0.123425
331	1723295													9.310392	-0.319765	-2.815248	-0.263371	-0.899347	0.349014	-0.026539	0.368405	0.929287	-0.964329	0.235485	-0.120895
332	1723462													9.178062	-0.435578	-2.757621	-0.257778	-0.900849	0.349317	-0.026145	0.367906	0.929495	-0.965850	0.230470	-0.118391
333	1723628													9.423014	-0.381604	-2.660735	-0.252272	-0.902543	0.348962	-0.025719	0.366752	0.929963	-0.967315	0.225628	-0.115733
334	1723795													9.598391	-0.374764	-2.597606	-0.246276	-0.904544	0.348064	-0.025232	0.364988	0.930670	-0.968871	0.220419	-0.112711
335	1723962													9.642726	-0.356595	-2.533758	-0.239606	-0.906866	0.346674	-0.024768	0.362669	0.931589	-0.970554	0.214628	-0.109359
336	1724128													9.549230	-0.286054	-2.509315	-0.232360	-0.909454	0.344822	-0.024358	0.359855	0.932690	-0.972325	0.208321	-0.105769
337	1724295													9.481864	-0.181799	-2.450572	-0.224833	-0.912140	0.342711	-0.024050	0.356803	0.933870	-0.974100	0.201723	-0.102158
338	1724462													9.513625	-0.096200	-2.349325	-0.217008	-0.914843	0.340544	-0.023838	0.353719	0.935048	-0.975879	0.194794	-0.098568
339	1724628													9.539463	-0.047021	-2.275663	-0.208879	-0.917499	0.338475	-0.023691	0.350756	0.936167	-0.977654	0.187527	-0.095002
340	1724795													9.519814	-0.072577	-2.171979	-0.200434	-0.920087	0.336550	-0.023686	0.347971	0.937206	-0.979421	0.179876	-0.091539
341	1724962													9.551567	-0.047719	-2.049501	-0.191887	-0.922566	0.334741	-0.023825	0.345357	0.938169	-0.981128	0.172047	-0.088250
342	1725128													9.630486	0.004409	-1.935644	-0.183169	-0.924902	0.333176	-0.024024	0.343020	0.939021	-0.982788	0.163995	-0.085050
343	1725295													9.589458	-0.015603	-1.836696	-0.174351	-0.927072	0.331872	-0.024226	0.340971	0.939762	-0.984385	0.155809	-0.081908
344	1725462													9.624445	-0.075674	-1.722819	-0.165541	-0.929080	0.330766	-0.024394	0.339148	0.940417	-0.985901	0.147609	-0.078806
345	1725628													9.582845	-0.103097	-1.631189	-0.156748	-0.930953	0.329782	-0.024525	0.337476	0.941015	-0.987334	0.139415	-0.075730
346	1725795													9.573198	-0.123740	-1.526435	-0.148063	-0.932698	0.328863	-0.024666	0.335908	0.941572	-0.988670	0.131300	-0.072741
347	1725962													9.695669	-0.075181	-1.477289	-0.139431	-0.934311	0.328057	-0.024829	0.334488	0.942073	-0.989920	0.123209	-0.069836
348	1726128													9.725183	-0.052383	-1.420708	-0.130664	-0.935790	0.327452	-0.024917	0.333279	0.942499	-0.991114	0.114992	-0.066865
349	1726295													9.794336	-0.047297	-1.335426	-0.121681	-0.937123	0.327099	-0.024971	0.332333	0.942831	-0.992255	0.106557	-0.063840
350	1726462													9.813658	-0.055470	-1.240229	-0.112386	-0.938335	0.326949	-0.025109	0.331611	0.943082	-0.993347	0.097780	-0.060830
351	1726628													9.744623	-0.108817	-1.156429	-0.102808	-0.939406	0.327027	-0.025347	0.331137	0.943242	-0.994378	0.088684	-0.057855
352	1726795													9.687317	-0.158935	-1.051066	-0.093167	-0.940346	0.327216	-0.025667	0.330804	0.943350	-0.995320	0.079491	-0.054956
353	1726962													9.752762	-0.143566	-0.948380	-0.083475	-0.941153	0.327510	-0.026011	0.330603	0.943411	-0.996170	0.070232	-0.052078
354	1727128													9.784405	-0.152660	-0.891894	-0.073645	-0.941818	0.327955	-0.026214	0.330563	0.943420	-0.996940	0.060882	-0.049033
355	1727295													9.834530	-0.147572	-0.803997	-0.063583	-0.942330	0.328589	-0.026281	0.330722	0.943362	-0.997630	0.051346	-0.045794
356	1727462													9.791778	-0.122904	-0.722021	-0.053292	-0.942691	0.329382	-0.026291	0.331061	0.943243	-0.998233	0.041608	-0.042427
357	1727628													9.829023	-0.126025	-0.590094	-0.042815	-0.942858	0.330432	-0.026322	0.331685	0.943023	-0.998736	0.031678	-0.039019
358	1727795													9.802143	-0.152122	-0.479434	-0.032143	-0.942857	0.331642	-0.026387	0.332499	0.942735	-0.999135	0.021552	-0.035567
359	1727962													9.805433	-0.145075	-0.309003	-0.021467	-0.942691	0.332975	-0.026357	0.333469	0.942392	-0.999422	0.011454	-0.032005
360	1728128													9.847914	-0.157345	-0.223203	-0.010634	-0.942344	0.334476	-0.026278	0.334643	0.941979	-0.999598	0.001228	-0.028321
361	1728295													9.867023	-0.218939	-0.128005	0.000363	-0.941840	0.336062	-0.026156	0.335938	0.941521	-0.999658	-0.009131	-0.024513
362	1728462													9.796144	-0.231674	0.018009	0.011540	-0.941212	0.337619	-0.025836	0.337249	0.941061	-0.999600	-0.019583	-0.020425
363	1728629													9.750297	-0.251270	0.147775	0.022713	-0.940473	0.339109	-0.025392	0.338545	0.940608	-0.999420	-0.029975	-0.016191
364	1728795													9.760249	-0.252633	0.239944	0.033792	-0.939627	0.340528	-0.024930	0.339824	0.940159	-0.999118	-0.040259	-0.011942
365	1728962													9.754530	-0.268173	0.336462	0.044856	-0.938697	0.341812	-0.024399	0.341025	0.939738	-0.998695	-0.050493	-0.007607
366	1729129													9.752868	-0.286884	0.403460	0.055866	-0.937698	0.342930	-0.023763	0.342120	0.939356	-0.998155	-0.060627	-0.003170
367	1729295													9.794022	-0.230543	0.521263	0.066898	-0.936627	0.343880	-0.023040	0.343110	0.939012	-0.997494	-0.070741	0.001373
368	1729462													9.846549	-0.187179	0.622195	0.077987	-0.935452	0.344744	-0.022205	0.344081	0.938677	-0.996707	-0.080859	0.006062
369	1729629													9.807193	-0.176673	0.771889	0.089122	-0.934152	0.345569	-0.021362	0.345077	0.938331	-0.995792	-0.091008	0.010799
370	1729795													9.759773	-0.162834	0.935089	0.100155	-0.932750	0.346333	-0.020655	0.346059	0.937985	-0.994757	-0.101098	0.015394
371	1729962													9.768091	-0.081560	1.060492	0.111001	-0.931238	0.347095	-0.020074	0.347081	0.937620	-0.993618	-0.111044	0.019833
372	1730129													9.712683	-0.040678	1.183165	0.121652	-0.929554	0.348039	-0.019567	0.348329	0.937168	-0.992380	-0.120818	0.024187
373	1730295													9.738564	-0.034989	1.280969	0.132110	-0.927683	0.349215	-0.019187	0.349843	0.936612	-0.991049	-0.130436	0.028418
374	1730462													9.654930	-0.093452	1.364349	0.142404	-0.925676	0.350493	-0.018919	0.351491	0.936000	-0.989628	-0.139921	0.032540
375	1730629													9.577262	-0.144204	1.464965	0.152260	-0.923622	0.351767	-0.018728	0.353157	0.935377	-0.988163	-0.149008	0.036474
376	1730795													9.672639	-0.172651	1.570572	0.161813	-0.921545	0.352945	-0.018623	0.354744	0.934778	-0.986646	-0.157832	0.040241
377	1730962													9.696562	-0.184594	1.715497	0.171220	-0.919439	0.353999	-0.018567	0.356230	0.934214	-0.985058	-0.166529	0.043922
378	1731129													9.754576	-0.198187	1.813848	0.180599	-0.917317	0.354843	-0.018561	0.357532	0.933716	-0.983382	-0.175214	0.047544
379	1731295													9.761752	-0.219516	1.897268	0.190174	-0.915159	0.355412	-0.018492	0.358616	0.933302	-0.981576	-0.184063	0.051276
380	1731462													9.641273	-0.229772	1.992624	0.199692	-0.913032	0.355663	-0.018342	0.359427	0.932993	-0.979687	-0.192835	0.055028
381	1731629													9.605344	-0.187270	2.082968	0.209001	-0.910952	0.355648	-0.018183	0.359996	0.932776	-0.977746	-0.201418	0.058676
382	1731795													9.643289	-0.162836	2.178165	0.218062	-0.908917	0.355415	-0.017996	0.360372	0.932635	-0.975769	-0.209768	0.062227
383	1731962													9.680540	-0.154482	2.261851	0.227066	-0.906887	0.354960	-0.017721	0.360573	0.932563	-0.973718	-0.218044	0.065803
384	1732129													9.614384	-0.121573	2.311507	0.236097	-0.904823	0.354334	-0.017307	0.360669	0.932533	-0.971575	-0.226301	0.069493
385	1732295													9.610023	-0.063051	2.400645	0.245032	-0.902710	0.353658	-0.016883	0.360750	0.932510	-0.969368	-0.234466	0.073155
386	1732462													9.526483	-0.070001	2.481056	0.253929	-0.900520	0.352964	-0.016519	0.360834	0.932484	-0.967082	-0.242615	0.076750
387	1732629													9.535307	-0.098671	2.596795	0.262692	-0.898304	0.352197	-0.016335	0.360823	0.932491	-0.964742	-0.250711	0.080112
388	1732795													9.516404	-0.061712	2.672398	0.271383	-0.896054	0.351339	-0.016260	0.360718	0.932533	-0.962334	-0.258786	0.083323
389	1732962													9.435417	-0.020362	2.717469	0.279969	-0.893737	0.350502	-0.016285	0.360629	0.932567	-0.959871	-0.266798	0.086410
390	1733129													9.429831	-0.027782	2.789217	0.288378	-0.891386	0.349669	-0.016338	0.360550	0.932597	-0.957377	-0.274653	0.089412
391	1733295													9.481383	-0.079380	2.861991	0.296726	-0.888980	0.348810	-0.016335	0.360482	0.932623	-0.954823	-0.282431	0.092443
392	1733462													9.517068	-0.123757	2.914304	0.305289	-0.886479	0.347783	-0.016251	0.360315	0.932689	-0.952121	-0.290391	0.095594
393	1733629													9.504722	-0.159338	3.009303	0.314118	-0.883884	0.346525	-0.016084	0.359993	0.932816	-0.949248	-0.298588	0.098864
394	1733795													9.482073	-0.150713	3.062877	0.323253	-0.881197	0.344961	-0.015943	0.359409	0.933044	-0.946178	-0.307109	0.102132
395	1733962													9.429848	-0.101236	3.172948	0.332608	-0.878407	0.343180	-0.015825	0.358649	0.933338	-0.942932	-0.315867	0.105389
396	1734129													9.330208	-0.049609	3.210429	0.342123	-0.875483	0.341294	-0.015653	0.357852	0.933647	-0.939525	-0.324764	0.108726
397	1734295													9.296792	0.006477	3.317068	0.351592	-0.872446	0.339441	-0.015387	0.357157	0.933918	-0.936027	-0.333581	0.112149
398	1734462													9.302556	0.006376	3.348119	0.361191	-0.869202	0.337681	-0.015054	0.356645	0.934119	-0.932370	-0.342479	0.115732
399	1734629													9.247849	-0.068883	3.357512	0.370895	-0.865780	0.335950	-0.014817	0.356190	0.934296	-0.928557	-0.351503	0.119281
400	1734795													9.238969	-0.122653	3.397060	0.380717	-0.862234	0.334076	-0.014717	0.355588	0.934527	-0.924575	-0.360707	0.122689
401	1734962													9.482307	-0.124647	3.577568	0.391006	-0.858433	0.331974	-0.014718	0.354812	0.934822	-0.920270	-0.370407	0.126100
402	1735129													9.460185	-0.029078	3.805018	0.402203	-0.854136	0.329673	-0.014729	0.353998	0.935130	-0.915432	-0.380967	0.129798
403	1735295													9.196447	0.139954	3.942440	0.413856	-0.849384	0.327520	-0.014538	0.353564	0.935297	-0.910226	-0.391840	0.133976
404	1735462													8.901172	0.088837	4.068024	0.425316	-0.844397	0.325731	-0.014289	0.353596	0.935289	-0.904932	-0.402448	0.138325
405	1735795													8.727451	-0.066875	4.225469	0.436140	-0.839468	0.324153	-0.014152	0.353776	0.935223	-0.899767	-0.412476	0.142416
406	1735962													8.638261	-0.221911	4.371021	0.446177	-0.834817	0.322501	-0.014251	0.353686	0.935256	-0.894831	-0.421885	0.145910
407	1736129													8.678246	-0.257354	4.481967	0.455480	-0.830549	0.320510	-0.014532	0.353040	0.935495	-0.890127	-0.430757	0.148733
408	1736295													8.745696	-0.235446	4.583062	0.464306	-0.826551	0.318173	-0.014724	0.351990	0.935888	-0.885552	-0.439223	0.151261
409	1736462													8.772577	-0.212072	4.635095	0.472947	-0.822687	0.315448	-0.014584	0.350661	0.936389	-0.880970	-0.447463	0.153847
410	1736629													8.794653	-0.144472	4.720714	0.481442	-0.818888	0.312469	-0.014057	0.349245	0.936926	-0.876365	-0.455468	0.156630
411	1736795													8.849346	-0.051405	4.839097	0.489942	-0.815013	0.309372	-0.013246	0.347883	0.937444	-0.871655	-0.463391	0.159647
412	1736962													8.686435	-0.001082	4.965401	0.498417	-0.811034	0.306275	-0.012280	0.346644	0.937916	-0.866851	-0.471234	0.162814
413	1737129													8.520783	0.030485	5.050715	0.506543	-0.807085	0.303361	-0.011357	0.345563	0.938327	-0.862140	-0.478749	0.165876
414	1737295													8.458923	0.065288	5.086108	0.514219	-0.803237	0.300648	-0.010510	0.344618	0.938684	-0.857594	-0.485849	0.168767
415	1737462													8.479493	0.074397	5.107464	0.521597	-0.799402	0.298150	-0.009771	0.343832	0.938980	-0.853136	-0.492682	0.171531
416	1737629													8.555807	0.019148	5.136877	0.528949	-0.795435	0.295796	-0.009143	0.343187	0.939223	-0.848604	-0.499506	0.174256
417	1737795													8.560984	-0.051164	5.153361	0.536599	-0.791207	0.293347	-0.008584	0.342498	0.939479	-0.843794	-0.506642	0.176992
418	1737962													8.547769	-0.112595	5.239918	0.544543	-0.786754	0.290675	-0.008033	0.341656	0.939791	-0.838695	-0.514091	0.179727
419	1738129													8.526459	-0.087337	5.347946	0.552824	-0.782043	0.287740	-0.007426	0.340666	0.940155	-0.833265	-0.521877	0.182521
420	1738295													8.318717	-0.095863	5.526655	0.561138	-0.777255	0.284601	-0.006653	0.339590	0.940550	-0.827695	-0.529672	0.185386
421	1738462													8.141585	-0.089771	5.664338	0.569044	-0.772653	0.281418	-0.005738	0.338490	0.940952	-0.822287	-0.537058	0.188182
422	1738629													8.034597	-0.014562	5.775065	0.576418	-0.768316	0.278270	-0.004591	0.337484	0.941320	-0.817142	-0.543871	0.191005
423	1738795													8.031515	0.041532	5.853782	0.583302	-0.764184	0.275286	-0.003246	0.336720	0.941599	-0.812249	-0.550130	0.193929
424	1738962													8.109119	0.113602	5.891579	0.589926	-0.760068	0.272551	-0.001793	0.336308	0.941750	-0.807456	-0.556051	0.197034
425	1739129													8.113646	0.196608	5.979733	0.596519	-0.755772	0.270136	-0.000305	0.336363	0.941732	-0.802599	-0.561844	0.200416
426	1739295													8.102131	0.178628	5.997405	0.603220	-0.751207	0.267982	0.001148	0.336813	0.941571	-0.797574	-0.567667	0.204035
427	1739462													8.019127	0.163605	6.066654	0.609985	-0.746439	0.265985	0.002457	0.337444	0.941342	-0.792409	-0.573551	0.207669
428	1739629													7.959330	0.172260	6.147701	0.616704	-0.741552	0.264151	0.003481	0.338126	0.941094	-0.787187	-0.579457	0.211105
429	1739795													7.793556	0.171709	6.167763	0.623261	-0.736675	0.262402	0.004280	0.338755	0.940865	-0.782002	-0.585282	0.214286
430	1739962													7.701758	0.188604	6.264119	0.629497	-0.731921	0.260818	0.004852	0.339368	0.940641	-0.776988	-0.590865	0.217182
431	1740129													7.816269	0.113108	6.319560	0.635599	-0.727212	0.259184	0.005235	0.339774	0.940492	-0.772002	-0.596419	0.219767
432	1740295													7.797839	0.082004	6.371596	0.641751	-0.722467	0.257290	0.005631	0.339917	0.940438	-0.766893	-0.602078	0.222211
433	1740462													7.701593	0.069180	6.421576	0.647911	-0.717733	0.255089	0.006188	0.339836	0.940464	-0.761691	-0.607759	0.224625
434	1740629													7.658445	0.064797	6.442838	0.654067	-0.713020	0.252586	0.006958	0.339572	0.940554	-0.756405	-0.613428	0.227064
435	1740795													7.599436	0.044735	6.477004	0.660264	-0.708320	0.249667	0.008002	0.339048	0.940735	-0.750991	-0.619136	0.229529
436	1740962													7.507398	0.096045	6.563956	0.666355	-0.703724	0.246461	0.009304	0.338361	0.940970	-0.745577	-0.624727	0.232016
437	1741129													7.480915	0.152648	6.683979	0.672278	-0.699251	0.243085	0.010748	0.337545	0.941248	-0.740221	-0.630167	0.234440
438	1741295													7.445938	0.212190	6.759736	0.678092	-0.694806	0.239658	0.012208	0.336677	0.941541	-0.734876	-0.635526	0.236780
439	1741462													7.300443	0.274817	6.829691	0.683674	-0.690478	0.236283	0.013649	0.335812	0.941830	-0.729660	-0.640680	0.239010
440	1741629													7.329773	0.343979	6.905463	0.689016	-0.686220	0.233151	0.014979	0.335115	0.942058	-0.724591	-0.645601	0.241179
441	1741795													7.222925	0.351273	6.905211	0.694174	-0.681982	0.230268	0.016120	0.334551	0.942240	-0.719627	-0.650366	0.243230
442	1741962													7.226344	0.336181	6.948783	0.699129	-0.677812	0.227574	0.017001	0.333956	0.942435	-0.714794	-0.655014	0.245002
443	1742129													7.246099	0.397274	6.994752	0.703987	-0.673598	0.225096	0.017663	0.333448	0.942603	-0.709993	-0.659604	0.246641
444	1742295													7.168558	0.392903	7.052060	0.708803	-0.669280	0.222850	0.018062	0.333033	0.942742	-0.705175	-0.664193	0.248143
445	1742462													7.183685	0.362862	7.095406	0.713487	-0.664955	0.220843	0.018136	0.332609	0.942890	-0.700434	-0.668734	0.249372
446	1742629													7.111282	0.337478	7.182173	0.718112	-0.660574	0.218992	0.018005	0.332207	0.943035	-0.695694	-0.673262	0.250456
447	1742795													7.017016	0.339425	7.257222	0.722573	-0.656256	0.217293	0.017746	0.331833	0.943171	-0.691067	-0.677654	0.251419
448	1742962													6.931152	0.265589	7.310318	0.726748	-0.652155	0.215712	0.017471	0.331483	0.943300	-0.686682	-0.681772	0.252298
449	1743129													6.924505	0.279713	7.353579	0.730679	-0.648259	0.214170	0.017165	0.331045	0.943459	-0.682506	-0.685689	0.253015
450	1743295													6.880986	0.280493	7.355839	0.734406	-0.644524	0.212688	0.016897	0.330636	0.943607	-0.678500	-0.689397	0.253711
451	1743462													6.853158	0.276959	7.343503	0.737998	-0.640877	0.211270	0.016694	0.330327	0.943719	-0.674596	-0.692936	0.254480
452	1743629													6.775877	0.250217	7.370761	0.741476	-0.637312	0.209872	0.016514	0.330024	0.943828	-0.670776	-0.696360	0.255230
453	1743795													6.817089	0.196849	7.471421	0.744859	-0.633819	0.208465	0.016283	0.329613	0.943976	-0.667023	-0.699735	0.255836
454	1743962													6.798577	0.172287	7.547003	0.748182	-0.630382	0.206985	0.016146	0.329169	0.944133	-0.663297	-0.703041	0.256456
455	1744129													6.695845	0.160816	7.618486	0.751351	-0.627104	0.205454	0.016116	0.328684	0.944302	-0.659705	-0.706192	0.257064
456	1744295													6.631605	0.157121	7.691794	0.754228	-0.624133	0.203957	0.016200	0.328213	0.944465	-0.656413	-0.709038	0.257659
457	1744462													6.594482	0.185787	7.706602	0.756826	-0.621470	0.202458	0.016385	0.327693	0.944642	-0.653411	-0.711612	0.258189
458	1744629													6.605895	0.250832	7.737610	0.759145	-0.619095	0.201050	0.016628	0.327213	0.944804	-0.650710	-0.713900	0.258697
459	1744795													6.590918	0.274315	7.723525	0.761304	-0.616856	0.199763	0.016891	0.326851	0.944925	-0.648175	-0.716001	0.259252
460	1744962													6.575589	0.305286	7.739794	0.763332	-0.614706	0.198647	0.017108	0.326627	0.944999	-0.645780	-0.717949	0.259841
461	1745129													6.545615	0.276469	7.733585	0.765216	-0.612651	0.197746	0.017223	0.326539	0.945027	-0.643543	-0.719744	0.260424
462	1745296													6.507070	0.238167	7.779992	0.766914	-0.610778	0.196960	0.017244	0.326412	0.945070	-0.641518	-0.721391	0.260862
463	1745462													6.497859	0.207520	7.852697	0.768423	-0.609096	0.196283	0.017232	0.326303	0.945108	-0.639710	-0.722861	0.261235
464	1745629													6.490456	0.176847	7.882482	0.769761	-0.607618	0.195625	0.017312	0.326221	0.945135	-0.638098	-0.724141	0.261632
465	1745796													6.470782	0.175795	7.879785	0.770902	-0.606374	0.194990	0.017449	0.326119	0.945168	-0.636715	-0.725229	0.261986
466	1745962													6.420699	0.246076	7.916272	0.771803	-0.605396	0.194462	0.017676	0.326132	0.945159	-0.635616	-0.726039	0.262411
467	1746129													6.383124	0.289473	7.878729	0.772450	-0.604667	0.194161	0.017903	0.326341	0.945082	-0.634823	-0.726553	0.262908
468	1746296													6.397686	0.292459	7.895188	0.772804	-0.604205	0.194190	0.018016	0.326745	0.944941	-0.634389	-0.726756	0.263395
469	1746462													6.436299	0.279901	7.852931	0.772991	-0.603880	0.194457	0.017904	0.327157	0.944801	-0.634164	-0.726841	0.263701
470	1746629													6.470025	0.251436	7.791878	0.773080	-0.603659	0.194793	0.017732	0.327542	0.944670	-0.634061	-0.726851	0.263920
471	1746796													6.410918	0.297216	7.794006	0.773077	-0.603517	0.195242	0.017487	0.327961	0.944529	-0.634071	-0.726780	0.264093
472	1746962													6.453767	0.258438	7.749267	0.772938	-0.603500	0.195844	0.017260	0.328553	0.944328	-0.634247	-0.726527	0.264367
473	1747129													6.518391	0.178127	7.733401	0.772771	-0.603548	0.196357	0.017120	0.329087	0.944144	-0.634455	-0.726245	0.264642
474	1747296													6.544136	0.176749	7.732666	0.772668	-0.603569	0.196694	0.017012	0.329422	0.944029	-0.634582	-0.726075	0.264802
475	1747462													6.521454	0.176289	7.754057	0.772559	-0.603654	0.196859	0.016977	0.329570	0.943978	-0.634716	-0.725937	0.264861
476	1747629													6.488149	0.183197	7.760834	0.772408	-0.603868	0.196796	0.017065	0.329473	0.944011	-0.634897	-0.725804	0.264792
477	1747796													6.443870	0.210284	7.750928	0.772123	-0.604288	0.196627	0.017280	0.329269	0.944078	-0.635238	-0.725547	0.264678
478	1747962													6.518256	0.235646	7.752644	0.771730	-0.604852	0.196436	0.017596	0.329076	0.944139	-0.635707	-0.725164	0.264601
479	1748129													6.520654	0.239586	7.781276	0.771280	-0.605489	0.196238	0.017910	0.328834	0.944218	-0.636243	-0.724742	0.264467
480	1748296													6.559208	0.327472	7.813280	0.770767	-0.606163	0.196174	0.018060	0.328573	0.944306	-0.636861	-0.724297	0.264200
481	1748462													6.467373	0.260027	7.830192	0.770135	-0.606926	0.196297	0.018037	0.328330	0.944391	-0.637626	-0.723768	0.263805
482	1748629													6.449403	0.187341	7.883057	0.769225	-0.608034	0.196436	0.017978	0.327896	0.944543	-0.638725	-0.723035	0.263157
483	1748796													6.404650	0.213344	7.907429	0.768013	-0.609496	0.196651	0.017889	0.327356	0.944732	-0.640185	-0.722048	0.262317
484	1748962													6.532929	0.287239	7.891979	0.766486	-0.611303	0.196998	0.017908	0.326947	0.944873	-0.642012	-0.720704	0.261548
485	1749129													6.566319	0.309491	7.896796	0.764853	-0.613177	0.197520	0.017854	0.326670	0.944970	-0.643958	-0.719236	0.260802
486	1749296													6.493824	0.259024	7.886340	0.762886	-0.615394	0.198232	0.017687	0.326358	0.945081	-0.646291	-0.717483	0.259858
487	1749462													6.406510	0.206338	7.895401	0.760383	-0.618230	0.199021	0.017436	0.325754	0.945294	-0.649241	-0.715315	0.258477
488	1749629													6.236159	0.162526	7.919426	0.756962	-0.622149	0.199848	0.017243	0.324742	0.945645	-0.653231	-0.712372	0.256545
489	1749796													6.508876	0.088098	7.934281	0.752678	-0.627085	0.200600	0.017234	0.323344	0.946125	-0.658163	-0.708670	0.254181
490	1749962													6.816063	0.205812	7.850075	0.748066	-0.632417	0.201110	0.017510	0.321753	0.946662	-0.663393	-0.704644	0.251766
491	1750129													6.768012	0.176709	7.715890	0.743320	-0.637850	0.201549	0.018129	0.320396	0.947110	-0.668690	-0.700353	0.249720
492	1750296													6.601381	0.211961	7.579796	0.738104	-0.643742	0.201987	0.019021	0.319114	0.947525	-0.674419	-0.695530	0.247784
493	1750462													6.681920	0.269458	7.478227	0.732317	-0.650111	0.202650	0.019905	0.317903	0.947914	-0.680673	-0.690140	0.245747
494	1750629													6.865296	0.322325	7.408656	0.726159	-0.656696	0.203578	0.020511	0.316662	0.948316	-0.687221	-0.684453	0.243417
495	1750796													7.076608	0.440571	7.373631	0.719945	-0.663129	0.204792	0.020796	0.315556	0.948679	-0.693719	-0.678738	0.240974
496	1750962													7.236450	0.462167	7.292584	0.714038	-0.669012	0.206334	0.020786	0.314846	0.948915	-0.699799	-0.673273	0.238717
497	1751129													7.115718	0.438442	7.201855	0.708360	-0.674438	0.208229	0.020496	0.314533	0.949025	-0.705554	-0.667984	0.236626
498	1751296													7.099615	0.404497	7.085016	0.702662	-0.679688	0.210453	0.019937	0.314469	0.949058	-0.711245	-0.662671	0.234516
499	1751462													7.093492	0.414410	6.981717	0.696888	-0.684831	0.212961	0.019188	0.314641	0.949017	-0.716923	-0.657273	0.232410
500	1751629													7.144262	0.387577	6.888143	0.690912	-0.689964	0.215846	0.018180	0.315054	0.948899	-0.722710	-0.651682	0.230218
501	1751796													7.383235	0.395394	6.830605	0.684878	-0.694959	0.219030	0.017022	0.315771	0.948683	-0.728459	-0.646004	0.228094
502	1751962													7.505767	0.309779	6.779921	0.679150	-0.699502	0.222379	0.015743	0.316781	0.948368	-0.733831	-0.640583	0.226154
503	1752129													7.395236	0.247524	6.702503	0.673567	-0.703811	0.225738	0.014377	0.317830	0.948039	-0.738986	-0.635322	0.224199
504	1752296													7.393041	0.248587	6.610672	0.667840	-0.708167	0.229105	0.013056	0.318910	0.947695	-0.744190	-0.629918	0.222226
505	1752462													7.478362	0.205228	6.571996	0.661918	-0.712607	0.232500	0.011856	0.320090	0.947313	-0.749482	-0.624287	0.220322
506	1752629													7.553470	0.159665	6.543499	0.655849	-0.717102	0.235854	0.010893	0.321392	0.946884	-0.754814	-0.618443	0.218596
507	1752796													7.723923	0.056594	6.503009	0.649740	-0.721606	0.239004	0.010030	0.322525	0.946508	-0.760090	-0.612587	0.216795
508	1752962													7.670601	0.102425	6.421886	0.643744	-0.726028	0.241819	0.009335	0.323431	0.946206	-0.765184	-0.606857	0.214985
509	1753129													7.687531	0.147066	6.385468	0.637578	-0.730552	0.244518	0.008789	0.324274	0.945922	-0.770336	-0.600950	0.213171
510	1753296													7.729997	0.154123	6.314468	0.631187	-0.735193	0.247173	0.008322	0.325075	0.945652	-0.775586	-0.594826	0.211301
511	1753462													7.734758	0.130461	6.282516	0.624487	-0.740009	0.249805	0.007896	0.325804	0.945404	-0.780995	-0.588421	0.209304
512	1753629													7.855872	0.146646	6.218679	0.617493	-0.744978	0.252408	0.007526	0.326475	0.945176	-0.786540	-0.581740	0.207203
513	1753796													7.970989	0.128444	6.144585	0.610380	-0.749974	0.254904	0.007176	0.327026	0.944988	-0.792076	-0.574973	0.204992
514	1753962													7.996580	0.133819	6.081924	0.603161	-0.754989	0.257271	0.006898	0.327474	0.944835	-0.797590	-0.568113	0.202727
515	1754129													8.038134	0.108652	6.009287	0.595749	-0.760092	0.259505	0.006683	0.327780	0.944730	-0.803143	-0.561088	0.200354
516	1754296													8.031019	0.107386	5.963426	0.588054	-0.765339	0.261627	0.006457	0.327899	0.944691	-0.808796	-0.553840	0.197764
517	1754462													8.114177	0.153929	5.911147	0.579984	-0.770754	0.263739	0.006162	0.327895	0.944694	-0.814605	-0.546282	0.194923
518	1754629													8.052681	0.231451	5.816066	0.571511	-0.776308	0.265935	0.005832	0.327910	0.944691	-0.820574	-0.538350	0.191931
519	1754796													8.176408	0.203915	5.727109	0.562476	-0.782057	0.268343	0.005434	0.328041	0.944648	-0.826796	-0.529884	0.188765
520	1754962													8.344974	0.128330	5.597802	0.553190	-0.787818	0.270783	0.005046	0.328210	0.944591	-0.833040	-0.521172	0.185538
521	1755129													8.351954	0.120968	5.507643	0.543778	-0.793541	0.273127	0.004745	0.328351	0.944544	-0.839216	-0.512326	0.182315
522	1755296													8.322228	0.141386	5.384487	0.534070	-0.799331	0.275388	0.004438	0.328380	0.944535	-0.845429	-0.503225	0.178926
523	1755462													8.377568	0.180836	5.298277	0.523936	-0.805233	0.277653	0.004021	0.328312	0.944561	-0.851748	-0.493773	0.175252
524	1755629													8.446829	0.175028	5.182639	0.513546	-0.811108	0.279955	0.003475	0.328227	0.944593	-0.858055	-0.484119	0.171378
525	1755796													8.472571	0.166596	5.042995	0.502898	-0.816949	0.282291	0.002889	0.328182	0.944610	-0.864341	-0.474227	0.167402
526	1755962													8.613785	0.119423	4.935188	0.492058	-0.822730	0.284594	0.002215	0.328091	0.944644	-0.870559	-0.464189	0.163262
527	1756129													8.704269	0.109819	4.828527	0.481233	-0.828342	0.286818	0.001446	0.327946	0.944695	-0.876591	-0.454204	0.159016
528	1756296													8.722962	0.101042	4.739762	0.470305	-0.833862	0.288941	0.000530	0.327678	0.944789	-0.882504	-0.444186	0.154550
529	1756462													8.810641	0.130508	4.609121	0.459283	-0.839247	0.291071	-0.000431	0.327466	0.944863	-0.888290	-0.434085	0.150038
530	1756629													8.793821	0.121776	4.516369	0.448181	-0.844490	0.293208	-0.001336	0.327361	0.944899	-0.893942	-0.423877	0.145589
531	1756796													8.853308	0.067461	4.392392	0.436878	-0.849634	0.295397	-0.002233	0.327368	0.944894	-0.899518	-0.413463	0.141122
532	1756962													8.943594	0.029612	4.256078	0.425453	-0.854655	0.297582	-0.003019	0.327485	0.944852	-0.904975	-0.402889	0.136749
533	1757129													9.013912	0.040656	4.186576	0.413960	-0.859519	0.299772	-0.003604	0.327763	0.944753	-0.910288	-0.392171	0.132583
534	1757296													9.027603	0.007561	4.094567	0.402282	-0.864279	0.301979	-0.004140	0.328125	0.944625	-0.915506	-0.381256	0.128421
535	1757462													8.993155	-0.000346	3.979314	0.390288	-0.868992	0.304184	-0.004697	0.328503	0.944491	-0.920681	-0.370052	0.124129
536	1757629													9.017289	0.048725	3.861849	0.377856	-0.873677	0.306453	-0.005176	0.328993	0.944318	-0.925850	-0.358403	0.119790
537	1757796													9.142154	0.033544	3.716222	0.365036	-0.878282	0.308818	-0.005559	0.329646	0.944088	-0.930977	-0.346343	0.115451
538	1757962													9.252067	-0.007536	3.602861	0.352135	-0.882722	0.311130	-0.005814	0.330352	0.943840	-0.935931	-0.334168	0.111196
539	1758129													9.204903	-0.033303	3.458041	0.339151	-0.887014	0.313341	-0.005891	0.331073	0.943587	-0.940714	-0.321864	0.107059
540	1758296													9.220206	0.037106	3.312021	0.325905	-0.891205	0.315498	-0.006066	0.331741	0.943351	-0.945383	-0.309357	0.102710
541	1758462													9.291691	0.075225	3.151220	0.312481	-0.895228	0.317683	-0.006346	0.332455	0.943098	-0.949903	-0.296716	0.098205
542	1758629													9.399682	0.087878	2.999719	0.298987	-0.899041	0.319894	-0.006771	0.333221	0.942825	-0.954233	-0.284059	0.093541
543	1758796													9.476574	0.119804	2.854636	0.285630	-0.902565	0.322167	-0.007337	0.334102	0.942508	-0.958312	-0.271572	0.088808
544	1758962													9.439317	0.081524	2.692581	0.272329	-0.905842	0.324478	-0.008010	0.335078	0.942156	-0.962171	-0.259176	0.083996
545	1759129													9.408780	0.033400	2.575261	0.258864	-0.908933	0.326850	-0.008853	0.336137	0.941771	-0.965873	-0.246684	0.078967
546	1759296													9.583864	0.041177	2.469299	0.245271	-0.911854	0.329188	-0.009900	0.337187	0.941386	-0.969404	-0.234153	0.073675
547	1759462													9.633365	0.002003	2.329241	0.231836	-0.914538	0.331470	-0.011011	0.338265	0.940987	-0.972692	-0.221805	0.068352
548	1759629													9.632899	-0.028634	2.193767	0.218497	-0.917012	0.333688	-0.012175	0.339362	0.940577	-0.975762	-0.209576	0.062985
549	1759796													9.647673	-0.056272	2.031645	0.205333	-0.919278	0.335807	-0.013346	0.340456	0.940166	-0.978601	-0.197529	0.057638
550	1759962													9.655882	-0.081425	1.863414	0.192184	-0.921408	0.337747	-0.014569	0.341446	0.939789	-0.981251	-0.185533	0.052197
551	1760129													9.695885	-0.144575	1.748095	0.179136	-0.923388	0.339508	-0.015856	0.342335	0.939444	-0.983696	-0.173672	0.046683
552	1760296													9.754634	-0.140930	1.614546	0.166390	-0.925206	0.341039	-0.017022	0.343113	0.939140	-0.985913	-0.162069	0.041342
553	1760462													9.693589	-0.178053	1.498751	0.153769	-0.926902	0.342357	-0.017986	0.343794	0.938873	-0.987943	-0.150528	0.036194
554	1760629													9.706801	-0.184865	1.392044	0.141075	-0.928510	0.343464	-0.018868	0.344349	0.938652	-0.989819	-0.138901	0.031060
555	1760796													9.778684	-0.200244	1.309448	0.128411	-0.930025	0.344331	-0.019710	0.344743	0.938490	-0.991525	-0.127299	0.025938
556	1760962													9.854056	-0.202781	1.190311	0.115946	-0.931424	0.344974	-0.020513	0.344997	0.938380	-0.993044	-0.115878	0.020895
557	1761129													9.746322	-0.173623	1.054127	0.103655	-0.932681	0.345488	-0.021238	0.345204	0.938287	-0.994387	-0.104596	0.015974
558	1761296													9.664568	-0.165225	0.889828	0.091234	-0.933815	0.345929	-0.021909	0.345411	0.938196	-0.995588	-0.093175	0.011054
559	1761462													9.690807	-0.161661	0.765257	0.078571	-0.934807	0.346355	-0.022457	0.345682	0.938083	-0.996656	-0.081484	0.006168
560	1761629													9.687177	-0.187326	0.654785	0.065775	-0.935649	0.346750	-0.022895	0.345996	0.937957	-0.997572	-0.069633	0.001336
561	1761796													9.699224	-0.217267	0.526785	0.052755	-0.936333	0.347126	-0.023192	0.346368	0.937812	-0.998338	-0.057525	-0.003442
562	1761963													9.812837	-0.197458	0.407991	0.039684	-0.936856	0.347456	-0.023292	0.346768	0.937662	-0.998941	-0.045303	-0.008060
563	1762129													9.833411	-0.172964	0.257299	0.026695	-0.937179	0.347826	-0.023240	0.347274	0.937476	-0.999373	-0.033109	-0.012509
564	1762296													9.693939	-0.222719	0.118358	0.013712	-0.937330	0.348173	-0.023127	0.347815	0.937278	-0.999638	-0.020904	-0.016908
565	1762463													9.618768	-0.191463	-0.056222	0.000375	-0.937338	0.348421	-0.023127	0.348320	0.937090	-0.999732	-0.008409	-0.021547
566	1762629													9.734538	-0.170710	-0.155230	-0.013137	-0.937160	0.348652	-0.023133	0.348873	0.936884	-0.999646	0.004243	-0.026263
567	1762796													9.865309	-0.166840	-0.271211	-0.026425	-0.936812	0.348835	-0.023092	0.349435	0.936676	-0.999384	0.016696	-0.030867
568	1762963													9.847173	-0.192719	-0.379344	-0.039383	-0.936299	0.348988	-0.022971	0.350015	0.936462	-0.998960	0.028864	-0.035292
569	1763129													9.704472	-0.209668	-0.533763	-0.052227	-0.935643	0.349062	-0.022823	0.350566	0.936260	-0.998374	0.040931	-0.039663
570	1763296													9.755150	-0.191017	-0.665597	-0.065096	-0.934844	0.349040	-0.022728	0.351080	0.936069	-0.997620	0.053002	-0.044101
571	1763463													9.770416	-0.199375	-0.773078	-0.077818	-0.933909	0.348939	-0.022712	0.351570	0.935886	-0.996709	0.064904	-0.048570
572	1763629													9.837111	-0.187747	-0.918483	-0.090254	-0.932853	0.348768	-0.022798	0.352041	0.935707	-0.995658	0.076500	-0.053040
573	1763796													9.713614	-0.196116	-1.009760	-0.102438	-0.931671	0.348561	-0.022994	0.352529	0.935518	-0.994474	0.087818	-0.057535
574	1763963													9.772109	-0.191429	-1.147193	-0.114439	-0.930384	0.348266	-0.023293	0.352985	0.935339	-0.993157	0.098927	-0.062067
575	1764129													9.821758	-0.180445	-1.264935	-0.126014	-0.929024	0.347901	-0.023681	0.353414	0.935167	-0.991746	0.109605	-0.066535
576	1764296													9.708086	-0.168615	-1.426343	-0.137188	-0.927582	0.347521	-0.024167	0.353868	0.934983	-0.990250	0.119870	-0.070963
577	1764463													9.633683	-0.185145	-1.549199	-0.148218	-0.926038	0.347108	-0.024774	0.354352	0.934784	-0.988644	0.129953	-0.075463
578	1764629													9.649865	-0.191801	-1.657278	-0.159099	-0.924403	0.346651	-0.025519	0.354857	0.934572	-0.986933	0.139844	-0.080048
579	1764796													9.664232	-0.163830	-1.720096	-0.169756	-0.922673	0.346204	-0.026293	0.355418	0.934338	-0.985135	0.149507	-0.084594
580	1764963													9.747667	-0.198079	-1.828294	-0.180026	-0.920871	0.345813	-0.027036	0.356057	0.934073	-0.983290	0.158808	-0.088996
581	1765129													9.693136	-0.243775	-1.912346	-0.189842	-0.919049	0.345410	-0.027889	0.356714	0.933797	-0.981418	0.167641	-0.093351
582	1765296													9.570168	-0.277776	-1.986298	-0.199398	-0.917198	0.344948	-0.028828	0.357355	0.933524	-0.979495	0.176198	-0.097697
583	1765463													9.603204	-0.302656	-2.026682	-0.208799	-0.915330	0.344347	-0.029875	0.357914	0.933277	-0.977502	0.184580	-0.102077
584	1765629													9.579222	-0.292261	-2.101188	-0.217946	-0.913443	0.343689	-0.030937	0.358444	0.933039	-0.975470	0.192719	-0.106380
585	1765796													9.520269	-0.284448	-2.190575	-0.226924	-0.911503	0.343027	-0.031917	0.358986	0.932797	-0.973389	0.200726	-0.110555
586	1765963													9.547975	-0.288820	-2.270051	-0.235725	-0.909512	0.342378	-0.032789	0.359549	0.932550	-0.971267	0.208599	-0.114576
587	1766129													9.488738	-0.287930	-2.337929	-0.244274	-0.907494	0.341738	-0.033508	0.360103	0.932311	-0.969127	0.216288	-0.118373
588	1766296													9.404602	-0.298616	-2.427080	-0.252747	-0.905413	0.341096	-0.034180	0.360678	0.932064	-0.966929	0.223917	-0.122108
589	1766463													9.342865	-0.333860	-2.527220	-0.261272	-0.903257	0.340388	-0.034784	0.361218	0.931832	-0.964638	0.231622	-0.125796
590	1766629													9.282569	-0.340792	-2.599027	-0.269919	-0.901005	0.339608	-0.035402	0.361746	0.931604	-0.962232	0.239435	-0.129539
591	1766796													9.250851	-0.333702	-2.640979	-0.278825	-0.898618	0.338736	-0.036051	0.362270	0.931376	-0.959665	0.247480	-0.133406
592	1766963													9.281592	-0.307392	-2.731921	-0.287881	-0.896132	0.337746	-0.036741	0.362751	0.931162	-0.956961	0.255655	-0.137354
593	1767129													9.235071	-0.294644	-2.832024	-0.297082	-0.893523	0.336690	-0.037434	0.363237	0.930945	-0.954118	0.263963	-0.141359
594	1767296													9.265042	-0.329457	-2.955903	-0.306394	-0.890815	0.335516	-0.038182	0.363686	0.930739	-0.951139	0.272362	-0.145444
595	1767463													9.254158	-0.351652	-3.041124	-0.315613	-0.888064	0.334262	-0.039032	0.364119	0.930534	-0.948085	0.280642	-0.149583
596	1767629													9.204962	-0.330677	-3.121464	-0.324800	-0.885250	0.332921	-0.039887	0.364514	0.930343	-0.944941	0.288897	-0.153704
597	1767796													9.168869	-0.338330	-3.220944	-0.333935	-0.882362	0.331548	-0.040713	0.364913	0.930151	-0.941716	0.297112	-0.157781
598	1767963													9.160470	-0.380371	-3.303818	-0.343003	-0.879429	0.330082	-0.041535	0.365255	0.929980	-0.938416	0.305276	-0.161810
599	1768129													9.140836	-0.409422	-3.395267	-0.351998	-0.876464	0.328494	-0.042431	0.365536	0.929830	-0.935038	0.313360	-0.165857
600	1768296													9.098858	-0.442355	-3.481752	-0.360869	-0.873493	0.326778	-0.043386	0.365733	0.929708	-0.931607	0.321326	-0.169879
601	1768463													9.071850	-0.461314	-3.592222	-0.369527	-0.870568	0.324901	-0.044393	0.365789	0.929638	-0.928159	0.329103	-0.173816
602	1768629													9.000416	-0.452091	-3.687243	-0.378071	-0.867643	0.322890	-0.045365	0.365721	0.929618	-0.924665	0.336813	-0.177629
603	1768796													8.951025	-0.442929	-3.788111	-0.386464	-0.864719	0.320789	-0.046252	0.365545	0.929644	-0.921144	0.344437	-0.181265
604	1768963													8.948674	-0.483770	-3.883931	-0.394730	-0.861781	0.318625	-0.047080	0.365301	0.929698	-0.917590	0.351979	-0.184768
605	1769129													8.937425	-0.460260	-3.919781	-0.402723	-0.858880	0.316447	-0.047839	0.365000	0.929778	-0.914071	0.359304	-0.188082
606	1769296													8.899220	-0.424967	-4.016656	-0.410462	-0.855991	0.314325	-0.048503	0.364708	0.929858	-0.910587	0.366426	-0.191217
607	1769463													8.862572	-0.421053	-4.104348	-0.418022	-0.853017	0.312440	-0.048865	0.364548	0.929902	-0.907122	0.373452	-0.194072
608	1769629													8.899954	-0.435184	-4.131029	-0.425361	-0.850029	0.310675	-0.049076	0.364437	0.929934	-0.903692	0.380311	-0.196733
609	1769796													8.885598	-0.443397	-4.248230	-0.432269	-0.847137	0.309035	-0.049216	0.364361	0.929956	-0.900401	0.386782	-0.199194
610	1769963													8.845305	-0.392947	-4.322600	-0.438745	-0.844335	0.307572	-0.049301	0.364377	0.929946	-0.897258	0.392845	-0.201496
611	1770129													8.774777	-0.373501	-4.392847	-0.444799	-0.841593	0.306389	-0.049253	0.364560	0.929876	-0.894275	0.398518	-0.203607
612	1770296													8.694317	-0.369857	-4.427247	-0.450556	-0.838859	0.305476	-0.049011	0.364901	0.929755	-0.891402	0.403935	-0.205522
613	1770463													8.714438	-0.423398	-4.487391	-0.456044	-0.836162	0.304725	-0.048690	0.365333	0.929603	-0.888624	0.409103	-0.207321
614	1770629													8.852571	-0.445099	-4.539479	-0.461045	-0.833641	0.304106	-0.048283	0.365761	0.929455	-0.886062	0.413837	-0.208883
615	1770796													8.843511	-0.480571	-4.579340	-0.465390	-0.831418	0.303571	-0.047867	0.366117	0.929337	-0.883810	0.417974	-0.210185
616	1770963													8.705376	-0.509759	-4.639481	-0.469192	-0.829486	0.303004	-0.047460	0.366304	0.929284	-0.881820	0.421632	-0.211234
617	1771129													8.516240	-0.515898	-4.625748	-0.472724	-0.827715	0.302357	-0.047049	0.366334	0.929293	-0.879953	0.425074	-0.212118
618	1771296													8.503911	-0.508163	-4.652770	-0.476246	-0.825972	0.301597	-0.046605	0.366221	0.929360	-0.878076	0.428548	-0.212905
619	1771463													8.593458	-0.508420	-4.651069	-0.479551	-0.824341	0.300820	-0.046086	0.365996	0.929475	-0.876303	0.431867	-0.213505
620	1771629													8.578604	-0.452152	-4.722836	-0.482537	-0.822854	0.300115	-0.045585	0.365775	0.929586	-0.874689	0.434879	-0.214010
621	1771796													8.500185	-0.419832	-4.751708	-0.485347	-0.821416	0.299523	-0.045020	0.365602	0.929682	-0.873162	0.437734	-0.214424
622	1771963													8.377983	-0.383201	-4.794075	-0.488128	-0.819932	0.299068	-0.044491	0.365595	0.929710	-0.871637	0.440512	-0.214937
623	1772129													8.359816	-0.359878	-4.827497	-0.491110	-0.818267	0.298749	-0.043961	0.365800	0.929655	-0.869988	0.443429	-0.215620
624	1772296													8.484733	-0.323302	-4.833628	-0.494085	-0.816507	0.298658	-0.043331	0.366216	0.929521	-0.868333	0.446321	-0.216322
625	1772463													8.550985	-0.330318	-4.825832	-0.496756	-0.814808	0.298866	-0.042564	0.366817	0.929319	-0.866846	0.448924	-0.216900
626	1772629													8.581776	-0.468404	-4.889745	-0.499021	-0.813308	0.299180	-0.041852	0.367454	0.929099	-0.865579	0.451119	-0.217406
627	1772796													8.491780	-0.589976	-4.890004	-0.500909	-0.812137	0.299204	-0.041599	0.367892	0.928937	-0.864500	0.452866	-0.218065
628	1772963													8.306432	-0.546075	-4.886089	-0.502638	-0.811236	0.298749	-0.041888	0.368024	0.928872	-0.863482	0.454372	-0.218964
629	1773129													8.301704	-0.430902	-4.878790	-0.504479	-0.810389	0.297945	-0.042354	0.367885	0.928906	-0.862384	0.455995	-0.219913
630	1773296													8.449868	-0.386109	-4.854737	-0.506191	-0.809662	0.297016	-0.042707	0.367508	0.929039	-0.861363	0.457587	-0.220608
631	1773463													8.440760	-0.346602	-4.871003	-0.507579	-0.809128	0.296102	-0.042823	0.366929	0.929263	-0.860540	0.458994	-0.220895
632	1773629													8.364503	-0.384516	-4.903813	-0.508715	-0.808742	0.295203	-0.042769	0.366203	0.929552	-0.859872	0.460252	-0.220882
633	1773796													8.333883	-0.401585	-4.937614	-0.509794	-0.808429	0.294200	-0.042798	0.365384	0.929873	-0.859232	0.461452	-0.220870
634	1773963													8.289107	-0.397316	-4.956043	-0.510849	-0.808192	0.293018	-0.043166	0.364534	0.930189	-0.858586	0.462538	-0.221108
635	1774129													8.302998	-0.342787	-4.952771	-0.511926	-0.807959	0.291777	-0.043721	0.363724	0.930480	-0.857916	0.463580	-0.221525
636	1774296													8.403787	-0.323895	-4.947599	-0.512894	-0.807764	0.290615	-0.044318	0.362998	0.930735	-0.857307	0.464489	-0.221978
637	1774463													8.472342	-0.309332	-4.937175	-0.513540	-0.807697	0.289659	-0.044852	0.362378	0.930951	-0.856893	0.465089	-0.222322
638	1774629													8.392563	-0.382687	-4.971251	-0.513832	-0.807782	0.288901	-0.045377	0.361877	0.931121	-0.856690	0.465330	-0.222599
639	1774796													8.265324	-0.458979	-4.986564	-0.514062	-0.807950	0.288023	-0.046231	0.361398	0.931265	-0.856506	0.465412	-0.223133
640	1774963													8.249479	-0.382521	-4.984135	-0.514334	-0.808160	0.286944	-0.047459	0.360904	0.931395	-0.856276	0.465430	-0.223980
641	1775129													8.315149	-0.370171	-4.976392	-0.514578	-0.808377	0.285895	-0.048693	0.360439	0.931511	-0.856060	0.465414	-0.224836
642	1775296													8.357866	-0.435752	-5.003942	-0.514665	-0.808685	0.284867	-0.049913	0.359944	0.931638	-0.855937	0.465263	-0.225614
643	1775463													8.248940	-0.553753	-5.032265	-0.514634	-0.809109	0.283716	-0.051171	0.359292	0.931821	-0.855882	0.465029	-0.226307
644	1775629													8.138646	-0.556627	-4.996397	-0.514771	-0.809528	0.282269	-0.052568	0.358427	0.932077	-0.855715	0.464968	-0.227063
645	1775796													8.240425	-0.548669	-4.961367	-0.515122	-0.809880	0.280612	-0.054006	0.357408	0.932386	-0.855414	0.465138	-0.227847
646	1775963													8.340110	-0.492998	-4.994923	-0.515421	-0.810275	0.278917	-0.055376	0.356294	0.932732	-0.855146	0.465304	-0.228511
647	1776129													8.375615	-0.475729	-4.990499	-0.515493	-0.810761	0.277370	-0.056526	0.355161	0.933094	-0.855028	0.465325	-0.228912
648	1776296													8.289192	-0.464357	-5.037233	-0.515391	-0.811292	0.276002	-0.057409	0.354036	0.933468	-0.855030	0.465256	-0.229043
649	1776463													8.221863	-0.489844	-5.029349	-0.515357	-0.811731	0.274775	-0.058135	0.353009	0.933812	-0.855002	0.465272	-0.229115
650	1776629													8.244733	-0.482642	-5.024661	-0.515387	-0.812068	0.273717	-0.058705	0.352112	0.934115	-0.854944	0.465362	-0.229147
651	1776796													8.276114	-0.499686	-5.029782	-0.515401	-0.812346	0.272866	-0.059119	0.351363	0.934371	-0.854908	0.465444	-0.229118
652	1776963													8.307078	-0.511246	-5.025209	-0.515283	-0.812628	0.272248	-0.059365	0.350749	0.934586	-0.854962	0.465414	-0.228977
653	1777129													8.290968	-0.560220	-5.014269	-0.515062	-0.812918	0.271802	-0.059471	0.350226	0.934775	-0.855087	0.465303	-0.228733
654	1777296													8.342121	-0.557171	-4.999134	-0.514717	-0.813243	0.271483	-0.059474	0.349755	0.934952	-0.855295	0.465089	-0.228391
655	1777463													8.324196	-0.588416	-5.020682	-0.514174	-0.813649	0.271295	-0.059385	0.349324	0.935118	-0.855628	0.464703	-0.227932
656	1777629													8.188617	-0.639059	-5.023454	-0.513593	-0.814090	0.271071	-0.059241	0.348811	0.935319	-0.855986	0.464315	-0.227374
657	1777796													8.149236	-0.599644	-5.011903	-0.513207	-0.814456	0.270702	-0.059003	0.348141	0.935584	-0.856234	0.464176	-0.226723
658	1777963													8.222905	-0.568862	-4.981685	-0.512931	-0.814753	0.270331	-0.058623	0.347425	0.935874	-0.856426	0.464191	-0.225968
659	1778129													8.316150	-0.542919	-5.004100	-0.512657	-0.815017	0.270055	-0.058056	0.346718	0.936171	-0.856629	0.464256	-0.225064
660	1778296													8.373093	-0.531664	-4.987785	-0.512227	-0.815332	0.269922	-0.057305	0.346028	0.936472	-0.856936	0.464219	-0.223967
661	1778463													8.422342	-0.494104	-4.971118	-0.511561	-0.815724	0.269998	-0.056501	0.345481	0.936723	-0.857387	0.463936	-0.222824
662	1778630													8.363363	-0.442495	-4.933046	-0.510667	-0.816173	0.270337	-0.055687	0.345164	0.936889	-0.857973	0.463384	-0.221714
663	1778796													8.276237	-0.413808	-4.897536	-0.509722	-0.816573	0.270911	-0.054903	0.345120	0.936951	-0.858585	0.462711	-0.220747
664	1778963													8.273082	-0.378758	-4.887231	-0.508851	-0.816838	0.271749	-0.054146	0.345417	0.936886	-0.859150	0.462021	-0.219994
665	1779130													8.344433	-0.392388	-4.885458	-0.508021	-0.816982	0.272864	-0.053363	0.346032	0.936704	-0.859690	0.461305	-0.219389
666	1779296													8.387842	-0.422360	-4.873071	-0.507092	-0.817099	0.274238	-0.052591	0.346922	0.936418	-0.860286	0.460428	-0.218894
667	1779463													8.349670	-0.498819	-4.889218	-0.506108	-0.817201	0.275748	-0.051932	0.348013	0.936050	-0.860905	0.459422	-0.218571
668	1779630													8.389403	-0.480063	-4.916049	-0.505151	-0.817271	0.277292	-0.051399	0.349219	0.935630	-0.861499	0.458382	-0.218415
669	1779796													8.449760	-0.477759	-4.885367	-0.504152	-0.817321	0.278958	-0.050823	0.350531	0.935171	-0.862118	0.457291	-0.218259
670	1779963													8.501456	-0.489018	-4.881391	-0.503015	-0.817394	0.280791	-0.050179	0.351957	0.934670	-0.862820	0.456063	-0.218056
671	1780130													8.432634	-0.519462	-4.835660	-0.501680	-0.817539	0.282751	-0.049490	0.353449	0.934144	-0.863637	0.454648	-0.217778
672	1780296													8.486475	-0.536258	-4.826253	-0.500208	-0.817730	0.284798	-0.048712	0.354955	0.933613	-0.864534	0.453128	-0.217385
673	1780463													8.533314	-0.473838	-4.808919	-0.498437	-0.818049	0.286979	-0.047874	0.356498	0.933069	-0.865603	0.451337	-0.216855
674	1780630													8.451547	-0.431428	-4.766234	-0.496400	-0.818416	0.289453	-0.046626	0.358090	0.932522	-0.866841	0.449407	-0.215915
675	1780796													8.464437	-0.479073	-4.769270	-0.494257	-0.818782	0.292072	-0.045057	0.359656	0.931996	-0.868147	0.447486	-0.214655
676	1780963													8.425721	-0.512284	-4.735511	-0.492000	-0.819218	0.294650	-0.043487	0.361149	0.931494	-0.869509	0.445481	-0.213310
677	1781130													8.411732	-0.506401	-4.721611	-0.489689	-0.819743	0.297029	-0.042090	0.362498	0.931034	-0.870881	0.443415	-0.212014
678	1781296													8.448103	-0.489799	-4.702456	-0.487396	-0.820351	0.299115	-0.040972	0.363667	0.930628	-0.872219	0.441329	-0.210861
679	1781463													8.485254	-0.428622	-4.701104	-0.484989	-0.821115	0.300925	-0.040089	0.364616	0.930295	-0.873601	0.439120	-0.209752
680	1781630													8.503279	-0.388406	-4.662157	-0.482513	-0.821980	0.302540	-0.039249	0.365353	0.930041	-0.875009	0.436882	-0.208549
681	1781796													8.584546	-0.427970	-4.653067	-0.479909	-0.822979	0.303961	-0.038543	0.365909	0.929852	-0.876471	0.434529	-0.207323
682	1781963													8.612075	-0.412456	-4.594472	-0.477055	-0.824212	0.305113	-0.038080	0.366222	0.929748	-0.878048	0.431922	-0.206094
683	1782130													8.492374	-0.427074	-4.562469	-0.474042	-0.825639	0.305949	-0.037881	0.366272	0.929736	-0.879687	0.429144	-0.204904
684	1782296													8.535863	-0.426920	-4.518578	-0.471103	-0.827128	0.306465	-0.037923	0.366106	0.929800	-0.881262	0.426410	-0.203841
685	1782463													8.565253	-0.383556	-4.503294	-0.468114	-0.828706	0.306783	-0.038062	0.365757	0.929932	-0.882848	0.423638	-0.202758
686	1782630													8.572330	-0.389493	-4.469859	-0.465143	-0.830310	0.306964	-0.038228	0.365277	0.930114	-0.884410	0.420902	-0.201647
687	1782796													8.574946	-0.388424	-4.431416	-0.462199	-0.831949	0.306975	-0.038493	0.364666	0.930343	-0.885941	0.418187	-0.200572
688	1782963													8.602121	-0.422292	-4.413229	-0.459282	-0.833596	0.306885	-0.038809	0.363979	0.930598	-0.887443	0.415497	-0.199520
689	1783130													8.612909	-0.428334	-4.381304	-0.456393	-0.835259	0.306672	-0.039192	0.363198	0.930887	-0.888915	0.412831	-0.198496
690	1783296													8.600800	-0.391996	-4.377952	-0.453562	-0.836887	0.306434	-0.039541	0.362392	0.931186	-0.890347	0.410234	-0.197459
691	1783463													8.586911	-0.372268	-4.361224	-0.450827	-0.838424	0.306269	-0.039753	0.361635	0.931472	-0.891726	0.407757	-0.196365
692	1783630													8.625247	-0.358207	-4.324678	-0.448236	-0.839838	0.306197	-0.039806	0.360947	0.931736	-0.893029	0.405449	-0.195220
693	1783796													8.712268	-0.312063	-4.292974	-0.445690	-0.841152	0.306306	-0.039604	0.360362	0.931971	-0.894311	0.403239	-0.193923
694	1783963													8.785185	-0.267901	-4.265892	-0.442981	-0.842444	0.306685	-0.039104	0.359910	0.932167	-0.895678	0.400940	-0.192376
695	1784130													8.831558	-0.284179	-4.249511	-0.440053	-0.843749	0.307311	-0.038338	0.359569	0.932330	-0.897153	0.398493	-0.190577
696	1784296													8.863495	-0.277211	-4.248195	-0.436780	-0.845127	0.308195	-0.037387	0.359362	0.932449	-0.898791	0.395752	-0.188559
697	1784463													8.804959	-0.277481	-4.242095	-0.433239	-0.846586	0.309185	-0.036382	0.359199	0.932551	-0.900545	0.392769	-0.186419
698	1784630													8.709114	-0.286963	-4.218610	-0.429588	-0.848113	0.310094	-0.035599	0.359033	0.932646	-0.902323	0.389615	-0.184428
699	1784796													8.707130	-0.280991	-4.184545	-0.425956	-0.849634	0.310939	-0.035115	0.358942	0.932699	-0.904062	0.386370	-0.182729
700	1784963													8.830580	-0.268800	-4.141900	-0.422275	-0.851193	0.311695	-0.034879	0.358859	0.932740	-0.905797	0.383001	-0.181226
701	1785130													8.916918	-0.250090	-4.089659	-0.418279	-0.852885	0.312459	-0.034791	0.358788	0.932771	-0.907652	0.379287	-0.179746
702	1785296													8.990707	-0.254043	-4.058711	-0.413877	-0.854736	0.313261	-0.034705	0.358681	0.932815	-0.909671	0.375199	-0.178113
703	1785463													9.100083	-0.280844	-4.015291	-0.408930	-0.856794	0.314135	-0.034519	0.358509	0.932888	-0.911913	0.370642	-0.176181
704	1785630													9.168481	-0.305891	-4.020320	-0.403228	-0.859164	0.315029	-0.034298	0.358204	0.933013	-0.914456	0.365413	-0.173906
705	1785796													9.023541	-0.346652	-4.010074	-0.396901	-0.861788	0.315896	-0.034043	0.357750	0.933197	-0.917230	0.359633	-0.171330
706	1785963													8.885260	-0.361628	-3.952649	-0.390347	-0.864564	0.316477	-0.034020	0.357057	0.933463	-0.920039	0.353608	-0.168789
707	1786130													8.928621	-0.354102	-3.859556	-0.383710	-0.867390	0.316863	-0.034173	0.356230	0.933773	-0.922821	0.347470	-0.166330
708	1786296													9.124275	-0.339411	-3.769313	-0.376769	-0.870312	0.317179	-0.034386	0.355317	0.934113	-0.925669	0.341038	-0.163799
709	1786463													9.234292	-0.355193	-3.699389	-0.369173	-0.873442	0.317506	-0.034603	0.354321	0.934483	-0.928716	0.334000	-0.161030
710	1786630													9.209202	-0.394133	-3.693015	-0.360936	-0.876793	0.317740	-0.034778	0.353125	0.934930	-0.931942	0.326399	-0.157949
711	1786796													9.118813	-0.423960	-3.623284	-0.352294	-0.880267	0.317834	-0.034923	0.351735	0.935448	-0.935238	0.318453	-0.154656
712	1786963													9.041721	-0.371157	-3.518770	-0.343429	-0.883793	0.317752	-0.034954	0.350123	0.936051	-0.938528	0.310361	-0.151135
713	1787130													9.099389	-0.377883	-3.431171	-0.334460	-0.887292	0.317567	-0.034702	0.348340	0.936726	-0.941771	0.302277	-0.147296
714	1787296													9.165591	-0.412519	-3.361748	-0.325285	-0.890788	0.317310	-0.034183	0.346417	0.937458	-0.944998	0.294094	-0.143134
715	1787463													9.073888	-0.392538	-3.236098	-0.316007	-0.894262	0.316916	-0.033525	0.344349	0.938243	-0.948164	0.285867	-0.138797
716	1787630													9.089692	-0.362128	-3.100249	-0.306921	-0.897599	0.316409	-0.032751	0.342219	0.939049	-0.951171	0.277852	-0.134431
717	1787796													9.224678	-0.308527	-2.982816	-0.297922	-0.900816	0.315869	-0.031886	0.340101	0.939848	-0.954057	0.269930	-0.130047
718	1787963													9.326899	-0.258995	-2.893419	-0.288875	-0.903915	0.315418	-0.030895	0.338094	0.940605	-0.956868	0.261972	-0.125593
719	1788130													9.288492	-0.198307	-2.780506	-0.279793	-0.906899	0.315041	-0.029922	0.336225	0.941306	-0.959594	0.253944	-0.121210
720	1788296													9.302930	-0.190236	-2.664688	-0.270838	-0.909687	0.314827	-0.029006	0.334614	0.941909	-0.962188	0.245972	-0.117012
721	1788463													9.391931	-0.139469	-2.570435	-0.261896	-0.912291	0.314859	-0.028149	0.333328	0.942391	-0.964686	0.237945	-0.112977
722	1788630													9.385978	-0.118528	-2.471940	-0.252948	-0.914747	0.315049	-0.027365	0.332273	0.942786	-0.967093	0.229855	-0.109080
723	1788796													9.347146	-0.134591	-2.389910	-0.244141	-0.917001	0.315444	-0.026605	0.331498	0.943081	-0.969375	0.221853	-0.105330
724	1788963													9.397560	-0.113107	-2.284280	-0.235594	-0.919028	0.316042	-0.025934	0.331025	0.943266	-0.971505	0.214032	-0.101821
725	1789130													9.468451	-0.096849	-2.156591	-0.227160	-0.920866	0.316866	-0.025357	0.330854	0.943341	-0.973527	0.206254	-0.098507
726	1789296													9.498037	-0.135261	-2.063846	-0.218811	-0.922535	0.317887	-0.024799	0.330934	0.943328	-0.975452	0.198527	-0.095290
727	1789463													9.589583	-0.157549	-1.967163	-0.210471	-0.924068	0.319062	-0.024270	0.331212	0.943244	-0.977299	0.190782	-0.092138
728	1789630													9.622238	-0.196153	-1.907466	-0.202040	-0.925500	0.320358	-0.023637	0.331617	0.943118	-0.979092	0.182975	-0.088876
729	1789796													9.548561	-0.229315	-1.838616	-0.193645	-0.926850	0.321638	-0.022946	0.332033	0.942989	-0.980803	0.175225	-0.085565
730	1789963													9.513093	-0.242458	-1.768232	-0.185523	-0.928104	0.322806	-0.022413	0.332421	0.942865	-0.982384	0.167688	-0.082473
731	1790130													9.523680	-0.187497	-1.610715	-0.177654	-0.929250	0.323936	-0.022071	0.332851	0.942721	-0.983846	0.160329	-0.079641
732	1790296													9.632624	-0.121255	-1.518497	-0.169943	-0.930274	0.325132	-0.021792	0.333398	0.942534	-0.985213	0.153092	-0.076931
733	1790463													9.754974	-0.096000	-1.469794	-0.162084	-0.931196	0.326502	-0.021480	0.334129	0.942283	-0.986543	0.145715	-0.074159
734	1790630													9.779927	-0.125704	-1.395766	-0.153905	-0.932044	0.328037	-0.021054	0.335010	0.941979	-0.987861	0.138069	-0.071183
735	1790796													9.862273	-0.184976	-1.280309	-0.145355	-0.932812	0.329749	-0.020458	0.336051	0.941622	-0.989168	0.130124	-0.067930
736	1790963													9.939699	-0.306703	-1.182750	-0.136262	-0.933579	0.331456	-0.019692	0.337063	0.941276	-0.990477	0.121733	-0.064313
737	1791130													9.775013	-0.346970	-1.162042	-0.126940	-0.934370	0.332925	-0.018885	0.337856	0.941008	-0.991731	0.113164	-0.060533
738	1791296													9.590550	-0.365974	-1.058587	-0.117901	-0.935149	0.334060	-0.018100	0.338374	0.940838	-0.992860	0.104879	-0.056820
739	1791463													9.555017	-0.341442	-0.942876	-0.109394	-0.935899	0.334853	-0.017443	0.338631	0.940758	-0.993845	0.097072	-0.053369
740	1791630													9.695788	-0.293605	-0.800578	-0.101234	-0.936637	0.335354	-0.016933	0.338659	0.940757	-0.994719	0.089558	-0.050144
741	1791796													9.781029	-0.238203	-0.715591	-0.093074	-0.937389	0.335618	-0.016535	0.338490	0.940825	-0.995522	0.082017	-0.047005
742	1791963													9.859344	-0.188103	-0.703221	-0.084730	-0.938135	0.335742	-0.016190	0.338205	0.940933	-0.996272	0.074290	-0.043844
743	1792130													9.927835	-0.210788	-0.645903	-0.076082	-0.938875	0.335745	-0.015827	0.337816	0.941079	-0.996976	0.066285	-0.040561
744	1792296													9.800826	-0.210139	-0.596472	-0.067192	-0.939614	0.335576	-0.015570	0.337282	0.941275	-0.997619	0.058021	-0.037292
745	1792463													9.670032	-0.219163	-0.518347	-0.058397	-0.940324	0.335232	-0.015491	0.336618	0.941514	-0.998173	0.049789	-0.034224
746	1792630													9.650328	-0.196856	-0.447381	-0.049904	-0.941005	0.334692	-0.015583	0.335803	0.941803	-0.998632	0.041785	-0.031422
747	1792796													9.720106	-0.178595	-0.339028	-0.041626	-0.941639	0.334041	-0.015800	0.334910	0.942118	-0.999008	0.033938	-0.028819
748	1792963													9.850759	-0.159778	-0.300632	-0.033432	-0.942224	0.333310	-0.016092	0.333960	0.942450	-0.999311	0.026144	-0.026327
749	1793130													9.993111	-0.155589	-0.277399	-0.024895	-0.942759	0.332546	-0.016281	0.332987	0.942791	-0.999557	0.018056	-0.023639
750	1793296													10.018295	-0.148947	-0.271611	-0.015808	-0.943224	0.331782	-0.016315	0.332022	0.943130	-0.999742	0.009496	-0.020637
751	1793463													9.970254	-0.180027	-0.224111	-0.006222	-0.943622	0.330967	-0.016272	0.331025	0.943482	-0.999848	0.000485	-0.017414
752	1793630													9.857217	-0.174728	-0.159131	0.003697	-0.943946	0.330080	-0.016319	0.329982	0.943846	-0.999860	-0.008876	-0.014185
753	1793796													9.847574	-0.157685	-0.093763	0.013757	-0.944187	0.329121	-0.016470	0.328894	0.944223	-0.999770	-0.018410	-0.011027
754	1793963													9.798415	-0.118128	-0.008975	0.024038	-0.944327	0.328129	-0.016776	0.327796	0.944599	-0.999570	-0.028211	-0.007962
755	1794130													9.763211	-0.097827	0.044206	0.034297	-0.944333	0.327200	-0.017202	0.326786	0.944942	-0.999264	-0.038037	-0.005037
756	1794296													9.884542	-0.084416	0.144231	0.044688	-0.944192	0.326351	-0.017671	0.325879	0.945246	-0.998845	-0.048008	-0.002122
757	1794463													9.883012	-0.097900	0.223949	0.055387	-0.943893	0.325575	-0.018094	0.325073	0.945516	-0.998301	-0.058260	0.000926
758	1794630													9.862881	-0.130114	0.353761	0.066266	-0.943433	0.324874	-0.018503	0.324372	0.945749	-0.997630	-0.068682	0.004038
759	1794796													9.881186	-0.099956	0.464552	0.077423	-0.942808	0.324221	-0.018819	0.323757	0.945953	-0.996821	-0.079340	0.007323
760	1794963													9.856773	-0.121603	0.603601	0.088852	-0.942008	0.323614	-0.019024	0.323235	0.946128	-0.995863	-0.090222	0.010799
761	1795130													9.867542	-0.170030	0.735902	0.100518	-0.941042	0.323011	-0.019191	0.322761	0.946286	-0.994750	-0.101318	0.014384
762	1795297													9.756437	-0.169162	0.853626	0.112386	-0.939911	0.322393	-0.019338	0.322318	0.946434	-0.993476	-0.112601	0.018048
763	1795463													9.677794	-0.137850	0.983848	0.124061	-0.938641	0.321811	-0.019551	0.321941	0.946558	-0.992082	-0.123723	0.021589
764	1795630													9.699271	-0.125090	1.147853	0.135519	-0.937229	0.321305	-0.019714	0.321682	0.946643	-0.990579	-0.134623	0.025117
765	1795797													9.699697	-0.101576	1.296274	0.146827	-0.935660	0.320909	-0.019794	0.321581	0.946675	-0.988964	-0.145349	0.028696
766	1795963													9.731960	-0.092729	1.399115	0.158027	-0.933901	0.320711	-0.019831	0.321725	0.946625	-0.987236	-0.155952	0.032320
767	1796130													9.738910	-0.116009	1.504783	0.169199	-0.931963	0.320650	-0.019766	0.322067	0.946511	-0.985384	-0.166486	0.036072
768	1796297													9.752732	-0.122488	1.691451	0.180373	-0.929848	0.320700	-0.019627	0.322581	0.946338	-0.983402	-0.176988	0.039935
769	1796463													9.713651	-0.103183	1.802653	0.191592	-0.927551	0.320844	-0.019416	0.323254	0.946113	-0.981283	-0.187497	0.043924
770	1796630													9.621846	-0.085392	1.953298	0.202695	-0.925087	0.321138	-0.019093	0.324150	0.945813	-0.979056	-0.197843	0.048041
771	1796797													9.460938	-0.091562	2.090307	0.213465	-0.922520	0.321542	-0.018779	0.325193	0.945461	-0.976770	-0.207861	0.052093
772	1796963													9.392157	-0.108303	2.230820	0.223578	-0.919941	0.322057	-0.018558	0.326344	0.945069	-0.974509	-0.217273	0.055891
773	1797130													9.469478	-0.100343	2.340817	0.233110	-0.917358	0.322668	-0.018455	0.327576	0.944645	-0.972275	-0.226161	0.059431
774	1797297													9.487453	-0.094440	2.461915	0.242278	-0.914730	0.323374	-0.018424	0.328906	0.944183	-0.970032	-0.234712	0.062833
775	1797463													9.543648	-0.116835	2.574029	0.251171	-0.912058	0.324135	-0.018469	0.330293	0.943698	-0.967767	-0.243016	0.066115
776	1797630													9.464202	-0.141389	2.646248	0.259866	-0.909351	0.324886	-0.018613	0.331665	0.943213	-0.965465	-0.251156	0.069263
777	1797797													9.387326	-0.151045	2.758810	0.268146	-0.906684	0.325610	-0.018923	0.332966	0.942749	-0.963192	-0.258956	0.072126
778	1797963													9.442761	-0.141765	2.880643	0.276134	-0.904039	0.326287	-0.019341	0.334191	0.942307	-0.960925	-0.266513	0.074796
779	1798130													9.442195	-0.139368	2.975517	0.284011	-0.901374	0.326900	-0.019764	0.335363	0.941882	-0.958617	-0.273966	0.077432
780	1798297													9.405868	-0.177280	3.019248	0.291728	-0.898708	0.327441	-0.020107	0.336495	0.941471	-0.956290	-0.281237	0.080095
781	1798463													9.435658	-0.203404	3.067733	0.299388	-0.896028	0.327873	-0.020345	0.337562	0.941083	-0.953915	-0.288419	0.082833
782	1798630													9.463345	-0.246228	3.161485	0.307154	-0.893319	0.328082	-0.020429	0.338478	0.940752	-0.951440	-0.295658	0.085715
783	1798797													9.484365	-0.312557	3.236651	0.315110	-0.890594	0.327947	-0.020403	0.339114	0.940524	-0.948836	-0.303059	0.088687
784	1798963													9.299671	-0.307415	3.282357	0.323129	-0.887905	0.327433	-0.020365	0.339390	0.940425	-0.946136	-0.310547	0.091585
785	1799130													9.273971	-0.281259	3.366719	0.330924	-0.885349	0.326569	-0.020295	0.339309	0.940456	-0.943439	-0.317847	0.094317
786	1799297													9.239516	-0.237085	3.472828	0.338548	-0.882868	0.325467	-0.020130	0.339018	0.940565	-0.940734	-0.324978	0.097001
787	1799463													9.267971	-0.227072	3.539889	0.346012	-0.880463	0.324131	-0.019865	0.338519	0.940750	-0.938020	-0.331950	0.099641
788	1799630													9.208966	-0.214135	3.599497	0.353455	-0.878060	0.322615	-0.019498	0.337887	0.940985	-0.935248	-0.338886	0.102307
789	1799797													9.187467	-0.197996	3.645958	0.360698	-0.875709	0.320986	-0.019056	0.337162	0.941254	-0.932488	-0.345625	0.104926
790	1799963													9.171393	-0.209113	3.685839	0.367802	-0.873377	0.319271	-0.018556	0.336376	0.941545	-0.929719	-0.352227	0.107513
791	1800130													9.183926	-0.200371	3.740456	0.374860	-0.871048	0.317420	-0.018012	0.335479	0.941876	-0.926907	-0.358789	0.110068
792	1800297													9.228378	-0.180584	3.796658	0.381978	-0.868641	0.315524	-0.017465	0.334566	0.942210	-0.924006	-0.365415	0.112626
793	1800463													9.179360	-0.144475	3.870138	0.389223	-0.866116	0.313604	-0.016935	0.333665	0.942540	-0.920988	-0.372169	0.115203
794	1800630													9.210110	-0.163226	3.905609	0.396661	-0.863429	0.311689	-0.016392	0.332826	0.942846	-0.917819	-0.379100	0.117866
795	1800797													9.164727	-0.127485	3.931498	0.404390	-0.860529	0.309771	-0.015813	0.332071	0.943122	-0.914450	-0.386288	0.120679
796	1800963													9.062811	-0.123363	3.958562	0.412305	-0.857439	0.307900	-0.015101	0.331485	0.943340	-0.910921	-0.393593	0.123725
797	1801130													9.048139	-0.103285	4.019184	0.420289	-0.854184	0.306148	-0.014301	0.331116	0.943482	-0.907278	-0.400913	0.126949
798	1801297													9.065536	-0.089895	4.083205	0.428445	-0.850720	0.304484	-0.013366	0.330975	0.943545	-0.903469	-0.408327	0.130434
799	1801463													8.957236	-0.087344	4.142773	0.436675	-0.847088	0.302914	-0.012339	0.331043	0.943535	-0.899535	-0.415756	0.134106
800	1801630													8.938816	-0.101645	4.216974	0.444797	-0.843385	0.301426	-0.011279	0.331250	0.943476	-0.895560	-0.423055	0.137827
801	1801797													8.902095	-0.089631	4.307677	0.452838	-0.839624	0.299948	-0.010196	0.331520	0.943393	-0.891535	-0.430262	0.141564
802	1801963													8.823245	0.090857	4.719139	0.476852	-0.827543	0.296286	-0.006638	0.333678	0.942664	-0.878959	-0.451478	0.153622
803	1802130													8.677292	0.117037	4.784588	0.484632	-0.823298	0.295487	-0.005578	0.334892	0.942240	-0.874700	-0.458288	0.157707
804	1802297													8.629061	0.054138	4.886041	0.492061	-0.819087	0.294912	-0.004789	0.336209	0.941775	-0.870548	-0.464823	0.161513
805	1802463													8.681411	-0.017425	5.013921	0.499271	-0.814911	0.294360	-0.004339	0.337378	0.941359	-0.866435	-0.471271	0.164907
806	1802630													8.646523	-0.034286	5.124881	0.506362	-0.810778	0.293662	-0.004084	0.338290	0.941033	-0.862311	-0.477702	0.167986
807	1802797													8.518656	-0.032191	5.184874	0.513239	-0.806721	0.292894	-0.003994	0.339022	0.940770	-0.858236	-0.484010	0.170778
808	1802963													8.464533	-0.018316	5.223315	0.519794	-0.802815	0.292067	-0.003874	0.339663	0.940539	-0.854283	-0.490018	0.173444
809	1803130													8.485877	-0.022606	5.299777	0.526138	-0.798997	0.291173	-0.003615	0.340291	0.940313	-0.850391	-0.495787	0.176152
810	1803297													8.378522	-0.028700	5.422322	0.538249	-0.791637	0.289135	-0.002916	0.341319	0.939943	-0.842781	-0.506766	0.181406
811	1803463													8.431012	-0.066831	5.511584	0.544108	-0.788081	0.287880	-0.002530	0.341574	0.939852	-0.839011	-0.512109	0.183859
812	1803630													8.392900	-0.045058	5.549121	0.549991	-0.784544	0.286359	-0.002062	0.341598	0.939844	-0.835168	-0.517496	0.186258
813	1803797													8.216074	0.083568	5.624050	0.555659	-0.781109	0.284803	-0.001566	0.341570	0.939855	-0.831409	-0.522685	0.188574
814	1803963													8.154704	0.153030	5.692201	0.560904	-0.777874	0.283368	-0.001100	0.341581	0.939852	-0.827880	-0.527479	0.190739
815	1804130													8.094380	0.195406	5.674670	0.565783	-0.774763	0.282192	-0.000769	0.341740	0.939794	-0.824554	-0.531937	0.192755
816	1804297													8.111497	0.187570	5.648123	0.570385	-0.771756	0.281165	-0.000629	0.341899	0.939736	-0.821377	-0.536188	0.194528
817	1804463													8.193777	0.152342	5.634799	0.574983	-0.768688	0.280204	-0.000817	0.341939	0.939722	-0.818165	-0.540552	0.195981
818	1804630													8.257728	0.110484	5.667202	0.579885	-0.765386	0.279138	-0.001341	0.341730	0.939797	-0.814698	-0.545348	0.197137
819	1804797													8.381224	-0.058950	5.764863	0.585302	-0.761775	0.277704	-0.002098	0.341075	0.940034	-0.810812	-0.550786	0.198034
820	1804963													8.147766	-0.093836	5.821836	0.591236	-0.757883	0.275779	-0.002863	0.339972	0.940431	-0.806494	-0.556806	0.198834
821	1805130													7.971634	-0.095223	5.908639	0.597192	-0.754024	0.273513	-0.003372	0.338634	0.940912	-0.802091	-0.562827	0.199687
822	1805297													7.897909	-0.081335	5.950699	0.603028	-0.750252	0.271071	-0.003544	0.337284	0.941396	-0.797713	-0.568649	0.200732
823	1805463													7.915720	-0.032049	6.013371	0.608738	-0.746535	0.268557	-0.003437	0.336016	0.941850	-0.793364	-0.574263	0.201980
824	1805630													7.931563	-0.036545	6.078208	0.614522	-0.742705	0.265992	-0.003037	0.334939	0.942235	-0.788894	-0.579832	0.203572
825	1805797													7.926152	-0.030041	6.115816	0.620439	-0.738707	0.263377	-0.002385	0.334051	0.942552	-0.784251	-0.585424	0.205496
826	1805963													7.964278	-0.040968	6.148215	0.626578	-0.734473	0.260670	-0.001523	0.333312	0.942815	-0.779357	-0.591145	0.207727
827	1806130													7.939689	-0.029051	6.251246	0.633049	-0.729895	0.257881	-0.000501	0.332745	0.943017	-0.774112	-0.597105	0.210278
828	1806297													7.908056	-0.015810	6.361722	0.639720	-0.725070	0.255015	0.000645	0.332294	0.943176	-0.768608	-0.603204	0.213043
829	1806463													7.648919	-0.001235	6.482777	0.646376	-0.720164	0.252116	0.001854	0.331900	0.943313	-0.763017	-0.609267	0.215868
830	1806630													7.491494	0.073095	6.563358	0.652654	-0.715461	0.249314	0.003104	0.331581	0.943421	-0.757649	-0.614954	0.218629
831	1806797													7.455700	0.130301	6.602735	0.658485	-0.711002	0.246726	0.004351	0.331426	0.943471	-0.752582	-0.620188	0.221332
832	1806963													7.498749	0.125754	6.644726	0.664071	-0.706619	0.244333	0.005546	0.331440	0.943460	-0.747649	-0.625169	0.224019
833	1807130													7.518458	0.117554	6.648014	0.669623	-0.702170	0.241996	0.006690	0.331521	0.943424	-0.742671	-0.630120	0.226691
834	1807297													7.542276	0.082785	6.675092	0.675266	-0.697576	0.239589	0.007772	0.331545	0.943407	-0.737533	-0.635189	0.229303
835	1807463													7.531005	0.065059	6.783003	0.681072	-0.692780	0.237058	0.008826	0.331497	0.943415	-0.732163	-0.640441	0.231888
836	1807630													7.379059	0.063682	6.855068	0.686949	-0.687890	0.234326	0.009894	0.331273	0.943483	-0.726639	-0.645806	0.234374
837	1807797													7.140343	0.166684	6.985659	0.692482	-0.683234	0.231647	0.010980	0.331037	0.943554	-0.721352	-0.650850	0.236739
838	1807963													7.176739	0.247596	7.110972	0.697577	-0.678858	0.229212	0.011965	0.330892	0.943593	-0.716410	-0.655486	0.238946
839	1808130													7.076249	0.274613	7.204158	0.702271	-0.674719	0.227091	0.012823	0.330925	0.943570	-0.711794	-0.659730	0.241051
840	1808297													7.063895	0.247021	7.237469	0.706489	-0.670910	0.225286	0.013534	0.331074	0.943508	-0.707595	-0.663528	0.242980
841	1808463													7.015821	0.243005	7.265327	0.710379	-0.667329	0.223684	0.014125	0.331267	0.943431	-0.703678	-0.667034	0.244751
842	1808630													7.075317	0.175014	7.295087	0.714097	-0.663871	0.222127	0.014678	0.331433	0.943365	-0.699893	-0.670393	0.246420
843	1808797													7.026591	0.122743	7.308570	0.717769	-0.660448	0.220489	0.015273	0.331524	0.943323	-0.696114	-0.673721	0.248045
844	1808963													6.939981	0.131581	7.399966	0.721326	-0.657147	0.218736	0.015897	0.331447	0.943340	-0.692413	-0.676979	0.249529
845	1809130													6.909647	0.175650	7.423348	0.724717	-0.654023	0.216887	0.016619	0.331263	0.943392	-0.688846	-0.680088	0.250941
846	1809297													6.782652	0.280335	7.489263	0.727847	-0.651140	0.215072	0.017406	0.331076	0.943444	-0.685519	-0.682939	0.252306
847	1809463													6.735682	0.319750	7.533504	0.730598	-0.648552	0.213557	0.018118	0.331066	0.943434	-0.682568	-0.685401	0.253627
848	1809630													6.753901	0.277099	7.503442	0.733052	-0.646204	0.212259	0.018717	0.331114	0.943405	-0.679915	-0.687593	0.254819
849	1809797													6.735281	0.310491	7.497611	0.735311	-0.644016	0.211092	0.019155	0.331094	0.943403	-0.677459	-0.689652	0.255793
850	1809963													6.753767	0.288221	7.449043	0.737436	-0.641916	0.210074	0.019400	0.331032	0.943420	-0.675138	-0.691637	0.256568
851	1810130													6.774601	0.302406	7.462058	0.739504	-0.639841	0.209135	0.019536	0.330949	0.943447	-0.672869	-0.693596	0.257238
852	1810297													6.834294	0.205353	7.507093	0.741622	-0.637676	0.208246	0.019628	0.330931	0.943451	-0.670531	-0.695596	0.257942
853	1810463													6.740760	0.199338	7.523207	0.743781	-0.635484	0.207242	0.019730	0.330784	0.943500	-0.668132	-0.697668	0.258569
854	1810630													6.696825	0.250898	7.547750	0.745851	-0.633362	0.206300	0.019852	0.330705	0.943525	-0.665817	-0.699634	0.259230
855	1810797													6.707036	0.204125	7.562791	0.747788	-0.631339	0.205485	0.019997	0.330771	0.943499	-0.663637	-0.701428	0.259972
856	1810963													6.683239	0.166795	7.574852	0.749542	-0.629509	0.204707	0.020201	0.330854	0.943466	-0.661649	-0.703032	0.260706
857	1811130													6.694378	0.211959	7.610872	0.751189	-0.627793	0.203939	0.020474	0.330969	0.943420	-0.659770	-0.704511	0.261473
858	1811297													6.685941	0.226119	7.607592	0.752689	-0.626207	0.203283	0.020796	0.331223	0.943323	-0.658048	-0.705802	0.262330
859	1811463													6.690261	0.217311	7.651338	0.754066	-0.624745	0.202678	0.021174	0.331548	0.943201	-0.656457	-0.706944	0.263238
860	1811630													6.651731	0.238765	7.674490	0.755266	-0.623468	0.202142	0.021538	0.331859	0.943083	-0.655064	-0.707925	0.264070
861	1811797													6.673061	0.307378	7.641421	0.756375	-0.622268	0.201690	0.021869	0.332212	0.942951	-0.653773	-0.708814	0.264885
862	1811964													6.655050	0.330331	7.645545	0.757357	-0.621165	0.201407	0.022077	0.332613	0.942805	-0.652628	-0.709593	0.265620
863	1812130													6.634038	0.368559	7.650509	0.758201	-0.620187	0.201243	0.022123	0.332937	0.942689	-0.651645	-0.710296	0.266154
864	1812297													6.647983	0.349041	7.705640	0.758891	-0.619350	0.201219	0.022038	0.333238	0.942585	-0.650844	-0.710885	0.266541
865	1812464													6.644771	0.307366	7.735560	0.759443	-0.618654	0.201281	0.021888	0.333511	0.942492	-0.650206	-0.711363	0.266824
866	1812630													6.587442	0.185839	7.720773	0.759840	-0.618175	0.201253	0.021756	0.333573	0.942473	-0.649746	-0.711750	0.266911
867	1812797													6.600554	0.258398	7.725879	0.759997	-0.618026	0.201116	0.021636	0.333332	0.942561	-0.649566	-0.711993	0.266703
