// Start Time: Unknown
// Update Rate: 60.0Hz
//Filter Profile: human (46.1)
// Option Flags: AHS Disabled ICC Disabled
// Firmware Version: 4.0.2
0	sampleTimeFine	Year	Month	Day	Second	UTC_Nano	UTC_Year	UTC_Month	UTC_Day	UTC_Hour	UTC_Minute	UTC_Second	UTC_Valid	Acc_X	Acc_Y	Acc_Z	Mat[1][1]	Mat[2][1]	Mat[3][1]	Mat[1][2]	Mat[2][2]	Mat[3][2]	Mat[1][3]	Mat[2][3]	Mat[3][3]
0	1042416													0.000000	0.000000	0.000000	-0.096695	-0.876308	0.471947	-0.044073	0.477474	0.877540	-0.994338	0.064053	-0.084791
1	1042582													9.739916	-0.390337	-0.948596	-0.096568	-0.875669	0.473159	-0.043861	0.478663	0.876903	-0.994360	0.063927	-0.084631
2	1042749													9.720866	-0.427667	-0.932941	-0.096427	-0.875921	0.472719	-0.043092	0.478161	0.877214	-0.994407	0.064217	-0.083853
3	1042916													9.715961	-0.445991	-0.956553	-0.096124	-0.875446	0.473660	-0.042937	0.479067	0.876727	-0.994443	0.063937	-0.083639
4	1043082													9.726230	-0.492176	-0.952174	-0.096042	-0.875062	0.474386	-0.043242	0.479807	0.876308	-0.994438	0.063649	-0.083921
5	1043249													9.728296	-0.494841	-0.952855	-0.096003	-0.875057	0.474403	-0.044038	0.479872	0.876233	-0.994406	0.063229	-0.084605
6	1043416													9.724352	-0.482774	-0.932268	-0.096017	-0.875113	0.474297	-0.044872	0.479820	0.876219	-0.994368	0.062850	-0.085339
7	1043582													9.733582	-0.478482	-0.964314	-0.095938	-0.875107	0.474324	-0.045537	0.479881	0.876151	-0.994345	0.062457	-0.085889
8	1043749													9.739635	-0.486836	-0.957516	-0.095968	-0.875147	0.474245	-0.046184	0.479845	0.876137	-0.994312	0.062179	-0.086467
9	1043916													9.716839	-0.458461	-0.947728	-0.096062	-0.875117	0.474281	-0.046751	0.479926	0.876063	-0.994277	0.061983	-0.087015
10	1044082													9.761472	-0.426204	-0.962593	-0.096243	-0.875304	0.473898	-0.047124	0.479582	0.876231	-0.994242	0.062000	-0.087404
11	1044249													9.721966	-0.416342	-0.943411	-0.096428	-0.875207	0.474040	-0.047359	0.479754	0.876124	-0.994213	0.062032	-0.087711
12	1044416													9.748741	-0.441118	-0.982617	-0.096658	-0.875162	0.474077	-0.047519	0.479822	0.876078	-0.994183	0.062153	-0.087965
13	1044582													9.758304	-0.430010	-0.964396	-0.096837	-0.875091	0.474171	-0.047635	0.479939	0.876008	-0.994160	0.062243	-0.088161
14	1044749													9.746663	-0.425687	-0.958306	-0.096967	-0.875005	0.474303	-0.047733	0.480089	0.875920	-0.994142	0.062295	-0.088320
15	1044916													9.723992	-0.423934	-0.972904	-0.097063	-0.874935	0.474412	-0.047814	0.480212	0.875848	-0.994129	0.062329	-0.088445
16	1045082													9.726186	-0.438068	-0.981959	-0.097142	-0.874842	0.474569	-0.047881	0.480380	0.875753	-0.994118	0.062350	-0.088553
17	1045249													9.738835	-0.466924	-0.970922	-0.097225	-0.874701	0.474810	-0.047931	0.480632	0.875612	-0.994108	0.062373	-0.088654
18	1045416													9.741689	-0.493023	-0.961081	-0.097263	-0.874739	0.474732	-0.047974	0.480560	0.875649	-0.994102	0.062393	-0.088706
19	1045582													9.727745	-0.481547	-0.973326	-0.097278	-0.874650	0.474894	-0.048033	0.480726	0.875554	-0.994097	0.062362	-0.088776
20	1045749													9.702014	-0.439376	-0.983779	-0.097333	-0.874628	0.474924	-0.048000	0.480760	0.875538	-0.994094	0.062422	-0.088776
21	1045916													9.727716	-0.424324	-0.949969	-0.097464	-0.874605	0.474939	-0.047869	0.480778	0.875534	-0.994087	0.062598	-0.088725
22	1046082													9.769830	-0.432968	-0.956821	-0.097519	-0.874546	0.475037	-0.047676	0.480869	0.875495	-0.994091	0.062730	-0.088588
23	1046249													9.758178	-0.402650	-0.948327	-0.097550	-0.874341	0.475407	-0.047477	0.481230	0.875308	-0.994098	0.062815	-0.088455
24	1046416													9.752869	-0.418415	-0.946363	-0.097489	-0.874206	0.475667	-0.047267	0.481472	0.875186	-0.994114	0.062837	-0.088259
25	1046582													9.752234	-0.424197	-0.969374	-0.097360	-0.874081	0.475924	-0.047061	0.481704	0.875069	-0.994136	0.062799	-0.088034
26	1046749													9.740497	-0.445060	-0.975691	-0.097173	-0.873820	0.476441	-0.046886	0.482194	0.874809	-0.994163	0.062669	-0.087826
27	1046916													9.754412	-0.440944	-0.940354	-0.096960	-0.873676	0.476749	-0.046773	0.482477	0.874659	-0.994189	0.062508	-0.087645
28	1047082													9.786872	-0.433816	-0.948054	-0.096650	-0.873571	0.477003	-0.046749	0.482702	0.874536	-0.994220	0.062225	-0.087492
29	1047249													9.728741	-0.419341	-0.930975	-0.096318	-0.873608	0.477003	-0.046752	0.482673	0.874552	-0.994252	0.061934	-0.087333
30	1047416													9.720613	-0.401258	-0.922630	-0.096038	-0.873622	0.477034	-0.046796	0.482682	0.874545	-0.994277	0.061667	-0.087238
31	1047582													9.693704	-0.407220	-0.909752	-0.095842	-0.873588	0.477135	-0.046911	0.482773	0.874488	-0.994290	0.061430	-0.087251
32	1047749													9.739557	-0.437187	-0.915575	-0.095770	-0.873680	0.476982	-0.047097	0.482625	0.874560	-0.994289	0.061292	-0.087369
33	1047916													9.733016	-0.421528	-0.913328	-0.095711	-0.873766	0.476836	-0.047271	0.482485	0.874628	-0.994286	0.061171	-0.087483
34	1048082													9.700624	-0.441295	-0.898177	-0.095755	-0.873888	0.476603	-0.047438	0.482265	0.874740	-0.994274	0.061152	-0.087635
35	1048249													9.754873	-0.445584	-0.943474	-0.095874	-0.873937	0.476490	-0.047604	0.482173	0.874782	-0.994255	0.061186	-0.087830
36	1048416													9.715849	-0.406409	-0.918781	-0.096024	-0.874077	0.476203	-0.047726	0.481907	0.874922	-0.994234	0.061286	-0.087991
37	1048582													9.743203	-0.352216	-0.929525	-0.096246	-0.874110	0.476098	-0.047704	0.481819	0.874971	-0.994214	0.061501	-0.088072
38	1048749													9.773574	-0.354635	-0.918023	-0.096368	-0.874087	0.476114	-0.047652	0.481844	0.874960	-0.994204	0.061631	-0.088086
39	1048916													9.765106	-0.354989	-0.926166	-0.096407	-0.874053	0.476169	-0.047674	0.481903	0.874927	-0.994200	0.061648	-0.088129
40	1049082													9.775791	-0.352979	-0.913678	-0.096359	-0.873915	0.476432	-0.047735	0.482166	0.874778	-0.994201	0.061550	-0.088178
41	1049249													9.736265	-0.364235	-0.918749	-0.096221	-0.873826	0.476624	-0.047842	0.482352	0.874670	-0.994210	0.061359	-0.088218
42	1049749													9.750710	-0.396456	-0.906244	-0.096063	-0.873632	0.477010	-0.047916	0.482729	0.874458	-0.994221	0.061147	-0.088234
43	1049916													9.736402	-0.415974	-0.909690	-0.095907	-0.873494	0.477294	-0.047977	0.483004	0.874303	-0.994233	0.060952	-0.088231
44	1050082													9.705482	-0.450476	-0.927975	-0.095810	-0.873376	0.477531	-0.048067	0.483238	0.874169	-0.994238	0.060800	-0.088280
45	1050249													9.732483	-0.454775	-0.921306	-0.095824	-0.873337	0.477598	-0.048234	0.483316	0.874116	-0.994229	0.060725	-0.088438
46	1050416													9.737035	-0.430507	-0.918646	-0.095830	-0.873305	0.477656	-0.048416	0.483386	0.874067	-0.994220	0.060636	-0.088605
47	1050582													9.760540	-0.397789	-0.897886	-0.095882	-0.873337	0.477587	-0.048543	0.483329	0.874092	-0.994208	0.060626	-0.088737
48	1050749													9.738910	-0.425065	-0.918308	-0.095987	-0.873516	0.477239	-0.048705	0.483000	0.874265	-0.994190	0.060674	-0.088907
49	1050916													9.741892	-0.417799	-0.939356	-0.096113	-0.873521	0.477204	-0.048895	0.482989	0.874260	-0.994169	0.060694	-0.089133
50	1051082													9.744234	-0.374821	-0.961380	-0.096339	-0.873562	0.477083	-0.049084	0.482899	0.874300	-0.994138	0.060812	-0.089400
51	1051249													9.722392	-0.390821	-0.958975	-0.096589	-0.873505	0.477136	-0.049207	0.482982	0.874246	-0.994107	0.060964	-0.089633
52	1051416													9.749443	-0.400531	-0.956842	-0.096882	-0.873427	0.477221	-0.049334	0.483101	0.874173	-0.994072	0.061149	-0.089894
53	1051582													9.779384	-0.410386	-0.968014	-0.097082	-0.873339	0.477340	-0.049468	0.483246	0.874086	-0.994046	0.061245	-0.090117
54	1051749													9.742267	-0.398841	-0.966135	-0.097200	-0.873223	0.477529	-0.049664	0.483458	0.873957	-0.994025	0.061232	-0.090360
55	1051916													9.733850	-0.411171	-0.980601	-0.097276	-0.873178	0.477596	-0.049844	0.483544	0.873900	-0.994009	0.061204	-0.090560
56	1052082													9.720571	-0.417281	-0.988534	-0.097341	-0.873163	0.477610	-0.050030	0.483575	0.873872	-0.993993	0.061169	-0.090756
57	1052249													9.723968	-0.441706	-0.959883	-0.097428	-0.873245	0.477442	-0.050277	0.483430	0.873938	-0.993972	0.061142	-0.091003
58	1052416													9.758985	-0.471835	-0.983193	-0.097497	-0.873257	0.477406	-0.050550	0.483418	0.873929	-0.993951	0.061073	-0.091275
59	1052582													9.771030	-0.457436	-0.979987	-0.097545	-0.873352	0.477223	-0.050793	0.483253	0.874006	-0.993934	0.061015	-0.091499
60	1052749													9.746967	-0.436827	-0.957584	-0.097537	-0.873548	0.476865	-0.051021	0.482908	0.874183	-0.993923	0.060935	-0.091671
61	1052916													9.741255	-0.419850	-0.975054	-0.097507	-0.873594	0.476787	-0.051191	0.482838	0.874212	-0.993917	0.060834	-0.091800
62	1053083													9.766546	-0.402914	-0.975574	-0.097448	-0.873694	0.476615	-0.051360	0.482671	0.874294	-0.993914	0.060719	-0.091909
63	1053249													9.776829	-0.401186	-0.954053	-0.097322	-0.873708	0.476616	-0.051556	0.482672	0.874282	-0.993917	0.060514	-0.092019
64	1053416													9.744419	-0.392318	-0.943879	-0.097107	-0.873695	0.476684	-0.051726	0.482731	0.874240	-0.993929	0.060238	-0.092069
65	1053583													9.711830	-0.408334	-0.937522	-0.096920	-0.873571	0.476949	-0.051952	0.482992	0.874082	-0.993935	0.059938	-0.092195
66	1053749													9.732316	-0.427352	-0.931999	-0.096783	-0.873619	0.476889	-0.052150	0.482931	0.874104	-0.993938	0.059728	-0.092299
67	1053916													9.736912	-0.443652	-0.923742	-0.096640	-0.873549	0.477045	-0.052325	0.483085	0.874009	-0.993943	0.059503	-0.092394
68	1054083													9.735614	-0.473044	-0.914192	-0.096481	-0.873538	0.477097	-0.052512	0.483133	0.873971	-0.993949	0.059268	-0.092485
69	1054249													9.758147	-0.478429	-0.910232	-0.096285	-0.873492	0.477222	-0.052699	0.483251	0.873894	-0.993958	0.058994	-0.092562
70	1054416													9.768823	-0.470750	-0.920093	-0.096049	-0.873526	0.477208	-0.052868	0.483224	0.873899	-0.993972	0.058708	-0.092595
71	1054583													9.741862	-0.470585	-0.918708	-0.095833	-0.873562	0.477185	-0.053029	0.483191	0.873907	-0.993984	0.058445	-0.092630
72	1054749													9.732141	-0.445463	-0.915672	-0.095666	-0.873506	0.477322	-0.053180	0.483321	0.873826	-0.993992	0.058211	-0.092691
73	1054916													9.730747	-0.431812	-0.900728	-0.095571	-0.873513	0.477328	-0.053352	0.483329	0.873812	-0.993992	0.058045	-0.092796
74	1055083													9.726061	-0.459538	-0.907519	-0.095606	-0.873580	0.477197	-0.053564	0.483213	0.873863	-0.993977	0.057986	-0.092990
75	1055249													9.743808	-0.453433	-0.917547	-0.095645	-0.873552	0.477241	-0.053770	0.483273	0.873817	-0.993962	0.057915	-0.093193
76	1055416													9.684687	-0.463001	-0.925438	-0.095726	-0.873596	0.477144	-0.053936	0.483193	0.873851	-0.993945	0.057915	-0.093372
77	1055583													9.736279	-0.510287	-0.921679	-0.095958	-0.873616	0.477061	-0.054101	0.483142	0.873869	-0.993914	0.058045	-0.093625
78	1055749													9.726809	-0.467536	-0.955324	-0.096217	-0.873572	0.477089	-0.054153	0.483198	0.873835	-0.993886	0.058242	-0.093799
79	1055916													9.761972	-0.443005	-0.955413	-0.096447	-0.873464	0.477240	-0.053939	0.483358	0.873760	-0.993876	0.058529	-0.093732
80	1056083													9.814904	-0.445817	-0.934184	-0.096522	-0.873315	0.477498	-0.053761	0.483612	0.873630	-0.993878	0.058653	-0.093629
81	1056249													9.795393	-0.429971	-0.962669	-0.096398	-0.873334	0.477489	-0.053674	0.483586	0.873649	-0.993895	0.058589	-0.093492
82	1056416													9.771910	-0.394000	-0.924405	-0.096130	-0.873195	0.477797	-0.053573	0.483863	0.873502	-0.993926	0.058373	-0.093293
83	1056583													9.745268	-0.380297	-0.909669	-0.095790	-0.873008	0.478207	-0.053500	0.484237	0.873300	-0.993963	0.058069	-0.093091
84	1056749													9.702019	-0.412268	-0.903734	-0.095480	-0.872814	0.478622	-0.053399	0.484617	0.873095	-0.993998	0.057805	-0.092878
85	1056916													9.693811	-0.449953	-0.890703	-0.095275	-0.872574	0.479101	-0.053313	0.485072	0.872848	-0.994022	0.057619	-0.092735
86	1057083													9.705444	-0.474194	-0.913555	-0.095203	-0.872351	0.479521	-0.053274	0.485483	0.872621	-0.994031	0.057530	-0.092694
87	1057249													9.723061	-0.475576	-0.890673	-0.095226	-0.872193	0.479804	-0.053308	0.485771	0.872459	-0.994027	0.057504	-0.092753
88	1057416													9.751531	-0.454071	-0.908078	-0.095280	-0.872055	0.480044	-0.053290	0.486015	0.872324	-0.994023	0.057533	-0.092779
89	1057583													9.747214	-0.448427	-0.929467	-0.095328	-0.871951	0.480223	-0.053225	0.486194	0.872228	-0.994022	0.057587	-0.092757
90	1057749													9.762589	-0.457958	-0.948603	-0.095421	-0.871892	0.480312	-0.053225	0.486292	0.872174	-0.994013	0.057659	-0.092809
91	1057916													9.738831	-0.437438	-0.926309	-0.095504	-0.871863	0.480348	-0.053219	0.486336	0.872150	-0.994005	0.057730	-0.092847
92	1058083													9.754241	-0.396698	-0.926002	-0.095651	-0.871760	0.480505	-0.053114	0.486500	0.872065	-0.993997	0.057893	-0.092837
93	1058249													9.728313	-0.413016	-0.949834	-0.095786	-0.871681	0.480621	-0.053019	0.486624	0.872001	-0.993989	0.058043	-0.092827
94	1058416													9.742011	-0.403370	-0.948199	-0.095959	-0.871467	0.480976	-0.052890	0.486987	0.871806	-0.993979	0.058218	-0.092823
95	1058583													9.783134	-0.425501	-0.960140	-0.096060	-0.871308	0.481243	-0.052806	0.487259	0.871660	-0.993974	0.058319	-0.092817
96	1058749													9.750443	-0.408532	-0.954672	-0.096065	-0.871193	0.481450	-0.052710	0.487461	0.871552	-0.993978	0.058348	-0.092749
97	1058916													9.762055	-0.415967	-0.942506	-0.096032	-0.871130	0.481572	-0.052636	0.487575	0.871493	-0.993986	0.058344	-0.092675
98	1059083													9.752128	-0.418967	-0.952741	-0.095909	-0.871021	0.481792	-0.052531	0.487778	0.871386	-0.994003	0.058265	-0.092538
99	1059249													9.711835	-0.420759	-0.951525	-0.095828	-0.870916	0.481998	-0.052395	0.487968	0.871287	-0.994018	0.058240	-0.092392
100	1059416													9.742915	-0.417547	-0.935715	-0.095747	-0.870851	0.482132	-0.052267	0.488088	0.871228	-0.994032	0.058218	-0.092250
101	1059583													9.734840	-0.392972	-0.928326	-0.095653	-0.870860	0.482134	-0.052151	0.488074	0.871243	-0.994048	0.058193	-0.092102
102	1059749													9.750010	-0.370137	-0.944180	-0.095561	-0.870808	0.482247	-0.052032	0.488171	0.871195	-0.994063	0.058160	-0.091959
103	1059916													9.764623	-0.350372	-0.938855	-0.095455	-0.870733	0.482403	-0.051906	0.488311	0.871125	-0.994079	0.058114	-0.091808
104	1060083													9.757124	-0.355765	-0.961149	-0.095300	-0.870666	0.482555	-0.051787	0.488441	0.871059	-0.994101	0.058022	-0.091638
105	1060249													9.732609	-0.341635	-0.933440	-0.095149	-0.870624	0.482660	-0.051683	0.488526	0.871017	-0.994120	0.057931	-0.091479
106	1060416													9.736631	-0.362836	-0.932434	-0.095011	-0.870572	0.482781	-0.051585	0.488629	0.870965	-0.994139	0.057847	-0.091334
107	1060583													9.765454	-0.385988	-0.917142	-0.094845	-0.870474	0.482990	-0.051550	0.488821	0.870860	-0.994156	0.057698	-0.091235
108	1060749													9.745783	-0.367853	-0.901459	-0.094632	-0.870383	0.483196	-0.051536	0.489007	0.870756	-0.994177	0.057499	-0.091132
109	1060916													9.756075	-0.384118	-0.873500	-0.094409	-0.870239	0.483499	-0.051549	0.489290	0.870596	-0.994198	0.057269	-0.091053
110	1061083													9.759839	-0.387989	-0.882392	-0.094125	-0.870138	0.483736	-0.051559	0.489501	0.870477	-0.994224	0.056993	-0.090938
111	1061249													9.754884	-0.382836	-0.876912	-0.093849	-0.870089	0.483878	-0.051597	0.489620	0.870408	-0.994248	0.056721	-0.090845
112	1061416													9.730805	-0.392186	-0.855269	-0.093608	-0.870085	0.483932	-0.051660	0.489656	0.870384	-0.994268	0.056475	-0.090784
113	1061583													9.719315	-0.403511	-0.866536	-0.093508	-0.870112	0.483903	-0.051778	0.489625	0.870395	-0.994271	0.056333	-0.090836
114	1061749													9.702189	-0.367001	-0.858833	-0.093466	-0.870172	0.483803	-0.051884	0.489527	0.870443	-0.994270	0.056255	-0.090902
115	1061916													9.695000	-0.383641	-0.877263	-0.093584	-0.870186	0.483754	-0.051964	0.489493	0.870457	-0.994254	0.056323	-0.091027
116	1062083													9.758520	-0.422306	-0.912510	-0.093767	-0.870141	0.483801	-0.052156	0.489568	0.870404	-0.994227	0.056382	-0.091289
117	1062249													9.752888	-0.372821	-0.890293	-0.093968	-0.870175	0.483699	-0.052270	0.489491	0.870440	-0.994202	0.056511	-0.091481
118	1062416													9.776294	-0.375666	-0.907269	-0.094200	-0.870263	0.483496	-0.052230	0.489307	0.870546	-0.994182	0.056752	-0.091547
119	1062583													9.755393	-0.379296	-0.896459	-0.094328	-0.870237	0.483518	-0.052256	0.489342	0.870525	-0.994169	0.056848	-0.091634
120	1062749													9.755742	-0.386098	-0.900650	-0.094445	-0.870209	0.483545	-0.052320	0.489384	0.870498	-0.994154	0.056915	-0.091749
121	1062916													9.773277	-0.358998	-0.903911	-0.094439	-0.870221	0.483524	-0.052374	0.489366	0.870505	-0.994152	0.056885	-0.091792
122	1063083													9.778599	-0.356634	-0.907126	-0.094361	-0.870141	0.483684	-0.052419	0.489521	0.870415	-0.994157	0.056779	-0.091803
123	1063249													9.737588	-0.379875	-0.911166	-0.094192	-0.870091	0.483807	-0.052495	0.489632	0.870348	-0.994169	0.056583	-0.091795
124	1063416													9.708917	-0.401973	-0.880774	-0.094040	-0.870031	0.483945	-0.052568	0.489761	0.870271	-0.994180	0.056400	-0.091793
125	1063583													9.697371	-0.433911	-0.891027	-0.094027	-0.869965	0.484066	-0.052714	0.489889	0.870190	-0.994173	0.056304	-0.091922
126	1063749													9.715132	-0.451076	-0.899354	-0.094073	-0.869950	0.484085	-0.052885	0.489921	0.870161	-0.994160	0.056258	-0.092096
127	1063916													9.735103	-0.421425	-0.915079	-0.094208	-0.870003	0.483962	-0.053007	0.489818	0.870212	-0.994140	0.056327	-0.092261
128	1064083													9.742392	-0.429052	-0.929838	-0.094334	-0.870082	0.483795	-0.053112	0.489669	0.870289	-0.994123	0.056402	-0.092404
129	1064249													9.774428	-0.432984	-0.948142	-0.094489	-0.870121	0.483696	-0.053295	0.489594	0.870320	-0.994098	0.056457	-0.092634
130	1064416													9.765534	-0.403822	-0.955058	-0.094576	-0.870156	0.483616	-0.053436	0.489531	0.870347	-0.994083	0.056471	-0.092795
131	1064583													9.776312	-0.384248	-0.946122	-0.094707	-0.870162	0.483580	-0.053493	0.489510	0.870356	-0.994067	0.056561	-0.092907
132	1064749													9.762613	-0.387922	-0.955856	-0.094782	-0.870104	0.483670	-0.053565	0.489610	0.870294	-0.994056	0.056580	-0.093013
133	1064916													9.735678	-0.397006	-0.955419	-0.094893	-0.870100	0.483654	-0.053623	0.489609	0.870292	-0.994042	0.056649	-0.093117
134	1065083													9.761718	-0.410260	-0.938981	-0.094978	-0.870095	0.483646	-0.053718	0.489614	0.870283	-0.994029	0.056677	-0.093242
135	1065249													9.763109	-0.413640	-0.935709	-0.094960	-0.870050	0.483731	-0.053828	0.489704	0.870226	-0.994025	0.056598	-0.093335
136	1065416													9.766458	-0.422243	-0.967264	-0.094879	-0.869958	0.483912	-0.053884	0.489880	0.870123	-0.994029	0.056481	-0.093357
137	1065583													9.748330	-0.422132	-0.957826	-0.094731	-0.869969	0.483922	-0.053935	0.489879	0.870120	-0.994041	0.056327	-0.093329
138	1065749													9.746424	-0.425987	-0.942431	-0.094592	-0.869991	0.483909	-0.053957	0.489855	0.870133	-0.994053	0.056198	-0.093278
139	1065916													9.730326	-0.431571	-0.922805	-0.094447	-0.870045	0.483841	-0.053998	0.489775	0.870175	-0.994064	0.056059	-0.093238
140	1066083													9.760263	-0.424574	-0.905164	-0.094313	-0.870090	0.483785	-0.054036	0.489709	0.870210	-0.994075	0.055930	-0.093202
141	1066249													9.727815	-0.397430	-0.909585	-0.094185	-0.870179	0.483651	-0.054050	0.489563	0.870291	-0.994086	0.055827	-0.093142
142	1066416													9.759873	-0.382325	-0.917808	-0.094088	-0.870242	0.483555	-0.053995	0.489456	0.870355	-0.994099	0.055780	-0.093040
143	1066583													9.755591	-0.372054	-0.892854	-0.093989	-0.870322	0.483431	-0.053952	0.489319	0.870434	-0.994110	0.055729	-0.092946
144	1066749													9.735413	-0.353955	-0.894481	-0.093898	-0.870286	0.483514	-0.053904	0.489391	0.870397	-0.994122	0.055665	-0.092864
145	1066916													9.714410	-0.370270	-0.911361	-0.093880	-0.870201	0.483670	-0.053897	0.489545	0.870311	-0.994124	0.055636	-0.092860
146	1067083													9.767756	-0.379643	-0.875681	-0.093867	-0.870017	0.484004	-0.053889	0.489878	0.870124	-0.994125	0.055593	-0.092868
147	1067249													9.756991	-0.386899	-0.880401	-0.093810	-0.869935	0.484162	-0.053871	0.490030	0.870039	-0.994132	0.055536	-0.092834
148	1067416													9.753658	-0.422887	-0.892464	-0.093732	-0.869898	0.484244	-0.053860	0.490104	0.869998	-0.994140	0.055465	-0.092791
149	1067583													9.665937	-0.450316	-0.872798	-0.093731	-0.869912	0.484218	-0.053904	0.490080	0.870009	-0.994137	0.055445	-0.092827
150	1067749													9.671241	-0.495024	-0.884592	-0.093947	-0.869909	0.484181	-0.053986	0.490068	0.870011	-0.994112	0.055596	-0.093003
151	1067916													9.703874	-0.493839	-0.902413	-0.094271	-0.870134	0.483715	-0.053995	0.489633	0.870255	-0.994081	0.055922	-0.093141
152	1068083													9.722707	-0.426581	-0.888287	-0.094665	-0.870327	0.483290	-0.053839	0.489236	0.870488	-0.994052	0.056385	-0.093171
153	1068249													9.795493	-0.423193	-0.919428	-0.095137	-0.870523	0.482844	-0.053651	0.488823	0.870732	-0.994017	0.056934	-0.093209
154	1068416													9.804583	-0.335516	-0.933713	-0.095485	-0.870765	0.482339	-0.053485	0.488341	0.871012	-0.993993	0.057371	-0.093202
155	1068583													9.781363	-0.253954	-0.949255	-0.095825	-0.870808	0.482193	-0.053170	0.488209	0.871106	-0.993977	0.057836	-0.093083
156	1068749													9.794647	-0.273525	-0.953867	-0.096081	-0.870729	0.482285	-0.052921	0.488310	0.871064	-0.993966	0.058170	-0.092997
157	1068916													9.757401	-0.309142	-0.938878	-0.096240	-0.870562	0.482555	-0.052839	0.488590	0.870912	-0.993955	0.058319	-0.093022
158	1069083													9.776306	-0.346840	-0.951498	-0.096285	-0.870410	0.482820	-0.052815	0.488858	0.870763	-0.993952	0.058341	-0.093040
159	1069249													9.784941	-0.356377	-0.934585	-0.096120	-0.870190	0.483249	-0.052828	0.489273	0.870529	-0.993967	0.058146	-0.092999
160	1069416													9.806409	-0.375644	-0.896107	-0.095784	-0.869976	0.483701	-0.052818	0.489693	0.870294	-0.994000	0.057812	-0.092855
161	1069583													9.791027	-0.400799	-0.941035	-0.095194	-0.869847	0.484050	-0.052701	0.489980	0.870139	-0.994063	0.057322	-0.092485
162	1069750													9.635081	-0.427230	-0.946269	-0.094617	-0.869804	0.484240	-0.052589	0.490110	0.870073	-0.994124	0.056858	-0.092115
163	1069916													9.561413	-0.443765	-0.939931	-0.094459	-0.869808	0.484264	-0.052584	0.490119	0.870068	-0.994139	0.056722	-0.092034
164	1070083													9.667266	-0.454307	-0.927936	-0.094711	-0.869785	0.484256	-0.052604	0.490136	0.870057	-0.994114	0.056931	-0.092175
165	1070250													9.764981	-0.413540	-0.913720	-0.095074	-0.869826	0.484111	-0.052551	0.490022	0.870125	-0.994082	0.057286	-0.092298
166	1070416													9.797188	-0.442562	-0.910059	-0.095449	-0.869869	0.483961	-0.052579	0.489907	0.870187	-0.994045	0.057612	-0.092497
167	1070583													9.815439	-0.435776	-0.929860	-0.095717	-0.870001	0.483671	-0.052641	0.489646	0.870331	-0.994016	0.057844	-0.092665
168	1070750													9.734591	-0.398637	-0.937929	-0.095957	-0.870181	0.483298	-0.052696	0.489299	0.870523	-0.993990	0.058065	-0.092807
169	1070916													9.678173	-0.367123	-0.941018	-0.096336	-0.870301	0.483007	-0.052697	0.489043	0.870666	-0.993953	0.058423	-0.092974
170	1071083													9.664066	-0.367920	-0.945590	-0.096907	-0.870354	0.482798	-0.052691	0.488887	0.870755	-0.993898	0.058943	-0.093236
171	1071250													9.722260	-0.361421	-0.936933	-0.097627	-0.870368	0.482627	-0.052666	0.488782	0.870815	-0.993829	0.059597	-0.093557
172	1071416													9.750259	-0.363964	-0.941044	-0.098305	-0.870332	0.482554	-0.052687	0.488774	0.870818	-0.993761	0.060182	-0.093905
173	1071583													9.751575	-0.355926	-0.943922	-0.098935	-0.870257	0.482561	-0.052727	0.488843	0.870777	-0.993696	0.060706	-0.094250
174	1071750													9.748783	-0.388660	-0.971245	-0.099477	-0.870175	0.482597	-0.052784	0.488934	0.870722	-0.993639	0.061144	-0.094569
175	1071916													9.749398	-0.418056	-0.977737	-0.100004	-0.870102	0.482620	-0.052870	0.489013	0.870673	-0.993581	0.061555	-0.094906
176	1072083													9.780498	-0.435700	-0.996174	-0.100426	-0.870031	0.482659	-0.052937	0.489097	0.870621	-0.993535	0.061882	-0.095175
177	1072250													9.778341	-0.444090	-0.987989	-0.100720	-0.870091	0.482491	-0.052993	0.488960	0.870695	-0.993502	0.062128	-0.095357
178	1072416													9.814746	-0.433414	-0.994098	-0.100895	-0.870159	0.482331	-0.052982	0.488817	0.870776	-0.993485	0.062302	-0.095422
179	1072583													9.818604	-0.406102	-0.996939	-0.100820	-0.870311	0.482072	-0.052901	0.488545	0.870934	-0.993497	0.062305	-0.095295
180	1072750													9.782574	-0.378520	-1.000435	-0.100577	-0.870413	0.481940	-0.052835	0.488385	0.871027	-0.993525	0.062142	-0.095109
181	1072916													9.746762	-0.366530	-1.019549	-0.100257	-0.870519	0.481814	-0.052767	0.488224	0.871121	-0.993561	0.061912	-0.094883
182	1073083													9.734534	-0.368998	-1.016264	-0.099872	-0.870516	0.481900	-0.052686	0.488268	0.871102	-0.993604	0.061610	-0.094628
183	1073250													9.717792	-0.391076	-1.016297	-0.099447	-0.870586	0.481861	-0.052607	0.488184	0.871154	-0.993651	0.061284	-0.094347
184	1073416													9.748514	-0.381206	-1.006785	-0.098965	-0.870600	0.481935	-0.052500	0.488206	0.871148	-0.993705	0.060912	-0.094022
185	1073583													9.770111	-0.386684	-1.007063	-0.098382	-0.870575	0.482099	-0.052364	0.488307	0.871099	-0.993770	0.060456	-0.093628
186	1073750													9.801353	-0.404490	-0.983501	-0.097642	-0.870508	0.482371	-0.052195	0.488499	0.871002	-0.993852	0.059869	-0.093134
187	1073916													9.747705	-0.394338	-0.947310	-0.096798	-0.870500	0.482555	-0.052033	0.488595	0.870958	-0.993943	0.059198	-0.092589
188	1074083													9.714508	-0.383498	-0.920742	-0.095988	-0.870410	0.482880	-0.051890	0.488836	0.870831	-0.994029	0.058533	-0.092088
189	1074250													9.711288	-0.392025	-0.902827	-0.095372	-0.870403	0.483014	-0.051791	0.488907	0.870797	-0.994093	0.058034	-0.091707
190	1074416													9.733616	-0.370154	-0.879719	-0.094850	-0.870371	0.483175	-0.051751	0.489018	0.870737	-0.994145	0.057585	-0.091426
191	1074583													9.681470	-0.374536	-0.878686	-0.094474	-0.870319	0.483341	-0.051725	0.489148	0.870665	-0.994183	0.057254	-0.091229
192	1074750													9.691045	-0.410989	-0.903228	-0.094348	-0.870245	0.483500	-0.051745	0.489296	0.870581	-0.994194	0.057119	-0.091195
193	1074916													9.650142	-0.394636	-0.882505	-0.094440	-0.870231	0.483506	-0.051795	0.489314	0.870568	-0.994182	0.057173	-0.091285
194	1075083													9.692251	-0.372930	-0.902622	-0.094805	-0.870137	0.483605	-0.051661	0.489439	0.870506	-0.994154	0.057545	-0.091353
195	1075250													9.742412	-0.379111	-0.906575	-0.095268	-0.870041	0.483686	-0.051472	0.489552	0.870454	-0.994120	0.058030	-0.091422
196	1075416													9.767447	-0.385492	-0.914699	-0.095632	-0.869962	0.483756	-0.051409	0.489652	0.870401	-0.994088	0.058368	-0.091551
197	1075583													9.779387	-0.379425	-0.928626	-0.095876	-0.869926	0.483772	-0.051313	0.489685	0.870388	-0.994070	0.058626	-0.091587
198	1075750													9.786222	-0.320017	-0.944999	-0.095927	-0.869919	0.483776	-0.051233	0.489688	0.870391	-0.994069	0.058709	-0.091543
199	1075916													9.788476	-0.330585	-0.944208	-0.095831	-0.869839	0.483939	-0.051115	0.489836	0.870315	-0.994084	0.058667	-0.091403
200	1076083													9.768113	-0.347375	-0.934079	-0.095600	-0.869762	0.484122	-0.050996	0.489990	0.870235	-0.994113	0.058507	-0.091197
201	1076250													9.729951	-0.384657	-0.926547	-0.095324	-0.869676	0.484332	-0.050947	0.490172	0.870135	-0.994142	0.058269	-0.091033
202	1076416													9.705351	-0.409647	-0.917219	-0.095085	-0.869602	0.484511	-0.050961	0.490330	0.870046	-0.994164	0.058037	-0.090939
203	1076583													9.711604	-0.399362	-0.887488	-0.094897	-0.869614	0.484527	-0.051042	0.490334	0.870039	-0.994178	0.057833	-0.090918
204	1076750													9.755768	-0.379760	-0.901776	-0.094756	-0.869609	0.484563	-0.051096	0.490360	0.870021	-0.994188	0.057680	-0.090898
205	1076916													9.713937	-0.408755	-0.913979	-0.094690	-0.869609	0.484577	-0.051168	0.490372	0.870010	-0.994191	0.057586	-0.090929
206	1077083													9.730263	-0.419743	-0.927696	-0.094680	-0.869693	0.484427	-0.051308	0.490229	0.870082	-0.994185	0.057525	-0.091037
207	1077250													9.730969	-0.380739	-0.915618	-0.094735	-0.869827	0.484175	-0.051426	0.489989	0.870210	-0.994173	0.057541	-0.091151
208	1077416													9.772014	-0.368789	-0.929835	-0.094793	-0.869904	0.484027	-0.051469	0.489849	0.870287	-0.994166	0.057585	-0.091207
209	1077583													9.745495	-0.375349	-0.936800	-0.094879	-0.869950	0.483927	-0.051536	0.489760	0.870333	-0.994154	0.057637	-0.091301
210	1077750													9.765673	-0.374509	-0.943089	-0.094992	-0.869963	0.483882	-0.051573	0.489728	0.870349	-0.994141	0.057721	-0.091386
211	1077916													9.750937	-0.358340	-0.959329	-0.095079	-0.869993	0.483810	-0.051604	0.489666	0.870382	-0.994131	0.057789	-0.091453
212	1078083													9.759614	-0.372219	-0.953365	-0.095150	-0.869961	0.483854	-0.051594	0.489716	0.870354	-0.994125	0.057850	-0.091481
213	1078250													9.757396	-0.389124	-0.943263	-0.095145	-0.869918	0.483931	-0.051576	0.489791	0.870313	-0.994126	0.057847	-0.091469
214	1078416													9.758009	-0.396854	-0.952187	-0.095091	-0.869860	0.484047	-0.051519	0.489899	0.870255	-0.994135	0.057816	-0.091399
215	1078583													9.758097	-0.416462	-0.984509	-0.094982	-0.869773	0.484225	-0.051471	0.490064	0.870166	-0.994147	0.057727	-0.091315
216	1078750													9.735631	-0.381581	-0.971105	-0.094853	-0.869773	0.484250	-0.051418	0.490074	0.870163	-0.994163	0.057638	-0.091207
217	1078916													9.761484	-0.394713	-0.982570	-0.094727	-0.869716	0.484377	-0.051336	0.490185	0.870105	-0.994179	0.057556	-0.091082
218	1079083													9.774523	-0.374080	-0.946894	-0.094529	-0.869705	0.484435	-0.051237	0.490220	0.870092	-0.994203	0.057428	-0.090902
219	1079250													9.733653	-0.369436	-0.946769	-0.094307	-0.869628	0.484617	-0.051130	0.490375	0.870010	-0.994229	0.057269	-0.090710
220	1079416													9.756600	-0.373772	-0.956309	-0.094102	-0.869564	0.484771	-0.051063	0.490507	0.869940	-0.994252	0.057109	-0.090560
221	1079583													9.765030	-0.376515	-0.945841	-0.093862	-0.869503	0.484927	-0.051077	0.490642	0.869863	-0.994274	0.056879	-0.090464
222	1079750													9.755765	-0.390345	-0.915262	-0.093584	-0.869449	0.485078	-0.051125	0.490770	0.869788	-0.994298	0.056598	-0.090378
223	1079916													9.765077	-0.408006	-0.912635	-0.093283	-0.869391	0.485239	-0.051233	0.490910	0.869703	-0.994321	0.056268	-0.090335
224	1080083													9.775467	-0.408937	-0.920379	-0.092908	-0.869342	0.485400	-0.051357	0.491044	0.869620	-0.994349	0.055866	-0.090269
225	1080250													9.753937	-0.429994	-0.890260	-0.092480	-0.869345	0.485475	-0.051497	0.491088	0.869587	-0.994382	0.055419	-0.090184
226	1080416													9.749075	-0.432541	-0.901248	-0.092009	-0.869387	0.485491	-0.051617	0.491068	0.869591	-0.994419	0.054951	-0.090058
227	1080583													9.707783	-0.432928	-0.865657	-0.091598	-0.869457	0.485443	-0.051753	0.490990	0.869626	-0.994450	0.054533	-0.089971
228	1080750													9.740292	-0.442030	-0.863398	-0.091303	-0.869547	0.485337	-0.051877	0.490864	0.869690	-0.994471	0.054228	-0.089927
229	1080916													9.711919	-0.419213	-0.856045	-0.091025	-0.869636	0.485229	-0.051961	0.490735	0.869758	-0.994492	0.053957	-0.089856
230	1081083													9.708549	-0.442027	-0.852771	-0.090911	-0.869762	0.485026	-0.052007	0.490524	0.869874	-0.994500	0.053856	-0.089828
231	1081250													9.744406	-0.423604	-0.857631	-0.090893	-0.869880	0.484816	-0.052068	0.490317	0.869988	-0.994499	0.053832	-0.089859
232	1081416													9.771636	-0.352997	-0.847336	-0.090892	-0.869949	0.484693	-0.051955	0.490187	0.870067	-0.994505	0.053900	-0.089753
233	1081583													9.795164	-0.360142	-0.854159	-0.090864	-0.869896	0.484793	-0.051717	0.490272	0.870034	-0.994520	0.053983	-0.089536
234	1081750													9.748827	-0.388923	-0.848334	-0.090765	-0.869816	0.484955	-0.051593	0.490418	0.869959	-0.994535	0.053941	-0.089389
235	1081916													9.755177	-0.376108	-0.860017	-0.090653	-0.869722	0.485145	-0.051462	0.490591	0.869869	-0.994552	0.053890	-0.089231
236	1082083													9.757997	-0.375392	-0.837775	-0.090491	-0.869580	0.485431	-0.051335	0.490855	0.869727	-0.994573	0.053783	-0.089057
237	1082250													9.736640	-0.394916	-0.849713	-0.090331	-0.869444	0.485703	-0.051131	0.491103	0.869600	-0.994598	0.053717	-0.088817
238	1082416													9.714145	-0.422414	-0.849934	-0.090186	-0.869295	0.485997	-0.050913	0.491372	0.869460	-0.994623	0.053669	-0.088573
239	1082583													9.716129	-0.438457	-0.830724	-0.090098	-0.869213	0.486160	-0.050697	0.491515	0.869392	-0.994642	0.053683	-0.088351
240	1082750													9.723664	-0.423777	-0.829980	-0.090047	-0.869128	0.486320	-0.050578	0.491665	0.869315	-0.994652	0.053682	-0.088232
241	1082916													9.720490	-0.412866	-0.871550	-0.090067	-0.869117	0.486337	-0.050528	0.491681	0.869308	-0.994653	0.053723	-0.088199
242	1083083													9.758350	-0.373792	-0.840573	-0.090131	-0.869089	0.486375	-0.050404	0.491718	0.869295	-0.994654	0.053835	-0.088125
243	1083250													9.726394	-0.412126	-0.882811	-0.090247	-0.869065	0.486396	-0.050335	0.491745	0.869283	-0.994647	0.053968	-0.088123
244	1083416													9.759820	-0.401017	-0.901776	-0.090411	-0.869050	0.486392	-0.050367	0.491758	0.869274	-0.994630	0.054094	-0.088232
245	1083583													9.752912	-0.381875	-0.899840	-0.090553	-0.869045	0.486375	-0.050347	0.491752	0.869279	-0.994618	0.054228	-0.088283
246	1083750													9.763947	-0.377744	-0.928316	-0.090693	-0.868996	0.486437	-0.050282	0.491823	0.869242	-0.994609	0.054375	-0.088300
247	1083916													9.744523	-0.401291	-0.907310	-0.090818	-0.868954	0.486489	-0.050296	0.491887	0.869205	-0.994597	0.054471	-0.088377
248	1084083													9.796464	-0.397573	-0.906577	-0.090908	-0.868913	0.486544	-0.050347	0.491953	0.869165	-0.994586	0.054519	-0.088469
249	1084250													9.754595	-0.408186	-0.906472	-0.090955	-0.868882	0.486591	-0.050451	0.492009	0.869127	-0.994576	0.054502	-0.088586
250	1084416													9.764710	-0.425085	-0.908492	-0.090998	-0.868903	0.486547	-0.050548	0.491974	0.869141	-0.994567	0.054496	-0.088690
251	1084583													9.745210	-0.447165	-0.870967	-0.091019	-0.868920	0.486512	-0.050571	0.491942	0.869158	-0.994564	0.054507	-0.088718
252	1084750													9.723375	-0.456925	-0.902027	-0.091099	-0.868967	0.486412	-0.050508	0.491847	0.869216	-0.994560	0.054617	-0.088697
253	1084916													9.741395	-0.450409	-0.874875	-0.091246	-0.869032	0.486269	-0.050418	0.491711	0.869298	-0.994551	0.054803	-0.088681
254	1085083													9.791460	-0.431630	-0.853426	-0.091446	-0.869121	0.486073	-0.050290	0.491526	0.869410	-0.994539	0.055060	-0.088656
255	1085250													9.760657	-0.417125	-0.846372	-0.091661	-0.869228	0.485841	-0.050101	0.491302	0.869547	-0.994529	0.055363	-0.088582
256	1085416													9.723268	-0.400519	-0.828592	-0.091944	-0.869276	0.485702	-0.049888	0.491177	0.869630	-0.994514	0.055727	-0.088527
257	1085583													9.721894	-0.390034	-0.848592	-0.092321	-0.869299	0.485588	-0.049640	0.491082	0.869698	-0.994491	0.056187	-0.088489
258	1085750													9.725448	-0.388613	-0.877284	-0.092766	-0.869300	0.485503	-0.049415	0.491024	0.869743	-0.994461	0.056691	-0.088507
259	1085916													9.728273	-0.381625	-0.866934	-0.093196	-0.869290	0.485437	-0.049180	0.490983	0.869780	-0.994432	0.057187	-0.088509
260	1086083													9.714387	-0.384352	-0.907247	-0.093646	-0.869249	0.485424	-0.048950	0.490997	0.869785	-0.994401	0.057691	-0.088530
261	1086250													9.754158	-0.373062	-0.921633	-0.094021	-0.869252	0.485346	-0.048740	0.490940	0.869829	-0.994376	0.058126	-0.088526
262	1086417													9.746438	-0.367435	-0.981535	-0.094293	-0.869192	0.485400	-0.048555	0.491007	0.869801	-0.994360	0.058448	-0.088502
263	1086583													9.702775	-0.345727	-1.002907	-0.094509	-0.869210	0.485327	-0.048421	0.490946	0.869843	-0.994346	0.058708	-0.088487
264	1086750													9.726863	-0.337902	-1.013203	-0.094748	-0.869155	0.485379	-0.048354	0.491015	0.869808	-0.994326	0.058943	-0.088550
265	1086917													9.772475	-0.333362	-1.015453	-0.094888	-0.869087	0.485473	-0.048346	0.491121	0.869749	-0.994313	0.059058	-0.088618
266	1087083													9.799187	-0.356660	-1.031977	-0.094880	-0.869011	0.485611	-0.048365	0.491259	0.869670	-0.994313	0.059028	-0.088641
267	1087250													9.733923	-0.419470	-1.007213	-0.094808	-0.868952	0.485731	-0.048480	0.491380	0.869595	-0.994314	0.058897	-0.088714
268	1087417													9.777844	-0.406239	-0.988085	-0.094717	-0.868910	0.485823	-0.048588	0.491471	0.869538	-0.994318	0.058754	-0.088769
269	1087583													9.815817	-0.417846	-0.970603	-0.094495	-0.868845	0.485982	-0.048447	0.491601	0.869472	-0.994346	0.058616	-0.088547
270	1087750													9.821091	-0.432412	-0.946433	-0.094063	-0.868870	0.486022	-0.048276	0.491593	0.869486	-0.994395	0.058324	-0.088187
271	1087917													9.798542	-0.399617	-0.919859	-0.093477	-0.868915	0.486055	-0.048099	0.491563	0.869513	-0.994459	0.057900	-0.087744
272	1088083													9.765133	-0.351253	-0.909976	-0.092759	-0.868964	0.486104	-0.047836	0.491534	0.869543	-0.994539	0.057405	-0.087162
273	1088250													9.670130	-0.306863	-0.852955	-0.092081	-0.869013	0.486145	-0.047556	0.491500	0.869578	-0.994615	0.056952	-0.086584
274	1088417													9.662884	-0.291070	-0.843524	-0.091626	-0.868876	0.486477	-0.047220	0.491773	0.869442	-0.994673	0.056692	-0.086087
275	1088583													9.696321	-0.295687	-0.828496	-0.091387	-0.868676	0.486878	-0.046911	0.492137	0.869253	-0.994710	0.056598	-0.085726
276	1088750													9.695785	-0.333745	-0.836533	-0.091294	-0.868485	0.487237	-0.046689	0.492475	0.869073	-0.994729	0.056592	-0.085509
277	1088917													9.732651	-0.348470	-0.846209	-0.091369	-0.868230	0.487676	-0.046470	0.492908	0.868839	-0.994732	0.056723	-0.085383
278	1089083													9.736762	-0.319193	-0.855506	-0.091476	-0.867967	0.488125	-0.046078	0.493344	0.868613	-0.994741	0.056965	-0.085124
279	1089250													9.731737	-0.349527	-0.882999	-0.091635	-0.867659	0.488642	-0.045499	0.493842	0.868360	-0.994753	0.057339	-0.084731
280	1089417													9.810126	-0.360332	-0.893555	-0.091783	-0.867300	0.489251	-0.044886	0.494429	0.868058	-0.994767	0.057712	-0.084310
281	1089583													9.792870	-0.317476	-0.911312	-0.091791	-0.866922	0.489918	-0.044138	0.495054	0.867740	-0.994800	0.058027	-0.083706
282	1089750													9.783998	-0.311191	-0.903940	-0.091648	-0.866522	0.490653	-0.043276	0.495727	0.867400	-0.994851	0.058262	-0.082932
283	1089917													9.728120	-0.297004	-0.900125	-0.091456	-0.866087	0.491457	-0.042508	0.496471	0.867012	-0.994901	0.058403	-0.082221
284	1090083													9.779753	-0.299365	-0.896396	-0.091226	-0.865670	0.492233	-0.041948	0.497196	0.866624	-0.994946	0.058411	-0.081670
285	1090250													9.820897	-0.285823	-0.846801	-0.090830	-0.865336	0.492894	-0.041613	0.497805	0.866290	-0.994997	0.058174	-0.081225
286	1090417													9.749172	-0.294527	-0.840297	-0.090281	-0.865050	0.493496	-0.041502	0.498357	0.865978	-0.995051	0.057701	-0.080893
287	1090583													9.730350	-0.342377	-0.804550	-0.089817	-0.864863	0.493907	-0.041534	0.498733	0.865760	-0.995092	0.057246	-0.080716
288	1090750													9.725365	-0.394718	-0.818879	-0.089426	-0.864845	0.494011	-0.041768	0.498818	0.865700	-0.995117	0.056782	-0.080730
289	1090917													9.719024	-0.418854	-0.834090	-0.089198	-0.864939	0.493887	-0.042142	0.498697	0.865752	-0.995122	0.056410	-0.080933
290	1091083													9.706677	-0.385409	-0.836902	-0.089166	-0.865206	0.493426	-0.042583	0.498257	0.865983	-0.995106	0.056204	-0.081270
291	1091250													9.722445	-0.349751	-0.842177	-0.089296	-0.865524	0.492843	-0.042999	0.497708	0.866278	-0.995077	0.056163	-0.081660
292	1091417													9.761391	-0.299199	-0.862941	-0.089552	-0.865852	0.492220	-0.043450	0.497132	0.866586	-0.995034	0.056218	-0.082140
293	1091583													9.738591	-0.238594	-0.872907	-0.089861	-0.866074	0.491774	-0.043880	0.496735	0.866793	-0.994987	0.056312	-0.082640
294	1091750													9.736826	-0.206503	-0.903804	-0.090211	-0.866167	0.491545	-0.044358	0.496562	0.866867	-0.994934	0.056397	-0.083217
295	1091917													9.768709	-0.204961	-0.938535	-0.090515	-0.866093	0.491619	-0.044945	0.496695	0.866761	-0.994880	0.056359	-0.083885
296	1092083													9.776447	-0.270299	-0.953417	-0.090714	-0.865887	0.491945	-0.045584	0.497074	0.866510	-0.994833	0.056180	-0.084562
297	1092250													9.780678	-0.336045	-0.957038	-0.090787	-0.865632	0.492381	-0.046141	0.497548	0.866209	-0.994801	0.055922	-0.085112
298	1092417													9.792904	-0.447824	-0.969980	-0.090685	-0.865352	0.492891	-0.046648	0.498078	0.865876	-0.994786	0.055530	-0.085536
299	1092583													9.825925	-0.530631	-0.953879	-0.090383	-0.865200	0.493213	-0.047056	0.498397	0.865671	-0.994795	0.055033	-0.085759
300	1092750													9.749165	-0.544443	-0.936065	-0.089916	-0.865290	0.493141	-0.047437	0.498306	0.865703	-0.994819	0.054448	-0.085852
301	1092917													9.624043	-0.505573	-0.914589	-0.089606	-0.865493	0.492842	-0.047627	0.497990	0.865874	-0.994838	0.054115	-0.085844
302	1093083													9.709594	-0.480263	-0.894408	-0.089624	-0.865739	0.492405	-0.047762	0.497562	0.866112	-0.994830	0.054106	-0.085943
303	1093250													9.746760	-0.409378	-0.884683	-0.089655	-0.866078	0.491804	-0.047852	0.496968	0.866448	-0.994823	0.054148	-0.085999
304	1093417													9.784710	-0.332641	-0.885791	-0.089707	-0.866321	0.491366	-0.047797	0.496531	0.866702	-0.994821	0.054263	-0.085951
305	1093583													9.824783	-0.328358	-0.883295	-0.089643	-0.866487	0.491084	-0.047769	0.496243	0.866869	-0.994828	0.054250	-0.085876
306	1093750													9.786883	-0.335946	-0.855366	-0.089480	-0.866569	0.490970	-0.047838	0.496117	0.866937	-0.994839	0.054086	-0.085848
307	1093917													9.762043	-0.323329	-0.856005	-0.089252	-0.866569	0.491011	-0.047903	0.496143	0.866919	-0.994856	0.053853	-0.085793
308	1094083													9.715133	-0.363338	-0.834152	-0.089027	-0.866505	0.491165	-0.047919	0.496279	0.866840	-0.994876	0.053636	-0.085705
309	1094250													9.706365	-0.392031	-0.819448	-0.088926	-0.866383	0.491398	-0.047940	0.496504	0.866710	-0.994884	0.053515	-0.085686
310	1094417													9.682088	-0.440126	-0.837877	-0.088951	-0.866309	0.491525	-0.047956	0.496634	0.866634	-0.994881	0.053516	-0.085720
311	1094583													9.703642	-0.453685	-0.824012	-0.089096	-0.866264	0.491577	-0.048045	0.496703	0.866590	-0.994864	0.053591	-0.085874
312	1094750													9.742955	-0.461665	-0.822977	-0.089287	-0.866274	0.491525	-0.048153	0.496673	0.866601	-0.994841	0.053708	-0.086060
313	1094917													9.757248	-0.437148	-0.835921	-0.089468	-0.866368	0.491327	-0.048279	0.496498	0.866694	-0.994819	0.053820	-0.086248
314	1095083													9.728491	-0.443380	-0.847780	-0.089665	-0.866453	0.491140	-0.048354	0.496332	0.866785	-0.994797	0.053972	-0.086400
315	1095250													9.789845	-0.448697	-0.886180	-0.089902	-0.866556	0.490915	-0.048499	0.496136	0.866889	-0.994769	0.054126	-0.086631
316	1095417													9.775826	-0.418868	-0.861124	-0.090060	-0.866705	0.490623	-0.048582	0.495861	0.867042	-0.994751	0.054250	-0.086763
317	1095583													9.800123	-0.409422	-0.866671	-0.090173	-0.866827	0.490387	-0.048560	0.495634	0.867173	-0.994742	0.054382	-0.086785
318	1095750													9.746234	-0.391791	-0.890597	-0.090154	-0.866942	0.490188	-0.048440	0.495427	0.867298	-0.994749	0.054446	-0.086659
319	1095917													9.724434	-0.386159	-0.870771	-0.090213	-0.866986	0.490098	-0.048277	0.495333	0.867360	-0.994752	0.054587	-0.086541
320	1096083													9.752217	-0.356216	-0.876957	-0.090284	-0.866957	0.490137	-0.048130	0.495370	0.867348	-0.994752	0.054717	-0.086451
321	1096250													9.736729	-0.342729	-0.871021	-0.090336	-0.866869	0.490283	-0.047968	0.495511	0.867276	-0.994756	0.054828	-0.086344
322	1096417													9.773160	-0.335779	-0.893061	-0.090415	-0.866693	0.490580	-0.047813	0.495807	0.867116	-0.994756	0.054944	-0.086268
323	1096583													9.735009	-0.354558	-0.909105	-0.090472	-0.866509	0.490894	-0.047699	0.496120	0.866943	-0.994756	0.055019	-0.086217
324	1096750													9.730903	-0.385078	-0.898011	-0.090645	-0.866302	0.491227	-0.047617	0.496463	0.866751	-0.994744	0.055176	-0.086253
325	1096917													9.759227	-0.425404	-0.911907	-0.090818	-0.866118	0.491519	-0.047573	0.496769	0.866578	-0.994731	0.055317	-0.086319
326	1097083													9.766299	-0.435112	-0.941332	-0.091008	-0.866009	0.491677	-0.047554	0.496942	0.866480	-0.994714	0.055475	-0.086408
327	1097250													9.756276	-0.429002	-0.941941	-0.091142	-0.865988	0.491688	-0.047497	0.496962	0.866472	-0.994705	0.055618	-0.086426
328	1097417													9.749103	-0.406979	-0.948682	-0.091285	-0.865997	0.491646	-0.047378	0.496925	0.866499	-0.994697	0.055806	-0.086391
329	1097583													9.739822	-0.388433	-0.936344	-0.091400	-0.866045	0.491540	-0.047263	0.496822	0.866564	-0.994692	0.055972	-0.086342
330	1097750													9.763468	-0.364340	-0.939437	-0.091512	-0.866110	0.491405	-0.047212	0.496694	0.866641	-0.994684	0.056108	-0.086344
331	1097917													9.761665	-0.370009	-0.943128	-0.091598	-0.866180	0.491266	-0.047197	0.496562	0.866717	-0.994677	0.056203	-0.086365
332	1098083													9.775183	-0.357697	-0.939543	-0.091590	-0.866244	0.491154	-0.047239	0.496451	0.866778	-0.994676	0.056187	-0.086391
333	1098250													9.743023	-0.364203	-0.924540	-0.091528	-0.866280	0.491103	-0.047330	0.496400	0.866803	-0.994677	0.056093	-0.086436
334	1098417													9.763093	-0.373174	-0.925130	-0.091421	-0.866327	0.491039	-0.047494	0.496336	0.866830	-0.994679	0.055926	-0.086521
335	1098583													9.803029	-0.412305	-0.924175	-0.091249	-0.866410	0.490926	-0.047685	0.496218	0.866887	-0.994686	0.055693	-0.086594
336	1098750													9.732261	-0.405307	-0.919527	-0.090950	-0.866515	0.490795	-0.047834	0.496070	0.866964	-0.994706	0.055374	-0.086567
337	1098917													9.695671	-0.434720	-0.901725	-0.090799	-0.866636	0.490610	-0.047936	0.495877	0.867069	-0.994715	0.055211	-0.086568
338	1099083													9.760783	-0.435775	-0.912695	-0.090643	-0.866780	0.490384	-0.048038	0.495644	0.867196	-0.994724	0.055048	-0.086565
339	1099250													9.722121	-0.385983	-0.892687	-0.090554	-0.866927	0.490140	-0.048005	0.495390	0.867343	-0.994734	0.055013	-0.086477
340	1099417													9.760253	-0.371443	-0.895554	-0.090521	-0.866989	0.490037	-0.047868	0.495276	0.867416	-0.994743	0.055063	-0.086334
341	1099583													9.805932	-0.393032	-0.879053	-0.090413	-0.867018	0.490006	-0.047776	0.495231	0.867447	-0.994758	0.055018	-0.086198
342	1099750													9.777569	-0.372660	-0.856769	-0.090186	-0.867050	0.489991	-0.047709	0.495192	0.867473	-0.994782	0.054858	-0.086025
343	1099917													9.737651	-0.347754	-0.856050	-0.089922	-0.867015	0.490101	-0.047613	0.495275	0.867431	-0.994810	0.054666	-0.085817
344	1100083													9.743674	-0.346597	-0.849621	-0.089672	-0.866940	0.490279	-0.047512	0.495425	0.867350	-0.994837	0.054483	-0.085616
345	1100250													9.741890	-0.385108	-0.822595	-0.089399	-0.866863	0.490466	-0.047395	0.495582	0.867267	-0.994868	0.054287	-0.085389
346	1100417													9.702500	-0.403670	-0.822598	-0.089140	-0.866800	0.490623	-0.047278	0.495711	0.867200	-0.994896	0.054106	-0.085168
347	1100583													9.718101	-0.408901	-0.845349	-0.088949	-0.866765	0.490721	-0.047229	0.495790	0.867157	-0.994916	0.053956	-0.085036
348	1100750													9.726764	-0.411930	-0.857983	-0.088820	-0.866770	0.490735	-0.047280	0.495795	0.867151	-0.994925	0.053818	-0.085018
349	1100917													9.746745	-0.370180	-0.842497	-0.088749	-0.866818	0.490663	-0.047307	0.495719	0.867194	-0.994930	0.053751	-0.085001
350	1101083													9.738004	-0.417192	-0.848746	-0.088744	-0.866847	0.490612	-0.047386	0.495672	0.867216	-0.994927	0.053712	-0.085064
351	1101250													9.746056	-0.426741	-0.862713	-0.088808	-0.866923	0.490467	-0.047515	0.495540	0.867285	-0.994915	0.053717	-0.085200
352	1101417													9.763370	-0.400732	-0.874110	-0.088947	-0.867021	0.490269	-0.047610	0.495358	0.867383	-0.994898	0.053810	-0.085339
353	1101583													9.772038	-0.405043	-0.871682	-0.089093	-0.867089	0.490122	-0.047674	0.495227	0.867454	-0.994882	0.053918	-0.085458
354	1101750													9.755147	-0.404504	-0.884105	-0.089283	-0.867154	0.489971	-0.047731	0.495096	0.867526	-0.994862	0.054069	-0.085594
355	1101917													9.783422	-0.393487	-0.881973	-0.089415	-0.867203	0.489860	-0.047813	0.495001	0.867576	-0.994846	0.054152	-0.085724
356	1102083													9.762247	-0.387924	-0.893084	-0.089472	-0.867223	0.489815	-0.047933	0.494967	0.867589	-0.994835	0.054146	-0.085854
357	1102250													9.746994	-0.393193	-0.895018	-0.089508	-0.867232	0.489793	-0.048071	0.494956	0.867587	-0.994825	0.054112	-0.085991
358	1102417													9.753791	-0.406991	-0.886612	-0.089482	-0.867236	0.489790	-0.048205	0.494958	0.867579	-0.994821	0.054022	-0.086095
359	1102583													9.753290	-0.415735	-0.898691	-0.089426	-0.867217	0.489834	-0.048333	0.495004	0.867545	-0.994820	0.053906	-0.086181
360	1102750													9.747715	-0.437546	-0.898421	-0.089334	-0.867223	0.489841	-0.048432	0.495008	0.867538	-0.994823	0.053777	-0.086222
361	1102917													9.746838	-0.455235	-0.910380	-0.089236	-0.867299	0.489723	-0.048528	0.494887	0.867601	-0.994828	0.053656	-0.086250
362	1103084													9.739130	-0.441782	-0.893211	-0.089159	-0.867357	0.489636	-0.048583	0.494795	0.867650	-0.994832	0.053571	-0.086254
363	1103250													9.760352	-0.422643	-0.903207	-0.089088	-0.867443	0.489495	-0.048599	0.494649	0.867733	-0.994837	0.053515	-0.086225
364	1103417													9.759106	-0.385201	-0.888105	-0.089044	-0.867519	0.489369	-0.048602	0.494520	0.867806	-0.994841	0.053489	-0.086198
365	1103584													9.780151	-0.381525	-0.895434	-0.088947	-0.867504	0.489413	-0.048628	0.494556	0.867784	-0.994849	0.053388	-0.086174
366	1103750													9.736818	-0.389167	-0.882494	-0.088802	-0.867466	0.489507	-0.048659	0.494640	0.867735	-0.994860	0.053238	-0.086135
367	1103917													9.732838	-0.406578	-0.881916	-0.088720	-0.867367	0.489697	-0.048683	0.494824	0.867628	-0.994866	0.053136	-0.086127
368	1104084													9.754186	-0.430434	-0.878879	-0.088633	-0.867311	0.489813	-0.048727	0.494935	0.867563	-0.994872	0.053027	-0.086128
369	1104250													9.781030	-0.457321	-0.891165	-0.088485	-0.867276	0.489901	-0.048789	0.495013	0.867514	-0.994882	0.052860	-0.086115
370	1104417													9.777164	-0.465146	-0.886637	-0.088270	-0.867234	0.490013	-0.048854	0.495110	0.867456	-0.994898	0.052632	-0.086071
371	1104584													9.787264	-0.492776	-0.863603	-0.087975	-0.867281	0.489983	-0.048919	0.495058	0.867482	-0.994921	0.052348	-0.085979
372	1104750													9.750126	-0.446731	-0.855931	-0.087577	-0.867414	0.489819	-0.048945	0.494862	0.867592	-0.994955	0.052007	-0.085795
373	1104917													9.693575	-0.464121	-0.846010	-0.087278	-0.867520	0.489686	-0.048915	0.494701	0.867686	-0.994982	0.051777	-0.085612
374	1105084													9.746385	-0.473074	-0.867576	-0.087094	-0.867674	0.489446	-0.048919	0.494445	0.867831	-0.994998	0.051639	-0.085509
375	1105250													9.721311	-0.418035	-0.842760	-0.086939	-0.867832	0.489192	-0.048875	0.494176	0.867987	-0.995014	0.051553	-0.085379
376	1105417													9.747131	-0.391344	-0.852872	-0.086884	-0.867904	0.489075	-0.048652	0.494042	0.868076	-0.995030	0.051627	-0.085149
377	1105584													9.757138	-0.392056	-0.847078	-0.086819	-0.867911	0.489074	-0.048467	0.494026	0.868095	-0.995044	0.051663	-0.084956
378	1105750													9.779690	-0.398243	-0.839672	-0.086767	-0.867846	0.489198	-0.048316	0.494138	0.868040	-0.995056	0.051681	-0.084806
379	1105917													9.796376	-0.385247	-0.852965	-0.086583	-0.867793	0.489325	-0.048176	0.494242	0.867988	-0.995079	0.051579	-0.084600
380	1106084													9.769183	-0.368275	-0.823061	-0.086292	-0.867742	0.489466	-0.048065	0.494353	0.867932	-0.995110	0.051370	-0.084367
381	1106250													9.731417	-0.389950	-0.828448	-0.085983	-0.867622	0.489734	-0.047938	0.494588	0.867805	-0.995143	0.051140	-0.084119
382	1106417													9.719597	-0.426041	-0.816620	-0.085744	-0.867506	0.489980	-0.047810	0.494807	0.867686	-0.995169	0.050973	-0.083902
383	1106584													9.710950	-0.445708	-0.791923	-0.085588	-0.867442	0.490121	-0.047758	0.494932	0.867618	-0.995185	0.050851	-0.083788
384	1106750													9.720526	-0.438305	-0.819658	-0.085504	-0.867463	0.490099	-0.047800	0.494905	0.867631	-0.995191	0.050759	-0.083781
385	1106917													9.762463	-0.416031	-0.806382	-0.085422	-0.867510	0.490030	-0.047827	0.494831	0.867672	-0.995196	0.050682	-0.083759
386	1107084													9.721941	-0.427964	-0.815204	-0.085379	-0.867607	0.489866	-0.047917	0.494668	0.867760	-0.995196	0.050615	-0.083807
387	1107250													9.755104	-0.420417	-0.816015	-0.085424	-0.867681	0.489728	-0.048032	0.494539	0.867827	-0.995186	0.050610	-0.083922
388	1107417													9.748209	-0.396677	-0.838036	-0.085515	-0.867803	0.489495	-0.048153	0.494320	0.867945	-0.995173	0.050652	-0.084059
389	1107584													9.771852	-0.380621	-0.840434	-0.085664	-0.867875	0.489341	-0.048192	0.494181	0.868022	-0.995158	0.050776	-0.084158
390	1107750													9.749305	-0.392981	-0.873333	-0.085870	-0.867891	0.489276	-0.048228	0.494135	0.868046	-0.995138	0.050942	-0.084288
391	1107917													9.784569	-0.395325	-0.866575	-0.086062	-0.867913	0.489203	-0.048273	0.494081	0.868075	-0.995120	0.051093	-0.084419
392	1108084													9.780260	-0.406021	-0.873517	-0.086149	-0.867944	0.489133	-0.048323	0.494021	0.868106	-0.995110	0.051150	-0.084502
393	1108250													9.778020	-0.414127	-0.881592	-0.086191	-0.867933	0.489145	-0.048393	0.494040	0.868091	-0.995103	0.051150	-0.084584
394	1108417													9.746973	-0.394041	-0.847854	-0.086169	-0.867921	0.489170	-0.048420	0.494064	0.868076	-0.995103	0.051116	-0.084598
395	1108584													9.757928	-0.412212	-0.861809	-0.086113	-0.867905	0.489210	-0.048362	0.494096	0.868061	-0.995111	0.051092	-0.084522
396	1108750													9.756284	-0.415605	-0.855976	-0.086006	-0.867892	0.489251	-0.048312	0.494126	0.868047	-0.995123	0.051021	-0.084427
397	1108917													9.710869	-0.395979	-0.870488	-0.085952	-0.867856	0.489324	-0.048248	0.494191	0.868014	-0.995130	0.050998	-0.084349
398	1109084													9.741890	-0.384081	-0.862416	-0.086001	-0.867789	0.489434	-0.048182	0.494302	0.867954	-0.995129	0.051063	-0.084323
399	1109250													9.783112	-0.395271	-0.875134	-0.085993	-0.867730	0.489540	-0.048156	0.494406	0.867896	-0.995131	0.051059	-0.084301
400	1109417													9.771198	-0.389986	-0.854518	-0.085920	-0.867688	0.489627	-0.048154	0.494487	0.867850	-0.995138	0.050988	-0.084269
401	1109584													9.770981	-0.405961	-0.866596	-0.085819	-0.867657	0.489700	-0.048142	0.494550	0.867815	-0.995147	0.050899	-0.084213
402	1109750													9.776800	-0.429070	-0.859824	-0.085734	-0.867602	0.489812	-0.048136	0.494655	0.867755	-0.995155	0.050819	-0.084172
403	1109917													9.750489	-0.438449	-0.842719	-0.085660	-0.867585	0.489855	-0.048184	0.494694	0.867730	-0.995159	0.050727	-0.084179
404	1110084													9.748050	-0.431656	-0.856062	-0.085607	-0.867600	0.489838	-0.048267	0.494677	0.867736	-0.995159	0.050641	-0.084224
405	1110250													9.762016	-0.410103	-0.858017	-0.085520	-0.867616	0.489826	-0.048341	0.494661	0.867741	-0.995163	0.050531	-0.084245
406	1110417													9.777472	-0.367155	-0.854717	-0.085426	-0.867578	0.489909	-0.048294	0.494734	0.867702	-0.995173	0.050465	-0.084162
407	1110584													9.756880	-0.361640	-0.848807	-0.085317	-0.867464	0.490129	-0.048163	0.494938	0.867592	-0.995189	0.050415	-0.084006
408	1110750													9.734618	-0.394732	-0.830309	-0.085275	-0.867198	0.490607	-0.048038	0.495407	0.867332	-0.995199	0.050394	-0.083905
409	1110917													9.738465	-0.430737	-0.813170	-0.085269	-0.866846	0.491231	-0.047869	0.496021	0.866990	-0.995207	0.050412	-0.083790
410	1111084													9.751014	-0.460968	-0.837362	-0.085249	-0.866466	0.491904	-0.047622	0.496681	0.866626	-0.995221	0.050454	-0.083604
411	1111250													9.762190	-0.535034	-0.832512	-0.085288	-0.866074	0.492587	-0.047265	0.497349	0.866262	-0.995235	0.050600	-0.083353
412	1111417													9.747936	-0.557194	-0.834915	-0.085275	-0.865836	0.493008	-0.046915	0.497751	0.866050	-0.995252	0.050723	-0.083066
413	1111584													9.743664	-0.497148	-0.834480	-0.085312	-0.865714	0.493216	-0.046430	0.497937	0.865969	-0.995272	0.050977	-0.082675
414	1111750													9.784782	-0.466179	-0.816109	-0.085351	-0.865599	0.493410	-0.045878	0.498106	0.865902	-0.995294	0.051269	-0.082226
415	1111917													9.749986	-0.437342	-0.831590	-0.085300	-0.865604	0.493411	-0.045538	0.498085	0.865931	-0.995314	0.051395	-0.081905
416	1112084													9.792336	-0.430904	-0.834379	-0.085261	-0.865639	0.493355	-0.045349	0.498017	0.865981	-0.995326	0.051461	-0.081717
417	1112250													9.760798	-0.405327	-0.820051	-0.085128	-0.865747	0.493189	-0.045288	0.497836	0.866088	-0.995340	0.051392	-0.081588
418	1112417													9.765512	-0.403616	-0.816300	-0.085024	-0.865860	0.493009	-0.045282	0.497648	0.866197	-0.995349	0.051323	-0.081520
419	1112584													9.747111	-0.423121	-0.808765	-0.084873	-0.865963	0.492853	-0.045279	0.497479	0.866294	-0.995362	0.051209	-0.081432
420	1112750													9.710967	-0.429940	-0.824843	-0.084739	-0.866110	0.492618	-0.045319	0.497235	0.866432	-0.995372	0.051095	-0.081387
421	1112917													9.717060	-0.448643	-0.820033	-0.084702	-0.866277	0.492330	-0.045403	0.496948	0.866592	-0.995371	0.051049	-0.081424
422	1113084													9.732036	-0.415934	-0.831408	-0.084693	-0.866511	0.491920	-0.045522	0.496543	0.866817	-0.995367	0.051020	-0.081499
423	1113250													9.763874	-0.389200	-0.845365	-0.084702	-0.866704	0.491579	-0.045578	0.496205	0.867008	-0.995363	0.051033	-0.081532
424	1113417													9.766004	-0.384813	-0.853476	-0.084744	-0.866876	0.491269	-0.045648	0.495903	0.867178	-0.995357	0.051063	-0.081596
425	1113584													9.764819	-0.379757	-0.860437	-0.084767	-0.867034	0.490985	-0.045737	0.495625	0.867331	-0.995351	0.051065	-0.081668
426	1113750													9.772868	-0.351797	-0.843672	-0.084818	-0.867148	0.490774	-0.045755	0.495419	0.867448	-0.995345	0.051120	-0.081697
427	1113917													9.790662	-0.363622	-0.850944	-0.084808	-0.867213	0.490663	-0.045753	0.495307	0.867513	-0.995346	0.051123	-0.081684
428	1114084													9.762313	-0.361719	-0.843720	-0.084838	-0.867270	0.490557	-0.045778	0.495204	0.867570	-0.995343	0.051146	-0.081714
429	1114250													9.784940	-0.365070	-0.858723	-0.084830	-0.867309	0.490489	-0.045811	0.495138	0.867606	-0.995342	0.051129	-0.081735
430	1114417													9.759695	-0.369330	-0.847964	-0.084756	-0.867329	0.490465	-0.045902	0.495113	0.867615	-0.995344	0.051023	-0.081776
431	1114584													9.750438	-0.350570	-0.829930	-0.084660	-0.867345	0.490455	-0.045976	0.495098	0.867620	-0.995349	0.050903	-0.081792
432	1114750													9.747225	-0.375884	-0.815379	-0.084592	-0.867303	0.490541	-0.045984	0.495179	0.867573	-0.995354	0.050832	-0.081770
433	1114917													9.737637	-0.400700	-0.824312	-0.084525	-0.867295	0.490567	-0.046034	0.495202	0.867558	-0.995357	0.050747	-0.081782
434	1115084													9.727134	-0.395807	-0.807812	-0.084512	-0.867265	0.490622	-0.046058	0.495257	0.867525	-0.995357	0.050719	-0.081800
435	1115250													9.735514	-0.402631	-0.829026	-0.084561	-0.867272	0.490601	-0.046052	0.495240	0.867535	-0.995354	0.050766	-0.081817
436	1115417													9.739776	-0.400557	-0.840795	-0.084664	-0.867319	0.490499	-0.046054	0.495147	0.867588	-0.995345	0.050864	-0.081865
437	1115584													9.766719	-0.374787	-0.838016	-0.084784	-0.867350	0.490423	-0.046031	0.495080	0.867627	-0.995336	0.050986	-0.081900
438	1115750													9.792800	-0.392972	-0.844446	-0.084893	-0.867353	0.490399	-0.046012	0.495063	0.867638	-0.995327	0.051092	-0.081937
439	1115917													9.788705	-0.402913	-0.830850	-0.084932	-0.867384	0.490338	-0.046025	0.495006	0.867670	-0.995323	0.051125	-0.081963
440	1116084													9.751408	-0.406953	-0.835376	-0.084925	-0.867415	0.490285	-0.046093	0.494956	0.867694	-0.995321	0.051090	-0.082016
441	1116250													9.773559	-0.400681	-0.834376	-0.084852	-0.867459	0.490219	-0.046172	0.494888	0.867729	-0.995323	0.050995	-0.082044
442	1116417													9.770082	-0.412672	-0.827256	-0.084695	-0.867540	0.490104	-0.046264	0.494765	0.867795	-0.995332	0.050824	-0.082040
443	1116584													9.750246	-0.402149	-0.827062	-0.084560	-0.867611	0.490001	-0.046397	0.494657	0.867849	-0.995338	0.050651	-0.082083
444	1116750													9.750664	-0.429779	-0.824176	-0.084364	-0.867687	0.489900	-0.046516	0.494546	0.867906	-0.995349	0.050432	-0.082084
445	1116917													9.768857	-0.446252	-0.851658	-0.084233	-0.867780	0.489758	-0.046649	0.494400	0.867982	-0.995354	0.050267	-0.082126
446	1117084													9.718256	-0.424927	-0.812371	-0.084089	-0.867868	0.489627	-0.046747	0.494262	0.868055	-0.995361	0.050105	-0.082132
447	1117250													9.689558	-0.454125	-0.828332	-0.084128	-0.867917	0.489533	-0.046761	0.494172	0.868106	-0.995357	0.050141	-0.082158
448	1117417													9.747408	-0.470171	-0.854133	-0.084290	-0.867971	0.489410	-0.046804	0.494064	0.868165	-0.995341	0.050272	-0.082269
449	1117584													9.752689	-0.426917	-0.835953	-0.084435	-0.867995	0.489342	-0.046685	0.494002	0.868206	-0.995335	0.050462	-0.082234
450	1117750													9.798637	-0.414390	-0.844407	-0.084535	-0.867959	0.489389	-0.046402	0.494043	0.868198	-0.995339	0.050685	-0.082039
451	1117917													9.807355	-0.419847	-0.839976	-0.084500	-0.867901	0.489497	-0.046198	0.494138	0.868155	-0.995352	0.050745	-0.081850
452	1118084													9.813065	-0.391964	-0.846905	-0.084333	-0.867813	0.489682	-0.045998	0.494299	0.868074	-0.995375	0.050683	-0.081603
453	1118250													9.793946	-0.372751	-0.816575	-0.084029	-0.867690	0.489953	-0.045825	0.494537	0.867948	-0.995409	0.050481	-0.081317
454	1118417													9.770119	-0.366773	-0.811879	-0.083657	-0.867510	0.490334	-0.045676	0.494880	0.867760	-0.995447	0.050198	-0.081025
455	1118584													9.714588	-0.425542	-0.815941	-0.083335	-0.867285	0.490787	-0.045575	0.495302	0.867525	-0.995479	0.049927	-0.080803
456	1118750													9.685253	-0.464913	-0.787170	-0.083169	-0.867118	0.491111	-0.045503	0.495609	0.867353	-0.995496	0.049789	-0.080676
457	1118917													9.716726	-0.503025	-0.809083	-0.083186	-0.867006	0.491306	-0.045467	0.495803	0.867244	-0.995496	0.049804	-0.080664
458	1119084													9.732888	-0.475085	-0.784552	-0.083282	-0.866986	0.491325	-0.045476	0.495830	0.867228	-0.995488	0.049881	-0.080721
459	1119250													9.750111	-0.461181	-0.798231	-0.083403	-0.867038	0.491212	-0.045397	0.495724	0.867293	-0.995481	0.050036	-0.080706
460	1119417													9.766042	-0.457617	-0.797968	-0.083617	-0.867122	0.491027	-0.045348	0.495553	0.867393	-0.995466	0.050262	-0.080759
461	1119584													9.765058	-0.405174	-0.807906	-0.083814	-0.867244	0.490778	-0.045292	0.495318	0.867530	-0.995452	0.050483	-0.080794
462	1119751													9.770400	-0.344877	-0.836962	-0.084034	-0.867322	0.490603	-0.045124	0.495152	0.867634	-0.995441	0.050773	-0.080747
463	1119917													9.778004	-0.360621	-0.833517	-0.084261	-0.867314	0.490577	-0.044931	0.495134	0.867654	-0.995430	0.051067	-0.080690
464	1120084													9.773435	-0.350215	-0.829055	-0.084490	-0.867232	0.490683	-0.044790	0.495251	0.867594	-0.995417	0.051325	-0.080687
465	1120251													9.775929	-0.357614	-0.845997	-0.084653	-0.867128	0.490840	-0.044695	0.495416	0.867505	-0.995408	0.051499	-0.080695
466	1120417													9.764358	-0.361995	-0.845887	-0.084735	-0.867032	0.490995	-0.044585	0.495573	0.867421	-0.995406	0.051609	-0.080649
467	1120584													9.724958	-0.368935	-0.833914	-0.084834	-0.866882	0.491242	-0.044481	0.495823	0.867284	-0.995402	0.051724	-0.080623
468	1120751													9.738131	-0.396606	-0.848253	-0.084959	-0.866745	0.491462	-0.044367	0.496047	0.867162	-0.995396	0.051868	-0.080598
469	1120917													9.724401	-0.426463	-0.853040	-0.085101	-0.866675	0.491562	-0.044289	0.496154	0.867104	-0.995388	0.052020	-0.080607
470	1121084													9.717394	-0.446661	-0.865461	-0.085324	-0.866675	0.491522	-0.044263	0.496131	0.867119	-0.995370	0.052229	-0.080694
471	1121251													9.747971	-0.427041	-0.850317	-0.085559	-0.866709	0.491421	-0.044193	0.496046	0.867171	-0.995352	0.052477	-0.080744
472	1121417													9.780645	-0.377520	-0.863590	-0.085718	-0.866799	0.491235	-0.044041	0.495864	0.867283	-0.995346	0.052707	-0.080679
473	1121584													9.808199	-0.345122	-0.870831	-0.085824	-0.866887	0.491061	-0.043831	0.495687	0.867394	-0.995346	0.052920	-0.080539
474	1121751													9.822171	-0.341610	-0.875130	-0.085851	-0.866945	0.490954	-0.043637	0.495572	0.867470	-0.995352	0.053050	-0.080376
475	1121917													9.804870	-0.317457	-0.870553	-0.085816	-0.866997	0.490869	-0.043506	0.495477	0.867531	-0.995361	0.053092	-0.080240
476	1122084													9.778094	-0.325857	-0.882218	-0.085764	-0.866994	0.490884	-0.043446	0.495485	0.867529	-0.995368	0.053076	-0.080162
477	1122251													9.763368	-0.336947	-0.854513	-0.085709	-0.866948	0.490974	-0.043464	0.495571	0.867479	-0.995372	0.053011	-0.080156
478	1122417													9.747167	-0.355463	-0.846286	-0.085622	-0.866922	0.491036	-0.043532	0.495630	0.867442	-0.995376	0.052896	-0.080175
479	1122584													9.688690	-0.383903	-0.851197	-0.085619	-0.866917	0.491044	-0.043707	0.495648	0.867423	-0.995369	0.052806	-0.080327
480	1122751													9.738511	-0.418817	-0.832299	-0.085711	-0.866961	0.490951	-0.043965	0.495576	0.867451	-0.995349	0.052766	-0.080592
481	1122917													9.688570	-0.412505	-0.836933	-0.085811	-0.867071	0.490738	-0.044197	0.495383	0.867550	-0.995331	0.052756	-0.080831
482	1123084													9.722641	-0.447413	-0.855172	-0.086045	-0.867201	0.490468	-0.044468	0.495146	0.867671	-0.995298	0.052849	-0.081167
483	1123251													9.771880	-0.462917	-0.847955	-0.086257	-0.867401	0.490077	-0.044799	0.494790	0.867857	-0.995265	0.052904	-0.081538
484	1123417													9.746919	-0.430714	-0.835197	-0.086476	-0.867653	0.489592	-0.045048	0.494336	0.868103	-0.995235	0.053015	-0.081834
485	1123584													9.789917	-0.442251	-0.823646	-0.086723	-0.867903	0.489105	-0.045266	0.493881	0.868350	-0.995204	0.053166	-0.082117
486	1123751													9.779683	-0.452283	-0.867028	-0.086886	-0.868222	0.488509	-0.045638	0.493317	0.868651	-0.995172	0.053179	-0.082486
487	1123917													9.790471	-0.427577	-0.858655	-0.087016	-0.868586	0.487838	-0.046074	0.492681	0.868990	-0.995141	0.053139	-0.082890
488	1124084													9.809147	-0.417968	-0.834992	-0.087033	-0.868989	0.487118	-0.046510	0.491985	0.869361	-0.995119	0.053008	-0.083235
489	1124251													9.786133	-0.407698	-0.836809	-0.086926	-0.869356	0.486482	-0.046904	0.491360	0.869692	-0.995110	0.052781	-0.083488
490	1124417													9.709688	-0.402795	-0.837194	-0.086768	-0.869669	0.485950	-0.047253	0.490833	0.869971	-0.995107	0.052523	-0.083683
491	1124584													9.652558	-0.368207	-0.832153	-0.086767	-0.869908	0.485523	-0.047552	0.490422	0.870187	-0.995093	0.052415	-0.083919
492	1124751													9.635347	-0.311941	-0.824894	-0.086934	-0.870014	0.485303	-0.047691	0.490223	0.870291	-0.995072	0.052513	-0.084109
493	1124917													9.729617	-0.260589	-0.814822	-0.087237	-0.869823	0.485591	-0.047454	0.490524	0.870135	-0.995057	0.052865	-0.084068
494	1125084													9.822009	-0.385764	-0.834830	-0.087398	-0.869398	0.486322	-0.047062	0.491248	0.869747	-0.995061	0.053127	-0.083849
495	1125251													9.845656	-0.464705	-0.873171	-0.087432	-0.868880	0.487240	-0.046780	0.492155	0.869250	-0.995071	0.053208	-0.083676
496	1125417													9.810143	-0.523588	-0.892924	-0.087287	-0.868375	0.488166	-0.046574	0.493057	0.868749	-0.995094	0.053094	-0.083481
497	1125584													9.778765	-0.527157	-0.904907	-0.087080	-0.867937	0.488981	-0.046317	0.493842	0.868317	-0.995124	0.052965	-0.083204
498	1125751													9.778470	-0.563519	-0.930248	-0.086793	-0.867620	0.489595	-0.046078	0.494420	0.868001	-0.995160	0.052777	-0.082890
499	1125917													9.807702	-0.580345	-0.909461	-0.086443	-0.867493	0.489882	-0.045902	0.494668	0.867869	-0.995199	0.052534	-0.082581
500	1126084													9.831924	-0.563732	-0.918270	-0.085927	-0.867592	0.489796	-0.045847	0.494537	0.867946	-0.995246	0.052124	-0.082271
501	1126251													9.727520	-0.457814	-0.918757	-0.085264	-0.867861	0.489436	-0.045887	0.494124	0.868180	-0.995301	0.051566	-0.081955
502	1126417													9.771505	-0.360413	-0.910452	-0.084648	-0.868188	0.488963	-0.046049	0.493608	0.868464	-0.995346	0.050997	-0.081762
503	1126584													9.823532	-0.252832	-0.929399	-0.083791	-0.868458	0.488630	-0.046347	0.493221	0.868669	-0.995405	0.050140	-0.081578
504	1126751													9.835214	-0.279671	-0.885925	-0.082750	-0.868588	0.488578	-0.046675	0.493099	0.868720	-0.995477	0.049082	-0.081345
505	1126917													9.869233	-0.377995	-0.883818	-0.081433	-0.868603	0.488771	-0.047177	0.493210	0.868630	-0.995562	0.047676	-0.081142
506	1127084													9.781547	-0.437044	-0.881668	-0.079923	-0.868570	0.489079	-0.047670	0.493418	0.868485	-0.995661	0.046097	-0.080840
507	1127251													9.746281	-0.512232	-0.865294	-0.078327	-0.868495	0.489471	-0.048070	0.493699	0.868303	-0.995768	0.044483	-0.080419
508	1127417													9.784898	-0.528350	-0.828360	-0.076634	-0.868480	0.489764	-0.048292	0.493865	0.868196	-0.995889	0.042882	-0.079787
509	1127584													9.811090	-0.529061	-0.815165	-0.074792	-0.868561	0.489906	-0.048320	0.493861	0.868197	-0.996028	0.041262	-0.078906
510	1127751													9.766246	-0.503483	-0.783475	-0.072916	-0.868683	0.489973	-0.048219	0.493777	0.868251	-0.996172	0.039684	-0.077892
511	1127917													9.775942	-0.446188	-0.774706	-0.071065	-0.868839	0.489968	-0.048115	0.493624	0.868343	-0.996311	0.038134	-0.076883
512	1128084													9.778447	-0.404900	-0.714547	-0.069255	-0.868994	0.489952	-0.048095	0.493469	0.868433	-0.996439	0.036579	-0.075969
513	1128251													9.814782	-0.409300	-0.676782	-0.067442	-0.869179	0.489876	-0.048194	0.493259	0.868546	-0.996559	0.034968	-0.075156
514	1128417													9.760386	-0.409669	-0.617653	-0.065679	-0.869343	0.489825	-0.048404	0.493083	0.868635	-0.996666	0.033342	-0.074465
515	1128584													9.767593	-0.434309	-0.605535	-0.064034	-0.869515	0.489738	-0.048697	0.492883	0.868732	-0.996759	0.031779	-0.073904
516	1128751													9.731280	-0.486129	-0.586107	-0.062517	-0.869742	0.489531	-0.049084	0.492576	0.868884	-0.996836	0.030292	-0.073485
517	1128917													9.732365	-0.503263	-0.577441	-0.061160	-0.870010	0.489226	-0.049535	0.492185	0.869080	-0.996898	0.028919	-0.073198
518	1129084													9.706394	-0.482436	-0.563126	-0.059890	-0.870334	0.488807	-0.049936	0.491685	0.869340	-0.996955	0.027656	-0.072908
519	1129251													9.713452	-0.501064	-0.568801	-0.058830	-0.870645	0.488382	-0.050273	0.491192	0.869599	-0.997001	0.026606	-0.072667
520	1129417													9.792072	-0.476855	-0.587034	-0.057794	-0.870961	0.487941	-0.050580	0.490685	0.869868	-0.997046	0.025593	-0.072412
521	1129584													9.785819	-0.432608	-0.566222	-0.056753	-0.871211	0.487617	-0.050735	0.490290	0.870082	-0.997098	0.024641	-0.072026
522	1129751													9.803316	-0.419065	-0.581087	-0.055642	-0.871373	0.487455	-0.050793	0.490050	0.870213	-0.997158	0.023661	-0.071527
523	1129917													9.830713	-0.424041	-0.590693	-0.054381	-0.871457	0.487448	-0.050935	0.489956	0.870258	-0.997220	0.022497	-0.071032
524	1130084													9.788257	-0.448234	-0.564299	-0.052945	-0.871479	0.487566	-0.051095	0.489975	0.870238	-0.997289	0.021163	-0.070470
525	1130251													9.753138	-0.451453	-0.563077	-0.051456	-0.871466	0.487749	-0.051300	0.490058	0.870179	-0.997357	0.019754	-0.069923
526	1130417													9.815070	-0.495035	-0.562147	-0.049938	-0.871463	0.487912	-0.051508	0.490119	0.870132	-0.997423	0.018322	-0.069363
527	1130584													9.880241	-0.528906	-0.541160	-0.048105	-0.871530	0.487977	-0.051651	0.490059	0.870158	-0.997506	0.016654	-0.068590
528	1130751													9.879457	-0.555115	-0.563414	-0.045910	-0.871697	0.487889	-0.051824	0.489825	0.870279	-0.997600	0.014670	-0.067662
529	1130917													9.913054	-0.568107	-0.573506	-0.043262	-0.871991	0.487606	-0.052108	0.489368	0.870519	-0.997704	0.012252	-0.066609
530	1131084													10.094100	-0.551254	-0.511358	-0.040064	-0.872389	0.487168	-0.052508	0.488724	0.870857	-0.997816	0.009310	-0.065388
531	1131251													10.080747	-0.531692	-0.502885	-0.035815	-0.872863	0.486650	-0.052966	0.487936	0.871271	-0.997954	0.005429	-0.063707
532	1131417													9.861577	-0.515189	-0.487232	-0.031108	-0.873398	0.486013	-0.053559	0.487006	0.871755	-0.998080	0.001088	-0.061928
533	1131584													9.872642	-0.507959	-0.451764	-0.026175	-0.873925	0.485355	-0.054269	0.486048	0.872246	-0.998183	-0.003509	-0.060149
534	1131751													9.854522	-0.498486	-0.434669	-0.021070	-0.874501	0.484566	-0.054998	0.484953	0.872809	-0.998264	-0.008261	-0.058314
535	1131917													9.841111	-0.484957	-0.427829	-0.015798	-0.875069	0.483741	-0.055681	0.483821	0.873394	-0.998324	-0.013137	-0.056369
536	1132084													9.879301	-0.502390	-0.404796	-0.010304	-0.875579	0.482966	-0.056374	0.482732	0.873952	-0.998357	-0.018222	-0.054334
537	1132251													9.967708	-0.492922	-0.396172	-0.004399	-0.876045	0.482209	-0.057066	0.481648	0.874505	-0.998361	-0.023671	-0.052111
538	1132417													10.017916	-0.489852	-0.338802	0.002106	-0.876435	0.481516	-0.057807	0.480605	0.875030	-0.998326	-0.029678	-0.049652
539	1132584													10.105309	-0.514103	-0.293634	0.009484	-0.876728	0.480894	-0.058620	0.479601	0.875527	-0.998235	-0.036493	-0.046845
540	1132751													10.106001	-0.525779	-0.270866	0.017913	-0.876959	0.480231	-0.059478	0.478523	0.876058	-0.998069	-0.044256	-0.043588
541	1132917													10.066769	-0.533346	-0.213727	0.027426	-0.877079	0.479562	-0.060304	0.477417	0.876605	-0.997803	-0.052962	-0.039797
542	1133084													10.156635	-0.568231	-0.145866	0.038068	-0.877053	0.478883	-0.061084	0.476291	0.877163	-0.997406	-0.062644	-0.035443
543	1133251													10.250840	-0.602455	-0.052161	0.050144	-0.876870	0.478106	-0.061847	0.475063	0.877776	-0.996825	-0.073584	-0.030410
544	1133417													10.186325	-0.632253	0.028133	0.063746	-0.876519	0.477127	-0.062530	0.473652	0.878489	-0.996005	-0.085835	-0.024615
545	1133584													10.070537	-0.633751	0.112311	0.078603	-0.875968	0.475923	-0.063128	0.472068	0.879299	-0.994905	-0.099160	-0.018192
546	1133751													10.216923	-0.636994	0.381074	0.094422	-0.875171	0.474510	-0.063612	0.470361	0.880178	-0.993498	-0.113293	-0.011259
547	1133917													10.375293	-0.662731	0.629217	0.111875	-0.874065	0.472751	-0.064073	0.468403	0.881189	-0.991655	-0.128873	-0.003601
548	1134084													9.830069	-0.655110	0.865179	0.130553	-0.872651	0.470571	-0.064526	0.466148	0.882351	-0.989339	-0.145558	0.004548
549	1134251													9.455847	-0.620574	1.048330	0.148949	-0.871076	0.468018	-0.064922	0.463662	0.883630	-0.986711	-0.162000	0.012510
550	1134417													9.278779	-0.592559	1.275275	0.166354	-0.869416	0.465233	-0.065361	0.461047	0.884965	-0.983898	-0.177625	0.019872
551	1134584													9.116386	-0.554711	1.533533	0.182365	-0.867784	0.462270	-0.065942	0.458301	0.886348	-0.981017	-0.192122	0.026355
552	1134751													9.107489	-0.514446	1.748478	0.196739	-0.866239	0.459264	-0.066635	0.455522	0.887727	-0.978189	-0.205253	0.031897
553	1134917													9.174664	-0.434154	1.920386	0.209594	-0.864739	0.456396	-0.067454	0.452864	0.889024	-0.975459	-0.217120	0.036587
554	1135084													9.291069	-0.435307	2.050689	0.221323	-0.863138	0.453882	-0.068426	0.450533	0.890134	-0.972797	-0.228064	0.040652
555	1135251													9.300153	-0.451374	2.044396	0.232379	-0.861386	0.451679	-0.069475	0.448505	0.891076	-0.970141	-0.238448	0.044379
556	1135417													9.378424	-0.505753	2.099064	0.242881	-0.859421	0.449894	-0.070710	0.446862	0.891804	-0.967476	-0.248414	0.047765
557	1135584													9.727438	-0.642615	2.145665	0.253556	-0.857210	0.448219	-0.072086	0.445328	0.892461	-0.964631	-0.258599	0.051122
558	1135751													10.006887	-0.690890	2.371155	0.265098	-0.854581	0.446558	-0.073407	0.443897	0.893066	-0.961423	-0.269530	0.054944
559	1135917													10.123382	-0.807067	2.398397	0.278451	-0.851315	0.444666	-0.074408	0.442465	0.893694	-0.957564	-0.281937	0.059861
560	1136084													9.368947	-0.815632	2.508005	0.292797	-0.847678	0.442393	-0.075150	0.440837	0.894435	-0.953217	-0.295134	0.065373
561	1136251													9.149740	-0.763979	2.569111	0.306810	-0.843992	0.439938	-0.075588	0.439164	0.895221	-0.948765	-0.307917	0.070944
562	1136418													9.128391	-0.683313	2.664777	0.320621	-0.840199	0.437342	-0.075673	0.437521	0.896019	-0.944180	-0.320378	0.076698
563	1136584													9.362645	-0.648047	2.914402	0.334348	-0.836112	0.434889	-0.075586	0.436169	0.896685	-0.939414	-0.332676	0.082634
564	1136751													9.844703	-0.663287	3.109095	0.349081	-0.831323	0.432486	-0.075399	0.435106	0.897217	-0.934054	-0.345810	0.089206
565	1136918													9.573606	-0.657576	3.256406	0.365346	-0.825644	0.429924	-0.075154	0.434181	0.897685	-0.927833	-0.360276	0.096576
566	1137084													9.001404	-0.661690	3.402329	0.381978	-0.819453	0.427305	-0.074905	0.433393	0.898087	-0.921131	-0.375057	0.104166
567	1137251													8.766285	-0.633253	3.521431	0.398279	-0.812991	0.424758	-0.074681	0.432792	0.898395	-0.914219	-0.389533	0.111657
568	1137418													9.138173	-0.716881	3.896331	0.414086	-0.806229	0.422527	-0.074525	0.432606	0.898498	-0.907182	-0.403544	0.119052
569	1137584													9.726893	-0.873429	4.182539	0.431073	-0.798712	0.419803	-0.074340	0.432231	0.898694	-0.899249	-0.418611	0.126947
570	1137751													8.928107	-0.826626	4.458663	0.449127	-0.790486	0.416433	-0.073923	0.431612	0.899025	-0.890405	-0.434561	0.135414
571	1137918													8.313661	-0.754261	4.695795	0.466211	-0.782377	0.412957	-0.073273	0.431038	0.899354	-0.881634	-0.449547	0.143627
572	1138084													8.123213	-0.632424	4.895732	0.481650	-0.774720	0.409661	-0.072463	0.430648	0.899606	-0.873363	-0.462981	0.151283
573	1138251													8.019777	-0.498096	5.028784	0.495413	-0.767480	0.406868	-0.071681	0.430670	0.899659	-0.865695	-0.474867	0.158345
574	1138418													8.210237	-0.594523	5.196852	0.507571	-0.760544	0.404901	-0.071288	0.431255	0.899409	-0.858656	-0.485379	0.164675
575	1138584													8.791294	-0.734102	5.431622	0.519189	-0.753750	0.402869	-0.071081	0.431664	0.899229	-0.851698	-0.495506	0.170539
576	1138751													8.478155	-0.472561	5.621613	0.531067	-0.746738	0.400438	-0.070929	0.431752	0.899199	-0.844356	-0.505937	0.176324
577	1138918													8.009445	-0.319278	5.839596	0.541937	-0.739793	0.398761	-0.071397	0.432236	0.898930	-0.837381	-0.515633	0.181426
578	1139084													7.978430	-0.436206	5.916030	0.551569	-0.733163	0.397799	-0.072440	0.432999	0.898479	-0.830978	-0.524389	0.185718
579	1139251													7.840125	-0.447095	5.977423	0.560017	-0.726990	0.397324	-0.073881	0.433849	0.897952	-0.825180	-0.532223	0.189252
580	1139418													7.781811	-0.520114	5.942924	0.567263	-0.721224	0.397552	-0.075744	0.435000	0.897239	-0.820046	-0.539083	0.192131
581	1139584													7.792626	-0.786128	5.875525	0.573471	-0.715934	0.398207	-0.077900	0.436219	0.896462	-0.815513	-0.545116	0.194388
582	1139751													7.885701	-0.921586	5.857144	0.578950	-0.711207	0.398750	-0.080112	0.437062	0.895857	-0.811418	-0.550601	0.196061
583	1139918													8.099561	-0.941956	5.836008	0.584294	-0.706734	0.398908	-0.082095	0.437549	0.895439	-0.807379	-0.555948	0.197638
584	1140084													8.228770	-0.916768	5.884815	0.589949	-0.702136	0.398704	-0.083693	0.437954	0.895093	-0.803091	-0.561428	0.199607
585	1140251													8.161415	-1.002663	5.857494	0.596209	-0.697194	0.398065	-0.084905	0.438290	0.894814	-0.798327	-0.567294	0.202118
586	1140418													7.935297	-0.966874	5.935534	0.602776	-0.692168	0.396944	-0.085550	0.438548	0.894627	-0.793311	-0.573218	0.205131
587	1140584													7.846489	-0.986976	5.987658	0.609344	-0.687082	0.395750	-0.085926	0.438953	0.894392	-0.788236	-0.578997	0.208436
588	1140751													7.826242	-1.043560	6.049764	0.615886	-0.682038	0.394347	-0.086128	0.439256	0.894224	-0.783113	-0.584704	0.211789
589	1140918													7.944053	-0.987319	6.209083	0.622458	-0.677059	0.392604	-0.086078	0.439366	0.894175	-0.777905	-0.590381	0.215207
590	1141084													7.753887	-0.841834	6.364409	0.629239	-0.671820	0.390788	-0.085907	0.439606	0.894073	-0.772449	-0.596157	0.218904
591	1141251													7.552497	-0.869534	6.439596	0.635646	-0.666671	0.389234	-0.085757	0.440101	0.893844	-0.767202	-0.601548	0.222577
592	1141418													7.436600	-0.929398	6.563805	0.641419	-0.661945	0.387828	-0.085621	0.440595	0.893613	-0.762398	-0.606387	0.225930
593	1141584													7.445616	-0.892290	6.742801	0.646348	-0.657956	0.386430	-0.085501	0.440793	0.893527	-0.758237	-0.610570	0.228650
594	1141751													7.368628	-0.835458	6.924154	0.650509	-0.654525	0.385273	-0.085376	0.441040	0.893418	-0.754685	-0.614069	0.231020
595	1141918													7.342407	-0.852045	6.992418	0.653770	-0.651799	0.384374	-0.085052	0.441449	0.893246	-0.751898	-0.616669	0.233170
596	1142084													7.343596	-0.902589	6.985316	0.656219	-0.649646	0.383845	-0.084742	0.442026	0.892990	-0.749797	-0.618525	0.235014
597	1142251													7.341929	-0.988116	6.923001	0.658108	-0.648036	0.383331	-0.084380	0.442436	0.892821	-0.748180	-0.619918	0.236490
598	1142418													7.421769	-0.849842	6.906290	0.659467	-0.647047	0.382666	-0.083801	0.442595	0.892798	-0.747048	-0.620839	0.237654
599	1142584													7.468284	-0.687136	6.858461	0.660588	-0.646154	0.382242	-0.083144	0.443050	0.892633	-0.746131	-0.621443	0.238949
600	1142751													7.426271	-0.748625	6.768181	0.661465	-0.645226	0.382292	-0.082666	0.443907	0.892252	-0.745406	-0.621796	0.240291
601	1142918													7.465034	-0.874826	6.740534	0.662129	-0.644488	0.382387	-0.082321	0.444623	0.891927	-0.744855	-0.622049	0.241343
602	1143084													7.487371	-0.675678	6.768497	0.662629	-0.644036	0.382283	-0.081908	0.445049	0.891753	-0.744455	-0.622213	0.242151
603	1143251													7.391247	-0.595955	6.723297	0.662968	-0.643538	0.382534	-0.081761	0.445672	0.891455	-0.744170	-0.622282	0.242850
604	1143418													7.360921	-0.657839	6.672400	0.662891	-0.643213	0.383214	-0.081794	0.446552	0.891011	-0.744235	-0.621988	0.243404
605	1143584													7.395958	-0.865064	6.623607	0.662498	-0.643085	0.384106	-0.082081	0.447369	0.890575	-0.744553	-0.621532	0.243596
606	1143751													7.514495	-0.945217	6.618187	0.661866	-0.643500	0.384501	-0.082265	0.447476	0.890504	-0.745095	-0.621026	0.243231
607	1143918													7.538382	-0.814347	6.731640	0.661143	-0.644262	0.384469	-0.082187	0.447172	0.890664	-0.745744	-0.620455	0.242694
608	1144084													7.446861	-0.629729	6.762555	0.660234	-0.645155	0.384534	-0.081809	0.447167	0.890701	-0.746591	-0.619530	0.242455
609	1144251													7.298955	-0.724531	6.817430	0.658653	-0.646376	0.385193	-0.081504	0.447622	0.890501	-0.748020	-0.617926	0.242145
610	1144418													7.532025	-0.902275	6.773107	0.656625	-0.647928	0.386048	-0.081459	0.447935	0.890348	-0.749806	-0.616071	0.241346
611	1144584													7.541199	-0.912602	6.792715	0.654363	-0.649857	0.386645	-0.081484	0.447739	0.890444	-0.751777	-0.614179	0.240031
612	1144751													7.444391	-0.793529	6.836995	0.651831	-0.652158	0.387048	-0.081279	0.447354	0.890656	-0.753996	-0.612016	0.238592
613	1144918													7.244382	-0.669880	6.799787	0.648609	-0.654873	0.387877	-0.080879	0.447425	0.890657	-0.756813	-0.609059	0.237238
614	1145084													7.194754	-0.634642	6.741568	0.644259	-0.658199	0.389493	-0.080334	0.448213	0.890310	-0.760577	-0.604880	0.235889
615	1145251													7.403552	-0.815671	6.661563	0.638895	-0.662040	0.391813	-0.079938	0.449425	0.889734	-0.765130	-0.599767	0.234213
616	1145418													7.630806	-0.884008	6.586884	0.632952	-0.666360	0.394128	-0.079676	0.450313	0.889309	-0.770080	-0.594292	0.231934
617	1145584													7.641695	-0.837459	6.466049	0.626718	-0.670970	0.396262	-0.079496	0.450815	0.889070	-0.775181	-0.588697	0.229195
618	1145751													7.633778	-0.780111	6.416217	0.619925	-0.675976	0.398433	-0.079375	0.451148	0.888912	-0.780636	-0.582685	0.226023
619	1145918													7.581654	-0.672902	6.357278	0.612450	-0.681406	0.400739	-0.079151	0.451531	0.888738	-0.786537	-0.576026	0.222606
620	1146084													7.708561	-0.641693	6.193456	0.604229	-0.687181	0.403349	-0.078951	0.452081	0.888476	-0.792890	-0.568687	0.218907
621	1146251													7.815589	-0.621930	6.087909	0.595456	-0.693121	0.406222	-0.078861	0.452766	0.888135	-0.799508	-0.560880	0.214942
622	1146418													7.956919	-0.681509	6.023335	0.586267	-0.699131	0.409276	-0.079086	0.453400	0.887791	-0.806249	-0.552851	0.210522
623	1146584													7.976831	-0.724365	5.968350	0.576607	-0.705309	0.412386	-0.079528	0.453894	0.887499	-0.813142	-0.544535	0.205627
624	1146751													8.102152	-0.701012	5.844069	0.566546	-0.711574	0.415557	-0.080103	0.454353	0.887213	-0.820127	-0.535935	0.200413
625	1146918													8.092852	-0.709776	5.709538	0.556259	-0.717788	0.418755	-0.080666	0.454892	0.886886	-0.827084	-0.527118	0.195136
626	1147084													8.096193	-0.736758	5.612322	0.545550	-0.724045	0.422059	-0.081253	0.455536	0.886501	-0.834130	-0.517924	0.189687
627	1147251													8.035374	-0.798435	5.563281	0.534160	-0.730559	0.425389	-0.081847	0.456136	0.886138	-0.841412	-0.508157	0.183855
628	1147418													8.136506	-0.889659	5.456090	0.521759	-0.737574	0.428663	-0.082374	0.456575	0.885864	-0.849107	-0.497518	0.177465
629	1147584													8.274198	-0.958729	5.255086	0.508467	-0.745036	0.431720	-0.082711	0.456793	0.885720	-0.857100	-0.486067	0.170641
630	1147751													8.469069	-0.927271	5.070142	0.494743	-0.752732	0.434309	-0.082779	0.456666	0.885778	-0.865088	-0.474184	0.163622
631	1147918													8.361014	-0.873633	4.986883	0.480540	-0.760573	0.436589	-0.082569	0.456386	0.885942	-0.873077	-0.461779	0.156512
632	1148084													8.302104	-0.889252	4.880491	0.464921	-0.768908	0.438895	-0.082043	0.456180	0.886097	-0.881542	-0.447974	0.149005
633	1148251													8.508788	-0.859932	4.676418	0.447982	-0.777643	0.441117	-0.081325	0.455906	0.886305	-0.890336	-0.432922	0.140996
634	1148418													8.731182	-0.780395	4.387183	0.430407	-0.786342	0.443188	-0.080503	0.455596	0.886539	-0.899038	-0.417250	0.132789
635	1148584													8.617056	-0.675479	4.149536	0.412307	-0.794804	0.445298	-0.079704	0.455434	0.886695	-0.907552	-0.401083	0.124429
636	1148751													8.562405	-0.583059	4.009779	0.393007	-0.803194	0.447688	-0.079179	0.455496	0.886710	-0.916120	-0.383930	0.115417
637	1148918													8.752646	-0.534250	3.867738	0.372050	-0.811575	0.450471	-0.079007	0.455861	0.886538	-0.924844	-0.365426	0.105483
638	1149084													9.173538	-0.528490	3.572458	0.350252	-0.819522	0.453549	-0.079212	0.456571	0.886154	-0.933300	-0.346304	0.094998
639	1149251													9.316147	-0.594085	3.180081	0.328791	-0.826647	0.456673	-0.079775	0.457519	0.885614	-0.941027	-0.327613	0.084482
640	1149418													8.948286	-0.610589	2.855862	0.307536	-0.833063	0.459813	-0.080647	0.458673	0.884938	-0.948113	-0.309233	0.073875
641	1149584													8.729219	-0.718771	2.693041	0.284951	-0.839260	0.463083	-0.081735	0.460078	0.884108	-0.955051	-0.289778	0.062503
642	1149751													9.157288	-0.859218	2.586752	0.260540	-0.845381	0.466316	-0.082849	0.461639	0.883191	-0.961902	-0.268740	0.050236
643	1149918													9.946681	-0.973044	2.265620	0.236203	-0.850970	0.469104	-0.083857	0.463112	0.882324	-0.968079	-0.247745	0.038029
644	1150084													10.107427	-0.987641	1.850742	0.213773	-0.855744	0.471172	-0.084599	0.464292	0.881633	-0.973213	-0.228330	0.026858
645	1150251													9.439889	-0.901471	1.530680	0.192840	-0.859881	0.472670	-0.085062	0.465248	0.881084	-0.977536	-0.210114	0.016576
646	1150418													9.572506	-0.846326	1.328519	0.171511	-0.863689	0.473947	-0.085107	0.466288	0.880530	-0.981499	-0.191357	0.006468
647	1150584													10.111396	-0.862194	1.132919	0.151155	-0.866909	0.474996	-0.084658	0.467399	0.879984	-0.984878	-0.173227	-0.002741
648	1150751													10.369884	-0.817888	0.909720	0.132988	-0.869460	0.475766	-0.083906	0.468430	0.879507	-0.987560	-0.156884	-0.010658
649	1150918													9.729208	-0.763629	0.783298	0.116962	-0.871419	0.476391	-0.083082	0.469417	0.879059	-0.989655	-0.142397	-0.017495
650	1151084													9.793254	-0.792575	0.752029	0.100305	-0.873105	0.477102	-0.082291	0.470598	0.878502	-0.991548	-0.127379	-0.024646
651	1151251													10.243750	-0.795231	0.547194	0.084736	-0.874468	0.477625	-0.081525	0.471657	0.878005	-0.993063	-0.113337	-0.031325
652	1151418													10.258599	-0.768081	0.362966	0.070874	-0.875497	0.477998	-0.080880	0.472582	0.877568	-0.994201	-0.100857	-0.037317
653	1151584													9.945658	-0.732654	0.185625	0.058771	-0.876252	0.478256	-0.080283	0.473383	0.877190	-0.995038	-0.089950	-0.042527
654	1151751													9.611856	-0.645356	0.202722	0.046713	-0.876742	0.478688	-0.079662	0.474415	0.876689	-0.995727	-0.079086	-0.047681
655	1151918													9.740746	-0.683043	0.131869	0.034242	-0.876953	0.479355	-0.078966	0.475762	0.876022	-0.996289	-0.067850	-0.052958
656	1152084													10.154479	-0.759276	0.029774	0.021868	-0.876959	0.480067	-0.078301	0.477205	0.875297	-0.996690	-0.056731	-0.058231
657	1152251													10.239743	-0.772993	-0.183234	0.011014	-0.876813	0.480705	-0.077811	0.478525	0.874619	-0.996907	-0.047038	-0.062955
658	1152418													9.618165	-0.739067	-0.228766	0.000872	-0.876529	0.481348	-0.077463	0.479843	0.873928	-0.996995	-0.038048	-0.067481
659	1152584													9.726624	-0.727954	-0.214482	-0.010078	-0.876093	0.482037	-0.076963	0.481312	0.873164	-0.996983	-0.028299	-0.072278
660	1152751													10.103354	-0.773816	-0.303648	-0.020896	-0.875480	0.482803	-0.076425	0.482894	0.872337	-0.996856	-0.018670	-0.076999
661	1152918													10.358675	-0.825378	-0.442374	-0.030527	-0.874801	0.483520	-0.075988	0.484377	0.871553	-0.996641	-0.010136	-0.081261
662	1153085													10.167191	-0.827009	-0.597326	-0.038357	-0.874180	0.484084	-0.075608	0.485591	0.870910	-0.996400	-0.003195	-0.084721
663	1153251													9.645324	-0.828053	-0.599115	-0.045622	-0.873548	0.484596	-0.075240	0.486728	0.870307	-0.996121	0.003244	-0.087931
664	1153418													9.523762	-0.827049	-0.570856	-0.053379	-0.872955	0.484871	-0.074723	0.487694	0.869811	-0.995775	0.010199	-0.091262
665	1153585													9.800807	-0.875322	-0.663739	-0.061671	-0.872373	0.484934	-0.074153	0.488521	0.869395	-0.995338	0.017657	-0.094817
666	1153751													10.042451	-0.800830	-0.812791	-0.069355	-0.871923	0.484707	-0.073576	0.489025	0.869161	-0.994875	0.024618	-0.098069
667	1153918													9.717238	-0.711031	-0.791940	-0.076308	-0.871489	0.484442	-0.073052	0.489439	0.868972	-0.994405	0.030920	-0.101012
668	1154085													9.450724	-0.599832	-0.709626	-0.083759	-0.870863	0.484337	-0.072366	0.490077	0.868670	-0.993855	0.037709	-0.104069
669	1154251													9.644176	-0.578037	-0.739492	-0.092128	-0.869923	0.484506	-0.071566	0.491102	0.868157	-0.993172	0.045308	-0.107501
670	1154418													9.974320	-0.623554	-0.907560	-0.100348	-0.868791	0.484904	-0.070778	0.492363	0.867507	-0.992432	0.052732	-0.110899
671	1154585													10.044416	-0.643365	-1.089408	-0.107574	-0.867602	0.485483	-0.069999	0.493715	0.866802	-0.991730	0.059263	-0.113842
672	1154751													9.841632	-0.668802	-1.181624	-0.113699	-0.866411	0.486214	-0.069290	0.495111	0.866062	-0.991096	0.064780	-0.116327
673	1154918													9.519252	-0.720831	-1.197494	-0.119370	-0.865238	0.486943	-0.068698	0.496472	0.865330	-0.990470	0.069842	-0.118704
674	1155085													9.661053	-0.762528	-1.229756	-0.125234	-0.864094	0.487503	-0.068038	0.497694	0.864680	-0.989792	0.075118	-0.121119
675	1155251													9.850674	-0.785875	-1.309391	-0.130755	-0.863086	0.487837	-0.067340	0.498657	0.864180	-0.989125	0.080145	-0.123322
676	1155418													9.996150	-0.786845	-1.439741	-0.135460	-0.862325	0.487900	-0.066769	0.499265	0.863873	-0.988530	0.084444	-0.125207
677	1155585													10.117772	-0.739326	-1.506857	-0.138974	-0.861820	0.487803	-0.066377	0.499582	0.863720	-0.988069	0.087656	-0.126634
678	1155751													9.990136	-0.631311	-1.531891	-0.141205	-0.861531	0.487673	-0.066130	0.499717	0.863661	-0.987769	0.089703	-0.127535
679	1155918													9.874774	-0.539489	-1.567229	-0.142587	-0.861240	0.487785	-0.065859	0.499984	0.863527	-0.987589	0.091002	-0.128012
680	1156085													9.771679	-0.539008	-1.610563	-0.143319	-0.860894	0.488181	-0.065573	0.500450	0.863279	-0.987502	0.091713	-0.128176
681	1156251													9.717677	-0.581689	-1.649997	-0.143705	-0.860520	0.488727	-0.065385	0.501030	0.862956	-0.987458	0.092056	-0.128266
682	1156418													9.633561	-0.605190	-1.669913	-0.143875	-0.860160	0.489310	-0.065364	0.501635	0.862606	-0.987435	0.092124	-0.128396
683	1156585													9.368698	-0.630155	-1.615849	-0.144208	-0.859819	0.489812	-0.065372	0.502182	0.862287	-0.987386	0.092328	-0.128627
684	1156751													9.490551	-0.675613	-1.556953	-0.145260	-0.859417	0.490206	-0.065283	0.502707	0.861988	-0.987237	0.093210	-0.129129
685	1156918													9.695855	-0.677868	-1.544934	-0.146365	-0.859068	0.490489	-0.065067	0.503115	0.861767	-0.987088	0.094217	-0.129535
686	1157085													9.778510	-0.701105	-1.547689	-0.147266	-0.858852	0.490597	-0.064834	0.503320	0.861664	-0.986970	0.095086	-0.129805
687	1157251													9.854213	-0.697480	-1.523803	-0.147744	-0.858816	0.490517	-0.064641	0.503285	0.861700	-0.986911	0.095604	-0.129872
688	1157418													9.757192	-0.620733	-1.515021	-0.147795	-0.858922	0.490316	-0.064560	0.503082	0.861824	-0.986909	0.095719	-0.129805
689	1157585													9.602528	-0.588679	-1.538481	-0.147851	-0.859045	0.490083	-0.064533	0.502853	0.861960	-0.986902	0.095815	-0.129785
690	1157751													9.582708	-0.574544	-1.568855	-0.148124	-0.859131	0.489851	-0.064507	0.502653	0.862078	-0.986863	0.096095	-0.129875
691	1157918													9.679905	-0.593468	-1.602913	-0.148434	-0.859181	0.489668	-0.064532	0.502513	0.862158	-0.986815	0.096374	-0.130035
692	1158085													9.782743	-0.592122	-1.610360	-0.148429	-0.859268	0.489517	-0.064625	0.502370	0.862234	-0.986809	0.096345	-0.130097
693	1158251													9.726072	-0.559619	-1.546618	-0.148082	-0.859339	0.489497	-0.064698	0.502311	0.862263	-0.986857	0.096016	-0.129981
694	1158418													9.757342	-0.547917	-1.533434	-0.147513	-0.859350	0.489650	-0.064721	0.502392	0.862214	-0.986940	0.095497	-0.129727
695	1158585													9.789465	-0.575828	-1.566506	-0.146548	-0.859272	0.490077	-0.064702	0.502692	0.862041	-0.987085	0.094621	-0.129265
696	1158751													9.693191	-0.575190	-1.603525	-0.145127	-0.859173	0.490673	-0.064673	0.503100	0.861805	-0.987297	0.093338	-0.128579
697	1158918													9.592054	-0.592838	-1.550661	-0.143505	-0.859023	0.491412	-0.064624	0.503625	0.861502	-0.987537	0.091873	-0.127786
698	1159085													9.721992	-0.659113	-1.577456	-0.141725	-0.858871	0.492194	-0.064609	0.504179	0.861179	-0.987795	0.090251	-0.126946
699	1159251													9.791059	-0.674745	-1.553253	-0.139413	-0.858829	0.492928	-0.064648	0.504621	0.860917	-0.988122	0.088156	-0.125873
700	1159418													9.858850	-0.633786	-1.506685	-0.136471	-0.858880	0.493661	-0.064638	0.504981	0.860707	-0.988533	0.085552	-0.124431
701	1159585													9.883710	-0.636974	-1.455965	-0.132719	-0.859023	0.494434	-0.064698	0.505292	0.860520	-0.989040	0.082218	-0.122639
702	1159751													9.785248	-0.635249	-1.388608	-0.128320	-0.859255	0.495192	-0.064911	0.505526	0.860366	-0.989606	0.078259	-0.120644
703	1159918													9.710239	-0.616166	-1.364736	-0.123554	-0.859561	0.495872	-0.065161	0.505649	0.860275	-0.990196	0.073978	-0.118485
704	1160085													9.724957	-0.641867	-1.280692	-0.118661	-0.859865	0.496541	-0.065378	0.505755	0.860197	-0.990780	0.069609	-0.116229
705	1160251													9.863420	-0.656911	-1.209846	-0.113501	-0.860205	0.497156	-0.065603	0.505787	0.860160	-0.991370	0.065014	-0.113839
706	1160418													9.987418	-0.686822	-1.165964	-0.107758	-0.860671	0.497629	-0.065935	0.505628	0.860228	-0.991988	0.059885	-0.111234
707	1160585													9.985326	-0.679583	-1.151390	-0.101248	-0.861259	0.497978	-0.066418	0.505286	0.860392	-0.992642	0.054038	-0.108362
708	1160751													9.927258	-0.650773	-1.127121	-0.093986	-0.861934	0.498234	-0.067083	0.504794	0.860629	-0.993311	0.047464	-0.105265
709	1160918													9.919848	-0.652816	-1.085203	-0.086095	-0.862597	0.498512	-0.067856	0.504285	0.860867	-0.993973	0.040290	-0.101949
710	1161085													10.025328	-0.689911	-1.039409	-0.077430	-0.863263	0.498779	-0.068759	0.503714	0.861130	-0.994624	0.032382	-0.098359
711	1161251													10.212928	-0.709533	-1.025054	-0.067627	-0.863987	0.498951	-0.069746	0.502967	0.861487	-0.995270	0.023460	-0.094273
712	1161418													10.156692	-0.660790	-1.051545	-0.056408	-0.864744	0.499035	-0.070824	0.502037	0.861941	-0.995893	0.013277	-0.089564
713	1161585													9.950551	-0.685074	-0.940663	-0.044227	-0.865382	0.499157	-0.071964	0.501108	0.862387	-0.996426	0.002219	-0.084439
714	1161751													9.815881	-0.758805	-0.729166	-0.031691	-0.865967	0.499097	-0.073196	0.500017	0.862917	-0.996814	-0.009185	-0.079231
715	1161918													9.834968	-0.778994	-0.610071	-0.018743	-0.866534	0.498765	-0.074532	0.498676	0.863578	-0.997042	-0.020988	-0.073932
716	1162085													9.921733	-0.767413	-0.490349	-0.005414	-0.867058	0.498178	-0.075948	0.497103	0.864361	-0.997097	-0.033156	-0.068543
717	1162251													9.934284	-0.758088	-0.392317	0.008598	-0.867535	0.497302	-0.077417	0.495250	0.865294	-0.996962	-0.045939	-0.062904
718	1162418													9.798780	-0.699801	-0.235415	0.023144	-0.867897	0.496204	-0.078973	0.493199	0.866324	-0.996608	-0.059237	-0.057126
719	1162585													9.788941	-0.639356	-0.033392	0.037907	-0.867999	0.495116	-0.080632	0.491200	0.867307	-0.996023	-0.072800	-0.051369
720	1162751													9.870437	-0.636201	0.147651	0.052878	-0.867788	0.494113	-0.082361	0.489330	0.868201	-0.995199	-0.086604	-0.045597
721	1162918													9.926578	-0.616226	0.370493	0.068260	-0.867212	0.493238	-0.084171	0.487622	0.868988	-0.994111	-0.100834	-0.039709
722	1163085													9.967957	-0.643035	0.505363	0.084126	-0.866173	0.492612	-0.085991	0.486210	0.869601	-0.992738	-0.115517	-0.033580
723	1163251													9.937727	-0.711736	0.583245	0.100684	-0.864643	0.492195	-0.087733	0.485066	0.870066	-0.991043	-0.130784	-0.027020
724	1163418													9.738091	-0.777917	0.722090	0.117923	-0.862689	0.491794	-0.089416	0.484013	0.870481	-0.988989	-0.146624	-0.020062
725	1163585													9.664474	-0.896309	0.876591	0.135334	-0.860377	0.491361	-0.091162	0.483007	0.870858	-0.986597	-0.162650	-0.013067
726	1163751													9.721276	-0.935392	1.109035	0.152951	-0.857813	0.490677	-0.093006	0.481820	0.871320	-0.983848	-0.178905	-0.006087
727	1163918													9.732712	-0.963458	1.280779	0.170906	-0.854957	0.489734	-0.094808	0.480471	0.871871	-0.980715	-0.195439	0.001059
728	1164085													9.702929	-0.968263	1.437121	0.189261	-0.851772	0.488532	-0.096363	0.479011	0.872504	-0.977187	-0.212208	0.008579
729	1164251													9.703348	-0.998172	1.673071	0.208070	-0.848204	0.487090	-0.097553	0.477510	0.873194	-0.973237	-0.229203	0.016611
730	1164418													9.856065	-1.005396	1.858216	0.227649	-0.844253	0.485193	-0.098166	0.475840	0.874037	-0.968782	-0.246603	0.025448
731	1164585													9.544791	-1.010297	2.169961	0.247896	-0.839745	0.483090	-0.098121	0.474328	0.874863	-0.963805	-0.264276	0.035187
732	1164751													9.391781	-1.138910	2.411459	0.268049	-0.835041	0.480476	-0.097611	0.472620	0.875844	-0.958447	-0.281669	0.045176
733	1164918													9.187058	-1.089843	2.679395	0.287983	-0.830271	0.477195	-0.096707	0.470544	0.877061	-0.952740	-0.298727	0.055216
734	1165085													9.211160	-1.133274	3.008254	0.307240	-0.825427	0.473575	-0.095692	0.468326	0.878359	-0.946809	-0.315184	0.064902
735	1165251													9.484347	-1.193670	3.271257	0.326272	-0.820566	0.469274	-0.094516	0.465634	0.879916	-0.940539	-0.331446	0.074367
736	1165418													9.042062	-1.051448	3.526478	0.345570	-0.815545	0.464186	-0.093080	0.462431	0.881756	-0.933765	-0.347915	0.083891
737	1165585													8.531804	-0.944657	3.788484	0.363365	-0.810680	0.459090	-0.091539	0.459322	0.883541	-0.927139	-0.363072	0.092693
738	1165751													8.461544	-0.859520	3.983353	0.379226	-0.806189	0.454145	-0.089945	0.456364	0.885235	-0.920922	-0.376552	0.100552
739	1165918													8.350053	-0.700031	4.195230	0.393195	-0.802023	0.449619	-0.088236	0.453835	0.886706	-0.915211	-0.388322	0.107679
740	1166085													8.410360	-0.514899	4.344182	0.405239	-0.798055	0.445970	-0.086421	0.452195	0.887722	-0.910117	-0.398281	0.114278
741	1166251													8.565018	-0.528760	4.369043	0.415787	-0.793984	0.443519	-0.084729	0.451734	0.888120	-0.905506	-0.406848	0.120552
742	1166418													8.580869	-0.644026	4.343059	0.425259	-0.789836	0.441944	-0.083318	0.452060	0.888088	-0.901229	-0.414489	0.126435
743	1166585													8.593613	-0.710733	4.347200	0.433842	-0.785754	0.440877	-0.082340	0.452701	0.887853	-0.897219	-0.421490	0.131701
744	1166751													8.899458	-0.724946	4.403821	0.441979	-0.781642	0.440104	-0.081855	0.453435	0.887523	-0.893283	-0.428291	0.136428
745	1166918													9.104842	-0.700002	4.422169	0.450632	-0.777169	0.439248	-0.081605	0.454117	0.887197	-0.888972	-0.435645	0.141219
746	1167085													9.143380	-0.651644	4.522388	0.459905	-0.772154	0.438482	-0.081525	0.455000	0.886752	-0.884218	-0.443569	0.146307
747	1167251													9.039300	-0.765682	4.594047	0.469945	-0.766568	0.437636	-0.081578	0.455955	0.886256	-0.878918	-0.452193	0.151739
748	1167418													8.517630	-0.840786	4.715187	0.479981	-0.760929	0.436583	-0.081697	0.456723	0.885850	-0.873467	-0.460859	0.157052
749	1167585													8.432799	-0.930882	4.788511	0.489331	-0.755634	0.435399	-0.081895	0.457234	0.885568	-0.868244	-0.468993	0.161856
750	1167751													8.374776	-0.948762	4.858122	0.498118	-0.750786	0.433818	-0.082015	0.457267	0.885540	-0.863222	-0.476683	0.166197
751	1167918													8.441923	-0.918597	4.930478	0.506372	-0.746304	0.431993	-0.082120	0.456957	0.885690	-0.858396	-0.483964	0.170104
752	1168085													8.552203	-0.872772	5.023945	0.514399	-0.742040	0.429849	-0.082001	0.456393	0.885992	-0.853622	-0.491001	0.173920
753	1168251													8.627083	-0.769715	5.125973	0.522599	-0.737707	0.427410	-0.081748	0.455647	0.886399	-0.848650	-0.498171	0.177815
754	1168418													8.535007	-0.693518	5.265064	0.530849	-0.733191	0.425007	-0.081436	0.455049	0.886735	-0.843545	-0.505333	0.181854
755	1168585													8.403365	-0.676013	5.355906	0.538954	-0.728538	0.422801	-0.081195	0.454669	0.886952	-0.838413	-0.512356	0.185892
756	1168751													8.349552	-0.712309	5.434556	0.546902	-0.723769	0.420781	-0.081075	0.454458	0.887071	-0.833262	-0.519255	0.189865
757	1168918													8.339774	-0.769821	5.511366	0.554502	-0.718981	0.419039	-0.081229	0.454376	0.887099	-0.828209	-0.525936	0.193550
758	1169085													8.275795	-0.830979	5.553041	0.562016	-0.714224	0.417160	-0.081469	0.454095	0.887220	-0.823104	-0.532618	0.197022
759	1169251													8.265810	-0.745117	5.695611	0.569305	-0.709588	0.415184	-0.081593	0.453752	0.887385	-0.818068	-0.539068	0.200426
760	1169418													8.227940	-0.692714	5.881007	0.576454	-0.704884	0.413327	-0.081491	0.453714	0.887413	-0.813056	-0.545235	0.204104
761	1169585													8.110427	-0.781430	6.078429	0.583162	-0.700233	0.411820	-0.081364	0.454050	0.887254	-0.808271	-0.550920	0.207811
762	1169752													7.768186	-0.895097	6.127804	0.589098	-0.696135	0.410316	-0.081246	0.454179	0.887198	-0.803967	-0.555983	0.210998
763	1169918													7.507065	-0.801499	6.234821	0.593606	-0.693142	0.408884	-0.081047	0.454010	0.887303	-0.800664	-0.559847	0.213326
764	1170085													7.704195	-0.632170	6.314697	0.596739	-0.690989	0.407968	-0.080723	0.454139	0.887266	-0.798365	-0.562399	0.215224
765	1170252													7.852540	-0.837668	6.237372	0.599191	-0.689053	0.407647	-0.080540	0.454710	0.886990	-0.796545	-0.564308	0.216962
766	1170418													7.821607	-1.191180	6.151471	0.601166	-0.687632	0.407139	-0.080388	0.454860	0.886927	-0.795071	-0.565920	0.218169
767	1170585													7.870101	-1.096900	6.121787	0.602881	-0.686977	0.405705	-0.079852	0.454000	0.887416	-0.793825	-0.567403	0.218851
768	1170752													7.895840	-0.633592	6.120886	0.604631	-0.686458	0.403976	-0.078754	0.453178	0.887935	-0.792602	-0.568688	0.219944
769	1170918													7.896863	-0.503150	6.111165	0.606382	-0.685594	0.402817	-0.077501	0.453210	0.888028	-0.791388	-0.569702	0.221684
770	1171085													8.050666	-0.741392	6.087136	0.608266	-0.684420	0.401972	-0.076661	0.453407	0.888000	-0.790023	-0.570956	0.223324
771	1171252													7.865162	-0.660921	6.157061	0.610519	-0.683175	0.400672	-0.076072	0.452976	0.888271	-0.788340	-0.572786	0.224580
772	1171418													7.755949	-0.429788	6.228330	0.612657	-0.681884	0.399608	-0.075613	0.452721	0.888440	-0.786724	-0.574524	0.225804
773	1171585													7.655992	-0.572827	6.309276	0.614326	-0.680507	0.399392	-0.075374	0.453241	0.888195	-0.785444	-0.575745	0.227146
774	1171752													7.872593	-0.929264	6.240436	0.615752	-0.679298	0.399254	-0.075385	0.453593	0.888015	-0.784326	-0.576895	0.228092
775	1171918													7.727366	-0.808223	6.264942	0.617154	-0.678528	0.398397	-0.075254	0.453103	0.888276	-0.783235	-0.578184	0.228573
776	1172085													7.804754	-0.589334	6.289734	0.618373	-0.677854	0.397655	-0.075149	0.452676	0.888503	-0.782284	-0.579309	0.228982
777	1172252													7.863444	-0.824580	6.293121	0.619486	-0.677045	0.397301	-0.075103	0.452672	0.888508	-0.781407	-0.580257	0.229576
778	1172418													7.691681	-1.229430	6.204052	0.620662	-0.676647	0.396141	-0.074949	0.451718	0.889007	-0.780488	-0.581463	0.229650
779	1172585													7.781744	-0.689481	6.320949	0.621494	-0.677431	0.393487	-0.073988	0.449269	0.890327	-0.779917	-0.582446	0.229096
780	1172752													7.735945	0.044011	6.460502	0.622093	-0.678103	0.391378	-0.072524	0.447823	0.891176	-0.779577	-0.582779	0.229409
781	1172918													7.763698	-0.060143	6.462005	0.622033	-0.678027	0.391604	-0.071583	0.448800	0.890761	-0.779712	-0.582115	0.230633
782	1173085													7.678411	-0.717247	6.290264	0.621536	-0.677720	0.392923	-0.071642	0.450295	0.890001	-0.780103	-0.581318	0.231321
783	1173252													7.697886	-0.806846	6.254378	0.620263	-0.678202	0.394100	-0.072424	0.450764	0.889700	-0.781043	-0.580391	0.230474
784	1173418													7.990444	-0.680277	6.279037	0.618769	-0.678911	0.395228	-0.073337	0.450988	0.889512	-0.782143	-0.579387	0.229268
785	1173585													8.030209	-0.761249	6.304477	0.617551	-0.679327	0.396415	-0.074123	0.451495	0.889189	-0.783030	-0.578504	0.228468
786	1173752													7.961561	-1.000808	6.161188	0.616602	-0.679801	0.397080	-0.074693	0.451583	0.889097	-0.783724	-0.577878	0.227670
787	1173918													7.725436	-0.884361	6.127121	0.615515	-0.680772	0.397102	-0.074888	0.451057	0.889348	-0.784559	-0.577145	0.226651
788	1174085													7.763546	-0.704001	6.100005	0.614000	-0.682140	0.397100	-0.074790	0.450557	0.889609	-0.785755	-0.575919	0.225625
789	1174252													8.007328	-0.847448	6.035803	0.612096	-0.683525	0.397658	-0.074868	0.450516	0.889623	-0.787231	-0.574307	0.224585
790	1174418													7.962682	-1.112888	5.881843	0.610353	-0.685167	0.397512	-0.075124	0.449497	0.890118	-0.788559	-0.573148	0.222879
791	1174585													7.980567	-0.833453	5.929829	0.608570	-0.687367	0.396446	-0.075298	0.447337	0.891190	-0.789920	-0.572203	0.220478
792	1174752													7.958210	-0.356550	6.038612	0.606690	-0.689405	0.395787	-0.075113	0.445941	0.891905	-0.791382	-0.570839	0.218765
793	1174918													7.898172	-0.443688	6.146036	0.604339	-0.691040	0.396533	-0.074644	0.446404	0.891713	-0.793223	-0.568496	0.218197
794	1175085													7.814708	-0.753193	6.178232	0.601297	-0.692794	0.398093	-0.074245	0.447623	0.891135	-0.795568	-0.565393	0.217718
795	1175252													7.657634	-0.811931	6.220073	0.597226	-0.695314	0.399825	-0.073953	0.448631	0.890652	-0.798657	-0.561488	0.216513
796	1175418													7.547627	-0.711299	6.196665	0.591797	-0.698735	0.401926	-0.073782	0.449567	0.890194	-0.802703	-0.556469	0.214499
797	1175585													7.402325	-0.678098	6.266030	0.584592	-0.703179	0.404711	-0.073522	0.450860	0.889562	-0.807990	-0.549785	0.211870
798	1175752													7.806672	-0.812753	6.293523	0.575686	-0.708550	0.408096	-0.072986	0.452575	0.888734	-0.814407	-0.541418	0.208827
799	1175918													8.013680	-0.823346	6.180777	0.565939	-0.714528	0.411295	-0.072260	0.453965	0.888085	-0.821274	-0.532322	0.205285
800	1176085													7.954413	-0.708845	5.971138	0.555510	-0.720920	0.414347	-0.071538	0.455023	0.887601	-0.828427	-0.522713	0.201197
801	1176252													7.921512	-0.613139	5.763797	0.544256	-0.727602	0.417589	-0.070980	0.456047	0.887121	-0.835911	-0.512462	0.196561
802	1176418													7.980326	-0.607251	5.551143	0.531980	-0.734585	0.421167	-0.070545	0.457210	0.886556	-0.843813	-0.501342	0.191405
803	1176585													8.200180	-0.607113	5.371189	0.518856	-0.741691	0.425068	-0.070198	0.458590	0.885871	-0.851974	-0.489479	0.185877
804	1176752													8.491838	-0.643541	5.165843	0.505292	-0.748708	0.429088	-0.070063	0.460000	0.885150	-0.860099	-0.477323	0.179978
805	1176918													8.611146	-0.598601	4.998629	0.492030	-0.755328	0.432882	-0.070106	0.461243	0.884500	-0.867751	-0.465548	0.173992
806	1177085													8.432317	-0.664250	4.824602	0.478687	-0.761715	0.436633	-0.070341	0.462442	0.883855	-0.875164	-0.453803	0.167785
807	1177252													8.255359	-0.689209	4.762152	0.464455	-0.768378	0.440314	-0.070788	0.463393	0.883321	-0.882763	-0.441432	0.160833
808	1177418													8.680275	-0.753440	4.539199	0.449268	-0.775346	0.443843	-0.071461	0.464024	0.882935	-0.890534	-0.428392	0.153065
809	1177585													8.745189	-0.770493	4.305584	0.434098	-0.782218	0.446870	-0.072222	0.464231	0.882765	-0.897966	-0.415481	0.145028
810	1177752													8.659274	-0.774713	4.139266	0.418351	-0.789275	0.449474	-0.073095	0.463999	0.882815	-0.905339	-0.402181	0.136422
811	1177918													8.926016	-0.734157	3.992133	0.401834	-0.796540	0.451723	-0.073899	0.463485	0.883018	-0.912726	-0.388208	0.127380
812	1178085													9.244901	-0.666130	3.804912	0.385507	-0.803461	0.453689	-0.074490	0.462990	0.883228	-0.919693	-0.374286	0.118637
813	1178252													9.154465	-0.670052	3.614218	0.369706	-0.809836	0.455503	-0.074967	0.462640	0.883371	-0.926119	-0.360735	0.110330
814	1178418													9.002099	-0.742936	3.441812	0.353746	-0.816064	0.457060	-0.075327	0.462213	0.883564	-0.932304	-0.346986	0.102034
815	1178585													9.202929	-0.691402	3.355756	0.337060	-0.822242	0.458594	-0.075439	0.461944	0.883695	-0.938456	-0.332454	0.093673
816	1178752													9.619030	-0.621007	3.158292	0.320481	-0.827925	0.460253	-0.075352	0.462059	0.883642	-0.944253	-0.317872	0.085695
817	1178918													9.470333	-0.657325	2.905549	0.304856	-0.832842	0.461993	-0.075147	0.462537	0.883410	-0.949429	-0.304030	0.078422
818	1179085													8.983186	-0.702926	2.715026	0.288891	-0.837486	0.463853	-0.074990	0.463228	0.883061	-0.954421	-0.289893	0.071019
819	1179252													9.042040	-0.708197	2.662737	0.271001	-0.842298	0.465932	-0.074860	0.464137	0.882594	-0.959664	-0.274064	0.062727
820	1179418													9.831085	-0.694342	2.462912	0.252419	-0.846825	0.468159	-0.074751	0.465315	0.881983	-0.964726	-0.257625	0.054154
821	1179585													9.760459	-0.651287	2.167483	0.235103	-0.850642	0.470249	-0.074586	0.466594	0.881321	-0.969104	-0.242276	0.046252
822	1179752													9.035960	-0.659775	2.019501	0.217487	-0.854090	0.472472	-0.074582	0.468102	0.880522	-0.973210	-0.226740	0.038107
823	1179918													9.232480	-0.670075	1.997087	0.197449	-0.857668	0.474784	-0.074769	0.469733	0.879637	-0.977458	-0.209183	0.028622
824	1180085													10.087707	-0.667121	1.756328	0.176936	-0.860860	0.477089	-0.075151	0.471505	0.878655	-0.981349	-0.191319	0.018731
825	1180252													9.625337	-0.810873	1.371314	0.157756	-0.863519	0.479008	-0.075994	0.473027	0.877765	-0.984550	-0.174875	0.009000
826	1180418													8.753869	-0.883869	1.125508	0.137266	-0.866325	0.480248	-0.078339	0.473824	0.877128	-0.987432	-0.158022	-0.002827
827	1180585													9.065022	-0.734407	1.025916	0.113991	-0.869544	0.480521	-0.082325	0.473742	0.876807	-0.990065	-0.139507	-0.017583
828	1180752													10.612055	-0.530105	0.862714	0.090403	-0.872234	0.480661	-0.086831	0.473896	0.876289	-0.992113	-0.120955	-0.032896
829	1180918													10.932739	-0.525149	0.612053	0.070597	-0.873883	0.480982	-0.091001	0.474533	0.875521	-0.993345	-0.105579	-0.046023
830	1181085													10.343346	-0.760408	0.462515	0.053265	-0.874706	0.481718	-0.094671	0.475806	0.874440	-0.994083	-0.092181	-0.057466
831	1181252													10.289438	-1.054455	0.307613	0.037512	-0.875144	0.482406	-0.097659	0.477225	0.873338	-0.994513	-0.079872	-0.067564
832	1181418													10.536348	-1.257775	0.160590	0.023595	-0.875495	0.482651	-0.100110	0.478289	0.872478	-0.994697	-0.068904	-0.076361
833	1181585													10.465505	-1.397749	0.020356	0.012115	-0.875853	0.482427	-0.101958	0.478865	0.871948	-0.994715	-0.059751	-0.083499
834	1181752													10.179269	-1.357619	-0.118492	0.002880	-0.876385	0.481603	-0.103105	0.478778	0.871860	-0.994666	-0.052167	-0.088981
835	1181918													9.840827	-1.246890	-0.157677	-0.005434	-0.877060	0.480350	-0.103518	0.478270	0.872091	-0.994613	-0.044986	-0.093390
836	1182085													9.879121	-1.145648	-0.201108	-0.013208	-0.877698	0.479031	-0.103191	0.477712	0.872435	-0.994574	-0.037909	-0.096880
837	1182252													9.974554	-1.085932	-0.287456	-0.020375	-0.878333	0.477615	-0.102442	0.477033	0.872894	-0.994530	-0.031143	-0.099698
838	1182418													9.929072	-0.990418	-0.343446	-0.026881	-0.878861	0.476319	-0.101488	0.476429	0.873336	-0.994473	-0.024865	-0.102001
839	1182585													9.847192	-0.917608	-0.372910	-0.032699	-0.879239	0.475257	-0.100709	0.475990	0.873665	-0.994378	-0.019295	-0.104112
840	1182752													9.599133	-0.870032	-0.368493	-0.038493	-0.879400	0.474525	-0.100045	0.475883	0.873800	-0.994238	-0.013839	-0.106298
841	1182918													9.549399	-0.834995	-0.367841	-0.044744	-0.879341	0.474086	-0.099369	0.476126	0.873745	-0.994044	-0.008015	-0.108683
842	1183085													9.895721	-0.861685	-0.439269	-0.051390	-0.879025	0.473998	-0.098700	0.476771	0.873469	-0.993789	-0.001896	-0.111261
843	1183252													9.980466	-0.908422	-0.547675	-0.057298	-0.878562	0.474179	-0.098081	0.477615	0.873077	-0.993528	0.003518	-0.113537
844	1183418													9.636901	-0.928653	-0.653329	-0.062858	-0.877990	0.474533	-0.097640	0.478602	0.872586	-0.993235	0.008515	-0.115810
845	1183585													9.409345	-0.951964	-0.675421	-0.068966	-0.877296	0.474968	-0.097144	0.479745	0.872014	-0.992878	0.013998	-0.118310
846	1183752													9.695003	-1.010416	-0.775350	-0.075826	-0.876469	0.475449	-0.096394	0.481032	0.871388	-0.992451	0.020243	-0.120961
847	1183918													10.090177	-1.079911	-0.910590	-0.082246	-0.875675	0.475846	-0.095483	0.482191	0.870847	-0.992028	0.026189	-0.123270
848	1184085													9.942685	-1.110794	-1.026091	-0.087624	-0.875028	0.476076	-0.094645	0.483065	0.870454	-0.991647	0.031214	-0.125145
849	1184252													9.711739	-1.075243	-1.053870	-0.092661	-0.874478	0.476133	-0.093730	0.483728	0.870185	-0.991276	0.036004	-0.126787
850	1184418													9.771173	-0.996519	-1.054723	-0.097620	-0.874003	0.476013	-0.092609	0.484200	0.870043	-0.990906	0.040850	-0.128208
851	1184585													9.883884	-0.962348	-1.103651	-0.102262	-0.873521	0.475924	-0.091329	0.484656	0.869924	-0.990556	0.045495	-0.129339
852	1184752													10.045335	-0.960248	-1.175429	-0.106251	-0.873100	0.475823	-0.090133	0.485018	0.869847	-0.990246	0.049535	-0.130229
853	1184918													9.962978	-0.888950	-1.196020	-0.109342	-0.872759	0.475748	-0.089091	0.485297	0.869799	-0.990004	0.052721	-0.130818
854	1185085													9.810307	-0.875451	-1.175908	-0.112015	-0.872444	0.475704	-0.088270	0.485560	0.869735	-0.989778	0.055433	-0.131400
855	1185252													9.699503	-0.857094	-1.186732	-0.114585	-0.872163	0.475606	-0.087607	0.485766	0.869688	-0.989543	0.057987	-0.132069
856	1185418													9.850531	-0.867267	-1.211170	-0.117036	-0.871917	0.475461	-0.087022	0.485914	0.869664	-0.989308	0.060406	-0.132745
857	1185585													9.968043	-0.851612	-1.264616	-0.118833	-0.871779	0.475268	-0.086629	0.485937	0.869690	-0.989128	0.062176	-0.133267
858	1185752													9.843402	-0.865090	-1.321317	-0.119775	-0.871772	0.475044	-0.086439	0.485829	0.869769	-0.989031	0.063114	-0.133545
859	1185918													9.565806	-0.836249	-1.317910	-0.120480	-0.871830	0.474759	-0.086400	0.485637	0.869880	-0.988949	0.063785	-0.133836
860	1186085													9.569894	-0.828644	-1.281704	-0.121280	-0.871870	0.474483	-0.086302	0.485464	0.869987	-0.988859	0.064563	-0.134122
861	1186252													9.732060	-0.833073	-1.297779	-0.121972	-0.871869	0.474307	-0.086155	0.485372	0.870052	-0.988787	0.065258	-0.134318
862	1186419													9.810412	-0.820064	-1.326895	-0.122198	-0.871897	0.474198	-0.086013	0.485284	0.870116	-0.988772	0.065540	-0.134295
863	1186585													9.587390	-0.757963	-1.340627	-0.122109	-0.871894	0.474226	-0.085951	0.485296	0.870115	-0.988788	0.065489	-0.134199
