// Start Time: Unknown
// Update Rate: 60.0Hz
//Filter Profile: human (46.1)
// Option Flags: AHS Disabled ICC Disabled
// Firmware Version: 4.0.2
0	sampleTimeFine	Year	Month	Day	Second	UTC_Nano	UTC_Year	UTC_Month	UTC_Day	UTC_Hour	UTC_Minute	UTC_Second	UTC_Valid	Acc_X	Acc_Y	Acc_Z	Mat[1][1]	Mat[2][1]	Mat[3][1]	Mat[1][2]	Mat[2][2]	Mat[3][2]	Mat[1][3]	Mat[2][3]	Mat[3][3]
0	896528													0.000000	0.000000	0.000000	-0.056144	-0.907626	0.416007	0.049339	0.413633	0.909106	-0.997203	0.071566	0.021558
1	896695													9.789310	0.564111	-0.512156	-0.055551	-0.907283	0.416835	0.050151	0.414417	0.908704	-0.997196	0.071384	0.022480
2	896862													9.764249	0.603049	-0.509918	-0.054723	-0.906958	0.417650	0.051999	0.415121	0.908279	-0.997147	0.071421	0.024445
3	897028													9.771541	0.591582	-0.512388	-0.054025	-0.907154	0.417317	0.054135	0.414651	0.908369	-0.997071	0.071666	0.026707
4	897195													9.778891	0.581532	-0.509813	-0.053469	-0.907063	0.417585	0.055549	0.414833	0.908200	-0.997023	0.071757	0.028206
5	897362													9.777426	0.577667	-0.482596	-0.053026	-0.906939	0.417910	0.056299	0.415118	0.908024	-0.997005	0.071677	0.029048
6	897528													9.761204	0.565401	-0.506313	-0.052455	-0.907166	0.417491	0.056642	0.414691	0.908198	-0.997016	0.071287	0.029631
7	897695													9.714562	0.496465	-0.485987	-0.052066	-0.907182	0.417504	0.056705	0.414710	0.908185	-0.997032	0.070960	0.029850
8	897862													9.716225	0.459184	-0.497550	-0.051837	-0.907315	0.417243	0.056431	0.414476	0.908309	-0.997060	0.070630	0.029716
9	898028													9.735188	0.441965	-0.508339	-0.051793	-0.907608	0.416613	0.055882	0.413885	0.908612	-0.997093	0.070341	0.029282
10	898195													9.779500	0.468992	-0.519019	-0.051841	-0.907836	0.416108	0.055216	0.413425	0.908862	-0.997128	0.070092	0.028695
11	898362													9.812778	0.537007	-0.502638	-0.051892	-0.908178	0.415354	0.054633	0.412710	0.909223	-0.997157	0.069873	0.028200
12	898528													9.762311	0.535866	-0.531928	-0.051909	-0.908524	0.414596	0.054205	0.411980	0.909579	-0.997180	0.069689	0.027861
13	898695													9.748598	0.562112	-0.525604	-0.052033	-0.908605	0.414404	0.053792	0.411813	0.909679	-0.997196	0.069625	0.027448
14	898862													9.728786	0.571858	-0.543288	-0.052257	-0.908714	0.414135	0.053448	0.411562	0.909813	-0.997202	0.069679	0.027062
15	899028													9.780630	0.590348	-0.537912	-0.052538	-0.908788	0.413938	0.053201	0.411375	0.909912	-0.997201	0.069827	0.026736
16	899195													9.803744	0.565557	-0.530328	-0.052765	-0.908756	0.413978	0.053011	0.411422	0.909902	-0.997199	0.069956	0.026465
17	899362													9.779328	0.538094	-0.556724	-0.052941	-0.908549	0.414410	0.052825	0.411863	0.909714	-0.997199	0.070052	0.026190
18	899528													9.789062	0.528256	-0.537224	-0.053099	-0.908384	0.414752	0.052601	0.412217	0.909566	-0.997203	0.070113	0.025893
19	899695													9.775831	0.500567	-0.538257	-0.053185	-0.908361	0.414791	0.052339	0.412273	0.909556	-0.997212	0.070084	0.025616
20	899862													9.770563	0.504986	-0.523502	-0.053218	-0.908382	0.414742	0.052104	0.412239	0.909585	-0.997223	0.070016	0.025392
21	900028													9.757593	0.487230	-0.548226	-0.053222	-0.908460	0.414570	0.051882	0.412082	0.909669	-0.997234	0.069923	0.025201
22	900195													9.752393	0.483500	-0.540848	-0.053288	-0.908430	0.414627	0.051703	0.412150	0.909648	-0.997240	0.069911	0.025006
23	900362													9.751380	0.489015	-0.526244	-0.053348	-0.908409	0.414666	0.051498	0.412202	0.909636	-0.997247	0.069882	0.024792
24	900528													9.795381	0.524305	-0.532609	-0.053407	-0.908469	0.414526	0.051303	0.412074	0.909705	-0.997254	0.069851	0.024600
25	900695													9.780955	0.547049	-0.522541	-0.053387	-0.908556	0.414338	0.051125	0.411898	0.909794	-0.997264	0.069754	0.024460
26	900862													9.762012	0.553511	-0.520585	-0.053336	-0.908526	0.414409	0.050951	0.411983	0.909766	-0.997276	0.069638	0.024317
27	901028													9.774182	0.567641	-0.514838	-0.053246	-0.908522	0.414431	0.050762	0.412021	0.909759	-0.997290	0.069478	0.024180
28	901195													9.772727	0.536543	-0.510005	-0.053114	-0.908587	0.414306	0.050576	0.411911	0.909819	-0.997307	0.069278	0.024074
29	901362													9.764976	0.504748	-0.497090	-0.052947	-0.908534	0.414443	0.050396	0.412065	0.909760	-0.997325	0.069055	0.023969
30	901529													9.772392	0.491850	-0.512653	-0.052775	-0.908518	0.414499	0.050170	0.412141	0.909738	-0.997345	0.068807	0.023829
31	901695													9.779551	0.493684	-0.505635	-0.052539	-0.908649	0.414242	0.049919	0.411907	0.909858	-0.997370	0.068482	0.023717
32	901862													9.774983	0.486537	-0.482930	-0.052294	-0.908659	0.414252	0.049706	0.411937	0.909855	-0.997394	0.068170	0.023624
33	902029													9.772163	0.489592	-0.459936	-0.052051	-0.908713	0.414163	0.049488	0.411869	0.909898	-0.997417	0.067857	0.023532
34	902195													9.756163	0.484807	-0.468948	-0.051833	-0.908773	0.414059	0.049281	0.411783	0.909948	-0.997439	0.067571	0.023441
35	902362													9.769564	0.494693	-0.486647	-0.051659	-0.908816	0.413987	0.049024	0.411733	0.909985	-0.997461	0.067304	0.023284
36	902529													9.764423	0.517420	-0.485315	-0.051532	-0.908805	0.414027	0.048716	0.411797	0.909973	-0.997482	0.067063	0.023053
37	902695													9.759586	0.512078	-0.482875	-0.051455	-0.908864	0.413907	0.048393	0.411700	0.910034	-0.997502	0.066856	0.022799
38	902862													9.758808	0.511281	-0.517848	-0.051465	-0.908897	0.413832	0.048052	0.411648	0.910075	-0.997518	0.066723	0.022489
39	903029													9.762358	0.498275	-0.468460	-0.051488	-0.908956	0.413701	0.047690	0.411540	0.910143	-0.997534	0.066591	0.022159
40	903195													9.780186	0.489686	-0.481800	-0.051529	-0.908995	0.413610	0.047336	0.411471	0.910193	-0.997549	0.066480	0.021825
41	903362													9.771175	0.490006	-0.498683	-0.051575	-0.909020	0.413549	0.046973	0.411434	0.910228	-0.997564	0.066370	0.021480
42	903529													9.777328	0.491992	-0.497302	-0.051637	-0.909002	0.413580	0.046646	0.411485	0.910222	-0.997576	0.066293	0.021153
43	903695													9.763623	0.481282	-0.488688	-0.051709	-0.909048	0.413470	0.046284	0.411397	0.910280	-0.997589	0.066207	0.020801
44	903862													9.762424	0.466055	-0.489858	-0.051812	-0.909092	0.413361	0.045877	0.411313	0.910339	-0.997603	0.066130	0.020395
45	904029													9.758926	0.466064	-0.516093	-0.051975	-0.909051	0.413430	0.045420	0.411409	0.910318	-0.997615	0.066092	0.019906
46	904195													9.745260	0.457125	-0.502766	-0.052165	-0.909046	0.413418	0.044980	0.411423	0.910334	-0.997625	0.066083	0.019427
47	904362													9.709095	0.436615	-0.527352	-0.052418	-0.909080	0.413311	0.044557	0.411339	0.910393	-0.997631	0.066137	0.018944
48	904529													9.839855	0.432835	-0.534871	-0.052731	-0.909267	0.412859	0.044192	0.410904	0.910607	-0.997630	0.066262	0.018515
49	904695													9.787131	0.453368	-0.511994	-0.052942	-0.909431	0.412470	0.043856	0.410534	0.910790	-0.997634	0.066308	0.018149
50	904862													9.789552	0.502000	-0.503972	-0.053137	-0.909490	0.412316	0.043677	0.410388	0.910865	-0.997632	0.066409	0.017917
51	905029													9.804362	0.517929	-0.490125	-0.053256	-0.909510	0.412257	0.043640	0.410329	0.910893	-0.997627	0.066501	0.017838
52	905195													9.789048	0.525921	-0.506698	-0.053320	-0.909511	0.412245	0.043613	0.410317	0.910899	-0.997625	0.066548	0.017788
53	905362													9.796025	0.505830	-0.520707	-0.053293	-0.909591	0.412074	0.043515	0.410153	0.910978	-0.997630	0.066480	0.017722
54	905529													9.771458	0.524195	-0.489000	-0.053200	-0.909548	0.412181	0.043323	0.410274	0.910932	-0.997644	0.066318	0.017578
55	905695													9.762130	0.505174	-0.498103	-0.053081	-0.909536	0.412222	0.043056	0.410335	0.910918	-0.997662	0.066101	0.017380
56	905862													9.749861	0.481674	-0.487161	-0.052950	-0.909524	0.412265	0.042738	0.410402	0.910903	-0.997682	0.065851	0.017140
57	906029													9.734959	0.418306	-0.493773	-0.052901	-0.909459	0.412414	0.042379	0.410576	0.910841	-0.997700	0.065662	0.016823
58	906195													9.748994	0.415764	-0.517910	-0.052909	-0.909480	0.412367	0.041944	0.410557	0.910870	-0.997718	0.065489	0.016425
59	906362													9.795050	0.429977	-0.496912	-0.052988	-0.909422	0.412486	0.041544	0.410701	0.910823	-0.997731	0.065399	0.016019
60	906529													9.813311	0.484542	-0.493050	-0.053039	-0.909486	0.412338	0.041220	0.410574	0.910895	-0.997741	0.065309	0.015713
61	906695													9.745940	0.485153	-0.516889	-0.053054	-0.909485	0.412337	0.040967	0.410589	0.910900	-0.997751	0.065219	0.015475
62	906862													9.776221	0.469660	-0.533498	-0.053154	-0.909427	0.412452	0.040702	0.410720	0.910853	-0.997756	0.065203	0.015184
63	907029													9.724251	0.503888	-0.523852	-0.053289	-0.909401	0.412493	0.040453	0.410775	0.910839	-0.997759	0.065224	0.014898
64	907195													9.764494	0.517938	-0.537386	-0.053522	-0.909314	0.412654	0.040277	0.410944	0.910771	-0.997754	0.065367	0.014630
65	907362													9.785185	0.500051	-0.525601	-0.053733	-0.909184	0.412914	0.040156	0.411209	0.910656	-0.997748	0.065514	0.014414
66	907529													9.768671	0.458778	-0.541170	-0.053956	-0.909038	0.413206	0.040000	0.411509	0.910528	-0.997742	0.065657	0.014158
67	907695													9.777921	0.437370	-0.536240	-0.054172	-0.908883	0.413518	0.039830	0.411830	0.910390	-0.997737	0.065788	0.013891
68	907862													9.745986	0.461746	-0.543259	-0.054415	-0.908764	0.413747	0.039672	0.412066	0.910290	-0.997730	0.065947	0.013630
69	908029													9.757270	0.449470	-0.519359	-0.054640	-0.908593	0.414092	0.039590	0.412415	0.910136	-0.997721	0.066123	0.013437
70	908195													9.792207	0.445222	-0.539793	-0.054829	-0.908494	0.414286	0.039588	0.412606	0.910049	-0.997711	0.066297	0.013343
71	908362													9.764858	0.446861	-0.556035	-0.055023	-0.908368	0.414536	0.039637	0.412850	0.909936	-0.997698	0.066498	0.013289
72	908529													9.790342	0.435679	-0.542071	-0.055212	-0.908284	0.414695	0.039720	0.413001	0.909864	-0.997684	0.066707	0.013274
73	908695													9.802989	0.469241	-0.552689	-0.055340	-0.908227	0.414802	0.039803	0.413101	0.909815	-0.997674	0.066860	0.013289
74	908862													9.797077	0.470679	-0.556980	-0.055360	-0.908223	0.414808	0.039942	0.413098	0.909810	-0.997667	0.066936	0.013408
75	909029													9.768339	0.505111	-0.572343	-0.055363	-0.908116	0.415042	0.040061	0.413325	0.909702	-0.997662	0.066991	0.013497
76	909195													9.746706	0.519272	-0.583666	-0.055366	-0.908044	0.415199	0.040196	0.413473	0.909629	-0.997657	0.067052	0.013608
77	909362													9.780244	0.517660	-0.543927	-0.055334	-0.907862	0.415601	0.040265	0.413871	0.909445	-0.997656	0.067058	0.013654
78	909529													9.793679	0.491271	-0.548283	-0.055277	-0.907729	0.415899	0.040291	0.414168	0.909308	-0.997658	0.067021	0.013679
79	909695													9.791030	0.479028	-0.522890	-0.055093	-0.907597	0.416211	0.040294	0.414484	0.909164	-0.997668	0.066859	0.013736
80	909862													9.786993	0.472712	-0.538502	-0.054839	-0.907530	0.416392	0.040303	0.414667	0.909080	-0.997681	0.066635	0.013836
81	910029													9.783796	0.463504	-0.536694	-0.054536	-0.907382	0.416754	0.040285	0.415036	0.908913	-0.997699	0.066358	0.013919
82	910195													9.769237	0.472562	-0.526514	-0.054189	-0.907372	0.416821	0.040320	0.415106	0.908879	-0.997716	0.066058	0.014091
83	910362													9.757052	0.478826	-0.510976	-0.053857	-0.907446	0.416702	0.040327	0.414991	0.908931	-0.997734	0.065756	0.014245
84	910529													9.770324	0.489190	-0.501824	-0.053497	-0.907497	0.416639	0.040351	0.414931	0.908958	-0.997752	0.065438	0.014421
85	910695													9.789473	0.500661	-0.495503	-0.053172	-0.907585	0.416488	0.040346	0.414785	0.909025	-0.997770	0.065138	0.014563
86	910862													9.785231	0.491062	-0.489182	-0.052828	-0.907586	0.416530	0.040305	0.414834	0.909004	-0.997790	0.064809	0.014665
87	911029													9.771380	0.495317	-0.501494	-0.052511	-0.907627	0.416481	0.040222	0.414795	0.909025	-0.997810	0.064486	0.014725
88	911195													9.767955	0.515982	-0.472691	-0.052255	-0.907638	0.416488	0.040101	0.414814	0.909022	-0.997828	0.064203	0.014721
89	911362													9.758756	0.517281	-0.489173	-0.052042	-0.907661	0.416465	0.039977	0.414803	0.909033	-0.997844	0.063957	0.014698
90	911529													9.722265	0.502670	-0.490319	-0.051883	-0.907653	0.416502	0.039802	0.414852	0.909018	-0.997860	0.063740	0.014603
91	911695													9.740365	0.496166	-0.506516	-0.051866	-0.907642	0.416528	0.039594	0.414893	0.909008	-0.997869	0.063639	0.014418
92	912029													9.771549	0.472678	-0.494423	-0.051915	-0.907571	0.416677	0.039376	0.415055	0.908944	-0.997875	0.063595	0.014189
93	912195													9.766043	0.449019	-0.506253	-0.051953	-0.907554	0.416710	0.039169	0.415101	0.908932	-0.997881	0.063544	0.013982
94	912362													9.750256	0.449981	-0.517992	-0.052029	-0.907532	0.416747	0.038998	0.415147	0.908918	-0.997884	0.063543	0.013793
95	912529													9.811996	0.452517	-0.529229	-0.052125	-0.907540	0.416717	0.038849	0.415126	0.908934	-0.997885	0.063568	0.013619
96	912695													9.771068	0.481640	-0.531450	-0.052205	-0.907595	0.416589	0.038805	0.414999	0.908994	-0.997882	0.063620	0.013554
97	912862													9.808672	0.514366	-0.506616	-0.052292	-0.907584	0.416601	0.038989	0.414998	0.908986	-0.997870	0.063775	0.013685
98	913029													9.812233	0.511044	-0.506369	-0.052316	-0.907533	0.416711	0.039246	0.415091	0.908933	-0.997859	0.063905	0.013901
99	913195													9.791633	0.520409	-0.511653	-0.052241	-0.907476	0.416842	0.039439	0.415212	0.908870	-0.997855	0.063920	0.014099
100	913362													9.790035	0.515567	-0.491221	-0.052124	-0.907363	0.417104	0.039552	0.415468	0.908747	-0.997857	0.063865	0.014232
101	913529													9.785017	0.529393	-0.506647	-0.051889	-0.907143	0.417612	0.039488	0.415985	0.908514	-0.997872	0.063632	0.014236
102	913695													9.782754	0.508477	-0.465350	-0.051610	-0.906980	0.418000	0.039388	0.416383	0.908336	-0.997890	0.063344	0.014235
103	913862													9.760912	0.464502	-0.466680	-0.051318	-0.906840	0.418338	0.039253	0.416735	0.908180	-0.997911	0.063027	0.014210
104	914029													9.745978	0.413077	-0.476043	-0.051124	-0.906753	0.418550	0.039070	0.416962	0.908084	-0.997928	0.062778	0.014110
105	914195													9.739528	0.407697	-0.473773	-0.051008	-0.906763	0.418543	0.038862	0.416969	0.908089	-0.997942	0.062585	0.013970
106	914362													9.760293	0.441644	-0.456025	-0.050955	-0.906852	0.418357	0.038663	0.416795	0.908178	-0.997952	0.062451	0.013824
107	914529													9.770254	0.462145	-0.469919	-0.050884	-0.906972	0.418107	0.038547	0.416553	0.908294	-0.997960	0.062335	0.013765
108	914695													9.766410	0.474103	-0.458795	-0.050915	-0.907150	0.417717	0.038447	0.416169	0.908474	-0.997963	0.062315	0.013688
109	914862													9.766763	0.502092	-0.497700	-0.050968	-0.907276	0.417436	0.038284	0.415897	0.908606	-0.997966	0.062291	0.013537
110	915029													9.715744	0.543835	-0.486210	-0.051126	-0.907381	0.417189	0.038128	0.415657	0.908722	-0.997964	0.062366	0.013345
111	915195													9.774305	0.548261	-0.478824	-0.051405	-0.907344	0.417234	0.038030	0.415705	0.908704	-0.997954	0.062579	0.013137
112	915362													9.776614	0.541368	-0.507962	-0.051685	-0.907272	0.417355	0.037930	0.415829	0.908652	-0.997943	0.062794	0.012921
113	915529													9.765592	0.483018	-0.489729	-0.051995	-0.907162	0.417557	0.037811	0.416034	0.908563	-0.997931	0.063029	0.012669
114	915695													9.764113	0.479244	-0.512956	-0.052264	-0.907043	0.417782	0.037652	0.416267	0.908463	-0.997923	0.063210	0.012396
115	915862													9.778206	0.475393	-0.521989	-0.052532	-0.906949	0.417953	0.037494	0.416444	0.908388	-0.997915	0.063390	0.012129
116	916029													9.774763	0.444854	-0.526581	-0.052771	-0.906828	0.418185	0.037398	0.416680	0.908284	-0.997906	0.063570	0.011925
117	916195													9.772985	0.430434	-0.539351	-0.053000	-0.906765	0.418293	0.037370	0.416787	0.908236	-0.997895	0.063768	0.011796
118	916362													9.779113	0.427631	-0.544632	-0.053215	-0.906733	0.418334	0.037395	0.416825	0.908217	-0.997883	0.063974	0.011726
119	916529													9.788694	0.447158	-0.550353	-0.053393	-0.906775	0.418219	0.037458	0.416703	0.908270	-0.997871	0.064161	0.011717
120	916695													9.773423	0.462096	-0.541130	-0.053547	-0.906793	0.418162	0.037559	0.416638	0.908296	-0.997859	0.064342	0.011749
121	916862													9.788191	0.489276	-0.567548	-0.053652	-0.906747	0.418247	0.037689	0.416713	0.908256	-0.997848	0.064493	0.011817
122	917029													9.770446	0.504821	-0.541166	-0.053711	-0.906679	0.418387	0.037862	0.416841	0.908190	-0.997838	0.064621	0.011940
123	917195													9.772423	0.525202	-0.555732	-0.053718	-0.906642	0.418467	0.038043	0.416910	0.908151	-0.997831	0.064703	0.012096
124	917362													9.803801	0.531278	-0.531843	-0.053676	-0.906551	0.418669	0.038171	0.417104	0.908057	-0.997829	0.064722	0.012215
125	917529													9.806393	0.514792	-0.537293	-0.053552	-0.906446	0.418913	0.038232	0.417346	0.907943	-0.997833	0.064638	0.012306
126	917695													9.781640	0.531756	-0.533364	-0.053333	-0.906363	0.419121	0.038214	0.417558	0.907846	-0.997845	0.064434	0.012366
127	917862													9.769382	0.500445	-0.511689	-0.053093	-0.906293	0.419303	0.038140	0.417748	0.907762	-0.997861	0.064188	0.012387
128	918029													9.759674	0.493787	-0.514353	-0.052869	-0.906229	0.419469	0.038030	0.417925	0.907685	-0.997877	0.063941	0.012369
129	918196													9.765607	0.471292	-0.503116	-0.052642	-0.906198	0.419565	0.037939	0.418029	0.907641	-0.997893	0.063698	0.012374
130	918362													9.759820	0.472708	-0.507962	-0.052469	-0.906233	0.419510	0.037828	0.417983	0.907667	-0.997906	0.063493	0.012350
131	918529													9.764392	0.465121	-0.493411	-0.052320	-0.906318	0.419344	0.037733	0.417825	0.907743	-0.997917	0.063316	0.012337
132	918696													9.775217	0.473612	-0.497319	-0.052190	-0.906368	0.419254	0.037635	0.417743	0.907786	-0.997928	0.063156	0.012309
133	918862													9.767479	0.490485	-0.486814	-0.052063	-0.906465	0.419060	0.037537	0.417556	0.907876	-0.997938	0.062996	0.012287
134	919029													9.773047	0.503575	-0.499328	-0.051951	-0.906525	0.418944	0.037473	0.417445	0.907929	-0.997946	0.062867	0.012283
135	919196													9.769972	0.507434	-0.471593	-0.051852	-0.906510	0.418987	0.037403	0.417494	0.907909	-0.997954	0.062748	0.012258
136	919362													9.733048	0.507122	-0.497265	-0.051792	-0.906549	0.418911	0.037302	0.417426	0.907945	-0.997961	0.062651	0.012196
137	919529													9.749379	0.509811	-0.497542	-0.051847	-0.906620	0.418750	0.037138	0.417273	0.908022	-0.997964	0.062630	0.012036
138	919696													9.787566	0.480819	-0.489559	-0.051902	-0.906517	0.418966	0.036979	0.417499	0.907924	-0.997967	0.062616	0.011853
139	919862													9.758684	0.458847	-0.513691	-0.051894	-0.906495	0.419016	0.036868	0.417556	0.907903	-0.997972	0.062563	0.011752
140	920029													9.711985	0.447770	-0.514555	-0.051931	-0.906451	0.419105	0.036791	0.417650	0.907863	-0.997973	0.062565	0.011661
141	920196													9.832814	0.456950	-0.517610	-0.051959	-0.906423	0.419162	0.036776	0.417708	0.907837	-0.997972	0.062585	0.011631
142	920362													9.774132	0.491392	-0.489193	-0.051905	-0.906420	0.419177	0.036910	0.417715	0.907828	-0.997970	0.062592	0.011775
143	920529													9.795961	0.528249	-0.496496	-0.051854	-0.906317	0.419405	0.037227	0.417924	0.907719	-0.997961	0.062682	0.012069
144	920696													9.763934	0.540191	-0.496504	-0.051799	-0.906245	0.419566	0.037686	0.418057	0.907639	-0.997946	0.062827	0.012497
145	920862													9.766090	0.537597	-0.482856	-0.051752	-0.906066	0.419960	0.038023	0.418431	0.907452	-0.997936	0.062930	0.012797
146	921029													9.802521	0.538358	-0.478084	-0.051645	-0.905933	0.420259	0.038201	0.418720	0.907311	-0.997935	0.062913	0.012982
147	921196													9.798055	0.525607	-0.479517	-0.051420	-0.905773	0.420632	0.038257	0.419093	0.907137	-0.997944	0.062737	0.013103
148	921362													9.773900	0.523713	-0.470763	-0.051099	-0.905645	0.420947	0.038262	0.419413	0.906989	-0.997960	0.062453	0.013221
149	921529													9.728012	0.463063	-0.477626	-0.050790	-0.905541	0.421208	0.038257	0.419679	0.906866	-0.997976	0.062174	0.013328
150	921696													9.732499	0.419426	-0.486258	-0.050574	-0.905505	0.421312	0.038256	0.419785	0.906817	-0.997987	0.061979	0.013411
151	921862													9.743716	0.413567	-0.477059	-0.050482	-0.905535	0.421258	0.038241	0.419734	0.906841	-0.997993	0.061888	0.013439
152	922029													9.769593	0.446366	-0.476045	-0.050476	-0.905642	0.421028	0.038194	0.419506	0.906949	-0.997995	0.061860	0.013415
153	922196													9.802040	0.484127	-0.450887	-0.050426	-0.905802	0.420689	0.038207	0.419167	0.907105	-0.997997	0.061814	0.013471
154	922362													9.746446	0.525443	-0.478462	-0.050387	-0.905974	0.420324	0.038244	0.418800	0.907273	-0.997997	0.061789	0.013546
155	922529													9.761338	0.532168	-0.470648	-0.050433	-0.906093	0.420061	0.038232	0.418537	0.907395	-0.997995	0.061823	0.013534
156	922696													9.726802	0.566669	-0.496998	-0.050590	-0.906202	0.419809	0.038191	0.418284	0.907513	-0.997989	0.061944	0.013448
157	922862													9.785911	0.573766	-0.491096	-0.050830	-0.906184	0.419817	0.038160	0.418291	0.907511	-0.997978	0.062149	0.013318
158	923029													9.756752	0.557011	-0.485004	-0.051002	-0.906135	0.419902	0.038132	0.418375	0.907473	-0.997970	0.062295	0.013215
159	923196													9.772671	0.533817	-0.519029	-0.051227	-0.906002	0.420161	0.038076	0.418636	0.907356	-0.997961	0.062479	0.013051
160	923362													9.770573	0.498262	-0.503685	-0.051422	-0.905903	0.420352	0.037958	0.418832	0.907270	-0.997955	0.062609	0.012849
161	923529													9.761391	0.461307	-0.530151	-0.051596	-0.905781	0.420593	0.037865	0.419077	0.907161	-0.997950	0.062732	0.012675
162	923696													9.774889	0.470862	-0.513943	-0.051774	-0.905703	0.420739	0.037848	0.419222	0.907094	-0.997941	0.062888	0.012574
163	923862													9.777115	0.453177	-0.494382	-0.051882	-0.905651	0.420838	0.037888	0.419317	0.907049	-0.997934	0.063004	0.012558
164	924029													9.770069	0.456185	-0.518589	-0.051974	-0.905624	0.420884	0.038005	0.419354	0.907027	-0.997925	0.063138	0.012623
165	924196													9.771020	0.489990	-0.533230	-0.052101	-0.905673	0.420764	0.038140	0.419224	0.907081	-0.997913	0.063307	0.012701
166	924362													9.788709	0.513908	-0.530119	-0.052209	-0.905697	0.420698	0.038293	0.419147	0.907111	-0.997902	0.063469	0.012799
167	924529													9.781610	0.545965	-0.499489	-0.052267	-0.905656	0.420780	0.038485	0.419216	0.907071	-0.997891	0.063604	0.012942
168	924696													9.784589	0.560470	-0.517377	-0.052269	-0.905630	0.420835	0.038658	0.419260	0.907043	-0.997884	0.063679	0.013096
169	924862													9.787979	0.560138	-0.535652	-0.052213	-0.905493	0.421136	0.038833	0.419552	0.906900	-0.997881	0.063706	0.013257
170	925029													9.795786	0.545994	-0.507396	-0.052073	-0.905409	0.421334	0.038956	0.419743	0.906806	-0.997883	0.063634	0.013414
171	925196													9.770441	0.538777	-0.523035	-0.051901	-0.905308	0.421572	0.039025	0.419980	0.906694	-0.997889	0.063510	0.013532
172	925362													9.786509	0.513797	-0.497716	-0.051700	-0.905243	0.421737	0.039039	0.420147	0.906616	-0.997899	0.063336	0.013618
173	925529													9.769650	0.493767	-0.530405	-0.051511	-0.905126	0.422011	0.039056	0.420423	0.906487	-0.997908	0.063176	0.013694
174	925696													9.750791	0.479853	-0.513318	-0.051344	-0.905044	0.422207	0.039019	0.420624	0.906396	-0.997919	0.063012	0.013718
175	925862													9.767283	0.481380	-0.478324	-0.051235	-0.905042	0.422225	0.038960	0.420647	0.906387	-0.997926	0.062889	0.013708
176	926029													9.770429	0.490219	-0.485417	-0.051135	-0.905103	0.422106	0.038892	0.420533	0.906443	-0.997934	0.062768	0.013697
177	926196													9.771198	0.499560	-0.494164	-0.051041	-0.905144	0.422030	0.038829	0.420463	0.906478	-0.997941	0.062655	0.013685
178	926362													9.781980	0.521171	-0.478592	-0.050959	-0.905223	0.421871	0.038721	0.420312	0.906553	-0.997950	0.062533	0.013633
179	926529													9.767723	0.529717	-0.507707	-0.050864	-0.905293	0.421732	0.038584	0.420182	0.906619	-0.997960	0.062387	0.013557
180	926696													9.744385	0.513264	-0.490363	-0.050846	-0.905349	0.421613	0.038416	0.420074	0.906677	-0.997967	0.062297	0.013421
181	926862													9.769013	0.506663	-0.475958	-0.050892	-0.905450	0.421391	0.038203	0.419864	0.906783	-0.997973	0.062246	0.013223
182	927029													9.806263	0.490991	-0.476092	-0.050924	-0.905489	0.421303	0.038021	0.419786	0.906826	-0.997979	0.062197	0.013051
183	927196													9.720868	0.467049	-0.501473	-0.050903	-0.905532	0.421213	0.037869	0.419707	0.906869	-0.997985	0.062113	0.012928
184	927362													9.700877	0.459573	-0.511325	-0.051001	-0.905563	0.421135	0.037793	0.419632	0.906907	-0.997983	0.062169	0.012822
185	927529													9.823781	0.477291	-0.529343	-0.051112	-0.905582	0.421080	0.037796	0.419575	0.906933	-0.997977	0.062270	0.012782
186	927696													9.794212	0.501345	-0.500633	-0.051143	-0.905585	0.421069	0.037903	0.419557	0.906937	-0.997972	0.062344	0.012867
187	927862													9.829520	0.550564	-0.493696	-0.051134	-0.905545	0.421158	0.038169	0.419629	0.906893	-0.997962	0.062449	0.013107
188	928029													9.805277	0.556366	-0.483959	-0.051031	-0.905452	0.421370	0.038564	0.419819	0.906788	-0.997952	0.062525	0.013494
189	928196													9.799930	0.530725	-0.494145	-0.050875	-0.905291	0.421734	0.038851	0.420167	0.906615	-0.997949	0.062509	0.013796
190	928362													9.798774	0.507566	-0.506774	-0.050637	-0.905126	0.422118	0.038954	0.420549	0.906433	-0.997957	0.062342	0.013963
191	928529													9.798474	0.519950	-0.486290	-0.050301	-0.904995	0.422439	0.038878	0.420880	0.906283	-0.997977	0.062010	0.014014
192	928696													9.772285	0.490964	-0.451159	-0.049907	-0.904922	0.422642	0.038751	0.421096	0.906188	-0.998002	0.061603	0.014051
193	928862													9.731341	0.434325	-0.458209	-0.049561	-0.904877	0.422777	0.038628	0.421244	0.906124	-0.998024	0.061239	0.014077
194	929029													9.729113	0.389798	-0.441502	-0.049305	-0.904935	0.422684	0.038511	0.421162	0.906168	-0.998041	0.060956	0.014085
195	929196													9.727305	0.384019	-0.477130	-0.049174	-0.905073	0.422403	0.038401	0.420889	0.906299	-0.998052	0.060787	0.014059
196	929362													9.773694	0.432750	-0.430550	-0.049133	-0.905337	0.421843	0.038297	0.420335	0.906561	-0.998058	0.060697	0.014019
197	929529													9.790607	0.491775	-0.452459	-0.049013	-0.905576	0.421342	0.038274	0.419836	0.906792	-0.998065	0.060571	0.014083
198	929696													9.759620	0.512111	-0.442004	-0.048992	-0.905769	0.420929	0.038285	0.419423	0.906983	-0.998065	0.060550	0.014129
199	929862													9.756531	0.555406	-0.470459	-0.049023	-0.905930	0.420579	0.038254	0.419074	0.907146	-0.998065	0.060560	0.014111
200	930029													9.760424	0.598382	-0.486094	-0.049141	-0.905982	0.420454	0.038248	0.418947	0.907205	-0.998059	0.060662	0.014064
201	930196													9.800904	0.576202	-0.475617	-0.049283	-0.905928	0.420555	0.038271	0.419044	0.907159	-0.998051	0.060802	0.014019
202	930362													9.783489	0.546715	-0.498858	-0.049411	-0.905863	0.420679	0.038230	0.419169	0.907103	-0.998047	0.060903	0.013920
203	930529													9.799891	0.480022	-0.500547	-0.049562	-0.905727	0.420954	0.038157	0.419447	0.906978	-0.998042	0.061014	0.013771
204	930696													9.783894	0.453618	-0.485957	-0.049643	-0.905584	0.421252	0.038082	0.419749	0.906841	-0.998041	0.061060	0.013649
205	930862													9.756784	0.441262	-0.490950	-0.049670	-0.905485	0.421461	0.038081	0.419958	0.906744	-0.998039	0.061088	0.013623
206	931029													9.774139	0.424074	-0.477105	-0.049689	-0.905450	0.421535	0.038170	0.420027	0.906709	-0.998035	0.061144	0.013691
207	931196													9.775405	0.432721	-0.511555	-0.049674	-0.905422	0.421595	0.038326	0.420078	0.906679	-0.998030	0.061197	0.013835
208	931362													9.762134	0.447319	-0.501671	-0.049668	-0.905368	0.421712	0.038512	0.420183	0.906622	-0.998023	0.061271	0.013998
209	931529													9.774163	0.495233	-0.502028	-0.049699	-0.905384	0.421675	0.038730	0.420132	0.906636	-0.998013	0.061391	0.014185
210	931696													9.795414	0.519026	-0.498291	-0.049711	-0.905405	0.421629	0.038944	0.420073	0.906654	-0.998004	0.061491	0.014378
211	931862													9.788158	0.542350	-0.489644	-0.049671	-0.905378	0.421692	0.039181	0.420122	0.906621	-0.997997	0.061555	0.014606
212	932029													9.805477	0.536710	-0.489383	-0.049580	-0.905307	0.421854	0.039430	0.420270	0.906542	-0.997992	0.061581	0.014859
213	932196													9.779768	0.522459	-0.502343	-0.049414	-0.905264	0.421966	0.039610	0.420374	0.906486	-0.997993	0.061507	0.015085
214	932362													9.755857	0.513676	-0.471616	-0.049268	-0.905200	0.422119	0.039727	0.420522	0.906412	-0.997995	0.061427	0.015243
215	932529													9.763645	0.512774	-0.486000	-0.049098	-0.905140	0.422269	0.039822	0.420668	0.906340	-0.998000	0.061315	0.015390
216	932696													9.764187	0.512603	-0.479419	-0.048943	-0.905110	0.422350	0.039905	0.420747	0.906300	-0.998004	0.061211	0.015526
217	932862													9.778802	0.500197	-0.472467	-0.048781	-0.905063	0.422470	0.039999	0.420864	0.906242	-0.998008	0.061106	0.015671
218	933029													9.799915	0.500150	-0.481146	-0.048579	-0.905077	0.422464	0.040050	0.420858	0.906242	-0.998016	0.060944	0.015803
219	933196													9.801275	0.501306	-0.451411	-0.048348	-0.905092	0.422459	0.040101	0.420853	0.906242	-0.998025	0.060756	0.015948
220	933362													9.797929	0.495553	-0.451929	-0.048112	-0.905117	0.422431	0.040150	0.420826	0.906252	-0.998035	0.060562	0.016094
221	933529													9.758959	0.483757	-0.462216	-0.047856	-0.905181	0.422324	0.040153	0.420724	0.906300	-0.998047	0.060329	0.016211
222	933696													9.736286	0.515708	-0.457509	-0.047721	-0.905229	0.422235	0.040114	0.420639	0.906341	-0.998055	0.060189	0.016239
223	933862													9.756906	0.495407	-0.448023	-0.047658	-0.905303	0.422085	0.040079	0.420491	0.906411	-0.998059	0.060115	0.016244
224	934029													9.750947	0.483295	-0.471524	-0.047605	-0.905367	0.421953	0.040006	0.420364	0.906473	-0.998065	0.060033	0.016209
225	934196													9.707016	0.498375	-0.460054	-0.047618	-0.905426	0.421824	0.039965	0.420238	0.906533	-0.998066	0.060026	0.016175
226	934362													9.807144	0.497883	-0.473086	-0.047684	-0.905447	0.421771	0.039970	0.420184	0.906558	-0.998062	0.060086	0.016155
227	934529													9.795467	0.506366	-0.472667	-0.047673	-0.905504	0.421651	0.039997	0.420062	0.906613	-0.998062	0.060085	0.016192
228	934696													9.794334	0.542010	-0.469141	-0.047669	-0.905491	0.421680	0.040156	0.420082	0.906597	-0.998056	0.060150	0.016336
229	934863													9.807680	0.568714	-0.444744	-0.047588	-0.905445	0.421788	0.040438	0.420174	0.906542	-0.998048	0.060197	0.016619
230	935029													9.794963	0.553909	-0.458187	-0.047431	-0.905338	0.422034	0.040691	0.420408	0.906422	-0.998045	0.060165	0.016899
231	935196													9.821307	0.515027	-0.460944	-0.047237	-0.905240	0.422267	0.040864	0.420634	0.906310	-0.998047	0.060067	0.017122
232	935363													9.793900	0.524106	-0.432506	-0.046938	-0.905157	0.422479	0.040915	0.420848	0.906208	-0.998060	0.059821	0.017281
233	935529													9.745395	0.510889	-0.426972	-0.046618	-0.905070	0.422699	0.040909	0.421074	0.906103	-0.998075	0.059533	0.017396
234	935696													9.753223	0.488629	-0.431724	-0.046303	-0.905011	0.422861	0.040874	0.421244	0.906026	-0.998091	0.059236	0.017487
235	935863													9.742875	0.443016	-0.432072	-0.046021	-0.905012	0.422889	0.040868	0.421277	0.906011	-0.998104	0.058978	0.017599
236	936029													9.740962	0.428858	-0.446296	-0.045846	-0.905075	0.422773	0.040786	0.421169	0.906065	-0.998116	0.058783	0.017605
237	936196													9.788682	0.459728	-0.415528	-0.045749	-0.905194	0.422529	0.040732	0.420929	0.906178	-0.998122	0.058668	0.017613
238	936363													9.798917	0.498300	-0.433809	-0.045636	-0.905348	0.422211	0.040760	0.420612	0.906325	-0.998126	0.058570	0.017707
239	936529													9.756441	0.506701	-0.432237	-0.045563	-0.905504	0.421885	0.040807	0.420284	0.906474	-0.998128	0.058518	0.017802
240	936696													9.773489	0.528239	-0.432424	-0.045562	-0.905637	0.421598	0.040818	0.419996	0.906607	-0.998127	0.058516	0.017831
241	936863													9.740056	0.571180	-0.442963	-0.045661	-0.905698	0.421458	0.040873	0.419851	0.906672	-0.998120	0.058625	0.017848
242	937029													9.784167	0.563449	-0.447566	-0.045817	-0.905717	0.421400	0.040964	0.419785	0.906699	-0.998110	0.058805	0.017869
243	937196													9.787258	0.536057	-0.463677	-0.045947	-0.905680	0.421465	0.040993	0.419846	0.906669	-0.998102	0.058935	0.017836
244	937363													9.763483	0.518986	-0.445845	-0.046112	-0.905587	0.421646	0.040951	0.420026	0.906588	-0.998097	0.059072	0.017717
245	937529													9.749763	0.513313	-0.439330	-0.046304	-0.905498	0.421816	0.040893	0.420197	0.906511	-0.998090	0.059224	0.017572
246	937696													9.765681	0.496834	-0.463488	-0.046505	-0.905388	0.422030	0.040873	0.420409	0.906414	-0.998082	0.059402	0.017455
247	937863													9.754186	0.484582	-0.472675	-0.046728	-0.905342	0.422104	0.040923	0.420476	0.906380	-0.998069	0.059627	0.017401
248	938029													9.757056	0.464453	-0.480987	-0.046988	-0.905270	0.422230	0.041084	0.420587	0.906321	-0.998050	0.059933	0.017430
249	938196													9.769995	0.456497	-0.481705	-0.047305	-0.905196	0.422354	0.041299	0.420693	0.906262	-0.998026	0.060313	0.017483
250	938363													9.785625	0.476031	-0.486263	-0.047584	-0.905152	0.422416	0.041525	0.420736	0.906232	-0.998004	0.060663	0.017566
251	938529													9.809559	0.516504	-0.464077	-0.047770	-0.905149	0.422402	0.041751	0.420706	0.906236	-0.997985	0.060927	0.017693
252	938696													9.805996	0.542879	-0.468662	-0.047853	-0.905159	0.422372	0.042017	0.420658	0.906246	-0.997970	0.061113	0.017903
253	938863													9.781399	0.545085	-0.465590	-0.047863	-0.905126	0.422440	0.042288	0.420709	0.906209	-0.997958	0.061238	0.018140
254	939029													9.797642	0.568496	-0.467493	-0.047787	-0.905111	0.422482	0.042506	0.420739	0.906185	-0.997953	0.061262	0.018367
255	939196													9.815263	0.543076	-0.458091	-0.047619	-0.905033	0.422667	0.042675	0.420917	0.906095	-0.997954	0.061185	0.018579
256	939363													9.795429	0.531661	-0.468156	-0.047406	-0.904986	0.422793	0.042789	0.421040	0.906032	-0.997959	0.061042	0.018764
257	939529													9.796289	0.534203	-0.451032	-0.047106	-0.904916	0.422976	0.042859	0.421225	0.905943	-0.997970	0.060804	0.018942
258	939696													9.776294	0.509280	-0.440400	-0.046806	-0.904882	0.423082	0.042890	0.421335	0.905890	-0.997983	0.060547	0.019089
259	939863													9.746831	0.489243	-0.450017	-0.046567	-0.904911	0.423045	0.042875	0.421303	0.905906	-0.997995	0.060324	0.019179
260	940029													9.756091	0.496829	-0.447302	-0.046460	-0.904988	0.422892	0.042786	0.421158	0.905978	-0.998003	0.060186	0.019154
261	940196													9.790817	0.487538	-0.433771	-0.046396	-0.905070	0.422723	0.042654	0.420998	0.906058	-0.998012	0.060068	0.019072
262	940363													9.749323	0.478375	-0.420717	-0.046361	-0.905175	0.422504	0.042527	0.420787	0.906162	-0.998019	0.059979	0.018986
263	940529													9.725882	0.501439	-0.436530	-0.046440	-0.905327	0.422168	0.042426	0.420455	0.906321	-0.998020	0.060000	0.018883
264	940696													9.768555	0.519351	-0.450704	-0.046627	-0.905448	0.421888	0.042359	0.420175	0.906454	-0.998014	0.060136	0.018763
265	940863													9.780738	0.530305	-0.455534	-0.046891	-0.905592	0.421550	0.042268	0.419837	0.906615	-0.998005	0.060330	0.018591
266	941029													9.775828	0.549984	-0.451514	-0.047165	-0.905687	0.421316	0.042267	0.419598	0.906726	-0.997992	0.060573	0.018490
267	941196													9.832175	0.570933	-0.447894	-0.047405	-0.905710	0.421239	0.042422	0.419507	0.906760	-0.997974	0.060855	0.018535
268	941363													9.798214	0.567483	-0.445399	-0.047514	-0.905609	0.421443	0.042579	0.419700	0.906664	-0.997963	0.061024	0.018618
269	941529													9.798785	0.535279	-0.435128	-0.047583	-0.905533	0.421600	0.042627	0.419853	0.906591	-0.997957	0.061110	0.018622
270	941696													9.785200	0.532474	-0.467179	-0.047595	-0.905450	0.421775	0.042544	0.420033	0.906511	-0.997960	0.061089	0.018530
271	941863													9.778090	0.522048	-0.431145	-0.047554	-0.905367	0.421960	0.042395	0.420227	0.906428	-0.997969	0.060993	0.018400
272	942029													9.751161	0.504490	-0.424992	-0.047482	-0.905292	0.422127	0.042259	0.420405	0.906352	-0.997978	0.060874	0.018295
273	942196													9.732909	0.437499	-0.477893	-0.047484	-0.905240	0.422240	0.042134	0.420525	0.906302	-0.997983	0.060825	0.018173
274	942363													9.735953	0.415730	-0.462191	-0.047560	-0.905291	0.422121	0.041994	0.420414	0.906360	-0.997985	0.060833	0.018022
275	942529													9.790806	0.429405	-0.448155	-0.047684	-0.905401	0.421871	0.041860	0.420169	0.906480	-0.997985	0.060884	0.017865
276	942696													9.810791	0.454929	-0.449167	-0.047735	-0.905549	0.421547	0.041805	0.419847	0.906631	-0.997985	0.060900	0.017815
277	942863													9.758556	0.493862	-0.451902	-0.047806	-0.905716	0.421180	0.041766	0.419480	0.906803	-0.997983	0.060941	0.017775
278	943029													9.746245	0.521076	-0.448700	-0.047967	-0.905878	0.420814	0.041716	0.419115	0.906974	-0.997977	0.061060	0.017686
279	943196													9.727385	0.568032	-0.473913	-0.048214	-0.905975	0.420577	0.041722	0.418872	0.907086	-0.997965	0.061282	0.017604
280	943363													9.748716	0.563164	-0.462710	-0.048567	-0.906020	0.420439	0.041775	0.418725	0.907152	-0.997946	0.061621	0.017513
281	943529													9.763619	0.546720	-0.475679	-0.048992	-0.905990	0.420454	0.041798	0.418731	0.907148	-0.997924	0.062017	0.017354
282	943696													9.757772	0.520888	-0.471112	-0.049475	-0.905887	0.420619	0.041728	0.418892	0.907077	-0.997903	0.062430	0.017076
283	943863													9.711273	0.496059	-0.484011	-0.050023	-0.905811	0.420720	0.041540	0.418995	0.907038	-0.997884	0.062850	0.016668
284	944029													9.706097	0.500041	-0.471500	-0.050754	-0.905702	0.420865	0.041320	0.419143	0.906980	-0.997856	0.063423	0.016150
285	944196													9.734512	0.480013	-0.493059	-0.051622	-0.905560	0.421065	0.041128	0.419342	0.906896	-0.997819	0.064133	0.015597
286	944363													9.660705	0.440441	-0.539400	-0.052598	-0.905500	0.421073	0.040948	0.419347	0.906902	-0.997776	0.064944	0.015022
287	944529													9.638346	0.427948	-0.507870	-0.053980	-0.905426	0.421057	0.040682	0.419328	0.906923	-0.997713	0.066085	0.014199
288	944696													9.774158	0.438559	-0.517428	-0.055581	-0.905401	0.420904	0.040311	0.419177	0.907009	-0.997640	0.067380	0.013200
289	944863													9.787351	0.476642	-0.546739	-0.057197	-0.905379	0.420734	0.039939	0.419012	0.907102	-0.997564	0.068687	0.012194
290	945029													9.818515	0.498876	-0.567168	-0.058807	-0.905389	0.420491	0.039650	0.418769	0.907227	-0.997482	0.070024	0.011273
291	945196													9.839218	0.545039	-0.579662	-0.060255	-0.905373	0.420320	0.039362	0.418603	0.907316	-0.997407	0.071214	0.010414
292	945363													9.793912	0.551390	-0.639059	-0.061525	-0.905310	0.420273	0.039006	0.418568	0.907348	-0.997343	0.072217	0.009560
293	945529													9.829357	0.572258	-0.646534	-0.062637	-0.905136	0.420481	0.038540	0.418801	0.907260	-0.997292	0.073033	0.008651
294	945696													9.889505	0.494557	-0.676969	-0.063431	-0.904896	0.420879	0.038084	0.419226	0.907083	-0.997259	0.073566	0.007870
295	945863													9.880186	0.486032	-0.677717	-0.063786	-0.904667	0.421317	0.037699	0.419692	0.906884	-0.997251	0.073729	0.007335
296	946029													9.878450	0.392857	-0.722649	-0.063780	-0.904492	0.421695	0.037443	0.420089	0.906710	-0.997261	0.073620	0.007074
297	946196													9.808278	0.382752	-0.717922	-0.063441	-0.904389	0.421966	0.037295	0.420374	0.906584	-0.997289	0.073251	0.007060
298	946363													9.828522	0.370232	-0.688702	-0.062922	-0.904353	0.422122	0.037183	0.420543	0.906511	-0.997326	0.072735	0.007165
299	946529													9.826684	0.347216	-0.668283	-0.062161	-0.904361	0.422216	0.037199	0.420641	0.906464	-0.997373	0.072053	0.007494
300	946696													9.823114	0.364080	-0.659031	-0.061231	-0.904493	0.422071	0.037269	0.420498	0.906528	-0.997428	0.071238	0.007962
301	946863													9.782712	0.381689	-0.659982	-0.060154	-0.904666	0.421855	0.037376	0.420283	0.906623	-0.997489	0.070304	0.008531
302	947029													9.786883	0.386450	-0.641254	-0.059054	-0.904888	0.421534	0.037498	0.419962	0.906767	-0.997550	0.069355	0.009131
303	947196													9.705648	0.400658	-0.640827	-0.057931	-0.905134	0.421160	0.037666	0.419586	0.906934	-0.997610	0.068403	0.009786
304	947363													9.790545	0.429863	-0.625239	-0.056910	-0.905389	0.420752	0.037843	0.419176	0.907116	-0.997662	0.067546	0.010408
305	947529													9.877017	0.475100	-0.631281	-0.055656	-0.905639	0.420381	0.038055	0.418804	0.907279	-0.997725	0.066493	0.011155
306	947696													9.819393	0.505438	-0.636943	-0.054255	-0.905875	0.420055	0.038359	0.418473	0.907419	-0.997790	0.065345	0.012044
307	947863													9.812579	0.495694	-0.627135	-0.052751	-0.906041	0.419890	0.038806	0.418298	0.907480	-0.997853	0.064165	0.013094
308	948029													9.849336	0.474016	-0.644876	-0.051056	-0.906167	0.419828	0.039204	0.418234	0.907493	-0.997926	0.062792	0.014172
309	948196													9.887986	0.477884	-0.618610	-0.048998	-0.906305	0.419774	0.039500	0.418192	0.907499	-0.998018	0.061047	0.015308
310	948363													9.915465	0.475120	-0.675495	-0.046383	-0.906473	0.419708	0.039700	0.418155	0.907508	-0.998135	0.058755	0.016592
311	948529													9.947381	0.475286	-0.623733	-0.043228	-0.906660	0.419642	0.039902	0.418132	0.907509	-0.998268	0.055975	0.018102
312	948696													9.948114	0.434783	-0.638738	-0.039437	-0.906859	0.419584	0.040135	0.418134	0.907498	-0.998416	0.052629	0.019907
313	948863													9.943355	0.422652	-0.621643	-0.035013	-0.907116	0.419422	0.040310	0.418056	0.907527	-0.998574	0.048682	0.021929
314	949029													9.867036	0.379970	-0.557250	-0.030073	-0.907461	0.419058	0.040444	0.417800	0.907638	-0.998729	0.044244	0.024137
315	949196													9.904476	0.429773	-0.515676	-0.024726	-0.907847	0.418573	0.040522	0.417446	0.907798	-0.998873	0.039408	0.026466
316	949363													9.904527	0.452388	-0.432759	-0.018966	-0.908225	0.418052	0.040596	0.417082	0.907962	-0.998996	0.034191	0.028960
317	949529													9.850369	0.468293	-0.347237	-0.012881	-0.908599	0.417470	0.040666	0.416683	0.908142	-0.999090	0.028675	0.031582
318	949696													9.871691	0.490926	-0.264048	-0.006576	-0.908890	0.416985	0.040602	0.416407	0.908271	-0.999154	0.022903	0.034165
319	949863													9.751080	0.532605	-0.199355	-0.000126	-0.909128	0.416517	0.040459	0.416172	0.908386	-0.999181	0.016966	0.036730
320	950029													9.745554	0.591397	-0.087633	0.006141	-0.909257	0.416189	0.040321	0.416083	0.908432	-0.999168	0.011202	0.039217
321	950196													9.824851	0.601035	0.003064	0.012361	-0.909220	0.416133	0.040065	0.416281	0.908353	-0.999121	0.005444	0.041574
322	950363													9.846478	0.615903	0.082748	0.018631	-0.908982	0.416420	0.039670	0.416836	0.908116	-0.999039	-0.000399	0.043825
323	950529													9.891434	0.603003	0.171269	0.025031	-0.908592	0.416934	0.039165	0.417635	0.907770	-0.998919	-0.006394	0.046039
324	950696													9.923902	0.573344	0.217152	0.031682	-0.908042	0.417680	0.038524	0.418689	0.907312	-0.998755	-0.012655	0.048246
325	950863													9.876408	0.528450	0.300741	0.038606	-0.907347	0.418606	0.037786	0.419944	0.906763	-0.998540	-0.019189	0.050497
326	951029													9.823919	0.541061	0.377834	0.045714	-0.906543	0.419630	0.036960	0.421316	0.906160	-0.998271	-0.025915	0.052766
327	951196													9.871061	0.468575	0.432005	0.052942	-0.905625	0.420761	0.036140	0.422814	0.905496	-0.997943	-0.032732	0.055114
328	951363													9.928922	0.435239	0.472679	0.060482	-0.904652	0.421838	0.035430	0.424291	0.904833	-0.997540	-0.039781	0.057713
329	951530													9.855952	0.364354	0.510170	0.068422	-0.903635	0.422803	0.034803	0.425700	0.904195	-0.997049	-0.047152	0.060577
330	951696													9.781940	0.354643	0.593659	0.076581	-0.902620	0.423571	0.034250	0.426949	0.903627	-0.996475	-0.054694	0.063611
331	951863													9.849474	0.361921	0.652560	0.084971	-0.901598	0.424147	0.033789	0.428049	0.903124	-0.995810	-0.062408	0.066836
332	952030													9.897016	0.340202	0.659363	0.093809	-0.900575	0.424458	0.033450	0.428949	0.902709	-0.995028	-0.070484	0.070363
333	952196													9.844110	0.300444	0.743873	0.103166	-0.899557	0.424445	0.033188	0.429597	0.902410	-0.994110	-0.079011	0.074175
334	952363													9.781012	0.334574	0.814639	0.112862	-0.898544	0.424123	0.032970	0.430002	0.902226	-0.993064	-0.087843	0.078156
335	952530													9.810730	0.329885	0.895196	0.122931	-0.897501	0.423533	0.032737	0.430205	0.902137	-0.991875	-0.097036	0.082267
336	952696													9.813503	0.362614	0.985281	0.133416	-0.896429	0.422630	0.032505	0.430170	0.902162	-0.990527	-0.106625	0.086530
337	952863													9.825709	0.396160	1.066513	0.144313	-0.895231	0.421587	0.032242	0.430075	0.902217	-0.989007	-0.116609	0.090929
338	953030													9.875144	0.359182	1.133233	0.155771	-0.893909	0.420312	0.031984	0.429848	0.902335	-0.987275	-0.127115	0.095548
339	953196													9.733397	0.367608	1.224150	0.167765	-0.892438	0.418819	0.031777	0.429515	0.902501	-0.985315	-0.138099	0.100417
340	953363													9.696293	0.378427	1.367285	0.179908	-0.890849	0.417159	0.031532	0.429083	0.902714	-0.983178	-0.149252	0.105285
341	953530													9.800428	0.409638	1.511747	0.192426	-0.889101	0.415296	0.031280	0.428548	0.902978	-0.980813	-0.160766	0.110275
342	953696													9.768429	0.395276	1.610137	0.205376	-0.887120	0.413326	0.031000	0.428014	0.903240	-0.978192	-0.172691	0.115404
343	953863													9.663389	0.411836	1.716861	0.218634	-0.884939	0.411197	0.030717	0.427424	0.903529	-0.975323	-0.184911	0.120632
344	954030													9.463187	0.434522	1.843480	0.231876	-0.882571	0.409026	0.030396	0.426855	0.903809	-0.972270	-0.197138	0.125804
345	954196													9.579601	0.440915	1.983830	0.245013	-0.880000	0.406902	0.030047	0.426385	0.904042	-0.969054	-0.209276	0.130912
346	954363													9.696021	0.421767	2.100884	0.258452	-0.877119	0.404802	0.029622	0.426038	0.904220	-0.965570	-0.221706	0.136093
347	954530													9.731292	0.413095	2.222525	0.272557	-0.873856	0.402601	0.029179	0.425759	0.904366	-0.961697	-0.234744	0.141541
348	954696													9.513754	0.420692	2.324982	0.287259	-0.870177	0.400341	0.028686	0.425585	0.904464	-0.957423	-0.248332	0.147215
349	954863													9.412212	0.423335	2.454283	0.302146	-0.866157	0.398095	0.028057	0.425513	0.904517	-0.952849	-0.262127	0.152869
350	955030													9.420681	0.421201	2.576200	0.317268	-0.861763	0.395861	0.027309	0.425556	0.904520	-0.947943	-0.276165	0.158549
351	955196													9.392834	0.397052	2.776054	0.332719	-0.856945	0.393628	0.026513	0.425746	0.904454	-0.942653	-0.290492	0.164374
352	955363													9.502384	0.373483	3.065555	0.348506	-0.851722	0.391296	0.025798	0.426027	0.904343	-0.936951	-0.305074	0.170446
353	955530													9.307898	0.360772	3.290102	0.364852	-0.845990	0.388824	0.025226	0.426440	0.904164	-0.930724	-0.320077	0.176928
354	955696													8.952271	0.291719	3.437031	0.381092	-0.839963	0.386304	0.024870	0.426997	0.903911	-0.924203	-0.334866	0.183615
355	955863													8.762152	0.285824	3.617843	0.396773	-0.833864	0.383721	0.024761	0.427606	0.903626	-0.917583	-0.349033	0.190310
356	956030													8.818435	0.265625	3.836900	0.411871	-0.827707	0.381134	0.024681	0.428237	0.903329	-0.910908	-0.362649	0.196807
357	956196													8.935230	0.263370	4.020421	0.426732	-0.821412	0.378395	0.024530	0.428762	0.903084	-0.904046	-0.376093	0.203115
358	956363													8.890951	0.260230	4.229959	0.441555	-0.814868	0.375527	0.024345	0.429265	0.902850	-0.896904	-0.389515	0.209382
359	956530													8.703756	0.274272	4.441890	0.456320	-0.808108	0.372470	0.024275	0.429742	0.902625	-0.889485	-0.402844	0.215716
360	956696													8.394194	0.280013	4.657220	0.470448	-0.801392	0.369390	0.024392	0.430257	0.902377	-0.882090	-0.415511	0.221962
361	956863													8.462274	0.281882	4.816230	0.483749	-0.794844	0.366347	0.024593	0.430763	0.902130	-0.874861	-0.427395	0.227929
362	957030													8.703700	0.249541	5.003474	0.496707	-0.788274	0.363190	0.024747	0.431154	0.901939	-0.867566	-0.439011	0.233665
363	957196													8.585695	0.223756	5.065435	0.509789	-0.781464	0.359764	0.024863	0.431393	0.901822	-0.859940	-0.450794	0.239349
364	957363													8.191690	0.239106	5.132473	0.522534	-0.774649	0.356198	0.025045	0.431535	0.901749	-0.852250	-0.462274	0.244892
365	957530													8.221457	0.215088	5.247786	0.534578	-0.768045	0.352609	0.025299	0.431586	0.901717	-0.844740	-0.473117	0.250147
366	957696													8.348233	0.233624	5.374431	0.546431	-0.761401	0.348830	0.025666	0.431540	0.901729	-0.837111	-0.483780	0.255349
367	957863													8.286617	0.254888	5.424002	0.558417	-0.754493	0.344835	0.026065	0.431437	0.901767	-0.829151	-0.494573	0.260587
368	958030													8.311446	0.243131	5.537622	0.570692	-0.747219	0.340550	0.026406	0.431200	0.901870	-0.820740	-0.505697	0.265813
369	958196													8.101858	0.234705	5.696608	0.583373	-0.739488	0.335906	0.026864	0.430915	0.901993	-0.811760	-0.517174	0.271250
370	958363													7.890499	0.244001	5.896135	0.595808	-0.731696	0.331111	0.027568	0.430667	0.902090	-0.802654	-0.528344	0.276766
371	958530													7.812658	0.263807	6.069603	0.607838	-0.723943	0.326251	0.028511	0.430496	0.902142	-0.793549	-0.539054	0.282312
372	958696													7.754617	0.279686	6.229932	0.619452	-0.716236	0.321380	0.029627	0.430421	0.902142	-0.784475	-0.549312	0.287845
373	958863													7.625117	0.312939	6.304990	0.630719	-0.708527	0.316516	0.030888	0.430475	0.902074	-0.775396	-0.559179	0.293394
374	959030													7.292536	0.344194	6.430393	0.641225	-0.701131	0.311843	0.032279	0.430674	0.901930	-0.766674	-0.568274	0.298791
375	959196													7.393147	0.415284	6.573296	0.650728	-0.694219	0.307592	0.033603	0.431026	0.901714	-0.758567	-0.576434	0.303808
376	959363													7.507899	0.477195	6.645585	0.659773	-0.687380	0.303659	0.034790	0.431596	0.901396	-0.750660	-0.584152	0.308669
377	959530													7.283533	0.491450	6.690175	0.668508	-0.680522	0.299978	0.035867	0.432388	0.900974	-0.742840	-0.591549	0.313463
378	959696													7.161246	0.468522	6.803559	0.676450	-0.674051	0.296766	0.036884	0.433447	0.900424	-0.735564	-0.598146	0.318067
379	959863													7.365466	0.433986	6.859372	0.683874	-0.667783	0.293908	0.037791	0.434714	0.899775	-0.728621	-0.604226	0.322526
380	960030													7.376145	0.396669	6.887270	0.691241	-0.661398	0.291101	0.038621	0.436076	0.899081	-0.721592	-0.610238	0.326978
381	960196													7.224300	0.375322	6.880405	0.698511	-0.654940	0.288332	0.039401	0.437513	0.898348	-0.714514	-0.616146	0.331413
382	960363													7.084479	0.352057	6.874215	0.705596	-0.648532	0.285554	0.040246	0.439002	0.897584	-0.707471	-0.621839	0.335859
383	960530													7.126887	0.338651	6.920836	0.712387	-0.642293	0.282780	0.041206	0.440530	0.896792	-0.700576	-0.627211	0.340295
384	960696													7.157291	0.363216	6.983607	0.719222	-0.635930	0.279844	0.042313	0.442124	0.895955	-0.693491	-0.632549	0.344893
385	960863													7.151872	0.374896	7.085544	0.726296	-0.629245	0.276666	0.043566	0.443823	0.895055	-0.686000	-0.638022	0.349760
386	961030													7.049473	0.405557	7.153607	0.733769	-0.622063	0.273166	0.045014	0.445700	0.894050	-0.677906	-0.643730	0.355042
387	961196													6.882151	0.375138	7.282999	0.741502	-0.614534	0.269302	0.046718	0.447689	0.892968	-0.669323	-0.649556	0.360672
388	961363													6.805957	0.459501	7.444723	0.749374	-0.606737	0.265158	0.048619	0.449791	0.891810	-0.660359	-0.655407	0.366561
389	961530													6.776906	0.519970	7.573437	0.757455	-0.598537	0.260799	0.050574	0.452045	0.890561	-0.650926	-0.661370	0.372674
390	961696													6.591120	0.591207	7.673378	0.765700	-0.589940	0.256270	0.052576	0.454506	0.889191	-0.641046	-0.667380	0.379032
391	961863													6.344957	0.608797	7.748036	0.773840	-0.581212	0.251722	0.054561	0.457118	0.887731	-0.631027	-0.673228	0.385448
392	962030													6.037262	0.619300	7.817899	0.781611	-0.572649	0.247300	0.056526	0.459856	0.886192	-0.621200	-0.678679	0.391798
393	962196													5.937809	0.669637	7.907624	0.788710	-0.564602	0.243231	0.058406	0.462676	0.884601	-0.611985	-0.683487	0.397894
394	962363													5.962682	0.663550	7.981168	0.795280	-0.556964	0.239417	0.060241	0.465567	0.882960	-0.603241	-0.687778	0.403808
395	962530													5.951059	0.638226	8.058474	0.801421	-0.549670	0.235769	0.062052	0.468482	0.881291	-0.594872	-0.691656	0.409559
396	962696													5.889050	0.623498	8.050354	0.807268	-0.542656	0.232039	0.063909	0.471227	0.879694	-0.586714	-0.695320	0.415087
397	962863													5.703988	0.707744	8.142825	0.812768	-0.536016	0.228242	0.065883	0.473826	0.878151	-0.578850	-0.698696	0.420425
398	963030													5.779377	0.750132	8.240066	0.817855	-0.529778	0.224608	0.067854	0.476402	0.876605	-0.571410	-0.701695	0.425575
399	963196													5.792755	0.821593	8.288592	0.822809	-0.523630	0.220901	0.069735	0.478779	0.875161	-0.564023	-0.704686	0.430459
400	963363													5.632926	0.920153	8.324898	0.827546	-0.517629	0.217320	0.071413	0.481023	0.873795	-0.556837	-0.707586	0.435034
401	963530													5.485588	0.915357	8.410563	0.831971	-0.511900	0.213969	0.072909	0.483183	0.872478	-0.550008	-0.710276	0.439317
402	963696													5.519266	0.863134	8.523946	0.836064	-0.506503	0.210835	0.074254	0.485223	0.871232	-0.543583	-0.712750	0.443288
403	963863													5.658975	0.823291	8.558173	0.840070	-0.501212	0.207529	0.075485	0.486839	0.870224	-0.537200	-0.715384	0.446813
404	964030													5.561117	0.878987	8.620631	0.844104	-0.495885	0.203927	0.076633	0.488005	0.869470	-0.530675	-0.718296	0.449929
405	964196													5.437779	0.947630	8.642704	0.848106	-0.490550	0.200191	0.077692	0.488903	0.868872	-0.524099	-0.721342	0.452753
406	964363													5.337247	0.988863	8.656845	0.852058	-0.485190	0.196436	0.078695	0.489745	0.868307	-0.517498	-0.724390	0.455473
407	964530													5.309917	1.036489	8.679704	0.855890	-0.479873	0.192808	0.079541	0.490534	0.867784	-0.511005	-0.727392	0.458012
408	964696													5.308990	1.031147	8.671041	0.859689	-0.474457	0.189276	0.080193	0.491296	0.867293	-0.504483	-0.730424	0.460410
409	964863													5.140067	1.036005	8.678295	0.863443	-0.468969	0.185832	0.080662	0.492006	0.866847	-0.497955	-0.733484	0.462647
410	965030													5.025143	1.065615	8.632506	0.867028	-0.463566	0.182669	0.080925	0.492761	0.866394	-0.491643	-0.736406	0.464752
411	965196													4.918903	1.059383	8.615803	0.870407	-0.458293	0.179886	0.080978	0.493664	0.865874	-0.485627	-0.739096	0.466801
412	965363													4.877541	0.990618	8.620600	0.873540	-0.453274	0.177400	0.080893	0.494577	0.865361	-0.479984	-0.741577	0.468699
413	965530													4.953230	0.954025	8.672626	0.876480	-0.448464	0.175105	0.080674	0.495382	0.864921	-0.474630	-0.743960	0.470372
414	965696													4.982088	0.921652	8.708111	0.879413	-0.443637	0.172683	0.080499	0.496086	0.864534	-0.469205	-0.746381	0.471977
415	965863													4.903224	0.960047	8.687249	0.882386	-0.438723	0.170049	0.080437	0.496730	0.864170	-0.463600	-0.748853	0.473597
416	966030													4.813953	0.954386	8.678250	0.885386	-0.433726	0.167253	0.080450	0.497333	0.863822	-0.457842	-0.751360	0.475225
417	966196													4.703221	0.937025	8.697640	0.888328	-0.428759	0.164436	0.080487	0.497917	0.863482	-0.452101	-0.753820	0.476823
418	966363													4.659749	0.926216	8.730914	0.891142	-0.423972	0.161595	0.080620	0.498446	0.863164	-0.446504	-0.756174	0.478367
419	966530													4.671264	0.929510	8.766418	0.893877	-0.419286	0.158693	0.080820	0.498890	0.862889	-0.440968	-0.758490	0.479833
420	966696													4.669677	0.960950	8.831446	0.896622	-0.414526	0.155680	0.081058	0.499300	0.862629	-0.435314	-0.760833	0.481285
421	966863													4.587325	1.011569	8.872963	0.899421	-0.409587	0.152583	0.081305	0.499781	0.862327	-0.429456	-0.763189	0.482815
422	967030													4.442268	1.017964	8.946385	0.902218	-0.404543	0.149491	0.081472	0.500250	0.862040	-0.423515	-0.765568	0.484293
423	967196													4.357673	0.995331	9.007066	0.904939	-0.399514	0.146538	0.081518	0.500729	0.861757	-0.417660	-0.767892	0.485697
424	967363													4.325962	1.014147	9.066628	0.907587	-0.394489	0.143749	0.081387	0.501174	0.861511	-0.411900	-0.770197	0.486965
425	967530													4.294901	1.020780	9.152133	0.910203	-0.389386	0.141101	0.081079	0.501624	0.861278	-0.406150	-0.772497	0.488150
426	967696													4.251031	0.994001	9.191234	0.912864	-0.384070	0.138455	0.080618	0.502029	0.861085	-0.400225	-0.774892	0.489248
427	967863													4.179556	0.985674	9.252191	0.915592	-0.378496	0.135764	0.080034	0.502409	0.860918	-0.394063	-0.777384	0.490294
428	968030													4.077009	0.974441	9.299819	0.918380	-0.372658	0.133053	0.079355	0.502869	0.860712	-0.387660	-0.779903	0.491397
429	968197													3.969604	0.955382	9.316728	0.921210	-0.366590	0.130324	0.078576	0.503364	0.860494	-0.381049	-0.782455	0.492509
430	968363													3.830289	0.913188	9.361071	0.924041	-0.360381	0.127569	0.077763	0.503906	0.860251	-0.374301	-0.784987	0.493654
431	968530													3.688966	0.870711	9.371637	0.926803	-0.354184	0.124856	0.076922	0.504452	0.860006	-0.367585	-0.787452	0.494773
432	968697													3.647505	0.843206	9.442315	0.929460	-0.348109	0.122167	0.076087	0.504904	0.859816	-0.360992	-0.789869	0.495774
433	968863													3.733576	0.919893	9.497895	0.932129	-0.341880	0.119389	0.075255	0.505369	0.859616	-0.354221	-0.792288	0.496797
434	969030													3.566271	0.933384	9.497290	0.934866	-0.335322	0.116552	0.074405	0.506101	0.859259	-0.347116	-0.794620	0.498087
435	969197													3.399531	0.887611	9.502996	0.937559	-0.328687	0.113790	0.073535	0.507056	0.858771	-0.339965	-0.796781	0.499565
436	969363													3.453124	0.865979	9.543983	0.940212	-0.321968	0.111077	0.072651	0.508216	0.858160	-0.332752	-0.798782	0.501222
437	969530													3.250567	0.818752	9.543211	0.942852	-0.315095	0.108379	0.071730	0.509557	0.857442	-0.325401	-0.800666	0.503038
438	969697													3.019498	0.764584	9.609444	0.945308	-0.308531	0.105838	0.070846	0.510942	0.856691	-0.318393	-0.802338	0.504856
439	969863													2.900261	0.782694	9.676131	0.947482	-0.302564	0.103601	0.069981	0.512244	0.855984	-0.312059	-0.803779	0.506516
440	970030													2.688138	0.782381	9.794766	0.949272	-0.297482	0.101914	0.069068	0.513430	0.855348	-0.306776	-0.804919	0.507931
441	970197													2.750480	0.807378	9.988371	0.950612	-0.293522	0.100908	0.068105	0.514440	0.854817	-0.302819	-0.805727	0.509023
442	970363													2.992128	0.820927	10.078358	0.951706	-0.290172	0.100275	0.067114	0.515356	0.854344	-0.299584	-0.806355	0.509942
443	970530													2.830553	0.771787	9.989764	0.952709	-0.287055	0.099724	0.066184	0.516290	0.853853	-0.296589	-0.806873	0.510873
444	970697													2.574036	0.719251	9.984612	0.953411	-0.284811	0.099448	0.065430	0.517034	0.853460	-0.294493	-0.807192	0.511581
445	970863													2.889147	0.709699	10.050382	0.953843	-0.283391	0.099357	0.064907	0.517587	0.853165	-0.293206	-0.807337	0.512092
446	971030													2.974251	0.676225	9.928189	0.954294	-0.282015	0.098946	0.064668	0.518067	0.852892	-0.291789	-0.807511	0.512625
447	971197													2.814680	0.589230	9.843309	0.954682	-0.280895	0.098386	0.064690	0.518502	0.852626	-0.290512	-0.807622	0.513176
448	971363													2.900953	0.556126	9.844441	0.954947	-0.280276	0.097576	0.065128	0.518687	0.852480	-0.289541	-0.807719	0.513573
449	971530													3.019119	0.591638	9.847424	0.955231	-0.279733	0.096349	0.065921	0.518704	0.852409	-0.288423	-0.807896	0.513922
450	971697													2.778248	0.612170	9.785943	0.955495	-0.279364	0.094785	0.067108	0.518707	0.852314	-0.287271	-0.808022	0.514370
451	971863													2.834765	0.670230	9.743746	0.955623	-0.279452	0.093231	0.068556	0.518740	0.852179	-0.286506	-0.807970	0.514877
452	972030													2.965352	0.793056	9.708214	0.955747	-0.279530	0.091713	0.070028	0.518950	0.851931	-0.285735	-0.807808	0.515560
453	972197													2.881515	0.836147	9.615644	0.955882	-0.279504	0.090375	0.071287	0.519181	0.851686	-0.284971	-0.807669	0.516200
454	972363													2.736569	0.870805	9.563245	0.955915	-0.279667	0.089516	0.072201	0.519340	0.851512	-0.284629	-0.807510	0.516637
455	972530													2.975579	0.899259	9.570648	0.955833	-0.280078	0.089107	0.072805	0.519354	0.851452	-0.284751	-0.807359	0.516806
456	972697													3.114301	0.925787	9.499046	0.955809	-0.280218	0.088925	0.073105	0.519517	0.851327	-0.284756	-0.807205	0.517044
457	972863													2.986696	0.811197	9.449739	0.955769	-0.280315	0.089040	0.073176	0.519851	0.851117	-0.284868	-0.806956	0.517370
458	973030													3.016221	0.738122	9.433357	0.955643	-0.280669	0.089279	0.073249	0.520090	0.850965	-0.285273	-0.806679	0.517579
459	973197													3.226323	0.832272	9.457531	0.955463	-0.281175	0.089621	0.073303	0.520286	0.850840	-0.285863	-0.806377	0.517725
460	973363													3.069890	0.781436	9.417546	0.955310	-0.281537	0.090105	0.073215	0.520669	0.850613	-0.286394	-0.806003	0.518013
461	973530													3.111219	0.716875	9.518918	0.954960	-0.282473	0.090881	0.073133	0.520876	0.850494	-0.287580	-0.805542	0.518074
462	973697													3.392130	0.705905	9.666549	0.954550	-0.283651	0.091526	0.073193	0.520761	0.850559	-0.288925	-0.805202	0.517853
463	973863													3.593760	0.877712	9.691645	0.954288	-0.284508	0.091590	0.073545	0.520533	0.850668	-0.289698	-0.805047	0.517663
464	974030													3.108415	0.843042	9.595185	0.954219	-0.284798	0.091408	0.073939	0.520713	0.850524	-0.289825	-0.804828	0.517932
465	974197													2.866931	0.756134	9.636804	0.953882	-0.285889	0.091526	0.074488	0.520790	0.850429	-0.290794	-0.804391	0.518067
466	974363													3.224557	0.896947	9.831772	0.953300	-0.287693	0.091931	0.075100	0.520619	0.850480	-0.292538	-0.803859	0.517912
467	974530													3.314820	0.980836	9.892801	0.952849	-0.289056	0.092329	0.075537	0.520641	0.850428	-0.293891	-0.803355	0.517927
468	974697													2.759585	0.909917	9.998153	0.952237	-0.290791	0.093200	0.075774	0.520685	0.850380	-0.295811	-0.802700	0.517850
469	974863													2.635962	0.903325	10.175387	0.951191	-0.293661	0.094860	0.075844	0.520413	0.850540	-0.299137	-0.801832	0.517284
470	975030													2.565394	0.848304	10.312378	0.949648	-0.297808	0.097366	0.075830	0.519973	0.850810	-0.304005	-0.800587	0.516374
471	975197													2.842424	0.778380	10.414164	0.947610	-0.303230	0.100429	0.075978	0.519345	0.851180	-0.310261	-0.798957	0.515176
472	975363													2.555853	0.764016	10.530208	0.945128	-0.309772	0.103805	0.076431	0.518571	0.851612	-0.317635	-0.796948	0.513792
473	975530													2.115915	0.850541	10.659562	0.941632	-0.318753	0.108283	0.077229	0.517616	0.852121	-0.327665	-0.794022	0.512021
474	975697													2.351755	0.882257	10.634342	0.936896	-0.330406	0.114269	0.078206	0.516636	0.852626	-0.340749	-0.789885	0.509874
475	975863													2.891269	0.907458	10.423312	0.931291	-0.343525	0.121194	0.079301	0.515907	0.852966	-0.355540	-0.784749	0.507702
476	976030													3.134197	0.781306	10.085840	0.925139	-0.357245	0.128425	0.080547	0.515307	0.853212	-0.370984	-0.778996	0.505506
477	976197													2.918870	0.850928	9.916656	0.918377	-0.371649	0.135874	0.081927	0.514508	0.853563	-0.387134	-0.772760	0.502960
478	976363													2.662250	0.858908	9.944698	0.910297	-0.387955	0.144399	0.083300	0.513362	0.854120	-0.405489	-0.765474	0.499628
479	976530													3.176453	1.020808	9.843182	0.900579	-0.406453	0.154120	0.084660	0.511762	0.854946	-0.426368	-0.756899	0.495292
480	976697													3.817786	1.063615	9.549338	0.889818	-0.425649	0.164459	0.085910	0.510229	0.855737	-0.448155	-0.747322	0.490579
481	976863													4.219451	0.935409	9.189843	0.878448	-0.444718	0.174801	0.087102	0.508714	0.856518	-0.469833	-0.737181	0.485614
482	977030													4.301787	0.861814	8.886998	0.866654	-0.463430	0.184779	0.088252	0.506926	0.857460	-0.491042	-0.726814	0.480229
483	977197													4.056704	0.866741	8.768312	0.853804	-0.482719	0.194940	0.089322	0.504737	0.858640	-0.512875	-0.715697	0.474063
484	977363													4.508468	1.004110	8.618198	0.839517	-0.502936	0.205587	0.090285	0.502249	0.859997	-0.535779	-0.703421	0.467054
485	977530													5.153644	1.048971	8.398798	0.824372	-0.523064	0.216369	0.091051	0.499801	0.861341	-0.558677	-0.690365	0.459647
486	977697													5.193100	1.028691	8.154831	0.808723	-0.542685	0.226849	0.091741	0.497331	0.862697	-0.580992	-0.676871	0.451989
487	977863													5.028283	1.006533	8.049324	0.791641	-0.562815	0.237791	0.092222	0.494801	0.864099	-0.603987	-0.662126	0.443609
488	978030													5.632663	1.020867	8.006696	0.772830	-0.583618	0.249246	0.092508	0.492161	0.865575	-0.627834	-0.645885	0.434346
489	978197													6.341841	1.037097	7.752789	0.753104	-0.604104	0.260563	0.092647	0.489487	0.867075	-0.651346	-0.628857	0.424603
490	978363													6.700392	1.023926	7.434367	0.733177	-0.623597	0.271252	0.092868	0.486956	0.868476	-0.673667	-0.611556	0.414937
491	978530													6.828617	0.978029	7.118131	0.713178	-0.642075	0.281276	0.093260	0.484602	0.869749	-0.694751	-0.594054	0.405488
492	978697													6.862356	0.895387	6.801857	0.692832	-0.659848	0.290833	0.093667	0.482254	0.871010	-0.714990	-0.576222	0.395927
493	978863													6.984662	0.914195	6.405712	0.672064	-0.677047	0.299895	0.094178	0.479856	0.872278	-0.734480	-0.557983	0.386257
494	979030													7.295093	0.918702	6.123288	0.651064	-0.693469	0.308571	0.094795	0.477643	0.873425	-0.753080	-0.539404	0.376714
495	979197													7.552916	0.906980	5.897874	0.630077	-0.709005	0.316725	0.095570	0.475572	0.874470	-0.770629	-0.520714	0.367407
496	979363													7.619030	0.958669	5.633389	0.609034	-0.723765	0.324410	0.096230	0.473425	0.875562	-0.787285	-0.502029	0.357980
497	979530													7.618474	1.003541	5.433052	0.587727	-0.737868	0.331854	0.096623	0.471252	0.876690	-0.803269	-0.483190	0.348263
498	979697													7.914987	1.024559	5.230883	0.566118	-0.751296	0.339212	0.096832	0.469264	0.877733	-0.818617	-0.464054	0.338408
499	979863													8.044656	1.048528	5.030714	0.544454	-0.763945	0.346351	0.096960	0.467468	0.878676	-0.833168	-0.444817	0.328587
500	980030													7.843508	1.015230	4.845085	0.522097	-0.776175	0.353507	0.096816	0.465740	0.879609	-0.847373	-0.425016	0.318308
501	980197													8.328773	1.100993	4.654963	0.498969	-0.787989	0.360698	0.096358	0.464077	0.880538	-0.861246	-0.404605	0.307490
502	980363													8.671432	1.050473	4.440616	0.475974	-0.798898	0.367710	0.095636	0.462648	0.881369	-0.874244	-0.384342	0.296612
503	980530													8.742238	1.046514	4.211926	0.453227	-0.808982	0.374343	0.094663	0.461258	0.882202	-0.886355	-0.364401	0.285635
504	980697													8.688095	1.013434	3.922538	0.430526	-0.818385	0.380649	0.093693	0.459979	0.882973	-0.897702	-0.344479	0.274710
505	980863													8.799249	0.973573	3.669636	0.407783	-0.827138	0.386725	0.092697	0.458853	0.883663	-0.908361	-0.324495	0.263785
506	981030													9.135377	0.966154	3.481647	0.385203	-0.835246	0.392406	0.091564	0.457713	0.884372	-0.918278	-0.304733	0.252791
507	981197													9.221878	0.905978	3.266274	0.363402	-0.842579	0.397491	0.090349	0.456523	0.885112	-0.927241	-0.285739	0.242027
508	981363													8.934378	0.898569	3.114679	0.341737	-0.849420	0.402121	0.089167	0.455257	0.885884	-0.935556	-0.266883	0.231319
509	981530													8.979805	0.895142	2.906870	0.319658	-0.855865	0.406588	0.088169	0.454106	0.886574	-0.943422	-0.247552	0.220620
510	981697													9.218095	0.875460	2.751223	0.297245	-0.861925	0.410769	0.087269	0.452939	0.887260	-0.950805	-0.227886	0.209854
511	981863													9.587742	0.830669	2.481790	0.275434	-0.867379	0.414475	0.086348	0.451732	0.887965	-0.957434	-0.208786	0.199318
512	982030													9.440115	0.819865	2.243493	0.254413	-0.872298	0.417577	0.085331	0.450348	0.888766	-0.963324	-0.190481	0.189009
513	982197													9.323720	0.819269	2.051591	0.233526	-0.876808	0.420326	0.084256	0.448899	0.889601	-0.968693	-0.172330	0.178706
514	982363													9.454779	0.792453	1.835809	0.212713	-0.880904	0.422802	0.083149	0.447453	0.890433	-0.973570	-0.154252	0.168425
515	982530													9.725784	0.831189	1.627088	0.192470	-0.884562	0.424860	0.082060	0.445947	0.891290	-0.977866	-0.136682	0.158419
516	982697													9.723979	0.840308	1.474241	0.173157	-0.887731	0.426557	0.081007	0.444469	0.892124	-0.981557	-0.119923	0.148875
517	982863													9.615317	0.811786	1.300737	0.154238	-0.890541	0.427957	0.079806	0.442954	0.892985	-0.984805	-0.103579	0.139390
518	983030													9.673955	0.821822	1.094919	0.135549	-0.893031	0.429094	0.078405	0.441401	0.893878	-0.987663	-0.087522	0.129849
519	983197													9.841601	0.804143	0.934540	0.117262	-0.895210	0.429940	0.077050	0.439823	0.894773	-0.990108	-0.071795	0.120551
520	983363													9.924750	0.791617	0.798553	0.099829	-0.897043	0.430521	0.075818	0.438282	0.895634	-0.992112	-0.056769	0.111765
521	983530													9.618269	0.739028	0.671413	0.082946	-0.898661	0.430729	0.074410	0.436597	0.896575	-0.993772	-0.042316	0.103084
522	983697													9.561448	0.795764	0.562794	0.065831	-0.900085	0.430713	0.072799	0.434831	0.897564	-0.995172	-0.027732	0.094151
523	983863													9.750605	0.755638	0.372540	0.048905	-0.901231	0.430570	0.071191	0.433135	0.898513	-0.996263	-0.013289	0.085342
524	984030													9.911414	0.697133	0.208998	0.032718	-0.902157	0.430166	0.069666	0.431408	0.899463	-0.997034	0.000540	0.076965
525	984197													9.948817	0.659674	0.075296	0.017525	-0.902887	0.429520	0.068308	0.429664	0.900402	-0.997510	0.013560	0.069204
526	984363													9.776963	0.653649	-0.081744	0.003042	-0.903459	0.428663	0.067041	0.427885	0.901343	-0.997746	0.025996	0.061870
527	984530													9.510765	0.630587	-0.202172	-0.011291	-0.903875	0.427648	0.065835	0.426075	0.902289	-0.997767	0.038342	0.054695
528	984697													9.708987	0.645900	-0.327400	-0.025771	-0.904076	0.426594	0.064731	0.424331	0.903191	-0.997570	0.050890	0.047586
529	984864													9.977800	0.625341	-0.495835	-0.039627	-0.904096	0.425489	0.063883	0.422660	0.904034	-0.997170	0.063006	0.041008
530	985030													10.011903	0.625726	-0.617186	-0.052544	-0.903985	0.424324	0.063361	0.421036	0.904828	-0.996606	0.074429	0.035155
531	985197													9.857905	0.590328	-0.718445	-0.064715	-0.903813	0.423005	0.063072	0.419342	0.905635	-0.995909	0.085288	0.029867
532	985364													9.702480	0.643233	-0.811847	-0.076509	-0.903568	0.421557	0.062898	0.417581	0.906460	-0.995083	0.095867	0.024884
533	985530													9.597613	0.662281	-0.940541	-0.088268	-0.903172	0.420106	0.062810	0.415866	0.907254	-0.994115	0.106468	0.020021
534	985697													9.619401	0.653876	-1.054957	-0.100064	-0.902563	0.418769	0.062854	0.414306	0.907965	-0.992994	0.117176	0.015273
535	985864													9.704000	0.650485	-1.150669	-0.111711	-0.901810	0.417444	0.062959	0.412807	0.908640	-0.991744	0.127787	0.010662
536	986030													9.849612	0.648149	-1.250621	-0.122888	-0.900935	0.416191	0.063023	0.411438	0.909256	-0.990417	0.137966	0.006219
537	986197													9.720069	0.666116	-1.346416	-0.133401	-0.899993	0.414990	0.062953	0.410191	0.909824	-0.989061	0.147496	0.001938
538	986364													9.523394	0.688534	-1.460220	-0.143725	-0.898915	0.413878	0.062761	0.409099	0.910329	-0.987626	0.156812	-0.002381
539	986530													9.497752	0.690738	-1.524600	-0.154151	-0.897641	0.412890	0.062454	0.408197	0.910755	-0.986072	0.166180	-0.006863
540	986697													9.479128	0.724528	-1.566790	-0.164599	-0.896143	0.412110	0.062030	0.407577	0.911062	-0.984408	0.175523	-0.011499
541	986864													9.403850	0.688043	-1.726279	-0.175224	-0.894380	0.411559	0.061554	0.407256	0.911237	-0.982602	0.185004	-0.016308
542	987030													9.391333	0.631557	-1.856059	-0.186162	-0.892343	0.411178	0.061081	0.407173	0.911306	-0.980619	0.194766	-0.021295
543	987197													9.463872	0.611520	-1.964154	-0.197176	-0.890069	0.410974	0.060678	0.407320	0.911268	-0.978488	0.204617	-0.026306
544	987364													9.511208	0.604517	-2.095781	-0.208083	-0.887680	0.410763	0.060338	0.407506	0.911207	-0.976248	0.214391	-0.031234
545	987530													9.471385	0.574049	-2.205081	-0.218827	-0.885174	0.410587	0.060256	0.407724	0.911115	-0.973901	0.224117	-0.035884
546	987697													9.453103	0.544896	-2.298309	-0.229372	-0.882613	0.410345	0.060344	0.407879	0.911040	-0.971466	0.233729	-0.040296
547	987864													9.484578	0.544227	-2.514071	-0.239670	-0.880009	0.410052	0.060624	0.407972	0.910979	-0.968960	0.243193	-0.044429
548	988030													9.607362	0.516058	-2.623403	-0.249603	-0.877437	0.409637	0.060809	0.407988	0.910960	-0.966437	0.252288	-0.048478
549	988197													9.560346	0.581393	-2.739828	-0.258782	-0.875016	0.409120	0.060783	0.407957	0.910975	-0.964021	0.260612	-0.052386
550	988364													9.435708	0.613316	-2.806687	-0.267381	-0.872643	0.408658	0.060628	0.408024	0.910956	-0.961682	0.268349	-0.056192
551	988530													9.403775	0.585840	-2.860238	-0.275500	-0.870300	0.408263	0.060273	0.408224	0.910890	-0.959410	0.275558	-0.060010
552	988697													9.496566	0.602720	-2.953789	-0.283101	-0.868023	0.407910	0.059650	0.408550	0.910785	-0.957233	0.282175	-0.063883
553	989030													9.461054	0.579256	-2.977976	-0.289967	-0.865882	0.407637	0.058830	0.409004	0.910634	-0.955227	0.288035	-0.067658
554	989197													9.416229	0.585395	-3.035293	-0.296288	-0.863857	0.407388	0.057806	0.409539	0.910459	-0.953348	0.293307	-0.071406
555	989364													9.391736	0.595827	-3.107525	-0.302088	-0.861947	0.407173	0.056647	0.410142	0.910261	-0.951595	0.298044	-0.075072
556	989530													9.402736	0.581300	-3.099478	-0.307483	-0.860077	0.407089	0.055518	0.410871	0.910002	-0.949933	0.302411	-0.078586
557	989697													9.359399	0.548428	-3.131690	-0.312345	-0.858316	0.407105	0.054462	0.411661	0.909708	-0.948406	0.306315	-0.081835
558	989864													9.293070	0.496396	-3.137487	-0.316872	-0.856633	0.407151	0.053452	0.412461	0.909406	-0.946961	0.309928	-0.084909
559	990030													9.224940	0.411515	-3.187307	-0.321165	-0.855024	0.407170	0.052516	0.413206	0.909122	-0.945566	0.313361	-0.087805
560	990197													9.141772	0.403402	-3.220193	-0.325322	-0.853529	0.407007	0.051575	0.413764	0.908922	-0.944196	0.316683	-0.090585
561	990364													9.099294	0.395407	-3.285314	-0.329469	-0.852063	0.406741	0.050724	0.414198	0.908772	-0.942803	0.320044	-0.093246
562	990530													9.177809	0.417153	-3.328793	-0.333584	-0.850628	0.406392	0.050008	0.414511	0.908669	-0.941393	0.323440	-0.095736
563	990697													9.057282	0.473101	-3.322923	-0.337579	-0.849217	0.406044	0.049519	0.414747	0.908588	-0.939994	0.326828	-0.097957
564	990864													9.062138	0.510751	-3.333253	-0.341711	-0.847685	0.405789	0.049405	0.414980	0.908488	-0.938506	0.330489	-0.099923
565	991030													9.120625	0.475309	-3.322513	-0.345786	-0.846115	0.405613	0.049482	0.415234	0.908368	-0.937008	0.334171	-0.101714
566	991197													9.141090	0.463693	-3.352473	-0.349700	-0.844593	0.405429	0.049524	0.415482	0.908252	-0.935552	0.337694	-0.103466
567	991364													9.112432	0.479049	-3.368557	-0.353363	-0.843156	0.405244	0.049510	0.415728	0.908140	-0.934175	0.340967	-0.105158
568	991530													9.061761	0.493104	-3.413577	-0.356850	-0.841786	0.405036	0.049407	0.415968	0.908036	-0.932854	0.344044	-0.106848
569	991697													9.045258	0.461492	-3.449520	-0.360152	-0.840480	0.404826	0.049199	0.416230	0.907927	-0.931595	0.346909	-0.108555
570	991864													9.051634	0.469642	-3.478806	-0.363257	-0.839267	0.404568	0.048828	0.416484	0.907831	-0.930409	0.349530	-0.110311
571	992030													9.057626	0.441964	-3.572892	-0.366253	-0.838130	0.404225	0.048295	0.416702	0.907759	-0.929261	0.351991	-0.112141
572	992197													9.107183	0.440715	-3.630393	-0.369123	-0.837066	0.403818	0.047714	0.416861	0.907717	-0.928155	0.354327	-0.113933
573	992364													9.082726	0.413982	-3.658437	-0.371757	-0.836144	0.403311	0.047117	0.416893	0.907734	-0.927134	0.356459	-0.115586
574	992530													9.117733	0.394248	-3.676997	-0.374117	-0.835366	0.402742	0.046519	0.416828	0.907794	-0.926214	0.358356	-0.117082
575	992697													9.125368	0.388126	-3.667272	-0.376057	-0.834808	0.402091	0.046007	0.416586	0.907931	-0.925454	0.359932	-0.118253
576	992864													9.129443	0.411975	-3.693022	-0.377610	-0.834438	0.401403	0.045590	0.416217	0.908122	-0.924842	0.361216	-0.119126
577	993030													9.117919	0.465077	-3.745374	-0.378873	-0.834168	0.400773	0.045347	0.415805	0.908323	-0.924337	0.362313	-0.119710
578	993197													9.089100	0.487353	-3.704202	-0.379882	-0.833928	0.400318	0.045331	0.415457	0.908483	-0.923924	0.363263	-0.120022
579	993364													9.085444	0.491056	-3.721306	-0.380613	-0.833723	0.400049	0.045536	0.415187	0.908596	-0.923613	0.364040	-0.120061
580	993530													9.047421	0.470831	-3.736347	-0.381088	-0.833527	0.400005	0.045905	0.415061	0.908635	-0.923399	0.364631	-0.119912
581	993697													9.013972	0.444095	-3.722226	-0.381362	-0.833369	0.400074	0.046243	0.415041	0.908627	-0.923268	0.365016	-0.119743
582	993864													9.030195	0.479637	-3.735517	-0.381455	-0.833256	0.400220	0.046553	0.415091	0.908588	-0.923214	0.365217	-0.119548
583	994030													9.063451	0.515280	-3.739812	-0.381309	-0.833195	0.400488	0.046902	0.415224	0.908509	-0.923257	0.365206	-0.119250
584	994197													9.053957	0.510714	-3.770069	-0.380855	-0.833204	0.400899	0.047394	0.415415	0.908396	-0.923419	0.364968	-0.118724
585	994364													8.996936	0.487800	-3.739913	-0.380237	-0.833238	0.401415	0.047931	0.415678	0.908248	-0.923646	0.364590	-0.118118
586	994530													9.003723	0.468663	-3.725116	-0.379476	-0.833346	0.401911	0.048479	0.415897	0.908118	-0.923931	0.364093	-0.117424
587	994697													9.003574	0.472954	-3.753018	-0.378489	-0.833586	0.402343	0.048920	0.416058	0.908021	-0.924312	0.363359	-0.116694
588	994864													9.009003	0.497617	-3.732958	-0.377386	-0.833913	0.402702	0.049242	0.416171	0.907952	-0.924746	0.362478	-0.115993
589	995030													9.027007	0.513241	-3.702144	-0.376097	-0.834333	0.403038	0.049477	0.416270	0.907894	-0.925259	0.361397	-0.115278
590	995197													8.983988	0.534743	-3.686361	-0.374713	-0.834795	0.403370	0.049612	0.416391	0.907831	-0.925812	0.360188	-0.114611
591	995364													8.943113	0.503784	-3.650086	-0.373327	-0.835278	0.403655	0.049627	0.416509	0.907776	-0.926372	0.358929	-0.114042
592	995530													8.904092	0.514345	-3.599478	-0.372007	-0.835767	0.403862	0.049504	0.416605	0.907739	-0.926909	0.357678	-0.113606
593	995697													8.926125	0.514805	-3.608316	-0.370806	-0.836225	0.404018	0.049313	0.416689	0.907710	-0.927400	0.356508	-0.113275
594	995864													8.982212	0.548853	-3.604043	-0.369660	-0.836640	0.404210	0.049146	0.416809	0.907664	-0.927866	0.355392	-0.112960
595	996030													9.031147	0.506237	-3.599592	-0.368384	-0.837069	0.404484	0.049082	0.416964	0.907597	-0.928377	0.354197	-0.112518
596	996197													9.073295	0.512069	-3.597936	-0.366952	-0.837542	0.404808	0.049091	0.417124	0.907523	-0.928944	0.352890	-0.111948
597	996364													9.161329	0.490582	-3.607811	-0.365224	-0.838113	0.405190	0.049053	0.417327	0.907432	-0.929626	0.351292	-0.111306
598	996530													9.154989	0.490474	-3.601255	-0.363083	-0.838853	0.405582	0.049065	0.417471	0.907365	-0.930464	0.349349	-0.110419
599	996697													9.092377	0.479849	-3.607455	-0.360624	-0.839666	0.406093	0.049156	0.417675	0.907266	-0.931415	0.347143	-0.109349
600	996864													8.993512	0.449156	-3.618340	-0.358028	-0.840541	0.406579	0.049349	0.417801	0.907198	-0.932406	0.344867	-0.108104
601	997030													9.067604	0.398905	-3.570407	-0.355375	-0.841463	0.406999	0.049607	0.417829	0.907170	-0.933406	0.342576	-0.106744
602	997197													9.272261	0.388245	-3.518266	-0.352373	-0.842587	0.407283	0.049847	0.417681	0.907225	-0.934531	0.339984	-0.105179
603	997364													9.306149	0.431654	-3.542370	-0.348708	-0.844013	0.407485	0.050078	0.417375	0.907353	-0.935892	0.336808	-0.103276
604	997530													9.147154	0.442543	-3.542014	-0.344668	-0.845602	0.407628	0.050333	0.416964	0.907528	-0.937374	0.333314	-0.101152
605	997697													9.099298	0.462554	-3.485122	-0.340510	-0.847236	0.407731	0.050678	0.416477	0.907733	-0.938874	0.329755	-0.098878
606	997864													9.224264	0.496160	-3.420149	-0.336074	-0.848934	0.407880	0.051255	0.415942	0.907945	-0.940440	0.326043	-0.096276
607	998030													9.370365	0.515307	-3.396486	-0.331040	-0.850792	0.408125	0.052032	0.415395	0.908152	-0.942181	0.321870	-0.093245
608	998197													9.369798	0.547378	-3.390448	-0.325179	-0.852861	0.408517	0.052834	0.414935	0.908316	-0.944175	0.316949	-0.089868
609	998364													9.254066	0.549963	-3.366895	-0.318688	-0.855063	0.409030	0.053630	0.414573	0.908434	-0.946341	0.311444	-0.086263
610	998530													9.197929	0.528143	-3.320868	-0.311836	-0.857279	0.409672	0.054357	0.414369	0.908484	-0.948580	0.305567	-0.082616
611	998697													9.305478	0.539094	-3.225977	-0.304561	-0.859539	0.410408	0.055076	0.414265	0.908488	-0.950899	0.299294	-0.078829
612	998864													9.419356	0.568209	-3.149455	-0.296599	-0.861918	0.411250	0.055807	0.414248	0.908451	-0.953370	0.292397	-0.074765
613	999030													9.516673	0.556798	-3.074334	-0.287835	-0.864426	0.412212	0.056576	0.414328	0.908367	-0.956007	0.284781	-0.070353
614	999197													9.478449	0.574192	-3.022431	-0.278173	-0.867080	0.413270	0.057357	0.414489	0.908245	-0.958817	0.276353	-0.065567
615	999364													9.386235	0.579594	-2.941045	-0.267913	-0.869785	0.414363	0.058187	0.414693	0.908099	-0.961684	0.267402	-0.060491
616	999530													9.333233	0.581725	-2.835226	-0.257283	-0.872449	0.415498	0.059073	0.414968	0.907916	-0.964529	0.258136	-0.055226
617	999697													9.439921	0.547001	-2.694354	-0.246239	-0.875106	0.416600	0.059876	0.415279	0.907722	-0.967358	0.248461	-0.049860
618	999864													9.672087	0.553709	-2.598125	-0.234576	-0.877815	0.417630	0.060594	0.415578	0.907537	-0.970208	0.238192	-0.044294
619	1000030													9.814840	0.577208	-2.466599	-0.221859	-0.880689	0.418528	0.061232	0.415795	0.907395	-0.973154	0.226941	-0.038322
620	1000197													9.902755	0.592039	-2.316776	-0.208069	-0.883686	0.419292	0.061845	0.415930	0.907291	-0.976157	0.214710	-0.031891
621	1000364													9.862244	0.614436	-2.173852	-0.193099	-0.886776	0.419929	0.062401	0.416019	0.907212	-0.979193	0.201386	-0.024997
622	1000530													9.643948	0.633136	-1.993578	-0.177377	-0.889798	0.420472	0.062929	0.416118	0.907131	-0.982129	0.187364	-0.017816
623	1000697													9.692798	0.614046	-1.815646	-0.161196	-0.892674	0.420891	0.063421	0.416217	0.907051	-0.984883	0.172906	-0.010478
624	1000864													9.746849	0.565771	-1.606189	-0.144394	-0.895480	0.421030	0.063856	0.416170	0.907042	-0.987458	0.157856	-0.002911
625	1001030													9.694329	0.541749	-1.442483	-0.127003	-0.898165	0.420915	0.064074	0.416036	0.907088	-0.989831	0.142173	0.004711
626	1001197													9.527640	0.545538	-1.273283	-0.109484	-0.900640	0.420549	0.064074	0.415817	0.907188	-0.991921	0.126269	0.012182
627	1001364													9.589538	0.578943	-1.051870	-0.092201	-0.902840	0.419974	0.063889	0.415538	0.907329	-0.993689	0.110489	0.019369
628	1001531													9.785601	0.589419	-0.838773	-0.074833	-0.904785	0.419242	0.063503	0.415244	0.907491	-0.995172	0.094533	0.026382
629	1001697													9.843736	0.701315	-0.593461	-0.056858	-0.906490	0.418382	0.063164	0.414955	0.907647	-0.996382	0.078034	0.033664
630	1001864													9.637244	0.798850	-0.435001	-0.038391	-0.907868	0.417494	0.063062	0.414768	0.907739	-0.997271	0.061177	0.041329
631	1002031													9.539050	0.825926	-0.293525	-0.020022	-0.908833	0.416680	0.063237	0.414778	0.907723	-0.997798	0.044524	0.049167
632	1002197													9.462257	0.735198	-0.115417	-0.001940	-0.909399	0.415919	0.063506	0.414968	0.907617	-0.997980	0.028175	0.056948
633	1002364													9.371688	0.658476	0.055288	0.015524	-0.909673	0.415035	0.063667	0.415142	0.907526	-0.997850	0.012336	0.064360
634	1002531													9.388847	0.603151	0.299467	0.032248	-0.909726	0.413954	0.063697	0.415198	0.907498	-0.997448	-0.002897	0.071337
635	1002697													9.557981	0.575824	0.466409	0.048462	-0.909602	0.412644	0.063671	0.415102	0.907544	-0.996794	-0.017708	0.078032
636	1002864													9.765912	0.586019	0.637718	0.064667	-0.909367	0.410938	0.063575	0.414718	0.907726	-0.995880	-0.032575	0.084631
637	1003031													9.724732	0.600211	0.763010	0.081238	-0.908927	0.408965	0.063487	0.414207	0.907966	-0.994671	-0.047797	0.091354
638	1003197													9.499821	0.598019	0.927202	0.097677	-0.908335	0.406678	0.063317	0.413476	0.908311	-0.993202	-0.062972	0.097900
639	1003364													9.372565	0.663884	1.129506	0.113472	-0.907576	0.404265	0.063058	0.412651	0.908704	-0.991538	-0.077621	0.104055
640	1003531													9.462291	0.703770	1.306220	0.128593	-0.906610	0.401898	0.062664	0.411881	0.909080	-0.989716	-0.091717	0.109777
641	1003697													9.655990	0.721014	1.433383	0.143562	-0.905375	0.399608	0.062199	0.411247	0.909399	-0.987685	-0.105700	0.115353
642	1003864													9.797639	0.695134	1.594047	0.158824	-0.903835	0.397314	0.061715	0.410723	0.909669	-0.985376	-0.119957	0.121013
643	1004031													9.827765	0.713851	1.722682	0.174609	-0.901930	0.395012	0.061332	0.410358	0.909860	-0.982726	-0.134643	0.126970
644	1004197													9.630599	0.690985	1.845762	0.190846	-0.899643	0.392709	0.061173	0.410185	0.909949	-0.979712	-0.149637	0.133316
645	1004364													9.554334	0.673183	1.996437	0.207168	-0.897029	0.390411	0.061209	0.410171	0.909952	-0.976389	-0.164616	0.139881
646	1004531													9.450119	0.654015	2.154914	0.223484	-0.894097	0.388131	0.061252	0.410298	0.909892	-0.972781	-0.179573	0.146461
647	1004697													9.385031	0.701305	2.321608	0.239454	-0.890945	0.385849	0.061155	0.410462	0.909825	-0.968980	-0.194264	0.152772
648	1004864													9.440555	0.724923	2.466877	0.255162	-0.887493	0.383729	0.060879	0.410825	0.909679	-0.964980	-0.208755	0.158857
649	1005031													9.568007	0.732024	2.592917	0.270977	-0.883653	0.381744	0.060533	0.411440	0.909424	-0.960681	-0.223325	0.164981
650	1005197													9.432819	0.708802	2.787119	0.287143	-0.879393	0.379758	0.060224	0.412243	0.909081	-0.955993	-0.238166	0.171333
651	1005364													9.203828	0.694029	2.942876	0.302922	-0.874886	0.377906	0.059936	0.413242	0.908647	-0.951129	-0.252599	0.177617
652	1005531													9.111557	0.624342	3.073938	0.317959	-0.870287	0.376169	0.059778	0.414372	0.908142	-0.946218	-0.266266	0.183777
653	1005697													9.162492	0.572846	3.211441	0.332424	-0.865603	0.374468	0.059823	0.415601	0.907578	-0.941231	-0.279299	0.189938
654	1005864													9.224090	0.506419	3.311238	0.346740	-0.860757	0.372650	0.060096	0.416869	0.906978	-0.936034	-0.292091	0.196273
655	1006031													9.215506	0.485583	3.433035	0.361076	-0.855769	0.370518	0.060457	0.417969	0.906447	-0.930575	-0.304896	0.202655
656	1006197													9.315566	0.541774	3.549751	0.375618	-0.850541	0.368091	0.060828	0.418943	0.905973	-0.924776	-0.317909	0.209100
657	1006364													9.258016	0.581588	3.644186	0.390671	-0.844926	0.365343	0.061223	0.419853	0.905525	-0.918492	-0.331395	0.215754
658	1006531													9.085065	0.574073	3.701997	0.406298	-0.838838	0.362317	0.061626	0.420773	0.905070	-0.911660	-0.345400	0.222653
659	1006697													8.694847	0.572701	3.816645	0.421974	-0.832476	0.359057	0.062071	0.421643	0.904635	-0.904481	-0.359445	0.229595
660	1006864													8.562460	0.559829	3.942673	0.437053	-0.826094	0.355743	0.062477	0.422446	0.904232	-0.897263	-0.372972	0.236244
661	1007031													8.652192	0.530760	4.057575	0.451706	-0.819647	0.352335	0.062777	0.423143	0.903886	-0.889955	-0.386172	0.242592
662	1007197													8.716830	0.514202	4.193346	0.466330	-0.813004	0.348655	0.062984	0.423649	0.903634	-0.882366	-0.399432	0.248766
663	1007364													8.755282	0.568633	4.431202	0.481063	-0.806101	0.344644	0.063213	0.423992	0.903457	-0.874404	-0.412834	0.254923
664	1007531													8.736942	0.613871	4.590117	0.495963	-0.798853	0.340376	0.063564	0.424331	0.903273	-0.866014	-0.426354	0.261231
665	1007697													8.469763	0.605828	4.725526	0.510813	-0.791326	0.335966	0.063998	0.424716	0.903062	-0.857306	-0.439794	0.267594
666	1007864													8.405686	0.602530	4.849548	0.525430	-0.783623	0.331449	0.064540	0.425142	0.902823	-0.848386	-0.452978	0.273958
667	1008031													8.367957	0.593803	4.913455	0.540166	-0.775530	0.326763	0.065153	0.425656	0.902536	-0.839033	-0.466229	0.280453
668	1008197													8.154804	0.592868	5.020976	0.554914	-0.767091	0.321933	0.065834	0.426260	0.902202	-0.829298	-0.479451	0.287039
669	1008364													8.157774	0.623930	5.155576	0.569503	-0.758409	0.316989	0.066506	0.426886	0.901856	-0.819294	-0.492528	0.293552
670	1008531													8.283539	0.656968	5.414479	0.584366	-0.749177	0.311848	0.067124	0.427599	0.901473	-0.808709	-0.505858	0.300163
671	1008697													8.111225	0.670637	5.620312	0.599730	-0.739225	0.306382	0.067774	0.428429	0.901030	-0.797327	-0.519610	0.307042
672	1008864													7.833269	0.664755	5.803477	0.615117	-0.728823	0.300746	0.068542	0.429434	0.900493	-0.785451	-0.533295	0.314107
673	1009031													7.723130	0.670010	5.984065	0.630390	-0.718073	0.294923	0.069436	0.430555	0.899889	-0.773167	-0.546802	0.321278
674	1009197													7.640115	0.666427	6.106813	0.645692	-0.706833	0.288910	0.070386	0.431836	0.899202	-0.760347	-0.560272	0.328585
675	1009364													7.299263	0.660515	6.256248	0.660965	-0.695157	0.282634	0.071417	0.433199	0.898464	-0.747010	-0.573669	0.335976
676	1009531													7.032469	0.682641	6.491022	0.675653	-0.683470	0.276336	0.072522	0.434638	0.897681	-0.733644	-0.586480	0.343231
677	1009697													7.137403	0.757918	6.751001	0.689966	-0.671578	0.270055	0.073547	0.436198	0.896840	-0.720096	-0.598927	0.350354
678	1009864													6.996607	0.795868	6.954682	0.704202	-0.659207	0.263715	0.074429	0.437923	0.895926	-0.706088	-0.611285	0.357451
679	1010031													6.623014	0.796735	7.232358	0.717896	-0.646768	0.257519	0.075151	0.439758	0.894967	-0.692082	-0.623140	0.364306
680	1010197													6.444335	0.810906	7.556632	0.730514	-0.634800	0.251749	0.075708	0.441659	0.893983	-0.678688	-0.634008	0.370698
681	1010364													6.481292	0.866841	7.838324	0.742071	-0.623374	0.246445	0.076070	0.443592	0.892995	-0.665991	-0.643919	0.376597
682	1010531													6.384743	0.909688	8.033464	0.752808	-0.612327	0.241529	0.076280	0.445613	0.891970	-0.653806	-0.653058	0.382169
683	1010697													6.112983	0.883236	8.162283	0.762613	-0.601803	0.237178	0.076417	0.447914	0.890805	-0.642325	-0.661215	0.387574
684	1010864													5.927311	0.832646	8.301331	0.771250	-0.592168	0.233477	0.076500	0.450366	0.889561	-0.631919	-0.668213	0.392645
685	1011031													6.010067	0.733119	8.351925	0.778826	-0.583442	0.230274	0.076548	0.452789	0.888326	-0.622552	-0.674224	0.397305
686	1011197													6.002812	0.657531	8.361770	0.785714	-0.575367	0.227171	0.076684	0.455003	0.887182	-0.613818	-0.679651	0.401623
687	1011364													5.875691	0.644020	8.313811	0.792017	-0.567887	0.224082	0.076920	0.456948	0.886161	-0.605634	-0.684619	0.405593
688	1011531													5.785982	0.643880	8.293248	0.797798	-0.560974	0.220969	0.077298	0.458635	0.885257	-0.597949	-0.689175	0.409260
689	1011697													5.845995	0.669021	8.338083	0.803239	-0.554422	0.217768	0.077821	0.460137	0.884431	-0.590551	-0.693463	0.412745
690	1011864													5.953882	0.705031	8.345335	0.808684	-0.547795	0.214361	0.078475	0.461617	0.883601	-0.582985	-0.697732	0.416290
691	1012031													5.869295	0.727436	8.310468	0.814260	-0.540912	0.210701	0.079227	0.463119	0.882748	-0.575069	-0.702093	0.419953
692	1012197													5.789240	0.741812	8.284990	0.819943	-0.533772	0.206836	0.080054	0.464688	0.881848	-0.566821	-0.706507	0.423748
693	1012364													5.617453	0.777188	8.265618	0.825779	-0.526288	0.202756	0.080979	0.466415	0.880852	-0.558150	-0.710969	0.427774
694	1012531													5.115402	0.782349	8.267501	0.831440	-0.518853	0.198741	0.081996	0.468363	0.879723	-0.549530	-0.715141	0.431960
695	1012697													5.024682	0.773962	8.363933	0.836299	-0.512303	0.195317	0.083000	0.470432	0.878524	-0.541954	-0.718498	0.435943
696	1012864													5.364302	0.833554	8.472404	0.840734	-0.506193	0.192186	0.083889	0.472438	0.877363	-0.534910	-0.721506	0.439658
697	1013031													5.381528	0.889760	8.487441	0.845184	-0.499932	0.189029	0.084641	0.474405	0.876228	-0.527730	-0.724575	0.443275
698	1013197													5.177554	0.946745	8.502123	0.849591	-0.493594	0.185902	0.085313	0.476421	0.875069	-0.520497	-0.727591	0.446873
699	1013364													5.129200	0.993441	8.518109	0.853853	-0.487271	0.183035	0.085762	0.478536	0.873870	-0.513400	-0.730459	0.450389
700	1013531													5.146472	1.008925	8.538072	0.858167	-0.480705	0.180199	0.086067	0.480760	0.872618	-0.506105	-0.733343	0.453945
701	1013697													5.063408	0.982787	8.583547	0.862553	-0.473851	0.177391	0.086268	0.483196	0.871252	-0.498559	-0.736197	0.457660
702	1013864													5.118080	0.902007	8.690803	0.867085	-0.466638	0.174391	0.086470	0.485740	0.869816	-0.490598	-0.739125	0.461528
703	1014031													4.986833	0.859758	8.762338	0.871768	-0.459125	0.170955	0.086815	0.488192	0.868408	-0.482166	-0.742209	0.465448
704	1014197													4.723745	0.845413	8.848889	0.876401	-0.451635	0.167172	0.087298	0.490370	0.867131	-0.473603	-0.745361	0.469188
705	1014364													4.439135	0.924132	8.965762	0.880736	-0.444558	0.163317	0.087828	0.492165	0.866060	-0.465392	-0.748426	0.472512
706	1014531													4.480146	1.007083	9.088537	0.884606	-0.438133	0.159727	0.088282	0.493652	0.865167	-0.457907	-0.751230	0.475367
707	1014697													4.554934	1.088335	9.219419	0.888210	-0.432024	0.156325	0.088614	0.494956	0.864388	-0.450810	-0.753906	0.477908
708	1014864													4.556183	1.194352	9.284064	0.891645	-0.426030	0.153188	0.088766	0.496304	0.863599	-0.443947	-0.756426	0.480345
709	1015031													4.377518	1.162197	9.299273	0.894899	-0.420132	0.150483	0.088655	0.497848	0.862721	-0.437375	-0.758707	0.482770
710	1015197													4.219479	1.104181	9.281281	0.897861	-0.414586	0.148205	0.088343	0.499412	0.861849	-0.431326	-0.760727	0.485028
711	1015364													4.110681	1.052095	9.282279	0.900477	-0.409549	0.146322	0.087918	0.500924	0.861014	-0.425924	-0.762459	0.487078
712	1015531													4.170305	1.016374	9.285083	0.902803	-0.404971	0.144727	0.087474	0.502417	0.860189	-0.421065	-0.763921	0.489007
713	1015697													4.237362	1.006185	9.259195	0.905023	-0.400541	0.143183	0.087043	0.503880	0.859377	-0.416362	-0.765292	0.490887
714	1015864													4.315886	0.978265	9.224585	0.907298	-0.395959	0.141518	0.086629	0.505353	0.858553	-0.411468	-0.766704	0.492807
715	1016031													4.475759	0.989849	9.192531	0.909876	-0.390752	0.139422	0.086313	0.506986	0.857622	-0.405802	-0.768296	0.495021
716	1016197													4.506063	0.902091	9.107312	0.913011	-0.384373	0.136631	0.086023	0.508813	0.856568	-0.398761	-0.770303	0.497617
717	1016364													4.126328	0.848340	9.022593	0.916577	-0.377074	0.133048	0.085837	0.510530	0.855565	-0.390536	-0.772771	0.500307
718	1016531													3.821578	0.978794	9.096697	0.920171	-0.369580	0.129216	0.085574	0.511911	0.854766	-0.382052	-0.775473	0.502671
719	1016697													3.825775	1.042679	9.149789	0.923726	-0.361898	0.125536	0.085018	0.513249	0.854018	-0.373499	-0.778206	0.504870
720	1016864													3.564793	1.029216	9.198051	0.927137	-0.354249	0.122162	0.084162	0.514536	0.853328	-0.365148	-0.780871	0.506860
721	1017031													3.297799	1.010661	9.262635	0.930174	-0.347152	0.119426	0.082963	0.515661	0.852767	-0.357623	-0.783313	0.508455
722	1017197													3.169102	0.992223	9.365385	0.932649	-0.341114	0.117502	0.081608	0.516704	0.852266	-0.351434	-0.785276	0.509741
723	1017364													3.353004	0.957352	9.466898	0.934676	-0.335928	0.116332	0.080126	0.517883	0.851691	-0.346353	-0.786734	0.510969
724	1017531													3.383493	0.749078	9.534715	0.936417	-0.331357	0.115434	0.078771	0.519098	0.851077	-0.341932	-0.787871	0.512194
725	1017697													3.361654	0.696636	9.576540	0.937849	-0.327590	0.114562	0.077790	0.520142	0.850530	-0.338214	-0.788757	0.513297
726	1017864													3.472418	0.715112	9.607927	0.939104	-0.324345	0.113509	0.077254	0.521138	0.849969	-0.334838	-0.789440	0.514459
727	1018031													3.431312	0.771964	9.599227	0.940313	-0.321294	0.112172	0.077072	0.522105	0.849392	-0.331470	-0.790048	0.515705
728	1018198													3.410352	0.790783	9.617234	0.941494	-0.318351	0.110642	0.077116	0.523061	0.848799	-0.328089	-0.790607	0.517009
729	1018364													3.402402	0.856343	9.671640	0.942695	-0.315388	0.108887	0.077298	0.523904	0.848263	-0.324578	-0.791236	0.518261
730	1018531													3.404869	0.944721	9.717234	0.943925	-0.312322	0.107054	0.077430	0.524618	0.847810	-0.320952	-0.791979	0.519383
731	1018698													3.325325	1.020630	9.745753	0.945240	-0.308946	0.105228	0.077380	0.525362	0.847353	-0.317069	-0.792810	0.520499
732	1018864													3.135856	0.985980	9.731300	0.946562	-0.305435	0.103584	0.077114	0.526183	0.846868	-0.313168	-0.793625	0.521618
733	1019031													3.015707	0.885966	9.749115	0.947766	-0.302129	0.102263	0.076635	0.526906	0.846461	-0.309623	-0.794410	0.522538
734	1019198													3.064818	0.894660	9.768455	0.948834	-0.299115	0.101216	0.076053	0.527561	0.846106	-0.306481	-0.795117	0.523316
735	1019364													3.127799	0.879547	9.752128	0.949870	-0.296116	0.100310	0.075369	0.528260	0.845731	-0.303425	-0.795774	0.524097
736	1019531													3.090525	0.894602	9.665127	0.950905	-0.293026	0.099576	0.074584	0.529244	0.845185	-0.300362	-0.796264	0.525116
737	1019698													2.917264	0.807523	9.569645	0.951920	-0.289880	0.099091	0.073634	0.530479	0.844494	-0.297367	-0.796594	0.526319
738	1019864													2.833820	0.794566	9.552480	0.952806	-0.287014	0.098911	0.072579	0.531732	0.843797	-0.294776	-0.796796	0.527469
739	1020031													2.933071	0.761757	9.532036	0.953591	-0.284351	0.099034	0.071379	0.533007	0.843095	-0.292521	-0.796899	0.528567
740	1020198													3.073631	0.696932	9.533299	0.954375	-0.281643	0.099225	0.070106	0.534330	0.842364	-0.290265	-0.796974	0.529696
741	1020364													3.032060	0.675115	9.552794	0.955203	-0.278837	0.099181	0.068963	0.535614	0.841642	-0.287803	-0.797100	0.530850
742	1020531													2.943106	0.620285	9.573908	0.956036	-0.276017	0.099041	0.067907	0.536936	0.840886	-0.285278	-0.797192	0.532074
743	1020698													2.781135	0.547236	9.658302	0.956756	-0.273591	0.098823	0.067098	0.538126	0.840189	-0.283048	-0.797225	0.533213
744	1020864													2.920874	0.627356	9.781475	0.957312	-0.271765	0.098472	0.066639	0.538991	0.839671	-0.281269	-0.797266	0.534093
745	1021031													3.023408	0.731655	9.842700	0.957899	-0.269918	0.097841	0.066396	0.539811	0.839164	-0.279321	-0.797338	0.535006
746	1021198													2.787598	0.723202	9.808462	0.958501	-0.268048	0.097087	0.066251	0.540657	0.838631	-0.277283	-0.797396	0.535979
747	1021364													2.638344	0.717946	9.792712	0.958931	-0.266679	0.096608	0.066078	0.541272	0.838247	-0.275834	-0.797438	0.536665
748	1021531													2.734543	0.750743	9.820740	0.959163	-0.265910	0.096423	0.065912	0.541632	0.838028	-0.275066	-0.797450	0.537040
749	1021698													2.933407	0.835104	9.862786	0.959343	-0.265270	0.096394	0.065664	0.541931	0.837854	-0.274497	-0.797460	0.537317
750	1021864													2.869365	0.719757	9.768484	0.959574	-0.264419	0.096440	0.065290	0.542418	0.837568	-0.273780	-0.797412	0.537754
751	1022031													2.846232	0.607898	9.727513	0.959766	-0.263753	0.096348	0.065107	0.542793	0.837339	-0.273148	-0.797377	0.538127
752	1022198													2.930236	0.611161	9.712038	0.959941	-0.263224	0.096055	0.065118	0.542990	0.837210	-0.272531	-0.797418	0.538379
753	1022364													2.938941	0.612187	9.761887	0.960149	-0.262655	0.095528	0.065312	0.543192	0.837064	-0.271749	-0.797468	0.538700
754	1022531													2.887745	0.661951	9.724633	0.960386	-0.262033	0.094852	0.065632	0.543480	0.836852	-0.270833	-0.797476	0.539148
755	1022698													2.882681	0.718981	9.692737	0.960642	-0.261349	0.094147	0.065997	0.543935	0.836528	-0.269835	-0.797390	0.539775
756	1022864													2.916122	0.751901	9.710515	0.960925	-0.260518	0.093561	0.066199	0.544473	0.836162	-0.268777	-0.797295	0.540444
757	1023031													2.864471	0.740543	9.681165	0.961252	-0.259495	0.093042	0.066194	0.544907	0.835880	-0.267606	-0.797332	0.540970
758	1023198													2.761607	0.623750	9.661781	0.961552	-0.258536	0.092609	0.066141	0.545315	0.835617	-0.266538	-0.797365	0.541449
759	1023364													2.831496	0.610944	9.682048	0.961823	-0.257737	0.092027	0.066303	0.545699	0.835354	-0.265521	-0.797361	0.541954
760	1023531													2.770607	0.638507	9.695560	0.962103	-0.256970	0.091237	0.066686	0.546152	0.835027	-0.264406	-0.797298	0.542591
761	1023698													2.716806	0.670770	9.811997	0.962310	-0.256462	0.090478	0.067211	0.546654	0.834657	-0.263518	-0.797118	0.543287
762	1023864													2.855149	0.757946	9.886099	0.962515	-0.255969	0.089698	0.067791	0.547245	0.834223	-0.262622	-0.796871	0.544084
763	1024031													2.821356	0.747620	9.796418	0.962845	-0.255043	0.088787	0.068303	0.548069	0.833640	-0.261275	-0.796601	0.545126
764	1024198													2.541437	0.722108	9.709304	0.963209	-0.253972	0.087898	0.068727	0.548955	0.833022	-0.259816	-0.796333	0.546213
765	1024364													2.340084	0.676385	9.766374	0.963427	-0.253352	0.087302	0.069089	0.549616	0.832556	-0.258912	-0.796075	0.547019
766	1024531													2.524744	0.829240	9.952108	0.963412	-0.253471	0.087113	0.069492	0.550136	0.832179	-0.258858	-0.795678	0.547622
767	1024698													2.689635	0.849765	10.076854	0.963412	-0.253449	0.087183	0.069689	0.550966	0.831613	-0.258807	-0.795110	0.548470
768	1024864													2.576515	0.658372	10.097489	0.963432	-0.253337	0.087284	0.069875	0.552011	0.830904	-0.258681	-0.794421	0.549527
769	1025031													2.301133	0.603237	10.126888	0.963332	-0.253718	0.087279	0.070343	0.552734	0.830383	-0.258926	-0.793796	0.550314
770	1025198													2.234692	0.592421	10.260066	0.962975	-0.255038	0.087381	0.071194	0.553194	0.830005	-0.260022	-0.793052	0.550869
771	1025364													2.092168	0.562836	10.461012	0.962261	-0.257647	0.087585	0.072614	0.553287	0.829820	-0.262261	-0.792144	0.551115
772	1025531													1.964441	0.596525	10.761024	0.960972	-0.262236	0.088123	0.074744	0.552804	0.829952	-0.266358	-0.790974	0.550830
773	1025698													1.490531	0.821934	11.111781	0.958824	-0.269496	0.089601	0.077490	0.551778	0.830383	-0.273225	-0.789248	0.549941
774	1025864													1.806558	1.224298	11.239421	0.955607	-0.279608	0.092922	0.080406	0.550869	0.830709	-0.283461	-0.786360	0.548897
775	1026031													1.992130	1.094630	10.946010	0.951789	-0.290812	0.097605	0.082978	0.550404	0.830765	-0.295319	-0.782613	0.547999
776	1026198													1.779155	0.980387	10.786367	0.947094	-0.303785	0.103574	0.085385	0.549553	0.831084	-0.309390	-0.778271	0.546417
777	1026364													1.599362	0.900217	10.645535	0.941027	-0.319529	0.111218	0.087579	0.547573	0.832162	-0.326799	-0.773347	0.543265
778	1026531													2.027965	1.015686	10.487267	0.933248	-0.338400	0.120554	0.089690	0.544454	0.833982	-0.347856	-0.767500	0.538461
779	1026698													2.689085	1.162918	10.273264	0.924140	-0.358889	0.131014	0.091611	0.541072	0.835972	-0.370909	-0.760552	0.532904
780	1026864													2.982433	1.092616	10.152216	0.913896	-0.380247	0.142148	0.093356	0.537640	0.837990	-0.395068	-0.752566	0.526846
781	1027031													2.980430	0.945738	9.983787	0.902307	-0.402741	0.153760	0.094990	0.533652	0.840352	-0.420499	-0.743650	0.519774
782	1027198													3.037907	0.913140	9.748040	0.888798	-0.427134	0.166116	0.096681	0.529052	0.843064	-0.447985	-0.733253	0.511516
783	1027364													3.729568	0.906951	9.429047	0.873504	-0.452765	0.178869	0.098653	0.524435	0.845716	-0.476716	-0.721090	0.502763
784	1027531													4.269341	0.912553	9.122545	0.856892	-0.478612	0.191484	0.100970	0.520093	0.848121	-0.505510	-0.707414	0.493989
785	1027698													4.596516	0.937211	8.827352	0.839151	-0.504256	0.203842	0.103506	0.515985	0.850321	-0.533959	-0.692449	0.485183
786	1027864													4.744929	0.988649	8.454063	0.820324	-0.529559	0.215954	0.105992	0.511845	0.852514	-0.561992	-0.676448	0.476008
787	1028031													4.792399	1.111337	8.101880	0.800141	-0.554701	0.228211	0.108341	0.507869	0.854594	-0.589946	-0.659071	0.466464
788	1028198													5.187834	1.181141	7.702377	0.778556	-0.579468	0.240973	0.110441	0.504491	0.856325	-0.617781	-0.640083	0.456771
789	1028364													5.782157	1.188677	7.418091	0.756037	-0.603286	0.253878	0.112190	0.501582	0.857805	-0.644842	-0.620050	0.446897
790	1028531													6.106066	1.231356	7.233811	0.732908	-0.625885	0.266673	0.113389	0.498871	0.859227	-0.670813	-0.599496	0.436595
791	1028698													6.255841	1.200035	7.009550	0.709002	-0.647527	0.279329	0.114119	0.496224	0.860662	-0.695912	-0.578334	0.425719
792	1028864													6.506767	1.293762	6.678901	0.684229	-0.668314	0.291867	0.114731	0.493884	0.861925	-0.720186	-0.556268	0.414606
793	1029031													6.745966	1.329082	6.371956	0.659019	-0.687820	0.304299	0.115313	0.492201	0.862810	-0.743235	-0.533518	0.403684
794	1029198													6.554272	1.298269	6.140715	0.632649	-0.706625	0.316918	0.115611	0.490811	0.863561	-0.765760	-0.509692	0.392205
795	1029364													6.531175	1.208260	5.771395	0.604038	-0.725425	0.329996	0.115200	0.489199	0.864531	-0.788585	-0.484194	0.379064
796	1029531													7.105524	1.196535	5.378690	0.573413	-0.743950	0.343126	0.114290	0.487365	0.865686	-0.811255	-0.457180	0.364488
797	1029698													7.745043	1.153938	4.941088	0.542059	-0.761320	0.355758	0.113230	0.485661	0.866783	-0.832677	-0.429565	0.349461
798	1029864													7.716648	1.098086	4.650724	0.510150	-0.777504	0.367744	0.111951	0.483956	0.867902	-0.852768	-0.401591	0.333933
799	1030031													7.997329	1.028686	4.265501	0.476935	-0.792930	0.379203	0.110188	0.481969	0.869232	-0.872004	-0.372784	0.317239
800	1030198													8.451025	1.051183	3.768014	0.443577	-0.807092	0.389668	0.108272	0.479856	0.870641	-0.889672	-0.344006	0.300238
801	1030364													8.957777	1.009704	3.371401	0.411184	-0.819616	0.398944	0.106801	0.477956	0.871867	-0.905274	-0.315890	0.284064
802	1030531													9.046521	0.910339	3.079445	0.380219	-0.830578	0.406907	0.105715	0.476093	0.873018	-0.918835	-0.288922	0.268824
803	1030698													8.602343	0.879817	2.765378	0.349351	-0.840670	0.413796	0.104547	0.473837	0.874385	-0.931141	-0.262206	0.253425
804	1030864													8.747239	0.939104	2.448099	0.317627	-0.850085	0.420081	0.103242	0.471393	0.875859	-0.942578	-0.234827	0.237492
805	1031031													9.667175	0.933757	2.220998	0.286764	-0.858292	0.425559	0.102296	0.469110	0.877195	-0.952524	-0.208015	0.222324
806	1031198													10.144353	0.867618	1.961967	0.258499	-0.865142	0.429775	0.101790	0.466814	0.878478	-0.960634	-0.183339	0.208734
807	1031364													9.307211	0.865497	1.660096	0.232269	-0.870999	0.432911	0.101294	0.464324	0.879854	-0.967363	-0.160511	0.196075
808	1031531													8.806478	0.946229	1.432093	0.205148	-0.876372	0.435760	0.100518	0.461741	0.881301	-0.973556	-0.136995	0.182816
809	1031698													9.598556	1.017182	1.198691	0.177841	-0.881009	0.438402	0.099840	0.459358	0.882622	-0.978981	-0.113196	0.169652
810	1031864													10.225818	0.960169	0.963512	0.152580	-0.884709	0.440465	0.099566	0.457176	0.883785	-0.983263	-0.090992	0.157843
811	1032031													9.769463	0.858036	0.785385	0.129447	-0.887630	0.441992	0.099328	0.455108	0.884879	-0.986599	-0.070642	0.147079
812	1032198													9.277079	0.927032	0.564582	0.106405	-0.890149	0.443071	0.098695	0.452855	0.886105	-0.989413	-0.050558	0.136039
813	1032364													9.329160	0.982617	0.389569	0.082652	-0.892175	0.444063	0.097794	0.450698	0.887304	-0.991769	-0.029910	0.124500
814	1032531													9.907310	1.013290	0.241151	0.059209	-0.893624	0.444895	0.097091	0.448719	0.888383	-0.993513	-0.009405	0.113331
815	1032698													10.109402	0.908260	0.061472	0.037298	-0.894567	0.445375	0.096568	0.446826	0.889394	-0.994627	0.009836	0.103052
816	1032864													9.499749	0.910441	-0.214131	0.016083	-0.895225	0.445323	0.095717	0.444714	0.890544	-0.995279	0.028302	0.092841
817	1033031													9.135286	1.008718	-0.396828	-0.006060	-0.895436	0.445150	0.094414	0.442657	0.891707	-0.995515	0.047432	0.081859
818	1033198													9.679331	0.961241	-0.579093	-0.028793	-0.895067	0.445001	0.093082	0.440850	0.892741	-0.995242	0.067126	0.070621
819	1033364													10.017720	0.833115	-0.751924	-0.050434	-0.894333	0.444551	0.091974	0.439067	0.893734	-0.994483	0.085962	0.060112
820	1033531													9.647879	0.785345	-0.898008	-0.071277	-0.893396	0.443580	0.090687	0.437065	0.894847	-0.993326	0.104009	0.049866
821	1033698													9.465343	0.893994	-1.168899	-0.092304	-0.892065	0.442381	0.089158	0.435088	0.895963	-0.991731	0.122143	0.039374
822	1033864													9.421504	0.901611	-1.389383	-0.113503	-0.890217	0.441169	0.087588	0.433344	0.896962	-0.989669	0.140449	0.028786
823	1034031													9.689201	0.834647	-1.602947	-0.134246	-0.887951	0.439911	0.086317	0.431764	0.897847	-0.987182	0.158504	0.018683
824	1034198													10.059777	0.828031	-1.778244	-0.153753	-0.885488	0.438486	0.085258	0.430219	0.898689	-0.984424	0.175561	0.009348
825	1034364													9.993289	0.842166	-1.960671	-0.171512	-0.882898	0.437120	0.084308	0.428914	0.899403	-0.981568	0.191111	0.000871
826	1034531													9.477974	0.832940	-2.120291	-0.188069	-0.880226	0.435697	0.083323	0.427715	0.900065	-0.978615	0.205578	-0.007096
827	1034698													9.388095	0.785017	-2.250178	-0.204215	-0.877347	0.434233	0.082279	0.426629	0.900677	-0.975462	0.219660	-0.014937
828	1034865													9.604763	0.763603	-2.448522	-0.219772	-0.874348	0.432684	0.081281	0.425574	0.901266	-0.972159	0.233242	-0.022461
829	1035031													9.533456	0.692438	-2.663905	-0.234461	-0.871369	0.430981	0.080206	0.424488	0.901874	-0.968811	0.246022	-0.029637
830	1035198													9.486796	0.764226	-2.591090	-0.248620	-0.868377	0.429080	0.078687	0.423418	0.902511	-0.965400	0.258146	-0.036940
831	1035365													9.537960	0.835165	-2.652617	-0.261938	-0.865355	0.427258	0.076964	0.422575	0.903054	-0.962011	0.269428	-0.044087
832	1035531													9.480730	0.822821	-2.817763	-0.274457	-0.862271	0.425631	0.075237	0.422015	0.903461	-0.958651	0.279985	-0.050951
833	1035698													9.429616	0.794392	-2.896444	-0.286357	-0.859080	0.424243	0.073561	0.421766	0.903716	-0.955295	0.289993	-0.057581
834	1035865													9.432057	0.780794	-3.030568	-0.297609	-0.855855	0.423014	0.072059	0.421690	0.903872	-0.951965	0.299482	-0.063827
835	1036031													9.380261	0.772111	-3.075068	-0.308246	-0.852568	0.422034	0.070818	0.421840	0.903900	-0.948667	0.308511	-0.069653
836	1036198													9.345686	0.708185	-3.102339	-0.318328	-0.849242	0.421254	0.069707	0.422197	0.903820	-0.945414	0.317076	-0.075199
837	1036365													9.322207	0.627522	-3.145497	-0.327873	-0.845967	0.420523	0.068489	0.422673	0.903691	-0.942236	0.325097	-0.080644
838	1036531													9.303508	0.618244	-3.205141	-0.336990	-0.842786	0.419701	0.067072	0.423153	0.903572	-0.939116	0.332645	-0.086071
839	1036698													9.308756	0.595609	-3.300400	-0.345656	-0.839712	0.418815	0.065515	0.423641	0.903458	-0.936072	0.339724	-0.091420
840	1036865													9.217743	0.582914	-3.394085	-0.353859	-0.836733	0.417926	0.064043	0.424112	0.903342	-0.933104	0.346421	-0.096489
841	1037031													9.186397	0.554903	-3.485955	-0.361740	-0.833836	0.416968	0.062760	0.424461	0.903268	-0.930164	0.352918	-0.101213
842	1037198													9.183899	0.478391	-3.516955	-0.369289	-0.831093	0.415824	0.061605	0.424575	0.903294	-0.927270	0.359194	-0.105592
843	1037365													9.163558	0.399723	-3.591888	-0.376328	-0.828614	0.414457	0.060462	0.424425	0.903442	-0.924511	0.365050	-0.109624
844	1037531													9.141479	0.404890	-3.711289	-0.382842	-0.826467	0.412777	0.059214	0.423946	0.903750	-0.921914	0.370435	-0.113366
845	1037698													9.155925	0.425619	-3.817570	-0.388848	-0.824604	0.410884	0.057901	0.423227	0.904172	-0.919481	0.375376	-0.116826
846	1037865													9.091844	0.527900	-3.858701	-0.394226	-0.823003	0.408963	0.056698	0.422374	0.904647	-0.917263	0.379823	-0.119849
847	1038031													8.995147	0.573328	-3.947164	-0.399114	-0.821519	0.407204	0.055817	0.421516	0.905101	-0.915201	0.383967	-0.122379
848	1038198													8.994288	0.593543	-3.946802	-0.403715	-0.820027	0.405671	0.055253	0.420750	0.905493	-0.913215	0.387975	-0.124554
849	1038365													9.126056	0.556852	-3.942745	-0.407854	-0.818654	0.404303	0.054890	0.420021	0.905853	-0.911396	0.391647	-0.126371
850	1038531													9.150724	0.529612	-3.959910	-0.411260	-0.817536	0.403112	0.054598	0.419355	0.906179	-0.909881	0.394685	-0.127828
851	1038698													9.033072	0.557744	-4.029350	-0.414007	-0.816642	0.402113	0.054292	0.418810	0.906449	-0.908653	0.397108	-0.129053
852	1038865													8.897690	0.586316	-4.031055	-0.416246	-0.815857	0.401395	0.054029	0.418482	0.906616	-0.907645	0.399062	-0.130112
853	1039031													8.823463	0.579599	-4.013706	-0.418134	-0.815100	0.400969	0.053852	0.418389	0.906670	-0.906788	0.400703	-0.131048
854	1039198													8.770769	0.576589	-4.019038	-0.419720	-0.814355	0.400826	0.053769	0.418523	0.906613	-0.906060	0.402075	-0.131876
855	1039365													8.813417	0.519900	-4.093550	-0.421234	-0.813552	0.400869	0.053767	0.418818	0.906477	-0.905357	0.403392	-0.132678
856	1039531													8.826648	0.467918	-4.096026	-0.422602	-0.812842	0.400869	0.053771	0.419041	0.906374	-0.904719	0.404590	-0.133380
857	1039698													8.916006	0.441832	-4.081462	-0.423751	-0.812290	0.400775	0.053766	0.419128	0.906334	-0.904182	0.405608	-0.133932
858	1039865													8.966698	0.459737	-4.052125	-0.424482	-0.812015	0.400557	0.053907	0.418942	0.906411	-0.903830	0.406348	-0.134060
859	1040031													8.879359	0.412740	-4.040977	-0.424797	-0.811991	0.400272	0.054250	0.418521	0.906586	-0.903662	0.406830	-0.133736
860	1040198													8.714540	0.487677	-4.134912	-0.425059	-0.812104	0.399764	0.054590	0.417844	0.906877	-0.903518	0.407300	-0.133275
861	1040365													8.600554	0.512347	-4.113416	-0.425683	-0.812044	0.399222	0.054935	0.417185	0.907160	-0.903203	0.408094	-0.132979
862	1040531													8.669966	0.525402	-4.095201	-0.426635	-0.811842	0.398617	0.055138	0.416574	0.907428	-0.902742	0.409119	-0.132962
863	1040698													8.761604	0.517842	-4.094705	-0.427597	-0.811653	0.397970	0.055165	0.415998	0.907691	-0.902285	0.410080	-0.133105
864	1040865													8.781347	0.547801	-4.097218	-0.428369	-0.811540	0.397370	0.055073	0.415495	0.907927	-0.901924	0.410812	-0.133291
865	1041031													8.681416	0.602081	-4.111263	-0.429159	-0.811368	0.396867	0.055017	0.415089	0.908116	-0.901552	0.411561	-0.133500
866	1041198													8.702233	0.575098	-4.110888	-0.430057	-0.811067	0.396511	0.055079	0.414811	0.908239	-0.901120	0.412434	-0.133720
867	1041365													8.718452	0.514931	-4.109824	-0.430891	-0.810760	0.396233	0.055261	0.414555	0.908345	-0.900710	0.413294	-0.133825
868	1041531													8.739331	0.474647	-4.098115	-0.431629	-0.810531	0.395898	0.055418	0.414231	0.908483	-0.900347	0.414068	-0.133876
869	1041698													8.780596	0.465662	-4.145949	-0.432277	-0.810374	0.395513	0.055555	0.413844	0.908651	-0.900028	0.414761	-0.133875
870	1041865													8.774405	0.493339	-4.164396	-0.432745	-0.810331	0.395089	0.055705	0.413377	0.908854	-0.899794	0.415310	-0.133747
871	1042031													8.752733	0.529172	-4.187812	-0.433146	-0.810319	0.394675	0.055993	0.412846	0.909078	-0.899583	0.415863	-0.133451
872	1042198													8.707800	0.545603	-4.193423	-0.433516	-0.810307	0.394292	0.056370	0.412303	0.909301	-0.899381	0.416423	-0.133063
873	1042365													8.743683	0.591029	-4.198719	-0.433868	-0.810262	0.393998	0.056757	0.411853	0.909481	-0.899187	0.416957	-0.132702
874	1042531													8.804967	0.607185	-4.165666	-0.434029	-0.810239	0.393867	0.057109	0.411569	0.909588	-0.899087	0.417281	-0.132361
875	1042698													8.842677	0.622607	-4.209897	-0.433912	-0.810285	0.393901	0.057455	0.411428	0.909630	-0.899121	0.417331	-0.131969
876	1042865													8.793570	0.632231	-4.256954	-0.433640	-0.810330	0.394109	0.057799	0.411457	0.909595	-0.899231	0.417216	-0.131587
877	1043031													8.733110	0.589610	-4.170376	-0.433297	-0.810356	0.394432	0.058089	0.411628	0.909499	-0.899377	0.416996	-0.131284
878	1043198													8.769004	0.562227	-4.160399	-0.432865	-0.810407	0.394802	0.058291	0.411880	0.909372	-0.899572	0.416649	-0.131049
879	1043365													8.821893	0.541121	-4.163724	-0.432207	-0.810561	0.395207	0.058392	0.412179	0.909230	-0.899882	0.416052	-0.130816
880	1043531													8.856061	0.533813	-4.198365	-0.431266	-0.810878	0.395583	0.058370	0.412458	0.909105	-0.900335	0.415156	-0.130548
881	1043698													8.830044	0.557505	-4.197527	-0.430085	-0.811331	0.395939	0.058324	0.412687	0.909004	-0.900902	0.414042	-0.130170
882	1043865													8.800109	0.548043	-4.154221	-0.428766	-0.811854	0.396300	0.058319	0.412880	0.908916	-0.901531	0.412824	-0.129682
883	1044031													8.784618	0.544894	-4.071858	-0.427324	-0.812449	0.396637	0.058311	0.413030	0.908849	-0.902216	0.411501	-0.129123
884	1044198													8.837796	0.552874	-4.070279	-0.425690	-0.813122	0.397014	0.058365	0.413166	0.908784	-0.902985	0.410032	-0.128422
885	1044365													8.892042	0.521436	-4.071895	-0.423857	-0.813865	0.397453	0.058438	0.413333	0.908703	-0.903842	0.408387	-0.127634
