// Start Time: Unknown
// Update Rate: 60.0Hz
//Filter Profile: human (46.1)
// Option Flags: AHS Disabled ICC Disabled
// Firmware Version: 4.0.2
0	sampleTimeFine	Year	Month	Day	Second	UTC_Nano	UTC_Year	UTC_Month	UTC_Day	UTC_Hour	UTC_Minute	UTC_Second	UTC_Valid	Acc_X	Acc_Y	Acc_Z	Mat[1][1]	Mat[2][1]	Mat[3][1]	Mat[1][2]	Mat[2][2]	Mat[3][2]	Mat[1][3]	Mat[2][3]	Mat[3][3]
0	896528													0.000000	0.000000	0.000000	0.348997	-0.867110	-0.355418	0.037353	-0.366092	0.929829	-0.936379	-0.337783	-0.095376
1	896695													9.235026	0.336664	3.353356	0.349192	-0.867361	-0.354613	0.036924	-0.365404	0.930116	-0.936324	-0.337883	-0.095569
2	896862													9.195347	0.396977	3.473786	0.347989	-0.867630	-0.355136	0.036337	-0.366045	0.929888	-0.936794	-0.336496	-0.095852
3	897028													9.194933	0.436762	3.461146	0.347966	-0.867621	-0.355180	0.036732	-0.365947	0.929910	-0.936787	-0.336624	-0.095467
4	897195													9.256007	0.388491	3.424747	0.348491	-0.867500	-0.354962	0.037739	-0.365409	0.930082	-0.936552	-0.337521	-0.094603
5	897362													9.182824	0.352017	3.471152	0.348685	-0.867200	-0.355504	0.038313	-0.365804	0.929903	-0.936457	-0.337863	-0.094325
6	897528													9.187106	0.377528	3.451350	0.348914	-0.866797	-0.356261	0.038385	-0.366614	0.929581	-0.936368	-0.338019	-0.094645
7	897695													9.171530	0.370591	3.452346	0.349078	-0.866543	-0.356718	0.038388	-0.367121	0.929381	-0.936307	-0.338120	-0.094889
8	897862													9.158366	0.374046	3.444828	0.349206	-0.866358	-0.357041	0.038334	-0.367501	0.929233	-0.936261	-0.338181	-0.095123
9	898028													9.182019	0.360034	3.464004	0.349322	-0.866499	-0.356585	0.038287	-0.367042	0.929416	-0.936220	-0.338318	-0.095040
10	898195													9.175322	0.341309	3.458890	0.349411	-0.866498	-0.356500	0.038180	-0.366999	0.929437	-0.936191	-0.338367	-0.095151
11	898362													9.186368	0.333045	3.427914	0.349515	-0.866363	-0.356726	0.038011	-0.367314	0.929320	-0.936159	-0.338371	-0.095450
12	898528													9.207776	0.371251	3.439231	0.349646	-0.866137	-0.357148	0.037760	-0.367872	0.929110	-0.936120	-0.338346	-0.095920
13	898695													9.190951	0.380383	3.453920	0.349770	-0.866046	-0.357247	0.037518	-0.368079	0.929037	-0.936084	-0.338352	-0.096250
14	898862													9.150239	0.360455	3.448919	0.349729	-0.865993	-0.357414	0.037301	-0.368332	0.928946	-0.936108	-0.338212	-0.096514
15	899028													9.266363	0.341040	3.337428	0.349617	-0.865906	-0.357734	0.037081	-0.368743	0.928792	-0.936159	-0.337987	-0.096810
16	899195													9.157440	0.423531	3.488326	0.349663	-0.865931	-0.357630	0.036877	-0.368709	0.928813	-0.936149	-0.337960	-0.096991
17	899362													9.244767	0.406213	3.392089	0.349481	-0.866002	-0.357635	0.036794	-0.368725	0.928810	-0.936221	-0.337761	-0.096998
18	899528													9.193847	0.392174	3.444378	0.349523	-0.865937	-0.357753	0.036708	-0.368886	0.928749	-0.936208	-0.337751	-0.097148
19	899695													9.222949	0.358975	3.424573	0.349444	-0.865823	-0.358105	0.036539	-0.369316	0.928585	-0.936244	-0.337574	-0.097419
20	899862													9.204516	0.365766	3.442584	0.349396	-0.865838	-0.358115	0.036318	-0.369402	0.928560	-0.936271	-0.337442	-0.097622
21	900028													9.183899	0.354990	3.451024	0.349344	-0.865838	-0.358166	0.036106	-0.369527	0.928518	-0.936299	-0.337304	-0.097830
22	900195													9.187838	0.386803	3.422423	0.349252	-0.865811	-0.358322	0.035917	-0.369752	0.928436	-0.936340	-0.337128	-0.098039
23	900362													9.185420	0.356262	3.447163	0.349164	-0.865818	-0.358390	0.035760	-0.369872	0.928394	-0.936379	-0.336978	-0.098185
24	900528													9.185899	0.315532	3.414250	0.348996	-0.865830	-0.358526	0.035614	-0.370050	0.928329	-0.936447	-0.336752	-0.098310
25	900695													9.218065	0.356578	3.411455	0.348828	-0.865912	-0.358490	0.035515	-0.370029	0.928341	-0.936513	-0.336563	-0.098323
26	900862													9.205406	0.362411	3.427572	0.348726	-0.865961	-0.358470	0.035383	-0.370044	0.928340	-0.936557	-0.336420	-0.098404
27	901028													9.207711	0.359699	3.454452	0.348616	-0.865921	-0.358676	0.035268	-0.370293	0.928245	-0.936602	-0.336251	-0.098551
28	901195													9.199092	0.368650	3.462058	0.348551	-0.866113	-0.358273	0.035159	-0.369893	0.928409	-0.936630	-0.336195	-0.098475
29	901362													9.192238	0.371417	3.444403	0.348468	-0.866084	-0.358425	0.035064	-0.370081	0.928338	-0.936665	-0.336064	-0.098592
30	901529													9.192466	0.365587	3.451686	0.348396	-0.866161	-0.358310	0.034976	-0.369981	0.928381	-0.936695	-0.335976	-0.098605
31	901695													9.181995	0.347389	3.445286	0.348325	-0.866000	-0.358766	0.034897	-0.370490	0.928181	-0.936724	-0.335828	-0.098830
32	901862													9.188438	0.354999	3.442650	0.348269	-0.866015	-0.358785	0.034811	-0.370534	0.928166	-0.936748	-0.335741	-0.098899
33	902029													9.188071	0.348549	3.450235	0.348218	-0.865971	-0.358940	0.034707	-0.370733	0.928091	-0.936771	-0.335636	-0.099041
34	902195													9.195835	0.349774	3.422872	0.348156	-0.865950	-0.359053	0.034550	-0.370902	0.928029	-0.936800	-0.335504	-0.099213
35	902362													9.196556	0.333609	3.467574	0.348022	-0.866001	-0.359059	0.034400	-0.370947	0.928017	-0.936855	-0.335322	-0.099307
36	902529													9.202739	0.341058	3.441361	0.347930	-0.866236	-0.358579	0.034242	-0.370480	0.928209	-0.936895	-0.335231	-0.099239
37	902695													9.181972	0.330658	3.439379	0.347844	-0.866279	-0.358560	0.034113	-0.370495	0.928208	-0.936931	-0.335104	-0.099323
38	902862													9.186631	0.337941	3.445088	0.347734	-0.866244	-0.358751	0.033989	-0.370732	0.928118	-0.936977	-0.334932	-0.099473
39	903029													9.183724	0.327843	3.424277	0.347615	-0.866302	-0.358727	0.033837	-0.370747	0.928117	-0.937027	-0.334765	-0.099564
40	903195													9.216248	0.344391	3.410041	0.347499	-0.866422	-0.358549	0.033679	-0.370600	0.928182	-0.937075	-0.334618	-0.099603
41	903362													9.213264	0.335849	3.424757	0.347458	-0.866379	-0.358692	0.033516	-0.370806	0.928105	-0.937096	-0.334499	-0.099802
42	903529													9.185731	0.330877	3.426092	0.347373	-0.866309	-0.358943	0.033327	-0.371133	0.927982	-0.937135	-0.334318	-0.100049
43	903695													9.183339	0.339509	3.438382	0.347246	-0.866388	-0.358875	0.033149	-0.371109	0.927998	-0.937188	-0.334140	-0.100146
44	903862													9.187379	0.346995	3.428109	0.347161	-0.866448	-0.358813	0.032998	-0.371087	0.928012	-0.937225	-0.334010	-0.100236
45	904029													9.185269	0.347961	3.444556	0.347036	-0.866487	-0.358841	0.032836	-0.371160	0.927988	-0.937277	-0.333828	-0.100354
46	904195													9.168953	0.344134	3.423935	0.346840	-0.866552	-0.358872	0.032720	-0.371211	0.927972	-0.937353	-0.333600	-0.100397
47	904362													9.221542	0.338681	3.409053	0.346692	-0.866549	-0.359024	0.032587	-0.371405	0.927899	-0.937413	-0.333395	-0.100525
48	904529													9.234271	0.325803	3.422938	0.346599	-0.866601	-0.358988	0.032488	-0.371391	0.927908	-0.937451	-0.333275	-0.100570
49	904695													9.161832	0.310004	3.403366	0.346501	-0.866687	-0.358873	0.032415	-0.371283	0.927954	-0.937489	-0.333170	-0.100556
50	904862													9.191972	0.318672	3.352912	0.346391	-0.866662	-0.359042	0.032328	-0.371482	0.927877	-0.937533	-0.333015	-0.100660
51	905029													9.240114	0.340721	3.385213	0.346564	-0.866615	-0.358987	0.032299	-0.371453	0.927890	-0.937470	-0.333168	-0.100741
52	905195													9.199933	0.398418	3.489356	0.346478	-0.866628	-0.359038	0.032358	-0.371477	0.927878	-0.937500	-0.333108	-0.100666
53	905362													9.284610	0.385336	3.417195	0.346457	-0.866689	-0.358912	0.032532	-0.371277	0.927952	-0.937501	-0.333172	-0.100437
54	905529													9.177141	0.337149	3.449000	0.346648	-0.866582	-0.358986	0.032596	-0.371356	0.927918	-0.937429	-0.333363	-0.100483
55	905695													9.152665	0.357381	3.474218	0.346576	-0.866607	-0.358995	0.032526	-0.371383	0.927910	-0.937458	-0.333268	-0.100525
56	905862													9.158652	0.341395	3.453676	0.346390	-0.866751	-0.358826	0.032462	-0.371203	0.927984	-0.937529	-0.333092	-0.100445
57	906029													9.181684	0.341063	3.434536	0.346268	-0.866803	-0.358820	0.032421	-0.371196	0.927988	-0.937575	-0.332966	-0.100430
58	906195													9.158323	0.346656	3.457138	0.346147	-0.866817	-0.358902	0.032389	-0.371282	0.927955	-0.937621	-0.332833	-0.100442
59	906362													9.173717	0.330063	3.421783	0.346034	-0.866891	-0.358832	0.032363	-0.371204	0.927987	-0.937664	-0.332728	-0.100393
60	906529													9.182420	0.325438	3.423271	0.345957	-0.866878	-0.358938	0.032323	-0.371322	0.927941	-0.937693	-0.332630	-0.100441
61	906695													9.192130	0.350400	3.442951	0.345972	-0.866930	-0.358797	0.032276	-0.371189	0.927996	-0.937690	-0.332641	-0.100440
62	906862													9.202181	0.364344	3.469025	0.345985	-0.866933	-0.358778	0.032225	-0.371189	0.927998	-0.937686	-0.332635	-0.100489
63	907029													9.160728	0.345143	3.451623	0.345842	-0.867027	-0.358688	0.032116	-0.371115	0.928032	-0.937743	-0.332472	-0.100502
64	907195													9.254664	0.326288	3.323063	0.345639	-0.867056	-0.358815	0.031966	-0.371281	0.927970	-0.937823	-0.332213	-0.100613
65	907362													9.184290	0.400728	3.492124	0.345757	-0.867068	-0.358671	0.031859	-0.371178	0.928015	-0.937783	-0.332295	-0.100713
66	907529													9.203547	0.378711	3.388748	0.345403	-0.867320	-0.358402	0.031860	-0.370849	0.928146	-0.937913	-0.332004	-0.100460
67	907695													9.225224	0.373900	3.422963	0.345411	-0.867354	-0.358313	0.031856	-0.370756	0.928184	-0.937911	-0.332019	-0.100432
68	907862													9.214214	0.351940	3.420161	0.345226	-0.867442	-0.358277	0.031749	-0.370735	0.928196	-0.937982	-0.331813	-0.100447
69	908029													9.227692	0.349066	3.394200	0.345100	-0.867579	-0.358068	0.031681	-0.370520	0.928284	-0.938031	-0.331695	-0.100381
70	908195													9.194669	0.365349	3.419280	0.345056	-0.867634	-0.357976	0.031631	-0.370434	0.928320	-0.938049	-0.331646	-0.100376
71	908362													9.165644	0.360986	3.442089	0.344953	-0.867714	-0.357882	0.031621	-0.370326	0.928363	-0.938087	-0.331558	-0.100307
72	908529													9.185027	0.361258	3.404299	0.344805	-0.867821	-0.357765	0.031643	-0.370176	0.928422	-0.938141	-0.331446	-0.100178
73	908695													9.211398	0.347057	3.403387	0.344664	-0.867980	-0.357515	0.031679	-0.369879	0.928540	-0.938191	-0.331360	-0.099987
74	908862													9.214974	0.351570	3.402983	0.344568	-0.868063	-0.357405	0.031706	-0.369742	0.928593	-0.938226	-0.331296	-0.099878
75	909029													9.200133	0.358157	3.430112	0.344493	-0.868107	-0.357372	0.031734	-0.369687	0.928614	-0.938252	-0.331242	-0.099806
76	909195													9.202907	0.373055	3.414348	0.344394	-0.868142	-0.357383	0.031789	-0.369669	0.928620	-0.938287	-0.331172	-0.099714
77	909362													9.206235	0.371060	3.399675	0.344346	-0.868183	-0.357329	0.031833	-0.369591	0.928649	-0.938303	-0.331152	-0.099630
78	909529													9.186830	0.369823	3.417853	0.344336	-0.868180	-0.357347	0.031884	-0.369590	0.928648	-0.938305	-0.331161	-0.099582
79	909695													9.195084	0.369766	3.385881	0.344304	-0.868163	-0.357419	0.031933	-0.369646	0.928624	-0.938315	-0.331143	-0.099547
80	909862													9.202672	0.358765	3.418743	0.344309	-0.868196	-0.357333	0.031952	-0.369549	0.928662	-0.938312	-0.331164	-0.099499
81	910029													9.195838	0.370102	3.428117	0.344380	-0.868162	-0.357347	0.031998	-0.369555	0.928658	-0.938285	-0.331245	-0.099488
82	910195													9.204907	0.360070	3.414863	0.344500	-0.868118	-0.357338	0.032049	-0.369540	0.928662	-0.938239	-0.331377	-0.099484
83	910362													9.194158	0.354410	3.425552	0.344621	-0.868047	-0.357396	0.032102	-0.369598	0.928637	-0.938193	-0.331501	-0.099505
84	910529													9.176278	0.348937	3.423625	0.344752	-0.868007	-0.357364	0.032137	-0.369566	0.928648	-0.938143	-0.331638	-0.099513
85	910695													9.191808	0.359435	3.450188	0.344874	-0.867957	-0.357369	0.032162	-0.369577	0.928643	-0.938098	-0.331758	-0.099542
86	910862													9.172669	0.360629	3.428648	0.345027	-0.868034	-0.357035	0.032170	-0.369233	0.928780	-0.938041	-0.331940	-0.099471
87	911029													9.174943	0.362803	3.445985	0.345157	-0.868072	-0.356817	0.032152	-0.369022	0.928864	-0.937994	-0.332076	-0.099460
88	911195													9.210309	0.353988	3.433432	0.345249	-0.868054	-0.356770	0.032109	-0.368997	0.928876	-0.937962	-0.332149	-0.099524
89	911362													9.199938	0.367788	3.441266	0.345359	-0.867955	-0.356905	0.032065	-0.369169	0.928809	-0.937923	-0.332216	-0.099665
90	911529													9.198293	0.366940	3.432349	0.345443	-0.867898	-0.356963	0.031991	-0.369268	0.928772	-0.937894	-0.332258	-0.099796
91	911695													9.197779	0.358416	3.452777	0.345532	-0.867859	-0.356970	0.031938	-0.369304	0.928760	-0.937863	-0.332317	-0.099889
92	912029													9.175578	0.361663	3.435273	0.345621	-0.867788	-0.357058	0.031685	-0.369497	0.928691	-0.937839	-0.332288	-0.100210
93	912195													9.219959	0.352035	3.419870	0.345643	-0.867789	-0.357033	0.031589	-0.369508	0.928691	-0.937834	-0.332274	-0.100305
94	912362													9.231254	0.345716	3.417624	0.345728	-0.867763	-0.357014	0.031522	-0.369521	0.928688	-0.937805	-0.332327	-0.100400
95	912529													9.158092	0.334840	3.408580	0.345829	-0.867717	-0.357030	0.031442	-0.369577	0.928668	-0.937771	-0.332386	-0.100528
96	912695													9.196443	0.346205	3.364592	0.345890	-0.867713	-0.356978	0.031376	-0.369553	0.928680	-0.937750	-0.332422	-0.100599
97	912862													9.261999	0.362948	3.460965	0.346159	-0.867639	-0.356897	0.031387	-0.369493	0.928703	-0.937651	-0.332681	-0.100670
98	913029													9.203559	0.430790	3.484292	0.346243	-0.867635	-0.356826	0.031507	-0.369384	0.928742	-0.937616	-0.332813	-0.100561
99	913195													9.235509	0.382007	3.426543	0.346411	-0.867587	-0.356780	0.031672	-0.369295	0.928772	-0.937548	-0.333037	-0.100450
100	913362													9.169779	0.357309	3.472889	0.346652	-0.867518	-0.356715	0.031701	-0.369243	0.928792	-0.937458	-0.333275	-0.100498
101	913529													9.154697	0.372265	3.487621	0.346637	-0.867571	-0.356599	0.031649	-0.369136	0.928836	-0.937465	-0.333255	-0.100498
102	913695													9.162057	0.357939	3.478441	0.346618	-0.867667	-0.356384	0.031568	-0.368932	0.928920	-0.937475	-0.333231	-0.100489
103	913862													9.137093	0.351459	3.494727	0.346575	-0.867744	-0.356239	0.031487	-0.368801	0.928975	-0.937494	-0.333177	-0.100495
104	914029													9.163221	0.339921	3.458976	0.346401	-0.867929	-0.355957	0.031426	-0.368500	0.929096	-0.937560	-0.333026	-0.100373
105	914195													9.191247	0.348548	3.456615	0.346305	-0.867983	-0.355919	0.031352	-0.368475	0.929109	-0.937598	-0.332914	-0.100392
106	914362													9.162404	0.327663	3.469372	0.346271	-0.868085	-0.355702	0.031243	-0.368278	0.929191	-0.937614	-0.332865	-0.100402
107	914529													9.195606	0.348852	3.475780	0.346231	-0.868228	-0.355394	0.031169	-0.367970	0.929315	-0.937631	-0.332835	-0.100341
108	914695													9.201342	0.365764	3.473119	0.346260	-0.868342	-0.355087	0.031114	-0.367664	0.929438	-0.937622	-0.332876	-0.100289
109	914862													9.142657	0.327064	3.442272	0.346102	-0.868491	-0.354875	0.031012	-0.367455	0.929524	-0.937684	-0.332716	-0.100243
110	915029													9.252429	0.314697	3.378201	0.346029	-0.868421	-0.355118	0.030903	-0.367745	0.929413	-0.937715	-0.332578	-0.100414
111	915195													9.141623	0.395847	3.497877	0.346011	-0.868515	-0.354906	0.030796	-0.367554	0.929492	-0.937725	-0.332544	-0.100431
112	915362													9.241580	0.391504	3.381425	0.345822	-0.868599	-0.354885	0.030793	-0.367512	0.929509	-0.937795	-0.332372	-0.100347
113	915529													9.204303	0.374926	3.431714	0.345848	-0.868579	-0.354908	0.030762	-0.367551	0.929495	-0.937786	-0.332382	-0.100398
114	915695													9.214068	0.351144	3.447392	0.345783	-0.868602	-0.354916	0.030663	-0.367586	0.929484	-0.937814	-0.332282	-0.100471
115	915862													9.204471	0.354495	3.430913	0.345721	-0.868578	-0.355034	0.030539	-0.367749	0.929423	-0.937840	-0.332164	-0.100613
116	916029													9.192921	0.366933	3.448544	0.345689	-0.868765	-0.354608	0.030462	-0.367317	0.929597	-0.937855	-0.332153	-0.100513
117	916195													9.179752	0.351509	3.427573	0.345642	-0.868817	-0.354526	0.030386	-0.367251	0.929625	-0.937874	-0.332091	-0.100537
118	916362													9.161452	0.350397	3.431529	0.345551	-0.868828	-0.354587	0.030311	-0.367332	0.929596	-0.937910	-0.331970	-0.100596
119	916529													9.211652	0.349767	3.431321	0.345417	-0.868865	-0.354627	0.030287	-0.367369	0.929582	-0.937961	-0.331834	-0.100580
120	916695													9.213701	0.362803	3.431782	0.345336	-0.868876	-0.354679	0.030309	-0.367407	0.929566	-0.937990	-0.331763	-0.100544
121	916862													9.191446	0.361651	3.422001	0.345285	-0.868958	-0.354528	0.030361	-0.367221	0.929638	-0.938007	-0.331754	-0.100414
122	917029													9.214130	0.377279	3.443341	0.345203	-0.869007	-0.354489	0.030419	-0.367149	0.929665	-0.938035	-0.331707	-0.100306
123	917195													9.199075	0.370459	3.449359	0.345130	-0.869010	-0.354551	0.030496	-0.367180	0.929650	-0.938059	-0.331663	-0.100223
124	917362													9.182692	0.377075	3.444549	0.345084	-0.869105	-0.354364	0.030572	-0.366948	0.929739	-0.938074	-0.331672	-0.100058
125	917529													9.220464	0.370824	3.441306	0.345000	-0.869121	-0.354405	0.030638	-0.366959	0.929733	-0.938102	-0.331616	-0.099973
126	917695													9.196111	0.353430	3.439585	0.344962	-0.869188	-0.354278	0.030645	-0.366816	0.929789	-0.938116	-0.331598	-0.099902
127	917862													9.176008	0.364587	3.451426	0.344954	-0.869203	-0.354250	0.030660	-0.366780	0.929802	-0.938119	-0.331600	-0.099873
128	918029													9.192698	0.356362	3.451405	0.344923	-0.869215	-0.354251	0.030669	-0.366775	0.929804	-0.938130	-0.331576	-0.099851
129	918196													9.189097	0.348047	3.437593	0.344943	-0.869203	-0.354261	0.030665	-0.366788	0.929799	-0.938123	-0.331591	-0.099866
130	918362													9.194245	0.351788	3.414989	0.344996	-0.869282	-0.354015	0.030619	-0.366548	0.929895	-0.938105	-0.331649	-0.099841
131	918529													9.199522	0.359330	3.450930	0.345030	-0.869271	-0.354009	0.030551	-0.366569	0.929889	-0.938094	-0.331655	-0.099920
132	918696													9.203738	0.360364	3.438445	0.345051	-0.869315	-0.353881	0.030499	-0.366454	0.929936	-0.938088	-0.331669	-0.099932
133	918862													9.188730	0.362605	3.445264	0.345066	-0.869396	-0.353667	0.030418	-0.366254	0.930018	-0.938085	-0.331675	-0.099937
134	919029													9.207436	0.365414	3.456712	0.345032	-0.869377	-0.353746	0.030359	-0.366356	0.929979	-0.938100	-0.331612	-0.100011
135	919196													9.184947	0.377448	3.429060	0.345007	-0.869385	-0.353752	0.030298	-0.366381	0.929972	-0.938111	-0.331565	-0.100063
136	919362													9.194584	0.369662	3.442915	0.345008	-0.869329	-0.353887	0.030232	-0.366550	0.929907	-0.938113	-0.331524	-0.100181
137	919529													9.194745	0.361047	3.440699	0.345000	-0.869310	-0.353942	0.030142	-0.366639	0.929875	-0.938119	-0.331475	-0.100287
138	919696													9.174099	0.360463	3.427352	0.344953	-0.869350	-0.353890	0.030043	-0.366613	0.929888	-0.938139	-0.331400	-0.100346
139	919862													9.223164	0.369022	3.446477	0.344969	-0.869348	-0.353880	0.029958	-0.366634	0.929883	-0.938136	-0.331382	-0.100434
140	920029													9.216300	0.330731	3.439664	0.345030	-0.869323	-0.353882	0.029902	-0.366663	0.929873	-0.938115	-0.331416	-0.100516
141	920196													9.153131	0.327237	3.432880	0.345067	-0.869283	-0.353943	0.029872	-0.366743	0.929842	-0.938103	-0.331431	-0.100584
142	920362													9.205737	0.357524	3.373862	0.345158	-0.869333	-0.353731	0.029866	-0.366529	0.929927	-0.938069	-0.331537	-0.100547
143	920529													9.218167	0.378350	3.479134	0.345514	-0.869178	-0.353764	0.029954	-0.366574	0.929906	-0.937936	-0.331892	-0.100621
144	920696													9.181046	0.420390	3.503131	0.345470	-0.869215	-0.353719	0.030133	-0.366457	0.929947	-0.937946	-0.331927	-0.100407
145	920862													9.257141	0.382293	3.419977	0.345656	-0.869196	-0.353582	0.030369	-0.366249	0.930021	-0.937870	-0.332206	-0.100200
146	921029													9.176592	0.347636	3.473357	0.345866	-0.869088	-0.353643	0.030477	-0.366300	0.929998	-0.937789	-0.332432	-0.100204
147	921196													9.175124	0.360736	3.511002	0.345951	-0.869107	-0.353512	0.030490	-0.366165	0.930050	-0.937757	-0.332531	-0.100176
148	921362													9.152866	0.363482	3.466511	0.345966	-0.869133	-0.353433	0.030465	-0.366090	0.930081	-0.937752	-0.332544	-0.100176
149	921529													9.146704	0.360414	3.452882	0.345935	-0.869229	-0.353228	0.030466	-0.365867	0.930168	-0.937764	-0.332539	-0.100085
150	921696													9.159461	0.341939	3.471864	0.345871	-0.869245	-0.353251	0.030512	-0.365868	0.930167	-0.937786	-0.332496	-0.100021
151	921862													9.169285	0.332537	3.453486	0.345840	-0.869310	-0.353120	0.030567	-0.365705	0.930229	-0.937795	-0.332505	-0.099903
152	922029													9.181140	0.339125	3.465416	0.345830	-0.869248	-0.353284	0.030583	-0.365874	0.930162	-0.937799	-0.332482	-0.099946
153	922196													9.223157	0.340594	3.454699	0.345878	-0.869253	-0.353225	0.030601	-0.365810	0.930187	-0.937780	-0.332540	-0.099925
154	922362													9.189658	0.378821	3.466822	0.345977	-0.869260	-0.353112	0.030628	-0.365690	0.930233	-0.937743	-0.332654	-0.099897
155	922529													9.134830	0.352793	3.469654	0.345889	-0.869286	-0.353132	0.030641	-0.365697	0.930229	-0.937775	-0.332577	-0.099855
156	922696													9.254655	0.330034	3.357994	0.345760	-0.869281	-0.353271	0.030614	-0.365841	0.930174	-0.937823	-0.332432	-0.099881
157	922862													9.169598	0.397344	3.501531	0.345886	-0.869198	-0.353352	0.030586	-0.365952	0.930131	-0.937778	-0.332527	-0.099992
158	923029													9.212838	0.410558	3.374953	0.345705	-0.869313	-0.353246	0.030633	-0.365801	0.930189	-0.937843	-0.332391	-0.099830
159	923196													9.207486	0.387779	3.435458	0.345803	-0.869370	-0.353010	0.030646	-0.365555	0.930285	-0.937807	-0.332513	-0.099767
160	923362													9.219931	0.360141	3.426401	0.345763	-0.869381	-0.353021	0.030587	-0.365583	0.930276	-0.937823	-0.332453	-0.099813
161	923529													9.197478	0.372619	3.432133	0.345769	-0.869374	-0.353034	0.030550	-0.365611	0.930266	-0.937822	-0.332443	-0.099858
162	923696													9.188507	0.370341	3.441585	0.345795	-0.869431	-0.352867	0.030521	-0.365446	0.930332	-0.937814	-0.332474	-0.099834
163	923862													9.177892	0.359745	3.458603	0.345825	-0.869575	-0.352484	0.030493	-0.365049	0.930489	-0.937804	-0.332534	-0.099727
164	924029													9.173150	0.359588	3.436621	0.345823	-0.869763	-0.352022	0.030477	-0.364559	0.930681	-0.937805	-0.332580	-0.099565
165	924196													9.174280	0.356065	3.443563	0.345764	-0.869785	-0.352025	0.030515	-0.364543	0.930687	-0.937825	-0.332540	-0.099504
166	924362													9.210961	0.361504	3.436109	0.345707	-0.869831	-0.351966	0.030594	-0.364445	0.930722	-0.937844	-0.332525	-0.099380
167	924529													9.211877	0.383169	3.422838	0.345669	-0.869866	-0.351916	0.030680	-0.364358	0.930754	-0.937855	-0.332529	-0.099260
168	924696													9.210475	0.371021	3.426200	0.345672	-0.869864	-0.351920	0.030746	-0.364339	0.930759	-0.937852	-0.332557	-0.099197
169	924862													9.198731	0.386270	3.435817	0.345646	-0.869902	-0.351851	0.030841	-0.364227	0.930799	-0.937858	-0.332578	-0.099065
170	925029													9.187949	0.392142	3.441957	0.345674	-0.869872	-0.351899	0.030907	-0.364259	0.930785	-0.937846	-0.332624	-0.099029
171	925196													9.176609	0.388977	3.444782	0.345687	-0.869904	-0.351805	0.030989	-0.364131	0.930832	-0.937838	-0.332678	-0.098917
172	925362													9.186293	0.381109	3.457163	0.345663	-0.869979	-0.351646	0.031033	-0.363942	0.930905	-0.937846	-0.332691	-0.098803
173	925529													9.176258	0.360782	3.447761	0.345680	-0.870072	-0.351397	0.031039	-0.363675	0.931008	-0.937839	-0.332739	-0.098709
174	925696													9.192658	0.361551	3.436836	0.345672	-0.870047	-0.351467	0.031032	-0.363753	0.930979	-0.937842	-0.332720	-0.098740
175	925862													9.230098	0.369226	3.461175	0.345660	-0.870068	-0.351427	0.031008	-0.363717	0.930993	-0.937847	-0.332704	-0.098743
176	926029													9.198715	0.376460	3.429840	0.345688	-0.870037	-0.351477	0.030993	-0.363778	0.930970	-0.937837	-0.332719	-0.098789
177	926196													9.193708	0.353732	3.449463	0.345712	-0.870067	-0.351378	0.030957	-0.363688	0.931006	-0.937830	-0.332737	-0.098797
178	926362													9.192837	0.360619	3.448246	0.345726	-0.870047	-0.351415	0.030911	-0.363745	0.930985	-0.937826	-0.332728	-0.098862
179	926529													9.183969	0.360493	3.455920	0.345730	-0.870080	-0.351329	0.030832	-0.363682	0.931013	-0.937827	-0.332711	-0.098909
180	926696													9.182715	0.358542	3.456374	0.345709	-0.870121	-0.351248	0.030746	-0.363623	0.931038	-0.937838	-0.332668	-0.098955
181	926862													9.185371	0.367547	3.433052	0.345689	-0.870125	-0.351258	0.030667	-0.363660	0.931027	-0.937848	-0.332618	-0.099029
182	927029													9.188686	0.348416	3.414458	0.345614	-0.870176	-0.351204	0.030546	-0.363637	0.931040	-0.937880	-0.332508	-0.099098
183	927196													9.238268	0.354272	3.450868	0.345590	-0.870178	-0.351223	0.030463	-0.363683	0.931024	-0.937891	-0.332453	-0.099177
184	927362													9.212857	0.342008	3.431489	0.345637	-0.870169	-0.351200	0.030398	-0.363687	0.931025	-0.937876	-0.332472	-0.099252
185	927529													9.157015	0.355840	3.412291	0.345598	-0.870164	-0.351251	0.030360	-0.363751	0.931001	-0.937892	-0.332416	-0.099294
186	927696													9.229798	0.363124	3.346250	0.345722	-0.870069	-0.351363	0.030331	-0.363895	0.930946	-0.937847	-0.332505	-0.099416
187	927862													9.191325	0.388408	3.487920	0.346013	-0.869924	-0.351435	0.030373	-0.363990	0.930907	-0.937738	-0.332781	-0.099523
188	928029													9.205358	0.437821	3.463360	0.345983	-0.869950	-0.351402	0.030527	-0.363897	0.930939	-0.937744	-0.332816	-0.099345
189	928196													9.253171	0.382708	3.441838	0.346232	-0.869866	-0.351363	0.030712	-0.363818	0.930964	-0.937646	-0.333121	-0.099250
190	928362													9.166283	0.339548	3.481105	0.346433	-0.869820	-0.351279	0.030725	-0.363746	0.930991	-0.937571	-0.333319	-0.099288
191	928529													9.167094	0.341197	3.507828	0.346466	-0.869823	-0.351240	0.030636	-0.363739	0.930997	-0.937562	-0.333320	-0.099376
192	928696													9.162036	0.366089	3.468596	0.346459	-0.869827	-0.351236	0.030575	-0.363756	0.930992	-0.937567	-0.333290	-0.099431
193	928862													9.164242	0.332909	3.470613	0.346456	-0.869895	-0.351070	0.030551	-0.363587	0.931059	-0.937569	-0.333297	-0.099391
194	929029													9.163802	0.326093	3.468853	0.346402	-0.869991	-0.350886	0.030540	-0.363388	0.931137	-0.937589	-0.333264	-0.099309
195	929196													9.184499	0.294819	3.466704	0.346312	-0.870080	-0.350754	0.030524	-0.363242	0.931195	-0.937623	-0.333191	-0.099237
196	929362													9.187407	0.312905	3.420963	0.346310	-0.870070	-0.350782	0.030456	-0.363296	0.931176	-0.937626	-0.333159	-0.099314
197	929529													9.196232	0.345651	3.435221	0.346348	-0.870056	-0.350778	0.030459	-0.363295	0.931176	-0.937611	-0.333196	-0.099326
198	929696													9.179440	0.365422	3.503923	0.346416	-0.869985	-0.350888	0.030431	-0.363430	0.931124	-0.937587	-0.333234	-0.099423
199	929862													9.141287	0.333567	3.423280	0.346231	-0.870001	-0.351030	0.030386	-0.363577	0.931068	-0.937657	-0.333031	-0.099446
200	930029													9.282858	0.362746	3.423314	0.346221	-0.869946	-0.351177	0.030364	-0.363741	0.931005	-0.937661	-0.332997	-0.099519
201	930196													9.128730	0.383638	3.484793	0.346131	-0.869926	-0.351314	0.030381	-0.363871	0.930954	-0.937694	-0.332905	-0.099518
202	930362													9.250593	0.397524	3.415371	0.346082	-0.869927	-0.351360	0.030451	-0.363890	0.930944	-0.937710	-0.332883	-0.099446
203	930529													9.187956	0.351387	3.443594	0.346066	-0.869979	-0.351249	0.030438	-0.363774	0.930990	-0.937716	-0.332875	-0.099409
204	930696													9.233719	0.349427	3.436220	0.346008	-0.870062	-0.351100	0.030375	-0.363630	0.931048	-0.937740	-0.332815	-0.099391
205	930862													9.204124	0.352775	3.448658	0.345979	-0.870114	-0.350999	0.030299	-0.363546	0.931083	-0.937753	-0.332770	-0.099416
206	931029													9.172976	0.343377	3.453626	0.345947	-0.870129	-0.350992	0.030270	-0.363545	0.931085	-0.937766	-0.332731	-0.099429
207	931196													9.174904	0.363865	3.443556	0.345884	-0.870198	-0.350884	0.030272	-0.363422	0.931133	-0.937789	-0.332686	-0.099359
208	931362													9.154687	0.327985	3.440716	0.345748	-0.870311	-0.350738	0.030332	-0.363229	0.931206	-0.937837	-0.332602	-0.099188
209	931529													9.199205	0.338653	3.416375	0.345612	-0.870375	-0.350714	0.030395	-0.363166	0.931229	-0.937885	-0.332503	-0.099060
210	931696													9.217206	0.365714	3.425878	0.345523	-0.870451	-0.350613	0.030493	-0.363012	0.931285	-0.937915	-0.332472	-0.098886
211	931862													9.199404	0.346964	3.420521	0.345471	-0.870490	-0.350567	0.030603	-0.362918	0.931318	-0.937930	-0.332472	-0.098738
212	932029													9.220962	0.349530	3.418037	0.345366	-0.870544	-0.350535	0.030733	-0.362827	0.931350	-0.937965	-0.332430	-0.098554
213	932196													9.248248	0.355743	3.440300	0.345318	-0.870547	-0.350575	0.030859	-0.362820	0.931348	-0.937978	-0.332429	-0.098424
214	932362													9.202511	0.372641	3.437146	0.345291	-0.870524	-0.350658	0.030971	-0.362865	0.931327	-0.937984	-0.332439	-0.098333
215	932529													9.202737	0.359391	3.441863	0.345225	-0.870578	-0.350590	0.031070	-0.362751	0.931368	-0.938006	-0.332424	-0.098182
216	932696													9.211710	0.374375	3.435283	0.345193	-0.870626	-0.350503	0.031174	-0.362616	0.931417	-0.938014	-0.332446	-0.098032
217	932862													9.174209	0.358486	3.434707	0.345190	-0.870605	-0.350557	0.031253	-0.362646	0.931403	-0.938012	-0.332467	-0.097973
218	933029													9.204370	0.352382	3.424408	0.345176	-0.870605	-0.350572	0.031315	-0.362638	0.931404	-0.938015	-0.332477	-0.097911
219	933196													9.205497	0.354076	3.439178	0.345165	-0.870643	-0.350488	0.031336	-0.362540	0.931441	-0.938019	-0.332484	-0.097854
220	933362													9.204435	0.368378	3.439249	0.345146	-0.870678	-0.350420	0.031351	-0.362460	0.931472	-0.938025	-0.332480	-0.097804
221	933529													9.187115	0.369555	3.442749	0.345124	-0.870675	-0.350448	0.031348	-0.362488	0.931461	-0.938033	-0.332455	-0.097810
222	933696													9.191984	0.349429	3.415757	0.345072	-0.870744	-0.350330	0.031326	-0.362364	0.931510	-0.938053	-0.332412	-0.097765
223	933862													9.192390	0.355065	3.421195	0.344984	-0.870759	-0.350379	0.031323	-0.362408	0.931493	-0.938086	-0.332325	-0.097751
224	934029													9.227914	0.364553	3.409888	0.344958	-0.870783	-0.350343	0.031293	-0.362377	0.931506	-0.938096	-0.332294	-0.097756
225	934196													9.217832	0.368621	3.427694	0.344938	-0.870775	-0.350383	0.031311	-0.362411	0.931492	-0.938103	-0.332278	-0.097744
226	934362													9.197426	0.348691	3.420993	0.344932	-0.870774	-0.350393	0.031334	-0.362413	0.931491	-0.938105	-0.332280	-0.097723
227	934529													9.193880	0.362451	3.371536	0.344921	-0.870742	-0.350482	0.031351	-0.362501	0.931456	-0.938108	-0.332267	-0.097735
228	934696													9.242489	0.367721	3.373162	0.345168	-0.870678	-0.350398	0.031414	-0.362417	0.931487	-0.938015	-0.332527	-0.097743
229	934863													9.200680	0.414615	3.486602	0.345258	-0.870644	-0.350393	0.031521	-0.362383	0.931496	-0.937978	-0.332651	-0.097672
230	935029													9.267967	0.424281	3.422645	0.345280	-0.870658	-0.350337	0.031720	-0.362255	0.931539	-0.937963	-0.332755	-0.097462
231	935196													9.210501	0.367600	3.458434	0.345556	-0.870569	-0.350287	0.031879	-0.362176	0.931564	-0.937856	-0.333075	-0.097399
232	935363													9.165687	0.358100	3.496054	0.345654	-0.870550	-0.350237	0.031917	-0.362119	0.931585	-0.937819	-0.333185	-0.097383
233	935529													9.164825	0.374944	3.475705	0.345614	-0.870549	-0.350278	0.031902	-0.362165	0.931568	-0.937834	-0.333137	-0.097397
234	935696													9.158649	0.361458	3.464508	0.345547	-0.870615	-0.350181	0.031909	-0.362051	0.931612	-0.937859	-0.333090	-0.097325
235	935863													9.185607	0.351645	3.449549	0.345449	-0.870677	-0.350124	0.031921	-0.361974	0.931641	-0.937895	-0.333011	-0.097250
236	936029													9.191565	0.346732	3.422698	0.345399	-0.870701	-0.350113	0.031947	-0.361948	0.931651	-0.937912	-0.332976	-0.097200
237	936196													9.180911	0.334392	3.414378	0.345383	-0.870657	-0.350239	0.031968	-0.362073	0.931601	-0.937917	-0.332956	-0.097221
238	936363													9.207645	0.356369	3.432813	0.345390	-0.870642	-0.350269	0.032021	-0.362087	0.931594	-0.937913	-0.332979	-0.097182
239	936529													9.218554	0.357006	3.464705	0.345483	-0.870625	-0.350219	0.032059	-0.362030	0.931615	-0.937877	-0.333085	-0.097164
240	936696													9.135619	0.348289	3.436432	0.345416	-0.870564	-0.350438	0.032085	-0.362249	0.931529	-0.937901	-0.333009	-0.097195
241	936863													9.280372	0.337967	3.354651	0.345352	-0.870499	-0.350662	0.032065	-0.362488	0.931437	-0.937925	-0.332918	-0.097274
242	937029													9.147697	0.405176	3.499404	0.345438	-0.870453	-0.350691	0.032062	-0.362530	0.931420	-0.937894	-0.332992	-0.097323
243	937196													9.265382	0.417974	3.384149	0.345268	-0.870480	-0.350792	0.032169	-0.362582	0.931397	-0.937953	-0.332866	-0.097186
244	937363													9.190267	0.375105	3.414695	0.345408	-0.870442	-0.350748	0.032233	-0.362527	0.931416	-0.937899	-0.333024	-0.097162
245	937529													9.220717	0.356444	3.422573	0.345367	-0.870489	-0.350671	0.032206	-0.362450	0.931447	-0.937915	-0.332985	-0.097143
246	937696													9.208265	0.359298	3.426625	0.345348	-0.870544	-0.350553	0.032189	-0.362327	0.931495	-0.937922	-0.332974	-0.097107
247	937863													9.199289	0.366268	3.420124	0.345386	-0.870614	-0.350342	0.032183	-0.362108	0.931580	-0.937909	-0.333030	-0.097048
248	938029													9.186568	0.383323	3.432787	0.345428	-0.870624	-0.350276	0.032256	-0.362016	0.931614	-0.937891	-0.333104	-0.096967
249	938196													9.190216	0.371175	3.395570	0.345464	-0.870578	-0.350356	0.032348	-0.362073	0.931588	-0.937874	-0.333163	-0.096922
250	938363													9.217635	0.363128	3.415997	0.345571	-0.870504	-0.350434	0.032488	-0.362118	0.931566	-0.937830	-0.333307	-0.096857
251	938529													9.184690	0.376364	3.417964	0.345701	-0.870439	-0.350465	0.032617	-0.362120	0.931561	-0.937778	-0.333473	-0.096794
252	938696													9.196760	0.374822	3.461872	0.345834	-0.870400	-0.350432	0.032775	-0.362044	0.931585	-0.937723	-0.333659	-0.096680
253	938863													9.208326	0.380505	3.446058	0.345974	-0.870378	-0.350348	0.032929	-0.361914	0.931630	-0.937666	-0.333857	-0.096552
254	939029													9.198380	0.377622	3.464873	0.346166	-0.870292	-0.350374	0.033070	-0.361912	0.931625	-0.937590	-0.334084	-0.096501
255	939196													9.187792	0.364269	3.453125	0.346321	-0.870239	-0.350351	0.033230	-0.361848	0.931645	-0.937527	-0.334290	-0.096398
256	939363													9.193696	0.385297	3.472694	0.346438	-0.870177	-0.350389	0.033352	-0.361858	0.931636	-0.937480	-0.334440	-0.096339
257	939529													9.184698	0.385984	3.467326	0.346546	-0.870089	-0.350502	0.033452	-0.361955	0.931595	-0.937436	-0.334566	-0.096328
258	939696													9.191117	0.380423	3.482346	0.346696	-0.870016	-0.350535	0.033548	-0.361972	0.931585	-0.937377	-0.334737	-0.096307
259	939863													9.170061	0.363024	3.446791	0.346826	-0.869938	-0.350598	0.033607	-0.362034	0.931559	-0.937327	-0.334872	-0.096327
260	940029													9.183410	0.349266	3.442810	0.346900	-0.869890	-0.350644	0.033627	-0.362084	0.931539	-0.937299	-0.334942	-0.096355
261	940196													9.185263	0.367348	3.427559	0.346983	-0.869859	-0.350639	0.033616	-0.362092	0.931536	-0.937269	-0.335014	-0.096398
262	940363													9.208879	0.381204	3.405822	0.347097	-0.869791	-0.350696	0.033597	-0.362172	0.931506	-0.937227	-0.335105	-0.096486
263	940529													9.233131	0.355674	3.435402	0.347190	-0.869753	-0.350698	0.033578	-0.362191	0.931499	-0.937193	-0.335183	-0.096544
264	940696													9.197167	0.355273	3.455183	0.347272	-0.869698	-0.350753	0.033530	-0.362277	0.931467	-0.937165	-0.335233	-0.096647
265	940863													9.173804	0.377109	3.377452	0.347379	-0.869610	-0.350866	0.033485	-0.362425	0.931411	-0.937127	-0.335302	-0.096780
266	941029													9.242505	0.354696	3.373350	0.347597	-0.869457	-0.351028	0.033486	-0.362623	0.931334	-0.937046	-0.335483	-0.096932
267	941196													9.185684	0.434459	3.479834	0.347800	-0.869317	-0.351174	0.033515	-0.362791	0.931268	-0.936970	-0.335664	-0.097044
268	941363													9.231614	0.439709	3.440959	0.347890	-0.869304	-0.351118	0.033625	-0.362701	0.931299	-0.936932	-0.335796	-0.096950
269	941529													9.200093	0.359578	3.455642	0.348220	-0.869161	-0.351143	0.033713	-0.362733	0.931283	-0.936806	-0.336130	-0.097009
270	941696													9.160852	0.371004	3.503742	0.348360	-0.869063	-0.351248	0.033649	-0.362885	0.931226	-0.936757	-0.336221	-0.097171
271	941863													9.157014	0.380571	3.507975	0.348360	-0.869064	-0.351246	0.033522	-0.362928	0.931214	-0.936761	-0.336173	-0.097297
272	942029													9.164421	0.376196	3.466246	0.348358	-0.869115	-0.351120	0.033449	-0.362819	0.931259	-0.936764	-0.336156	-0.097320
273	942196													9.166030	0.368153	3.467784	0.348307	-0.869163	-0.351053	0.033401	-0.362759	0.931284	-0.936785	-0.336098	-0.097320
274	942363													9.173833	0.335927	3.440390	0.348293	-0.869226	-0.350911	0.033349	-0.362623	0.931339	-0.936792	-0.336082	-0.097312
275	942529													9.166601	0.328377	3.436898	0.348313	-0.869128	-0.351133	0.033283	-0.362887	0.931239	-0.936787	-0.336050	-0.097471
276	942696													9.168398	0.347554	3.449121	0.348353	-0.869084	-0.351202	0.033240	-0.362981	0.931203	-0.936774	-0.336061	-0.097557
277	942863													9.184948	0.376896	3.494575	0.348397	-0.869068	-0.351198	0.033195	-0.362998	0.931199	-0.936759	-0.336085	-0.097618
278	943029													9.162419	0.345436	3.447723	0.348274	-0.869126	-0.351176	0.033142	-0.362980	0.931207	-0.936807	-0.335954	-0.097612
279	943196													9.269183	0.343353	3.429208	0.348340	-0.868995	-0.351435	0.033116	-0.363274	0.931094	-0.936783	-0.335975	-0.097765
280	943363													9.104727	0.391861	3.490275	0.348289	-0.868950	-0.351598	0.033070	-0.363460	0.931023	-0.936804	-0.335893	-0.097853
281	943529													9.254213	0.397195	3.403513	0.348144	-0.868944	-0.351755	0.033129	-0.363590	0.930970	-0.936855	-0.335765	-0.097795
282	943696													9.208891	0.366754	3.423750	0.348245	-0.868885	-0.351801	0.033149	-0.363643	0.930948	-0.936817	-0.335860	-0.097834
283	943863													9.196846	0.348821	3.439552	0.348215	-0.868890	-0.351820	0.033074	-0.363687	0.930934	-0.936831	-0.335801	-0.097903
284	944029													9.222860	0.355785	3.425980	0.348143	-0.868915	-0.351828	0.032985	-0.363720	0.930924	-0.936861	-0.335700	-0.097965
285	944196													9.201919	0.363886	3.441939	0.348180	-0.868906	-0.351815	0.032932	-0.363729	0.930923	-0.936849	-0.335715	-0.098028
286	944363													9.165064	0.363475	3.428188	0.348157	-0.868906	-0.351836	0.032887	-0.363765	0.930910	-0.936859	-0.335674	-0.098071
287	944529													9.204361	0.363459	3.434464	0.348074	-0.868874	-0.351998	0.032834	-0.363948	0.930840	-0.936892	-0.335559	-0.098152
288	944696													9.232448	0.343871	3.405902	0.348082	-0.868760	-0.352271	0.032775	-0.364262	0.930719	-0.936891	-0.335513	-0.098320
289	944863													9.187006	0.339881	3.453035	0.347993	-0.868561	-0.352850	0.032752	-0.364881	0.930478	-0.936925	-0.335357	-0.098530
290	945029													9.201296	0.378970	3.411886	0.347817	-0.868487	-0.353204	0.032708	-0.365257	0.930332	-0.936992	-0.335138	-0.098636
291	945196													9.271539	0.370693	3.431811	0.347827	-0.868456	-0.353272	0.032702	-0.365332	0.930303	-0.936988	-0.335137	-0.098672
292	945363													9.206648	0.325576	3.468821	0.347979	-0.868369	-0.353335	0.032665	-0.365431	0.930265	-0.936933	-0.335254	-0.098797
293	945529													9.172391	0.352967	3.464365	0.348031	-0.868293	-0.353471	0.032618	-0.365599	0.930201	-0.936915	-0.335268	-0.098918
294	945696													9.177450	0.383001	3.519456	0.348107	-0.868225	-0.353562	0.032563	-0.365725	0.930153	-0.936889	-0.335306	-0.099039
295	945863													9.139509	0.357370	3.479210	0.348128	-0.868205	-0.353592	0.032519	-0.365775	0.930135	-0.936883	-0.335304	-0.099103
296	946029													9.219037	0.371825	3.454842	0.348205	-0.868200	-0.353528	0.032442	-0.365743	0.930150	-0.936857	-0.335352	-0.099188
297	946196													9.209290	0.383066	3.533010	0.348568	-0.868170	-0.353245	0.032347	-0.365515	0.930243	-0.936725	-0.335680	-0.099324
298	946363													9.132942	0.347254	3.508595	0.348834	-0.868098	-0.353158	0.032294	-0.365470	0.930263	-0.936628	-0.335912	-0.099454
299	946529													9.157265	0.368278	3.506947	0.348908	-0.868140	-0.352981	0.032232	-0.365312	0.930327	-0.936603	-0.335976	-0.099479
300	946696													9.200912	0.342257	3.445729	0.348882	-0.868181	-0.352907	0.032202	-0.365241	0.930356	-0.936613	-0.335949	-0.099468
301	946863													9.205915	0.327774	3.404953	0.348970	-0.868127	-0.352953	0.032138	-0.365323	0.930326	-0.936583	-0.335999	-0.099586
302	947029													9.224512	0.343284	3.400422	0.349099	-0.868106	-0.352877	0.032126	-0.365260	0.930351	-0.936535	-0.336122	-0.099623
303	947196													9.240044	0.319570	3.474139	0.349278	-0.868060	-0.352812	0.032144	-0.365204	0.930372	-0.936468	-0.336299	-0.099655
304	947363													9.186840	0.315919	3.420607	0.349461	-0.867984	-0.352819	0.032198	-0.365214	0.930367	-0.936398	-0.336487	-0.099680
305	947529													9.229566	0.333724	3.347255	0.349652	-0.867878	-0.352890	0.032309	-0.365271	0.930340	-0.936322	-0.336697	-0.099677
306	947696													9.281402	0.341491	3.361996	0.350308	-0.867614	-0.352889	0.032455	-0.365292	0.930327	-0.936072	-0.337354	-0.099806
307	947863													9.181904	0.411125	3.536733	0.350879	-0.867366	-0.352931	0.032684	-0.365321	0.930308	-0.935850	-0.337960	-0.099835
308	948029													9.256019	0.428558	3.452190	0.351371	-0.867177	-0.352906	0.032958	-0.365251	0.930325	-0.935656	-0.338521	-0.099758
309	948196													9.197439	0.336043	3.489271	0.352079	-0.866926	-0.352817	0.033172	-0.365158	0.930354	-0.935382	-0.339262	-0.099807
310	948363													9.200939	0.363052	3.498049	0.352780	-0.866715	-0.352634	0.033237	-0.365019	0.930406	-0.935116	-0.339949	-0.099964
311	948529													9.178271	0.390476	3.527211	0.353617	-0.866475	-0.352386	0.033263	-0.364840	0.930476	-0.934799	-0.340754	-0.100192
312	948696													9.143637	0.376262	3.532861	0.354550	-0.866286	-0.351914	0.033248	-0.364446	0.930631	-0.934446	-0.341656	-0.100412
313	948863													9.157269	0.354081	3.545375	0.355575	-0.866015	-0.351545	0.033288	-0.364153	0.930744	-0.934055	-0.342652	-0.100656
314	949029													9.163348	0.335559	3.521673	0.356715	-0.865708	-0.351147	0.033322	-0.363845	0.930863	-0.933619	-0.343754	-0.100942
315	949196													9.167809	0.322740	3.527925	0.357779	-0.865344	-0.350961	0.033346	-0.363760	0.930896	-0.933211	-0.344758	-0.101290
316	949363													9.250229	0.326382	3.530138	0.358788	-0.864967	-0.350860	0.033536	-0.363699	0.930913	-0.932816	-0.345767	-0.101483
317	949529													9.343275	0.390156	3.480515	0.360298	-0.864325	-0.350896	0.033860	-0.363794	0.930864	-0.932222	-0.347270	-0.101808
318	949696													8.948671	0.296005	3.547652	0.361969	-0.863632	-0.350882	0.033961	-0.363939	0.930803	-0.931571	-0.348838	-0.102405
319	949863													9.225231	0.301939	3.448272	0.363136	-0.863015	-0.351194	0.034201	-0.364324	0.930644	-0.931108	-0.349962	-0.102783
320	950029													9.274522	0.436440	3.508582	0.364814	-0.862237	-0.351365	0.034367	-0.364646	0.930512	-0.930446	-0.351539	-0.103396
321	950196													9.236842	0.424259	3.508385	0.366597	-0.861445	-0.351454	0.034541	-0.364891	0.930409	-0.929738	-0.353225	-0.104013
322	950363													9.127025	0.378377	3.591502	0.368615	-0.860584	-0.351452	0.034739	-0.365058	0.930336	-0.928933	-0.355145	-0.104670
323	950529													9.123895	0.364226	3.577414	0.370346	-0.859906	-0.351290	0.034882	-0.365040	0.930338	-0.928239	-0.356800	-0.105196
324	950696													9.212637	0.395706	3.568153	0.372148	-0.859220	-0.351064	0.034943	-0.364994	0.930354	-0.927515	-0.358496	-0.105808
325	950863													9.158351	0.378876	3.668999	0.374312	-0.858477	-0.350583	0.035004	-0.364717	0.930460	-0.926642	-0.360554	-0.106468
326	951029													8.988524	0.342350	3.641784	0.376541	-0.857763	-0.349943	0.035242	-0.364209	0.930650	-0.925729	-0.362760	-0.106910
327	951196													9.123520	0.420456	3.719938	0.378576	-0.857043	-0.349509	0.035631	-0.363840	0.930780	-0.924884	-0.364824	-0.107204
328	951363													9.123660	0.414164	3.746217	0.380602	-0.856373	-0.348952	0.035811	-0.363420	0.930937	-0.924045	-0.366813	-0.107650
329	951530													9.078972	0.375282	3.765938	0.382621	-0.855755	-0.348258	0.035985	-0.362852	0.931152	-0.923204	-0.368810	-0.108040
330	951696													9.120993	0.412948	3.821335	0.384841	-0.855086	-0.347455	0.036227	-0.362164	0.931410	-0.922272	-0.371032	-0.108398
331	951863													9.034367	0.428861	3.866767	0.387373	-0.854290	-0.346598	0.036390	-0.361490	0.931666	-0.921205	-0.373515	-0.108944
332	952030													8.943353	0.420684	3.931258	0.389668	-0.853452	-0.346090	0.036610	-0.361143	0.931791	-0.920227	-0.375760	-0.109481
333	952196													8.986769	0.411872	3.919113	0.391921	-0.852633	-0.345564	0.036860	-0.360759	0.931930	-0.919260	-0.377980	-0.109961
334	952363													9.046500	0.394466	3.953109	0.394437	-0.851727	-0.344936	0.037097	-0.360305	0.932097	-0.918174	-0.380449	-0.110521
335	952530													8.951385	0.397566	4.010919	0.397236	-0.850738	-0.344163	0.037337	-0.359729	0.932310	-0.916957	-0.383196	-0.111133
336	952696													8.912579	0.387527	4.008904	0.399694	-0.849822	-0.343580	0.037581	-0.359315	0.932459	-0.915878	-0.385610	-0.111679
337	952863													8.999478	0.396400	3.975448	0.402077	-0.848921	-0.343025	0.037819	-0.358925	0.932600	-0.914824	-0.387950	-0.112210
338	953030													9.039968	0.379798	3.951329	0.404859	-0.847686	-0.342810	0.038085	-0.358951	0.932579	-0.913586	-0.390619	-0.113040
339	953196													9.023420	0.376492	4.057160	0.407957	-0.846356	-0.342421	0.038348	-0.358835	0.932613	-0.912195	-0.393597	-0.113933
340	953363													8.986935	0.380188	4.065554	0.411156	-0.844954	-0.342058	0.038647	-0.358747	0.932634	-0.910745	-0.396678	-0.114846
341	953530													8.982334	0.396490	4.098112	0.414522	-0.843461	-0.341681	0.038944	-0.358672	0.932651	-0.909206	-0.399911	-0.115829
342	953696													8.909165	0.376752	4.034953	0.417710	-0.841985	-0.341438	0.039225	-0.358731	0.932617	-0.907733	-0.402956	-0.116818
343	953863													9.105161	0.413058	3.990966	0.421092	-0.840342	-0.341331	0.039469	-0.358990	0.932507	-0.906159	-0.406143	-0.118000
344	954030													9.111263	0.406599	4.021661	0.425162	-0.838470	-0.340890	0.039694	-0.358990	0.932497	-0.904247	-0.409993	-0.119347
345	954196													9.035039	0.434973	4.124596	0.429905	-0.836266	-0.340354	0.039966	-0.358972	0.932492	-0.901989	-0.414486	-0.120902
346	954363													8.875898	0.393588	4.164377	0.434551	-0.834111	-0.339740	0.040106	-0.358922	0.932505	-0.899754	-0.418847	-0.122517
347	954530													9.117459	0.443016	4.078024	0.439477	-0.831827	-0.339005	0.040246	-0.358792	0.932550	-0.897352	-0.423477	-0.124203
348	954696													9.050139	0.432360	4.169074	0.445487	-0.829029	-0.338012	0.040345	-0.358572	0.932630	-0.894379	-0.429111	-0.126292
349	954863													8.839801	0.420042	4.375587	0.451913	-0.826021	-0.336845	0.040513	-0.358208	0.932762	-0.891142	-0.435174	-0.128414
350	955030													8.875242	0.412509	4.298374	0.458324	-0.822923	-0.335763	0.040779	-0.357909	0.932865	-0.887849	-0.441247	-0.130480
351	955196													8.955990	0.446632	4.442959	0.465925	-0.818966	-0.334977	0.041174	-0.358102	0.932774	-0.883866	-0.448395	-0.133129
352	955363													8.857920	0.479051	4.544343	0.474091	-0.814710	-0.333894	0.041581	-0.358079	0.932765	-0.879494	-0.456099	-0.135885
353	955530													8.724838	0.469659	4.545860	0.482693	-0.810342	-0.332194	0.041954	-0.357478	0.932979	-0.874784	-0.464279	-0.138555
354	955696													8.725749	0.424890	4.466446	0.490937	-0.806043	-0.330570	0.042264	-0.356962	0.933162	-0.870169	-0.472095	-0.141180
355	955863													8.836118	0.468908	4.691002	0.499973	-0.801362	-0.328399	0.042403	-0.356089	0.933489	-0.865002	-0.480644	-0.144055
356	956030													8.650836	0.442055	4.910206	0.509835	-0.796164	-0.325869	0.042489	-0.355031	0.933888	-0.859222	-0.489975	-0.147179
357	956196													8.419011	0.433187	5.135484	0.520041	-0.790574	-0.323342	0.042676	-0.354036	0.934258	-0.853074	-0.499651	-0.150375
358	956363													8.309758	0.443178	5.162187	0.530163	-0.784815	-0.320926	0.042815	-0.353235	0.934554	-0.846814	-0.509206	-0.153670
359	956530													8.450350	0.437818	5.170067	0.540390	-0.778786	-0.318545	0.042758	-0.352677	0.934768	-0.840328	-0.518760	-0.157284
360	956696													8.206488	0.396748	5.272535	0.550738	-0.772566	-0.315957	0.042629	-0.352009	0.935025	-0.833589	-0.528423	-0.160931
361	956863													8.085769	0.392747	5.465858	0.560768	-0.766331	-0.313490	0.042425	-0.351532	0.935214	-0.826885	-0.537738	-0.164617
362	957030													7.967461	0.375201	5.647704	0.570561	-0.760030	-0.311150	0.042298	-0.351173	0.935355	-0.820165	-0.546838	-0.168218
363	957196													7.924315	0.357458	5.687420	0.579618	-0.753993	-0.309093	0.042073	-0.351112	0.935388	-0.813802	-0.555172	-0.171788
364	957363													8.006343	0.333531	5.551504	0.588674	-0.747694	-0.307272	0.041936	-0.351354	0.935303	-0.807282	-0.563474	-0.175478
365	957530													7.809902	0.374658	5.896423	0.597843	-0.741192	-0.305317	0.041811	-0.351528	0.935243	-0.800522	-0.571894	-0.179169
366	957696													7.696637	0.409333	6.018984	0.606763	-0.734704	-0.303396	0.041807	-0.351661	0.935193	-0.793783	-0.580125	-0.182659
367	957863													7.628399	0.400711	6.044502	0.615293	-0.728435	-0.301325	0.041737	-0.351608	0.935216	-0.787193	-0.588008	-0.185939
368	958030													7.661584	0.374374	6.116341	0.623662	-0.722171	-0.299191	0.041655	-0.351500	0.935261	-0.780584	-0.595749	-0.189135
369	958196													7.552788	0.345914	6.259522	0.632134	-0.715679	-0.297001	0.041609	-0.351391	0.935304	-0.773741	-0.603595	-0.192347
370	958363													7.322345	0.355781	6.403087	0.640147	-0.709439	-0.294801	0.041615	-0.351145	0.935396	-0.767124	-0.611059	-0.195261
371	958530													7.408944	0.398671	6.358825	0.647360	-0.703717	-0.292758	0.041687	-0.350838	0.935508	-0.761044	-0.617814	-0.197783
372	958696													7.434509	0.429684	6.311690	0.654640	-0.697845	-0.290618	0.041742	-0.350488	0.935637	-0.754788	-0.624636	-0.200313
373	958863													7.378036	0.406132	6.420103	0.662091	-0.691695	-0.288432	0.041836	-0.350157	0.935756	-0.748255	-0.631623	-0.202898
374	959030													7.241508	0.371730	6.531973	0.669332	-0.685604	-0.286257	0.042030	-0.349732	0.935906	-0.741774	-0.638463	-0.205271
375	959196													7.121432	0.397837	6.695810	0.676176	-0.679612	-0.284453	0.042451	-0.349515	0.935969	-0.735516	-0.644955	-0.207484
376	959363													7.135384	0.420979	6.656270	0.682508	-0.673927	-0.282852	0.042988	-0.349317	0.936018	-0.729613	-0.650999	-0.209441
377	959530													7.168475	0.426862	6.633345	0.688967	-0.668037	-0.281159	0.043540	-0.349068	0.936085	-0.723483	-0.657174	-0.211410
378	959696													7.003184	0.437352	6.758303	0.695302	-0.662152	-0.279480	0.044074	-0.348845	0.936144	-0.717365	-0.663221	-0.213369
379	959863													6.930208	0.427943	6.834107	0.701260	-0.656578	-0.277740	0.044576	-0.348443	0.936269	-0.711511	-0.668949	-0.215082
380	960030													6.870284	0.443463	6.848193	0.706868	-0.651282	-0.275988	0.044976	-0.348001	0.936415	-0.705914	-0.674334	-0.216699
381	960196													6.949886	0.422862	6.824144	0.712300	-0.646102	-0.274190	0.045343	-0.347477	0.936591	-0.700409	-0.679567	-0.218212
382	960363													6.870057	0.418098	6.967820	0.717660	-0.640918	-0.272374	0.045756	-0.346879	0.936793	-0.694889	-0.684762	-0.219615
383	960530													6.781173	0.412450	7.038007	0.722841	-0.635854	-0.270539	0.046179	-0.346185	0.937029	-0.689470	-0.689816	-0.220873
384	960696													6.804950	0.403972	7.032838	0.727866	-0.630867	-0.268735	0.046658	-0.345430	0.937284	-0.684131	-0.694755	-0.221992
385	960863													6.807475	0.446129	7.016818	0.733147	-0.625551	-0.266798	0.047176	-0.344585	0.937569	-0.678432	-0.699963	-0.223121
386	961030													6.757724	0.422740	7.106775	0.738613	-0.619942	-0.264807	0.047774	-0.343689	0.937867	-0.672435	-0.705372	-0.224236
387	961196													6.598875	0.417357	7.285660	0.744291	-0.613970	-0.262816	0.048485	-0.342809	0.938153	-0.666094	-0.711001	-0.225381
388	961363													6.494694	0.452294	7.414926	0.749801	-0.608030	-0.260957	0.049346	-0.341910	0.938436	-0.659821	-0.716517	-0.226361
389	961530													6.387028	0.484597	7.510617	0.755250	-0.602058	-0.259083	0.050288	-0.340891	0.938757	-0.653505	-0.722025	-0.227182
390	961696													6.340099	0.513879	7.572762	0.760517	-0.596168	-0.257287	0.051274	-0.339867	0.939075	-0.647290	-0.727375	-0.227907
391	961863													6.369969	0.520045	7.531788	0.765724	-0.590217	-0.255558	0.052302	-0.338885	0.939373	-0.641039	-0.732667	-0.228623
392	962030													6.276515	0.510189	7.557198	0.770924	-0.584146	-0.253870	0.053394	-0.337911	0.939662	-0.634685	-0.737963	-0.229314
393	962196													6.253192	0.529953	7.510355	0.776141	-0.577914	-0.252231	0.054555	-0.336968	0.939934	-0.628195	-0.743282	-0.230006
394	962363													6.032402	0.537274	7.594962	0.781642	-0.571238	-0.250446	0.055763	-0.335922	0.940238	-0.621230	-0.748894	-0.230717
395	962530													5.894697	0.518665	7.619182	0.786813	-0.564807	-0.248834	0.057032	-0.334912	0.940522	-0.614550	-0.754207	-0.231301
396	962696													5.915102	0.545895	7.578763	0.791785	-0.558426	-0.247460	0.058459	-0.333999	0.940759	-0.607995	-0.759345	-0.231810
397	962863													5.928789	0.598989	7.574734	0.797189	-0.551233	-0.246235	0.060090	-0.333386	0.940873	-0.600732	-0.764851	-0.232648
398	963030													5.796877	0.675226	7.779450	0.803056	-0.543264	-0.244879	0.061616	-0.333035	0.940899	-0.592710	-0.770683	-0.233972
399	963196													5.550587	0.628108	8.066751	0.808508	-0.535669	-0.243666	0.063137	-0.332710	0.940913	-0.585088	-0.776121	-0.235178
400	963363													5.609228	0.637744	8.010808	0.813242	-0.528886	-0.242728	0.064738	-0.332298	0.940950	-0.578314	-0.780934	-0.236000
401	963530													5.557294	0.626489	8.093524	0.817762	-0.522366	-0.241660	0.066162	-0.331772	0.941037	-0.571741	-0.785533	-0.236750
402	963696													5.488959	0.603773	8.087363	0.821818	-0.516452	-0.240609	0.067420	-0.331188	0.941153	-0.565747	-0.789678	-0.237357
403	963863													5.450233	0.640388	8.117745	0.825666	-0.510680	-0.239753	0.068711	-0.330782	0.941202	-0.559959	-0.793593	-0.238026
404	964030													5.395349	0.677909	8.179201	0.829255	-0.505189	-0.238999	0.070008	-0.330377	0.941249	-0.554468	-0.797267	-0.238600
405	964196													5.409252	0.722267	8.197675	0.832708	-0.499808	-0.238306	0.071302	-0.330005	0.941282	-0.549102	-0.800805	-0.239161
406	964363													5.305414	0.670040	8.241808	0.836044	-0.494538	-0.237618	0.072561	-0.329621	0.941321	-0.543843	-0.804227	-0.239694
407	964530													5.284495	0.713675	8.252904	0.839188	-0.489427	-0.237119	0.073934	-0.329288	0.941330	-0.538793	-0.807484	-0.240149
408	964696													5.196246	0.753517	8.376535	0.842193	-0.484420	-0.236746	0.075346	-0.329041	0.941305	-0.533886	-0.810598	-0.240617
409	964863													5.134186	0.785646	8.353564	0.844828	-0.479958	-0.236446	0.076641	-0.328808	0.941282	-0.529521	-0.813343	-0.241001
410	965030													5.282287	0.799556	8.222469	0.847573	-0.475256	-0.236116	0.077939	-0.328628	0.941238	-0.524924	-0.816171	-0.241495
411	965196													5.079549	0.901180	8.386623	0.850375	-0.470443	-0.235680	0.079115	-0.328501	0.941184	-0.520195	-0.819006	-0.242130
412	965363													5.077688	0.860677	8.335712	0.853059	-0.465765	-0.235271	0.080246	-0.328413	0.941119	-0.515607	-0.821710	-0.242780
413	965530													5.000437	0.895966	8.362582	0.855763	-0.461041	-0.234758	0.081250	-0.328361	0.941051	-0.510949	-0.824391	-0.243540
414	965696													4.970140	0.864813	8.371542	0.858413	-0.456457	-0.234039	0.082038	-0.328215	0.941034	-0.506357	-0.826996	-0.244297
415	965863													4.956138	0.867604	8.399369	0.861006	-0.451944	-0.233270	0.082760	-0.328045	0.941030	-0.501816	-0.829538	-0.245046
416	966030													4.952103	0.870850	8.363229	0.863525	-0.447477	-0.232569	0.083514	-0.327913	0.941009	-0.497343	-0.832008	-0.245790
417	966196													4.914690	0.852517	8.459126	0.866088	-0.442830	-0.231932	0.084329	-0.327889	0.940945	-0.492727	-0.834500	-0.246638
418	966363													4.806570	0.864421	8.515450	0.868588	-0.438236	-0.231311	0.085131	-0.327885	0.940874	-0.488168	-0.836924	-0.247489
419	966530													4.772325	0.878420	8.519711	0.871005	-0.433723	-0.230727	0.085942	-0.327887	0.940800	-0.483699	-0.839270	-0.248317
420	966696													4.752668	0.900326	8.492015	0.873472	-0.429151	-0.229949	0.086609	-0.327807	0.940767	-0.479110	-0.841649	-0.249162
421	966863													4.731587	0.923711	8.553988	0.875969	-0.424450	-0.229174	0.087312	-0.327735	0.940726	-0.474400	-0.844057	-0.250026
422	967030													4.666627	0.922684	8.579032	0.878465	-0.419689	-0.228386	0.088003	-0.327695	0.940676	-0.469632	-0.846450	-0.250934
423	967196													4.646576	0.957397	8.639458	0.880981	-0.414843	-0.227546	0.088653	-0.327674	0.940622	-0.464772	-0.848843	-0.251897
424	967363													4.504618	0.931926	8.673850	0.883455	-0.410013	-0.226706	0.089255	-0.327732	0.940545	-0.459935	-0.851164	-0.252941
425	967530													4.461131	0.927968	8.679803	0.885888	-0.405222	-0.225825	0.089804	-0.327786	0.940474	-0.455123	-0.853435	-0.253991
426	967696													4.458150	0.972714	8.678467	0.888311	-0.400478	-0.224767	0.090193	-0.327763	0.940445	-0.450298	-0.855680	-0.255035
427	967863													4.382685	0.940237	8.753451	0.890720	-0.395730	-0.223642	0.090500	-0.327764	0.940415	-0.445452	-0.857886	-0.256133
428	968030													4.317804	0.936190	8.810466	0.893089	-0.390985	-0.222537	0.090803	-0.327816	0.940368	-0.440621	-0.860039	-0.257266
429	968197													4.256009	0.939983	8.865204	0.895355	-0.386392	-0.221451	0.091060	-0.327909	0.940310	-0.435944	-0.862077	-0.258411
430	968363													4.167917	0.926112	8.894338	0.897582	-0.381827	-0.220349	0.091284	-0.328024	0.940249	-0.431292	-0.864065	-0.259574
431	968530													4.101029	0.951059	8.907513	0.899644	-0.377502	-0.219391	0.091556	-0.328196	0.940162	-0.426916	-0.865898	-0.260697
432	968697													3.998299	0.940840	8.927495	0.901648	-0.373274	-0.218398	0.091742	-0.328417	0.940067	-0.422628	-0.867646	-0.261871
433	968863													3.942411	0.959350	8.961483	0.903588	-0.369134	-0.217413	0.091933	-0.328595	0.939986	-0.418421	-0.869348	-0.262980
434	969030													3.863819	0.938137	9.016200	0.905446	-0.365128	-0.216447	0.092101	-0.328780	0.939905	-0.414349	-0.870968	-0.264063
435	969197													3.949877	0.980271	8.991746	0.907203	-0.361367	-0.215398	0.092193	-0.328789	0.939893	-0.410467	-0.872532	-0.264963
436	969363													3.853414	0.971690	9.014556	0.908894	-0.357805	-0.214212	0.092109	-0.328739	0.939918	-0.406727	-0.874017	-0.265832
437	969530													3.759988	0.938751	9.057885	0.910530	-0.354369	-0.212975	0.091934	-0.328692	0.939952	-0.403093	-0.875434	-0.266705
438	969697													3.795279	0.990673	9.039799	0.912060	-0.351050	-0.211920	0.091881	-0.328708	0.939952	-0.399630	-0.876764	-0.267546
439	969863													3.656311	0.998796	9.129279	0.913622	-0.347670	-0.210764	0.091739	-0.328743	0.939953	-0.396080	-0.878097	-0.268451
440	970030													3.545645	1.022453	9.160702	0.915180	-0.344331	-0.209481	0.091523	-0.328624	0.940016	-0.392517	-0.879456	-0.269236
441	970197													3.473673	1.010349	9.141465	0.916711	-0.341049	-0.208148	0.091309	-0.328348	0.940133	-0.388977	-0.880837	-0.269860
442	970363													3.365301	0.928306	9.116849	0.918189	-0.337963	-0.206664	0.090913	-0.327994	0.940295	-0.385569	-0.882157	-0.270435
443	970530													3.423162	0.909437	9.104807	0.919533	-0.335163	-0.205243	0.090485	-0.327654	0.940455	-0.382454	-0.883351	-0.270962
444	970697													3.499498	0.904922	9.095547	0.920651	-0.332850	-0.203989	0.090050	-0.327374	0.940594	-0.379858	-0.884329	-0.271424
445	970863													3.370658	0.884620	9.223976	0.921492	-0.331143	-0.202970	0.089630	-0.327174	0.940704	-0.377914	-0.885043	-0.271807
446	971030													3.253664	0.874203	9.282720	0.922132	-0.329885	-0.202109	0.089199	-0.327048	0.940789	-0.376452	-0.885559	-0.272156
447	971197													3.425823	0.809740	9.192366	0.922556	-0.329046	-0.201542	0.088869	-0.327083	0.940808	-0.375490	-0.885859	-0.272510
448	971363													3.435181	0.831058	9.185533	0.922795	-0.328519	-0.201306	0.088718	-0.327263	0.940759	-0.374938	-0.885988	-0.272851
449	971530													3.360574	0.883194	9.284559	0.922873	-0.328317	-0.201279	0.088658	-0.327490	0.940686	-0.374760	-0.885979	-0.273124
450	971697													3.414320	0.835032	9.212578	0.922778	-0.328431	-0.201530	0.088771	-0.327743	0.940587	-0.374968	-0.885843	-0.273279
451	971863													3.504192	0.810528	9.245323	0.922581	-0.328729	-0.201943	0.088995	-0.327988	0.940481	-0.375398	-0.885642	-0.273340
452	972030													3.414958	0.879218	9.205451	0.922274	-0.329171	-0.202626	0.089429	-0.328278	0.940338	-0.376050	-0.885370	-0.273325
453	972197													3.486082	0.860834	9.108521	0.921860	-0.329790	-0.203502	0.090009	-0.328555	0.940186	-0.376926	-0.885037	-0.273198
454	972363													3.488535	0.884842	9.145642	0.921410	-0.330431	-0.204498	0.090686	-0.328876	0.940009	-0.377863	-0.884678	-0.273064
455	972530													3.478431	0.877234	9.221161	0.920982	-0.331097	-0.205347	0.091240	-0.329114	0.939872	-0.378771	-0.884341	-0.272899
456	972697													3.459345	0.861040	9.089296	0.920570	-0.331813	-0.206036	0.091648	-0.329279	0.939774	-0.379672	-0.884011	-0.272714
457	972863													3.614869	0.842697	9.020190	0.920203	-0.332449	-0.206648	0.092024	-0.329394	0.939697	-0.380470	-0.883729	-0.272516
458	973030													3.682105	0.877192	9.006127	0.919838	-0.333054	-0.207299	0.092416	-0.329583	0.939593	-0.381258	-0.883431	-0.272384
459	973197													3.658811	0.909260	8.967473	0.919478	-0.333633	-0.207962	0.092807	-0.329824	0.939470	-0.382029	-0.883122	-0.272302
460	973363													3.657378	0.925898	9.002087	0.919198	-0.334121	-0.208420	0.093076	-0.329927	0.939407	-0.382638	-0.882900	-0.272169
461	973530													3.855606	0.902058	8.961121	0.918967	-0.334541	-0.208761	0.093282	-0.329950	0.939378	-0.383141	-0.882732	-0.272007
462	973697													3.730264	0.931963	8.969939	0.918798	-0.334785	-0.209114	0.093559	-0.329969	0.939344	-0.383479	-0.882632	-0.271853
463	973863													3.812543	0.917042	8.958678	0.918684	-0.334944	-0.209360	0.093811	-0.329851	0.939360	-0.383691	-0.882616	-0.271607
464	974030													3.922844	0.900998	8.969469	0.918576	-0.335104	-0.209580	0.094103	-0.329580	0.939426	-0.383879	-0.882656	-0.271210
465	974197													4.131222	0.844785	8.965534	0.918438	-0.335476	-0.209587	0.094178	-0.329159	0.939566	-0.384189	-0.882672	-0.270718
466	974363													3.779202	0.937538	9.130972	0.918195	-0.335952	-0.209892	0.094442	-0.328926	0.939621	-0.384706	-0.882578	-0.270291
467	974530													3.696397	0.984133	9.125842	0.917933	-0.336432	-0.210266	0.094748	-0.328758	0.939649	-0.385255	-0.882458	-0.269902
468	974697													3.905983	0.951661	8.957357	0.917718	-0.336900	-0.210457	0.094915	-0.328485	0.939728	-0.385727	-0.882381	-0.269480
469	974863													3.812716	0.953210	9.165576	0.917411	-0.337610	-0.210659	0.094983	-0.328296	0.939787	-0.386440	-0.882180	-0.269115
470	975030													3.609199	0.961388	9.221855	0.916962	-0.338613	-0.211003	0.095072	-0.328184	0.939817	-0.387482	-0.881837	-0.268739
471	975197													3.503963	0.937321	9.163796	0.916355	-0.340027	-0.211367	0.095055	-0.328065	0.939860	-0.388920	-0.881337	-0.268303
472	975363													3.438191	0.921377	9.138499	0.915576	-0.341771	-0.211927	0.095101	-0.328031	0.939868	-0.390738	-0.880675	-0.267834
473	975530													3.626479	0.913735	9.001893	0.914486	-0.344122	-0.212827	0.095260	-0.328101	0.939827	-0.393243	-0.879733	-0.267263
474	975697													3.417500	0.958020	9.044269	0.913099	-0.347030	-0.214055	0.095526	-0.328300	0.939731	-0.396389	-0.878516	-0.266620
475	975863													3.214961	0.919575	9.170859	0.911344	-0.350626	-0.215671	0.095858	-0.328759	0.939537	-0.400330	-0.876914	-0.266002
476	976030													3.295983	0.952659	9.146929	0.908942	-0.355397	-0.217985	0.096442	-0.329436	0.939239	-0.405615	-0.874737	-0.265163
477	976197													3.481871	1.049082	9.222686	0.905925	-0.361446	-0.220581	0.096890	-0.330166	0.938937	-0.412204	-0.871979	-0.264085
478	976363													3.524693	1.080371	9.196839	0.902235	-0.368766	-0.223568	0.097344	-0.330893	0.938634	-0.420113	-0.868632	-0.262646
479	976530													3.570802	1.081652	9.117293	0.898205	-0.376536	-0.226821	0.097917	-0.331650	0.938307	-0.428532	-0.865002	-0.261020
480	976697													3.394878	0.954921	9.046843	0.893737	-0.384639	-0.230842	0.098950	-0.332881	0.937763	-0.437543	-0.860955	-0.259448
481	976863													3.716835	0.956291	8.856961	0.888557	-0.394160	-0.234743	0.099474	-0.333978	0.937317	-0.447852	-0.856210	-0.257550
482	977030													4.011917	0.976431	8.847135	0.882781	-0.404752	-0.238480	0.099595	-0.334855	0.936991	-0.459106	-0.850910	-0.255293
483	977197													4.154401	1.046945	8.841473	0.876348	-0.416276	-0.242340	0.099557	-0.335715	0.936688	-0.471278	-0.844991	-0.252760
484	977363													4.359584	1.077097	8.641261	0.869498	-0.428252	-0.246114	0.099255	-0.336619	0.936395	-0.483860	-0.838622	-0.250183
485	977530													4.192727	1.031537	8.695707	0.862306	-0.440216	-0.250276	0.099184	-0.337838	0.935964	-0.496579	-0.831911	-0.247657
486	977697													4.560631	0.927216	8.449247	0.854308	-0.453002	-0.254847	0.099186	-0.339216	0.935465	-0.510216	-0.824452	-0.244864
487	977863													4.992905	0.889380	8.399252	0.846004	-0.465781	-0.259471	0.099166	-0.340700	0.934928	-0.523874	-0.816683	-0.242044
488	978030													5.037230	1.092653	8.335950	0.837357	-0.478887	-0.263629	0.098738	-0.341831	0.934560	-0.537665	-0.808591	-0.238950
489	978197													4.999522	1.013817	8.115664	0.828578	-0.491892	-0.267396	0.097810	-0.343079	0.934200	-0.551264	-0.800212	-0.236155
490	978363													5.327175	0.972315	8.095040	0.819057	-0.505347	-0.271605	0.097046	-0.344557	0.933736	-0.565444	-0.791141	-0.233170
491	978530													5.609544	0.946011	7.984324	0.809014	-0.519023	-0.275881	0.096203	-0.346105	0.933250	-0.579863	-0.781553	-0.230073
492	978697													5.729073	0.947477	7.922960	0.798553	-0.532868	-0.279939	0.095192	-0.347421	0.932865	-0.594350	-0.771590	-0.226710
493	978863													5.836955	0.985859	7.853146	0.787753	-0.546773	-0.283698	0.093946	-0.348525	0.932579	-0.608785	-0.761295	-0.223184
494	979030													5.928679	0.930426	7.863441	0.776477	-0.560675	-0.287625	0.092723	-0.349815	0.932219	-0.623287	-0.750516	-0.219636
495	979197													6.213688	0.919682	7.663195	0.764919	-0.574391	-0.291502	0.091466	-0.351110	0.931856	-0.637599	-0.739457	-0.216034
496	979363													6.370367	0.886893	7.244287	0.753144	-0.587775	-0.295457	0.090328	-0.352472	0.931453	-0.651625	-0.728206	-0.212370
497	979530													6.564101	0.882764	7.130684	0.741446	-0.600470	-0.299489	0.089363	-0.353985	0.930972	-0.665036	-0.717028	-0.208801
498	979697													6.612357	0.893831	7.079079	0.729719	-0.612690	-0.303515	0.088469	-0.355563	0.930456	-0.678000	-0.705823	-0.205257
499	979863													6.716920	0.863784	6.990466	0.718011	-0.624553	-0.307235	0.087434	-0.356980	0.930011	-0.690518	-0.694621	-0.201708
500	980030													6.870883	0.871601	6.816352	0.706181	-0.636296	-0.310542	0.086336	-0.357940	0.929745	-0.702748	-0.683379	-0.197835
501	980197													7.090676	0.841020	6.559252	0.694204	-0.647705	-0.313942	0.085353	-0.359010	0.929423	-0.714700	-0.672005	-0.193942
502	980363													7.271483	0.854517	6.547986	0.682589	-0.658355	-0.317240	0.084454	-0.360128	0.929073	-0.725906	-0.660967	-0.190219
503	980530													7.258194	0.878142	6.475744	0.670702	-0.668998	-0.320314	0.083330	-0.361153	0.928776	-0.737032	-0.649623	-0.186479
504	980697													7.476723	0.851849	6.279814	0.658931	-0.679241	-0.323174	0.082228	-0.362017	0.928538	-0.747696	-0.638416	-0.182692
505	980863													7.544757	0.785268	6.303599	0.647105	-0.689218	-0.325934	0.081071	-0.362881	0.928302	-0.758078	-0.627133	-0.178947
506	981030													7.576704	0.796282	6.278749	0.635480	-0.698813	-0.328367	0.079911	-0.363472	0.928171	-0.767971	-0.616075	-0.175136
507	981197													7.702834	0.819259	6.048641	0.623859	-0.708156	-0.330628	0.078712	-0.363965	0.928081	-0.777563	-0.605016	-0.171323
508	981363													7.805818	0.708066	5.899500	0.612328	-0.716756	-0.333640	0.077784	-0.365342	0.927618	-0.786768	-0.593958	-0.167957
509	981530													7.953045	0.720923	5.646798	0.600858	-0.725304	-0.336011	0.076675	-0.366117	0.927404	-0.795670	-0.583002	-0.164372
510	981697													7.936453	0.785198	5.726582	0.589798	-0.733389	-0.338051	0.075600	-0.366630	0.927290	-0.804004	-0.572470	-0.160794
511	981863													7.962381	0.762959	5.582327	0.578332	-0.741601	-0.339942	0.074311	-0.367077	0.927218	-0.812410	-0.561501	-0.157183
512	982030													8.114292	0.706780	5.495080	0.567099	-0.749016	-0.342598	0.073232	-0.368450	0.926758	-0.820388	-0.550653	-0.154096
513	982197													8.166394	0.668828	5.350036	0.555737	-0.756350	-0.345096	0.072094	-0.369690	0.926354	-0.828226	-0.539689	-0.150922
514	982363													8.315299	0.681137	5.247902	0.544973	-0.763096	-0.347404	0.070941	-0.370887	0.925964	-0.835447	-0.529271	-0.147988
515	982530													8.278820	0.689850	5.226178	0.534154	-0.769778	-0.349458	0.069735	-0.371840	0.925674	-0.842506	-0.518822	-0.144939
516	982697													8.383042	0.697115	5.169476	0.523406	-0.776088	-0.351758	0.068672	-0.373058	0.925263	-0.849312	-0.508444	-0.141965
517	982863													8.463980	0.628854	4.945976	0.512883	-0.782061	-0.354021	0.067713	-0.374253	0.924851	-0.855784	-0.498312	-0.138992
518	983030													8.421766	0.598323	4.852694	0.502865	-0.787229	-0.356929	0.066945	-0.376226	0.924106	-0.861769	-0.488595	-0.136489
519	983197													8.537685	0.645272	4.860916	0.492683	-0.792329	-0.359831	0.066163	-0.378196	0.923358	-0.867690	-0.478731	-0.133908
520	983363													8.745312	0.730510	4.697428	0.483082	-0.797203	-0.362076	0.065384	-0.379530	0.922866	-0.873130	-0.469494	-0.131220
521	983530													8.730325	0.656179	4.683311	0.473937	-0.801767	-0.364078	0.064605	-0.380688	0.922444	-0.878185	-0.460702	-0.128625
522	983697													8.732863	0.569908	4.475760	0.464835	-0.806227	-0.365959	0.063581	-0.381865	0.922028	-0.883112	-0.451859	-0.126243
523	983863													8.772678	0.598230	4.403691	0.455667	-0.810453	-0.368149	0.062559	-0.383402	0.921461	-0.887949	-0.442910	-0.124002
524	984030													8.817764	0.648402	4.361584	0.446879	-0.814477	-0.370035	0.061465	-0.384703	0.920992	-0.892480	-0.434316	-0.121854
525	984197													8.869741	0.646653	4.354514	0.438956	-0.818299	-0.371085	0.060350	-0.385217	0.920850	-0.896480	-0.426608	-0.119709
526	984363													8.799853	0.621774	4.249579	0.431362	-0.821873	-0.372092	0.059354	-0.385691	0.920717	-0.900225	-0.419247	-0.117591
527	984530													8.738450	0.628386	4.100991	0.423555	-0.825250	-0.373582	0.058274	-0.386725	0.920352	-0.903994	-0.411590	-0.115709
528	984697													8.877157	0.601854	4.121022	0.415481	-0.828509	-0.375431	0.057210	-0.388123	0.919830	-0.907801	-0.403651	-0.113859
529	984864													8.946090	0.592606	4.010606	0.407710	-0.831681	-0.376933	0.056142	-0.389188	0.919446	-0.911384	-0.396029	-0.111983
530	985030													9.064832	0.623282	3.985451	0.400602	-0.834669	-0.377950	0.055072	-0.389815	0.919245	-0.914596	-0.389066	-0.110194
531	985197													8.994792	0.573097	3.917145	0.394158	-0.837476	-0.378515	0.054063	-0.390016	0.919220	-0.917451	-0.382782	-0.108452
532	985364													9.044564	0.523890	3.792490	0.387864	-0.840086	-0.379232	0.053167	-0.390365	0.919124	-0.920182	-0.376658	-0.106744
533	985530													9.012064	0.558567	3.833316	0.381414	-0.842476	-0.380471	0.052276	-0.391268	0.918791	-0.922925	-0.370330	-0.105194
534	985697													9.074426	0.564786	3.651125	0.374502	-0.844880	-0.382003	0.051310	-0.392470	0.918333	-0.925805	-0.363518	-0.103629
535	985864													9.258181	0.553314	3.587984	0.367990	-0.847287	-0.382999	0.050314	-0.393154	0.918095	-0.928467	-0.357120	-0.102047
536	986030													9.255011	0.505183	3.529077	0.362216	-0.849478	-0.383649	0.049444	-0.393508	0.917990	-0.930782	-0.351480	-0.100533
537	986197													9.200323	0.508324	3.485163	0.356710	-0.851626	-0.384046	0.048563	-0.393631	0.917985	-0.932952	-0.346104	-0.099055
538	986364													9.171300	0.465202	3.457234	0.351420	-0.853666	-0.384393	0.047727	-0.393711	0.917994	-0.935001	-0.340947	-0.097615
539	986530													9.216185	0.465222	3.416546	0.346120	-0.855690	-0.384701	0.046953	-0.393734	0.918025	-0.937015	-0.335810	-0.096102
540	986697													9.217223	0.465657	3.347878	0.341094	-0.857593	-0.384954	0.046234	-0.393712	0.918071	-0.938892	-0.330946	-0.094643
541	986864													9.073348	0.491424	3.314099	0.335419	-0.859597	-0.385470	0.045538	-0.393901	0.918024	-0.940968	-0.325476	-0.092977
542	987030													9.251385	0.486000	3.079486	0.329214	-0.861888	-0.385703	0.044702	-0.393789	0.918113	-0.943197	-0.319497	-0.091113
543	987197													9.516326	0.428383	3.006062	0.323919	-0.864039	-0.385374	0.043970	-0.393147	0.918424	-0.945062	-0.314440	-0.089356
544	987364													9.494783	0.423375	3.049600	0.319656	-0.865968	-0.384603	0.043387	-0.392096	0.918901	-0.946540	-0.310419	-0.087764
545	987530													9.407127	0.408042	2.988302	0.315793	-0.867745	-0.383789	0.042924	-0.391008	0.919386	-0.947857	-0.306809	-0.086231
546	987697													9.380096	0.436437	2.985799	0.312113	-0.869494	-0.382838	0.042475	-0.389795	0.919922	-0.949095	-0.303381	-0.084728
547	987864													9.364820	0.406506	2.972852	0.308619	-0.871175	-0.381848	0.042050	-0.388556	0.920465	-0.950256	-0.300130	-0.083283
548	988030													9.417355	0.388920	2.863984	0.305171	-0.872837	-0.380823	0.041680	-0.387274	0.921022	-0.951385	-0.296942	-0.081805
549	988197													9.512214	0.389851	2.835294	0.302114	-0.874390	-0.379697	0.041354	-0.385912	0.921608	-0.952374	-0.294133	-0.080431
550	988364													9.459601	0.368965	2.900641	0.299527	-0.875768	-0.378569	0.041076	-0.384581	0.922177	-0.953203	-0.291767	-0.079219
551	988530													9.336831	0.333504	2.913452	0.296624	-0.877161	-0.377627	0.040832	-0.383412	0.922674	-0.954121	-0.289107	-0.077913
552	988697													9.391856	0.354919	2.845939	0.293505	-0.878499	-0.376953	0.040541	-0.382526	0.923055	-0.955097	-0.286204	-0.076658
553	989030													9.544792	0.351655	2.732203	0.287743	-0.880746	-0.376153	0.040038	-0.381358	0.923560	-0.956870	-0.280808	-0.074470
554	989197													9.473991	0.331989	2.709694	0.285242	-0.881661	-0.375914	0.039769	-0.380983	0.923726	-0.957630	-0.278435	-0.073609
555	989364													9.477751	0.329084	2.681661	0.282769	-0.882607	-0.375563	0.039588	-0.380470	0.923946	-0.958371	-0.276131	-0.072644
556	989530													9.545827	0.336088	2.652235	0.280458	-0.883456	-0.375299	0.039345	-0.380081	0.924116	-0.959060	-0.273942	-0.071838
557	989697													9.516573	0.336102	2.609427	0.278225	-0.884238	-0.375119	0.039006	-0.379815	0.924240	-0.959724	-0.271779	-0.071183
558	989864													9.465100	0.331056	2.554808	0.275777	-0.885052	-0.375007	0.038581	-0.379630	0.924334	-0.960447	-0.269378	-0.070547
559	990030													9.512575	0.343610	2.571651	0.273146	-0.885844	-0.375062	0.038161	-0.379603	0.924362	-0.961215	-0.266798	-0.069883
560	990197													9.544960	0.360161	2.516965	0.270510	-0.886624	-0.375129	0.037745	-0.379590	0.924385	-0.961977	-0.264215	-0.069217
561	990364													9.570505	0.364534	2.470512	0.268116	-0.887349	-0.375133	0.037404	-0.379509	0.924432	-0.962660	-0.261887	-0.068562
562	990530													9.545368	0.355519	2.422415	0.265995	-0.887996	-0.375113	0.037098	-0.379413	0.924483	-0.963260	-0.259824	-0.067979
563	990697													9.489973	0.429961	2.549843	0.264008	-0.888582	-0.375128	0.036890	-0.379340	0.924522	-0.963815	-0.257920	-0.067369
564	990864													9.631363	0.443227	2.432996	0.261921	-0.889292	-0.374909	0.036764	-0.378995	0.924668	-0.964389	-0.255973	-0.066573
565	991030													9.634930	0.342021	2.392111	0.260465	-0.889835	-0.374637	0.036520	-0.378672	0.924810	-0.964792	-0.254562	-0.066134
566	991197													9.556777	0.334948	2.453577	0.259317	-0.890262	-0.374418	0.036187	-0.378451	0.924914	-0.965114	-0.253395	-0.065923
567	991364													9.534079	0.345455	2.461739	0.258321	-0.890675	-0.374124	0.035961	-0.378134	0.925052	-0.965389	-0.252415	-0.065650
568	991530													9.525248	0.318279	2.461885	0.257533	-0.891051	-0.373770	0.035806	-0.377752	0.925214	-0.965606	-0.251656	-0.065379
569	991697													9.518684	0.318671	2.476626	0.256967	-0.891347	-0.373454	0.035784	-0.377390	0.925363	-0.965757	-0.251151	-0.065081
570	991864													9.517043	0.325108	2.448769	0.256600	-0.891551	-0.373220	0.035764	-0.377126	0.925471	-0.965856	-0.250823	-0.064885
571	992030													9.510583	0.312581	2.440069	0.256475	-0.891685	-0.372985	0.035729	-0.376883	0.925572	-0.965890	-0.250713	-0.064802
572	992197													9.516578	0.340137	2.489309	0.256575	-0.891719	-0.372837	0.035745	-0.376731	0.925633	-0.965863	-0.250821	-0.064785
573	992364													9.467490	0.352024	2.646504	0.256760	-0.891729	-0.372684	0.035805	-0.376571	0.925696	-0.965812	-0.251025	-0.064760
574	992530													9.432830	0.339328	2.681419	0.256721	-0.891784	-0.372581	0.035883	-0.376440	0.925746	-0.965819	-0.251027	-0.064640
575	992697													9.438491	0.346705	2.563429	0.256457	-0.891858	-0.372584	0.035887	-0.376424	0.925752	-0.965889	-0.250787	-0.064530
576	992864													9.528859	0.366305	2.511419	0.256115	-0.891871	-0.372789	0.035861	-0.376620	0.925674	-0.965981	-0.250447	-0.064475
577	993030													9.524765	0.440047	2.506247	0.255851	-0.891894	-0.372914	0.035962	-0.376705	0.925635	-0.966047	-0.250235	-0.064307
578	993197													9.560005	0.409398	2.522415	0.255641	-0.891953	-0.372918	0.036110	-0.376656	0.925649	-0.966097	-0.250100	-0.064081
579	993364													9.510743	0.363868	2.538832	0.255409	-0.891980	-0.373013	0.036245	-0.376704	0.925624	-0.966154	-0.249932	-0.063884
580	993530													9.509712	0.411616	2.544067	0.254994	-0.892058	-0.373109	0.036274	-0.376768	0.925597	-0.966262	-0.249556	-0.063715
581	993697													9.518912	0.368169	2.511019	0.254436	-0.892164	-0.373237	0.036296	-0.376857	0.925560	-0.966408	-0.249042	-0.063504
582	993864													9.520393	0.391846	2.476270	0.254004	-0.892264	-0.373292	0.036462	-0.376842	0.925560	-0.966516	-0.248707	-0.063186
583	994030													9.468589	0.410820	2.471220	0.253654	-0.892382	-0.373249	0.036703	-0.376711	0.925603	-0.966598	-0.248482	-0.062801
584	994197													9.456799	0.376387	2.488479	0.253130	-0.892492	-0.373341	0.036970	-0.376703	0.925596	-0.966726	-0.248099	-0.062359
585	994364													9.495040	0.374334	2.459990	0.252393	-0.892622	-0.373528	0.037248	-0.376777	0.925555	-0.966908	-0.247517	-0.061847
586	994530													9.566174	0.392295	2.416826	0.251760	-0.892700	-0.373768	0.037542	-0.376909	0.925489	-0.967061	-0.247033	-0.061377
587	994697													9.557314	0.408372	2.432601	0.251406	-0.892752	-0.373884	0.037864	-0.376924	0.925470	-0.967141	-0.246825	-0.060958
588	994864													9.534771	0.390937	2.394239	0.251145	-0.892801	-0.373941	0.038176	-0.376886	0.925473	-0.967196	-0.246704	-0.060570
589	995030													9.559249	0.418634	2.412412	0.250948	-0.892868	-0.373915	0.038535	-0.376754	0.925511	-0.967233	-0.246664	-0.060139
590	995197													9.534824	0.388318	2.390814	0.250833	-0.892933	-0.373836	0.038854	-0.376584	0.925567	-0.967250	-0.246688	-0.059766
591	995364													9.581349	0.398869	2.362507	0.250799	-0.892979	-0.373748	0.039125	-0.376422	0.925622	-0.967248	-0.246768	-0.059469
592	995530													9.573353	0.420090	2.415177	0.250994	-0.892973	-0.373632	0.039376	-0.376250	0.925681	-0.967187	-0.247053	-0.059274
593	995697													9.543021	0.404664	2.369888	0.251329	-0.892936	-0.373496	0.039621	-0.376068	0.925745	-0.967090	-0.247465	-0.059137
594	995864													9.542418	0.403720	2.364201	0.251828	-0.892874	-0.373307	0.039794	-0.375859	0.925822	-0.966953	-0.248004	-0.059121
595	996030													9.555928	0.411980	2.434092	0.252501	-0.892749	-0.373153	0.039915	-0.375711	0.925877	-0.966773	-0.248679	-0.059233
596	996197													9.525094	0.415881	2.455003	0.253263	-0.892549	-0.373113	0.040014	-0.375693	0.925880	-0.966570	-0.249421	-0.059434
597	996364													9.502842	0.439993	2.484771	0.254064	-0.892350	-0.373044	0.040110	-0.375647	0.925894	-0.966355	-0.250199	-0.059646
598	996530													9.509179	0.435259	2.474916	0.254870	-0.892145	-0.372986	0.040196	-0.375616	0.925903	-0.966139	-0.250978	-0.059872
599	996697													9.544932	0.434435	2.510714	0.255696	-0.891968	-0.372843	0.040296	-0.375495	0.925948	-0.965917	-0.251785	-0.060070
600	996864													9.464273	0.416183	2.522791	0.256534	-0.891808	-0.372650	0.040393	-0.375323	0.926013	-0.965691	-0.252607	-0.060261
601	997030													9.487305	0.425139	2.558089	0.257212	-0.891752	-0.372317	0.040514	-0.374990	0.926143	-0.965505	-0.253299	-0.060323
602	997197													9.540003	0.442740	2.492023	0.257906	-0.891728	-0.371894	0.040639	-0.374563	0.926310	-0.965315	-0.254014	-0.060363
603	997364													9.567090	0.400588	2.432930	0.258870	-0.891466	-0.371852	0.040741	-0.374555	0.926309	-0.965053	-0.254943	-0.060642
604	997530													9.547680	0.401601	2.462284	0.260157	-0.891123	-0.371777	0.040847	-0.374534	0.926313	-0.964702	-0.256172	-0.061038
605	997697													9.480302	0.439036	2.631143	0.261561	-0.890729	-0.371736	0.041099	-0.374517	0.926309	-0.964312	-0.257564	-0.061351
606	997864													9.543694	0.529631	2.632085	0.262755	-0.890468	-0.371519	0.041520	-0.374257	0.926395	-0.963969	-0.258840	-0.061366
607	998030													9.635529	0.430904	2.485794	0.264355	-0.890058	-0.371366	0.041917	-0.374097	0.926442	-0.963514	-0.260476	-0.061586
608	998197													9.613987	0.354212	2.520577	0.266606	-0.889370	-0.371405	0.042150	-0.374225	0.926379	-0.962884	-0.262633	-0.062283
609	998364													9.545615	0.410195	2.616360	0.269382	-0.888575	-0.371306	0.042337	-0.374259	0.926357	-0.962102	-0.265264	-0.063199
610	998530													9.469814	0.467623	2.737609	0.272479	-0.887713	-0.371108	0.042636	-0.374184	0.926374	-0.961217	-0.268240	-0.064109
611	998697													9.405272	0.463970	2.773917	0.275596	-0.886867	-0.370829	0.043091	-0.373982	0.926434	-0.960307	-0.271301	-0.064852
612	998864													9.427304	0.453100	2.701053	0.278689	-0.886022	-0.370536	0.043582	-0.373756	0.926503	-0.959392	-0.274355	-0.065547
613	999030													9.504828	0.407295	2.607675	0.282112	-0.885047	-0.370275	0.044050	-0.373595	0.926545	-0.958370	-0.277701	-0.066409
614	999197													9.510909	0.382538	2.665437	0.285941	-0.883894	-0.370094	0.044492	-0.373557	0.926540	-0.957214	-0.281402	-0.067489
615	999364													9.532491	0.445487	2.752648	0.290108	-0.882630	-0.369868	0.045010	-0.373477	0.926547	-0.955935	-0.285446	-0.068622
616	999530													9.486330	0.466538	2.863366	0.294515	-0.881264	-0.369642	0.045606	-0.373396	0.926550	-0.954558	-0.289741	-0.069780
617	999697													9.382750	0.419149	2.853984	0.298879	-0.879843	-0.369524	0.046172	-0.373437	0.926506	-0.953173	-0.293975	-0.070988
618	999864													9.488523	0.418370	2.747270	0.303206	-0.878311	-0.369643	0.046673	-0.373750	0.926354	-0.951781	-0.298128	-0.072330
619	1000030													9.505163	0.458563	2.809683	0.308054	-0.876480	-0.369981	0.047210	-0.374331	0.926093	-0.950197	-0.302753	-0.073936
620	1000197													9.484049	0.488791	2.856993	0.313001	-0.874539	-0.370420	0.047862	-0.374998	0.925789	-0.948546	-0.307502	-0.075517
621	1000364													9.325578	0.434929	2.974838	0.317419	-0.872470	-0.371540	0.048593	-0.376322	0.925214	-0.947040	-0.311735	-0.077055
622	1000530													9.432682	0.453985	2.971834	0.321535	-0.870630	-0.372315	0.049089	-0.377339	0.924773	-0.945624	-0.315623	-0.078589
623	1000697													9.510656	0.488711	3.078707	0.326213	-0.868701	-0.372751	0.049542	-0.378069	0.924451	-0.943997	-0.320035	-0.080294
624	1000864													9.357902	0.478717	3.150299	0.331132	-0.866690	-0.373096	0.049981	-0.378737	0.924154	-0.942260	-0.324665	-0.082094
625	1001030													9.326657	0.446810	3.058389	0.336161	-0.864615	-0.373414	0.050456	-0.379385	0.923862	-0.940452	-0.329407	-0.083909
626	1001197													9.307437	0.515486	3.176825	0.341205	-0.862228	-0.374354	0.050957	-0.380702	0.923293	-0.938607	-0.334108	-0.085961
627	1001364													9.299304	0.570529	3.283566	0.346219	-0.859846	-0.375229	0.051278	-0.382023	0.922729	-0.936751	-0.338707	-0.088172
628	1001531													9.240532	0.576289	3.392072	0.351467	-0.857461	-0.375809	0.051647	-0.383050	0.922283	-0.934775	-0.343561	-0.090344
629	1001697													9.152612	0.523982	3.466394	0.356995	-0.855147	-0.375870	0.052190	-0.383496	0.922067	-0.932647	-0.348790	-0.092277
630	1001864													9.112585	0.476620	3.510101	0.362772	-0.852711	-0.375872	0.052766	-0.383906	0.921863	-0.930383	-0.354259	-0.094276
631	1002031													9.206559	0.448101	3.584439	0.368401	-0.850070	-0.376379	0.053393	-0.384839	0.921438	-0.928132	-0.359555	-0.096387
632	1002197													9.265906	0.536319	3.594586	0.374346	-0.847295	-0.376770	0.053898	-0.385745	0.921030	-0.925721	-0.365091	-0.098735
633	1002364													9.107757	0.564407	3.642429	0.380850	-0.844343	-0.376879	0.054325	-0.386460	0.920705	-0.923040	-0.371124	-0.101314
634	1002531													9.013054	0.554294	3.816908	0.387631	-0.841388	-0.376574	0.054697	-0.386799	0.920540	-0.920190	-0.377428	-0.103914
635	1002697													9.032151	0.509057	3.843902	0.394874	-0.838390	-0.375735	0.054927	-0.386695	0.920571	-0.917092	-0.384147	-0.106646
636	1002864													9.039559	0.510915	3.889488	0.402732	-0.835072	-0.374784	0.055273	-0.386522	0.920622	-0.913648	-0.391479	-0.109508
637	1003031													8.977622	0.561889	3.937785	0.410825	-0.831437	-0.374079	0.055689	-0.386652	0.920543	-0.910012	-0.399014	-0.112544
638	1003197													8.881157	0.560593	4.100189	0.419071	-0.827669	-0.373287	0.056065	-0.386756	0.920476	-0.906221	-0.406673	-0.115676
639	1003364													8.748202	0.573519	4.196993	0.427008	-0.823758	-0.372944	0.056636	-0.387261	0.920229	-0.902473	-0.414067	-0.118709
640	1003531													8.770752	0.596607	4.277005	0.434821	-0.819863	-0.372498	0.057038	-0.387744	0.920001	-0.898709	-0.421282	-0.121836
641	1003697													8.896827	0.565985	4.312149	0.443016	-0.815872	-0.371605	0.057473	-0.387801	0.919949	-0.894670	-0.428910	-0.124911
642	1003864													8.835022	0.562842	4.416221	0.451796	-0.811623	-0.370336	0.058011	-0.387512	0.920038	-0.890233	-0.437153	-0.127993
643	1004031													8.646606	0.600210	4.508245	0.460440	-0.807320	-0.369092	0.058569	-0.387254	0.920111	-0.885756	-0.445274	-0.131023
644	1004197													8.533648	0.658900	4.666926	0.468769	-0.803097	-0.367820	0.059011	-0.387003	0.920188	-0.881347	-0.453061	-0.134023
645	1004364													8.572218	0.633218	4.692489	0.476970	-0.798982	-0.366234	0.059367	-0.386448	0.920399	-0.876912	-0.460745	-0.136890
646	1004531													8.644308	0.622102	4.677840	0.485419	-0.794642	-0.364572	0.059782	-0.385852	0.920622	-0.872235	-0.468682	-0.139794
647	1004697													8.561522	0.603855	4.717480	0.493769	-0.790011	-0.363420	0.060279	-0.385819	0.920603	-0.867501	-0.476472	-0.142884
648	1004864													8.469213	0.612598	4.842099	0.501655	-0.785470	-0.362462	0.060732	-0.385986	0.920503	-0.862933	-0.483789	-0.145929
649	1005031													8.532043	0.617709	4.896186	0.509880	-0.780837	-0.360993	0.061207	-0.385646	0.920614	-0.858066	-0.491498	-0.148841
650	1005197													8.396614	0.622738	4.982483	0.518226	-0.776149	-0.359214	0.061775	-0.384946	0.920869	-0.853010	-0.499409	-0.151542
651	1005364													8.199234	0.598035	5.012942	0.525828	-0.771801	-0.357532	0.062221	-0.384306	0.921107	-0.848312	-0.506589	-0.154056
652	1005531													8.451492	0.644002	5.034033	0.533315	-0.767356	-0.356006	0.062610	-0.383891	0.921253	-0.843597	-0.513607	-0.156691
653	1005697													8.377467	0.652714	5.267653	0.541360	-0.762568	-0.354146	0.062948	-0.383264	0.921491	-0.838431	-0.521152	-0.159481
654	1005864													8.242544	0.698639	5.381788	0.549260	-0.757850	-0.352102	0.063339	-0.382383	0.921830	-0.833247	-0.528627	-0.162026
655	1006031													8.209935	0.635712	5.404854	0.556958	-0.753106	-0.350185	0.063647	-0.381693	0.922095	-0.828098	-0.535857	-0.164654
656	1006197													8.221086	0.644555	5.414147	0.564647	-0.748180	-0.348426	0.063903	-0.381265	0.922255	-0.822855	-0.543014	-0.167469
657	1006364													8.019038	0.666999	5.582181	0.572229	-0.743272	-0.346555	0.064075	-0.380767	0.922448	-0.817587	-0.550058	-0.170261
658	1006531													7.874186	0.629942	5.734247	0.579475	-0.738573	-0.344557	0.064236	-0.380068	0.922725	-0.812455	-0.556829	-0.172796
659	1006697													7.933352	0.609590	5.767976	0.586452	-0.733913	-0.342704	0.064517	-0.379431	0.922968	-0.807410	-0.563387	-0.175168
660	1006864													7.998168	0.615268	5.727091	0.593650	-0.728936	-0.340928	0.064784	-0.378992	0.923129	-0.802112	-0.570102	-0.177765
661	1007031													8.004827	0.587268	5.775002	0.601632	-0.723209	-0.339128	0.065008	-0.378820	0.923184	-0.796123	-0.577463	-0.180896
662	1007197													7.876221	0.547124	5.838060	0.609940	-0.717176	-0.337093	0.065281	-0.378463	0.923312	-0.789754	-0.585170	-0.184021
663	1007364													7.893857	0.572719	5.834440	0.618505	-0.710855	-0.334869	0.065658	-0.377917	0.923508	-0.783033	-0.593181	-0.187070
664	1007531													7.798763	0.597334	5.919408	0.627181	-0.704202	-0.332781	0.066155	-0.377551	0.923623	-0.776059	-0.601294	-0.190206
665	1007697													7.705275	0.566685	5.987814	0.635869	-0.697359	-0.330699	0.066642	-0.377269	0.923703	-0.768915	-0.609392	-0.193420
666	1007864													7.732765	0.587975	6.121984	0.644881	-0.690108	-0.328450	0.067097	-0.376970	0.923792	-0.761332	-0.617774	-0.196797
667	1008031													7.456039	0.662347	6.327732	0.653998	-0.682674	-0.325948	0.067556	-0.376440	0.923974	-0.753474	-0.626298	-0.200072
668	1008197													7.425565	0.662731	6.402276	0.662839	-0.675374	-0.323286	0.067997	-0.375682	0.924251	-0.745668	-0.634612	-0.203093
669	1008364													7.515852	0.656977	6.406098	0.671807	-0.667766	-0.320568	0.068450	-0.374957	0.924512	-0.737556	-0.643037	-0.206190
670	1008531													7.434132	0.667018	6.470030	0.681151	-0.659585	-0.317774	0.068842	-0.374411	0.924704	-0.728899	-0.651739	-0.209623
671	1008697													7.267729	0.631388	6.576991	0.690528	-0.651212	-0.314792	0.069215	-0.373724	0.924954	-0.719986	-0.660495	-0.212994
672	1008864													7.167450	0.611196	6.683694	0.699891	-0.642592	-0.311813	0.069677	-0.373052	0.925191	-0.710843	-0.669259	-0.216322
673	1009031													7.013109	0.676895	6.835507	0.709199	-0.633795	-0.308772	0.070204	-0.372305	0.925451	-0.701504	-0.678007	-0.219543
674	1009197													6.835759	0.676138	6.962050	0.718309	-0.625091	-0.305440	0.070594	-0.371273	0.925836	-0.692134	-0.686599	-0.222561
675	1009364													6.768782	0.669479	7.050647	0.727145	-0.616462	-0.302051	0.070995	-0.370109	0.926272	-0.682803	-0.694978	-0.225357
676	1009531													6.753751	0.711889	7.109948	0.735871	-0.607721	-0.298610	0.071408	-0.368891	0.926726	-0.673345	-0.703274	-0.228060
677	1009697													6.634682	0.738347	7.158060	0.744752	-0.598613	-0.294969	0.071743	-0.367626	0.927202	-0.663474	-0.711697	-0.230844
678	1009864													6.464329	0.732172	7.219193	0.753549	-0.589372	-0.291212	0.072033	-0.366287	0.927710	-0.653433	-0.720052	-0.233561
679	1010031													6.358938	0.721219	7.322830	0.762085	-0.580208	-0.287375	0.072268	-0.364842	0.928260	-0.643431	-0.728182	-0.236111
680	1010197													6.278898	0.733692	7.350938	0.770500	-0.570880	-0.283596	0.072602	-0.363409	0.928796	-0.633292	-0.736227	-0.238560
681	1010364													6.215847	0.741003	7.389112	0.778750	-0.561503	-0.279755	0.072817	-0.362022	0.929321	-0.623094	-0.744080	-0.241038
682	1010531													6.030834	0.732568	7.533134	0.786713	-0.552254	-0.275858	0.072933	-0.360586	0.929870	-0.612995	-0.751660	-0.243401
683	1010697													5.916178	0.692374	7.667381	0.794019	-0.543569	-0.272151	0.073026	-0.359161	0.930414	-0.603490	-0.758641	-0.245486
684	1010864													5.744576	0.691279	7.782843	0.800712	-0.535338	-0.268837	0.073202	-0.357971	0.930859	-0.594560	-0.765029	-0.247444
685	1011031													5.636132	0.694260	7.848698	0.806774	-0.527656	-0.265886	0.073401	-0.357010	0.931212	-0.586284	-0.770794	-0.249296
686	1011197													5.624764	0.682978	7.861673	0.812238	-0.520519	-0.263307	0.073698	-0.356202	0.931498	-0.578653	-0.776003	-0.250960
687	1011364													5.523313	0.664110	7.997868	0.817362	-0.513578	-0.261068	0.074179	-0.355560	0.931705	-0.571328	-0.780907	-0.252525
688	1011531													5.383642	0.651669	8.103135	0.821977	-0.507134	-0.259169	0.074799	-0.354993	0.931872	-0.564587	-0.785363	-0.253863
689	1011697													5.341139	0.636393	8.177456	0.826243	-0.500954	-0.257620	0.075646	-0.354516	0.931985	-0.558212	-0.789534	-0.255021
690	1011864													5.245738	0.704512	8.224534	0.830188	-0.495091	-0.256265	0.076639	-0.353963	0.932114	-0.552190	-0.793470	-0.255913
691	1012031													5.221468	0.721760	8.265741	0.833869	-0.489482	-0.255089	0.077731	-0.353406	0.932235	-0.546462	-0.797190	-0.256647
692	1012197													5.145237	0.726552	8.338092	0.837327	-0.484095	-0.254038	0.078885	-0.352826	0.932358	-0.540981	-0.800728	-0.257243
693	1012364													5.150218	0.739655	8.351210	0.840629	-0.478825	-0.253119	0.080130	-0.352249	0.932470	-0.535650	-0.804144	-0.257743
694	1012531													5.143459	0.802290	8.387247	0.843892	-0.473529	-0.252225	0.081439	-0.351612	0.932597	-0.530297	-0.807551	-0.258159
695	1012697													4.979489	0.830643	8.374522	0.847095	-0.468329	-0.251195	0.082641	-0.350835	0.932784	-0.524977	-0.810915	-0.258487
696	1012864													5.023626	0.812371	8.298617	0.850281	-0.463088	-0.250143	0.083815	-0.350061	0.932969	-0.519613	-0.814252	-0.258837
697	1013031													5.086174	0.816521	8.234912	0.853582	-0.457620	-0.248962	0.084952	-0.349226	0.933180	-0.513986	-0.817695	-0.259218
698	1013197													4.949314	0.815053	8.322745	0.856852	-0.452127	-0.247761	0.086114	-0.348304	0.933418	-0.508320	-0.821137	-0.259511
699	1013364													4.848681	0.845559	8.390565	0.859989	-0.446776	-0.246596	0.087298	-0.347303	0.933681	-0.502789	-0.824483	-0.259674
700	1013531													4.815670	0.881441	8.421709	0.863057	-0.441472	-0.245427	0.088451	-0.346292	0.933948	-0.497301	-0.827759	-0.259821
701	1013697													4.801252	0.942765	8.529321	0.866194	-0.436019	-0.244121	0.089517	-0.345233	0.934238	-0.491625	-0.831084	-0.260008
702	1013864													4.690554	0.911910	8.633957	0.869322	-0.430542	-0.242721	0.090420	-0.344265	0.934508	-0.485905	-0.834335	-0.260347
703	1014031													4.741056	0.905133	8.612295	0.872396	-0.424962	-0.241521	0.091455	-0.343477	0.934698	-0.480168	-0.837515	-0.260783
704	1014197													4.637165	0.899321	8.655878	0.875507	-0.419197	-0.240335	0.092479	-0.342818	0.934839	-0.474273	-0.840684	-0.261372
705	1014364													4.525065	0.857500	8.698817	0.878572	-0.413377	-0.239231	0.093569	-0.342212	0.934952	-0.468355	-0.843807	-0.261979
706	1014531													4.405665	0.903324	8.678987	0.881481	-0.407698	-0.238271	0.094718	-0.341674	0.935033	-0.462622	-0.846783	-0.262563
707	1014697													4.405377	0.951862	8.689870	0.884305	-0.402132	-0.237264	0.095789	-0.341099	0.935134	-0.456978	-0.849671	-0.263115
708	1014864													4.352494	1.000502	8.769111	0.886935	-0.396881	-0.236287	0.096824	-0.340441	0.935267	-0.451632	-0.852400	-0.263521
709	1015031													4.350305	1.075051	8.837686	0.889317	-0.392095	-0.235320	0.097705	-0.339792	0.935412	-0.446731	-0.854870	-0.263874
710	1015197													4.296700	1.045605	8.852715	0.891501	-0.387747	-0.234259	0.098310	-0.339194	0.935566	-0.442222	-0.857088	-0.264272
711	1015364													4.211670	1.050781	8.865536	0.893473	-0.383853	-0.233157	0.098667	-0.338700	0.935707	-0.438144	-0.859034	-0.264746
712	1015531													4.140127	1.009225	8.855454	0.895260	-0.380349	-0.232042	0.098857	-0.338250	0.935849	-0.434438	-0.860768	-0.265222
713	1015697													4.151962	1.034418	8.803879	0.896867	-0.377153	-0.231054	0.099018	-0.337925	0.935950	-0.431075	-0.862301	-0.265729
714	1015864													4.125282	1.061190	8.842224	0.898384	-0.374138	-0.230058	0.099127	-0.337565	0.936068	-0.427878	-0.863754	-0.266176
715	1016031													4.110601	1.021698	8.916104	0.899781	-0.371405	-0.229023	0.099130	-0.337153	0.936216	-0.424932	-0.865093	-0.266547
716	1016197													4.147772	0.999886	8.952691	0.901081	-0.368869	-0.228012	0.099097	-0.336731	0.936372	-0.422177	-0.866342	-0.266868
717	1016364													4.151693	1.019954	8.997565	0.902262	-0.366425	-0.227280	0.099269	-0.336420	0.936465	-0.419606	-0.867499	-0.267164
718	1016531													4.018929	1.057482	9.067245	0.903471	-0.363814	-0.226671	0.099592	-0.336172	0.936520	-0.416920	-0.868693	-0.267489
719	1016697													3.997055	1.056975	8.969998	0.904767	-0.361058	-0.225905	0.099848	-0.335814	0.936621	-0.414037	-0.869981	-0.267782
720	1016864													4.060601	0.961845	8.871634	0.906176	-0.358069	-0.225015	0.100052	-0.335449	0.936730	-0.410895	-0.871356	-0.268150
721	1017031													3.925268	1.022929	8.847505	0.907628	-0.354796	-0.224346	0.100468	-0.335307	0.936736	-0.407575	-0.872748	-0.268689
722	1017197													3.844012	1.006649	8.820363	0.909198	-0.351265	-0.223542	0.100839	-0.335137	0.936758	-0.403967	-0.874240	-0.269285
723	1017364													3.725990	1.054342	8.828365	0.910849	-0.347598	-0.222554	0.101070	-0.334953	0.936798	-0.400175	-0.875775	-0.269960
724	1017531													3.824127	1.024587	8.850677	0.912560	-0.343900	-0.221287	0.101025	-0.334765	0.936871	-0.396269	-0.877306	-0.270750
725	1017697													3.768343	1.033021	8.930614	0.914243	-0.340155	-0.220123	0.101083	-0.334619	0.936917	-0.392354	-0.878820	-0.271539
726	1017864													3.758654	1.033262	8.957333	0.915855	-0.336531	-0.218987	0.101153	-0.334426	0.936978	-0.388558	-0.880287	-0.272245
727	1018031													3.748202	1.012383	9.039632	0.917367	-0.333040	-0.217995	0.101329	-0.334230	0.937029	-0.384928	-0.881689	-0.272865
728	1018198													3.703251	1.050345	9.123537	0.918785	-0.329713	-0.217078	0.101529	-0.334034	0.937077	-0.381478	-0.883012	-0.273430
729	1018364													3.671241	1.047479	9.125387	0.920078	-0.326652	-0.216228	0.101748	-0.333755	0.937153	-0.378290	-0.884254	-0.273845
730	1018531													3.638538	1.022135	9.223420	0.921299	-0.323733	-0.215420	0.101974	-0.333457	0.937234	-0.375247	-0.885440	-0.274202
731	1018698													3.619934	1.032440	9.213433	0.922396	-0.321087	-0.214681	0.102175	-0.333173	0.937313	-0.372485	-0.886509	-0.274511
732	1018864													3.599357	1.014235	9.208568	0.923396	-0.318750	-0.213866	0.102197	-0.332899	0.937408	-0.369995	-0.887455	-0.274822
733	1019031													3.517803	1.025278	9.190275	0.924287	-0.316639	-0.213151	0.102180	-0.332789	0.937449	-0.367767	-0.888252	-0.275238
734	1019198													3.423555	1.031897	9.197091	0.925088	-0.314635	-0.212643	0.102277	-0.332832	0.937423	-0.365720	-0.888948	-0.275719
735	1019364													3.459077	1.022814	9.135164	0.925790	-0.312809	-0.212282	0.102436	-0.332954	0.937363	-0.363896	-0.889546	-0.276202
736	1019531													3.468923	1.038664	9.131680	0.926415	-0.311269	-0.211816	0.102401	-0.333070	0.937325	-0.362310	-0.890043	-0.276687
737	1019698													3.496206	1.042942	9.180623	0.926984	-0.309953	-0.211259	0.102221	-0.333147	0.937317	-0.360905	-0.890473	-0.277139
738	1019864													3.363284	1.033789	9.153883	0.927514	-0.308683	-0.210788	0.102085	-0.333295	0.937280	-0.359577	-0.890859	-0.277624
739	1020031													3.356119	1.087120	9.136092	0.928103	-0.307372	-0.210111	0.101813	-0.333296	0.937309	-0.358132	-0.891311	-0.278039
740	1020198													3.392551	1.006660	9.109807	0.928780	-0.305981	-0.209151	0.101344	-0.333140	0.937415	-0.356507	-0.891848	-0.278405
741	1020364													3.423931	1.001575	9.118125	0.929499	-0.304495	-0.208122	0.100875	-0.332887	0.937556	-0.354762	-0.892451	-0.278702
742	1020531													3.402207	0.954763	9.156432	0.930246	-0.302979	-0.206995	0.100360	-0.332524	0.937740	-0.352946	-0.893102	-0.278922
743	1020698													3.389176	0.979706	9.175077	0.930982	-0.301426	-0.205947	0.099958	-0.332103	0.937932	-0.351113	-0.893784	-0.279052
744	1020864													3.313416	0.978041	9.175763	0.931726	-0.299810	-0.204941	0.099642	-0.331622	0.938136	-0.349226	-0.894506	-0.279107
745	1021031													3.368425	0.879906	9.157661	0.932498	-0.298183	-0.203801	0.099234	-0.331033	0.938387	-0.347276	-0.895267	-0.279098
746	1021198													3.388011	0.903757	9.223316	0.933169	-0.296735	-0.202840	0.098921	-0.330516	0.938602	-0.345558	-0.895939	-0.279074
747	1021364													3.270329	0.957372	9.254563	0.933720	-0.295526	-0.202067	0.098671	-0.330129	0.938765	-0.344138	-0.896482	-0.279088
748	1021531													3.236799	0.900553	9.195916	0.934219	-0.294429	-0.201363	0.098439	-0.329785	0.938910	-0.342849	-0.896969	-0.279108
749	1021698													3.238491	0.890831	9.186656	0.934685	-0.293388	-0.200719	0.098215	-0.329529	0.939023	-0.341641	-0.897404	-0.279190
750	1021864													3.333902	0.887951	9.215791	0.935090	-0.292510	-0.200114	0.097929	-0.329403	0.939097	-0.340613	-0.897737	-0.279376
751	1022031													3.291914	0.926101	9.287045	0.935385	-0.291749	-0.199844	0.097848	-0.329529	0.939061	-0.339825	-0.897938	-0.279689
752	1022198													3.263118	0.917549	9.283662	0.935640	-0.291116	-0.199575	0.097712	-0.329700	0.939016	-0.339162	-0.898081	-0.280035
753	1022364													3.318598	0.875625	9.234496	0.935842	-0.290615	-0.199353	0.097593	-0.329841	0.938978	-0.338636	-0.898191	-0.280318
754	1022531													3.348756	0.913601	9.218314	0.936006	-0.290171	-0.199232	0.097531	-0.330051	0.938911	-0.338202	-0.898258	-0.280629
755	1022698													3.318016	0.946440	9.200433	0.936106	-0.289889	-0.199172	0.097511	-0.330181	0.938868	-0.337930	-0.898301	-0.280817
756	1022864													3.311330	0.963690	9.203054	0.936187	-0.289705	-0.199060	0.097436	-0.330232	0.938857	-0.337728	-0.898342	-0.280931
757	1023031													3.332567	0.962940	9.141919	0.936223	-0.289646	-0.198975	0.097363	-0.330249	0.938859	-0.337648	-0.898354	-0.280986
758	1023198													3.332178	0.946551	9.180492	0.936249	-0.289623	-0.198886	0.097276	-0.330265	0.938862	-0.337602	-0.898356	-0.281037
759	1023364													3.271854	0.914125	9.211162	0.936276	-0.289543	-0.198875	0.097290	-0.330264	0.938861	-0.337522	-0.898382	-0.281048
760	1023531													3.307810	0.981939	9.231284	0.936311	-0.289353	-0.198990	0.097474	-0.330239	0.938851	-0.337374	-0.898453	-0.281002
761	1023698													3.265019	0.974454	9.287496	0.936364	-0.289141	-0.199046	0.097648	-0.330103	0.938881	-0.337175	-0.898571	-0.280863
762	1023864													3.283142	0.915097	9.237433	0.936429	-0.288870	-0.199135	0.097891	-0.329920	0.938920	-0.336925	-0.898725	-0.280668
763	1024031													3.360155	0.944561	9.161505	0.936446	-0.288666	-0.199349	0.098234	-0.329746	0.938945	-0.336776	-0.898855	-0.280433
764	1024198													3.281197	1.026417	9.251231	0.936366	-0.288702	-0.199673	0.098614	-0.329571	0.938967	-0.336888	-0.898907	-0.280129
765	1024364													3.146967	1.014431	9.323486	0.936234	-0.288911	-0.199992	0.098976	-0.329283	0.939029	-0.337150	-0.898946	-0.279691
766	1024531													3.015138	1.015130	9.297747	0.936094	-0.289112	-0.200357	0.099406	-0.328945	0.939102	-0.337412	-0.899005	-0.279184
767	1024698													3.196471	0.926771	9.151130	0.935992	-0.289283	-0.200586	0.099747	-0.328509	0.939219	-0.337595	-0.899109	-0.278626
768	1024864													3.211072	1.010597	9.206309	0.935761	-0.289667	-0.201108	0.100262	-0.328216	0.939267	-0.338082	-0.899092	-0.278089
769	1025031													3.151232	1.055852	9.372888	0.935325	-0.290486	-0.201950	0.100939	-0.327987	0.939274	-0.339083	-0.898912	-0.277453
770	1025198													2.987781	1.002680	9.401078	0.934689	-0.291868	-0.202900	0.101605	-0.327619	0.939331	-0.340635	-0.898598	-0.276567
771	1025364													2.963919	0.953886	9.380696	0.933842	-0.293597	-0.204305	0.102608	-0.327290	0.939336	-0.342653	-0.898155	-0.275511
772	1025531													2.903602	0.956549	9.320971	0.932789	-0.295745	-0.206008	0.103788	-0.326956	0.939323	-0.345156	-0.897571	-0.274286
773	1025698													2.950320	0.991069	9.214508	0.931438	-0.298446	-0.208215	0.105316	-0.326610	0.939273	-0.348327	-0.896803	-0.272786
774	1025864													2.739461	1.072919	9.308033	0.929904	-0.301878	-0.210115	0.106391	-0.326077	0.939337	-0.352079	-0.895848	-0.271103
775	1026031													2.996384	0.929516	9.331185	0.927735	-0.306948	-0.212345	0.107211	-0.325795	0.939342	-0.357510	-0.894226	-0.269343
776	1026198													2.832976	1.149479	9.559260	0.924774	-0.313481	-0.215691	0.108416	-0.326276	0.939037	-0.364745	-0.891781	-0.267745
777	1026364													2.786687	1.196934	9.446994	0.921262	-0.321125	-0.219445	0.109561	-0.327101	0.938617	-0.373194	-0.888754	-0.266163
778	1026531													2.667969	1.094642	9.418916	0.917242	-0.329570	-0.223719	0.110831	-0.328308	0.938046	-0.382601	-0.885210	-0.264612
779	1026698													2.981477	1.060248	9.157607	0.912497	-0.339580	-0.228113	0.111752	-0.329490	0.937522	-0.393524	-0.880978	-0.262710
780	1026864													3.431567	1.087057	9.078319	0.907141	-0.350676	-0.232639	0.112355	-0.330927	0.936944	-0.405550	-0.876079	-0.260797
781	1027031													3.576136	1.031794	9.022076	0.901162	-0.362418	-0.237823	0.113085	-0.333085	0.936091	-0.418471	-0.870464	-0.259180
782	1027198													3.645310	1.125351	9.042168	0.894189	-0.375934	-0.243106	0.113321	-0.335276	0.935280	-0.433111	-0.863866	-0.257199
783	1027364													3.758579	1.239923	8.920700	0.886389	-0.391013	-0.247837	0.112679	-0.337030	0.934727	-0.449019	-0.856458	-0.254681
784	1027531													4.188580	1.203000	8.688502	0.877592	-0.407354	-0.252776	0.111897	-0.338655	0.934233	-0.466167	-0.848160	-0.251619
785	1027698													4.469655	1.159156	8.653555	0.868013	-0.423909	-0.258563	0.111617	-0.340822	0.933478	-0.483834	-0.839131	-0.248523
786	1027864													4.712405	1.118512	8.547766	0.857655	-0.440917	-0.264612	0.111312	-0.343198	0.932644	-0.502033	-0.829342	-0.245266
787	1028031													4.708075	1.183229	8.477103	0.846433	-0.458476	-0.270834	0.110984	-0.345551	0.931814	-0.520801	-0.818776	-0.241602
788	1028198													4.899986	1.209663	8.314676	0.834602	-0.476456	-0.276459	0.110138	-0.347406	0.931224	-0.539731	-0.807650	-0.237470
789	1028364													5.057485	1.177689	8.132266	0.822083	-0.494554	-0.282127	0.109209	-0.349346	0.930608	-0.558795	-0.795848	-0.233182
790	1028531													5.570161	1.172765	7.808972	0.809140	-0.512254	-0.287904	0.108417	-0.351399	0.929927	-0.577528	-0.783655	-0.228794
791	1028698													5.630427	1.107404	7.750595	0.795851	-0.529540	-0.293613	0.107648	-0.353448	0.929240	-0.595846	-0.771143	-0.224288
792	1028864													5.839128	1.105300	7.662901	0.781619	-0.547252	-0.299311	0.106923	-0.355200	0.928655	-0.614523	-0.757858	-0.219117
793	1029031													6.062696	1.192889	7.562017	0.767411	-0.564546	-0.303920	0.105585	-0.356271	0.928398	-0.632401	-0.744553	-0.213799
794	1029198													6.187269	1.070985	7.261264	0.753093	-0.581336	-0.308057	0.103880	-0.357292	0.928198	-0.649662	-0.731020	-0.208685
795	1029364													6.257707	0.977124	7.239143	0.738208	-0.597642	-0.312845	0.102547	-0.358955	0.927704	-0.666733	-0.716920	-0.203697
796	1029531													6.456051	1.007841	7.094117	0.722491	-0.614204	-0.317428	0.100877	-0.360560	0.927265	-0.683982	-0.701961	-0.198542
797	1029698													6.877591	0.992381	6.862946	0.706635	-0.630312	-0.321518	0.098845	-0.362003	0.926922	-0.700640	-0.686776	-0.193501
798	1029864													7.216731	0.925679	6.583971	0.691086	-0.645494	-0.325174	0.096690	-0.363288	0.926646	-0.716276	-0.671833	-0.188651
799	1030031													7.146611	0.860325	6.353401	0.675160	-0.660055	-0.329372	0.094870	-0.365100	0.926122	-0.731545	-0.656528	-0.183881
800	1030198													7.240604	0.886256	6.451303	0.658633	-0.674399	-0.333749	0.093080	-0.367114	0.925507	-0.746685	-0.640635	-0.179020
801	1030364													7.655405	0.823139	6.256450	0.642535	-0.688042	-0.337264	0.091101	-0.368429	0.925181	-0.760822	-0.625186	-0.174047
802	1030531													7.615350	0.754788	6.082650	0.627153	-0.700616	-0.340318	0.089025	-0.369583	0.924923	-0.773792	-0.610365	-0.169412
803	1030698													7.662472	0.766613	5.727314	0.611560	-0.712214	-0.344595	0.087465	-0.372009	0.924099	-0.786349	-0.595282	-0.165213
804	1030864													7.943996	0.819720	5.753918	0.596261	-0.723404	-0.348081	0.085413	-0.373961	0.923503	-0.798234	-0.580379	-0.161190
805	1031031													8.204178	0.829161	5.633271	0.581947	-0.733685	-0.350775	0.083435	-0.375195	0.923183	-0.808935	-0.566511	-0.157129
806	1031198													8.238750	0.745952	5.384171	0.568725	-0.742839	-0.353188	0.081752	-0.376218	0.922917	-0.818455	-0.553760	-0.153236
807	1031364													8.093170	0.762902	5.257698	0.555772	-0.750990	-0.356555	0.080265	-0.378417	0.922149	-0.827451	-0.541123	-0.150036
808	1031531													8.156890	0.766501	5.327080	0.542390	-0.759211	-0.359739	0.078449	-0.380556	0.921424	-0.836456	-0.527992	-0.146851
809	1031698													8.409978	0.726095	5.107729	0.529140	-0.767227	-0.362454	0.076678	-0.382171	0.920905	-0.845063	-0.515080	-0.143393
810	1031864													8.588263	0.681517	4.772895	0.517482	-0.774054	-0.364765	0.075279	-0.383445	0.920491	-0.852377	-0.503796	-0.140155
811	1032031													8.665239	0.690490	4.659349	0.506921	-0.779876	-0.367185	0.074116	-0.384961	0.919952	-0.858801	-0.493557	-0.137343
812	1032198													8.497293	0.707401	4.697918	0.495421	-0.785206	-0.371497	0.073276	-0.388369	0.918586	-0.865557	-0.482309	-0.134869
813	1032364													8.715525	0.706395	4.593939	0.483443	-0.791128	-0.374698	0.071898	-0.390711	0.917701	-0.872418	-0.470596	-0.132006
814	1032531													8.943706	0.690140	4.397250	0.473364	-0.796572	-0.376031	0.070433	-0.391293	0.917567	-0.878047	-0.460828	-0.129119
815	1032698													8.895429	0.663625	4.298431	0.464647	-0.801122	-0.377235	0.069243	-0.391838	0.917425	-0.882784	-0.452400	-0.126594
816	1032864													8.714127	0.579625	4.128312	0.455069	-0.805071	-0.380490	0.068374	-0.394444	0.916373	-0.887827	-0.443028	-0.124454
817	1033031													8.870498	0.650338	4.211606	0.444361	-0.809200	-0.384368	0.067151	-0.397761	0.915028	-0.893327	-0.432414	-0.122411
818	1033198													9.203297	0.628653	4.016916	0.435380	-0.813363	-0.385857	0.065771	-0.398728	0.914708	-0.897841	-0.423624	-0.120102
819	1033364													9.196368	0.661994	3.833546	0.428267	-0.817195	-0.385720	0.064681	-0.398030	0.915089	-0.901334	-0.416852	-0.117607
820	1033531													9.088520	0.593606	3.704692	0.421282	-0.820274	-0.386876	0.063884	-0.398679	0.914863	-0.904677	-0.410130	-0.115553
821	1033698													8.819292	0.581578	3.947129	0.412188	-0.823197	-0.390445	0.062716	-0.401891	0.913537	-0.908938	-0.401036	-0.114027
822	1033864													9.308389	0.517285	3.698721	0.403748	-0.827111	-0.390993	0.060964	-0.402102	0.913563	-0.912837	-0.392686	-0.111924
823	1034031													9.448217	0.561993	3.705425	0.398449	-0.830212	-0.389853	0.059966	-0.400562	0.914305	-0.915228	-0.387683	-0.109819
824	1034198													9.181760	0.575050	3.728280	0.394450	-0.832836	-0.388320	0.059431	-0.398579	0.915207	-0.916994	-0.384081	-0.107723
825	1034364													8.956251	0.585089	3.716251	0.390343	-0.835220	-0.387350	0.059161	-0.397102	0.915866	-0.918767	-0.380417	-0.105593
826	1034531													8.933975	0.584098	3.793345	0.385591	-0.837369	-0.387469	0.058642	-0.396854	0.916007	-0.920805	-0.375926	-0.103918
827	1034698													9.212580	0.578357	3.780047	0.380882	-0.839626	-0.387242	0.057820	-0.396362	0.916272	-0.922814	-0.371382	-0.102420
828	1034865													9.303303	0.548110	3.566063	0.376894	-0.841738	-0.386560	0.057188	-0.395393	0.916730	-0.924489	-0.367616	-0.100884
829	1035031													9.232688	0.513949	3.497248	0.373530	-0.843520	-0.385938	0.056813	-0.394469	0.917151	-0.925877	-0.364510	-0.099423
830	1035198													9.127308	0.565054	3.582268	0.370791	-0.844972	-0.385405	0.056351	-0.393752	0.917488	-0.927005	-0.361914	-0.098385
831	1035365													8.957698	0.577945	3.719532	0.367310	-0.846481	-0.385427	0.055528	-0.393698	0.917561	-0.928440	-0.358431	-0.097606
832	1035531													9.115485	0.519700	3.507088	0.362576	-0.848304	-0.385899	0.054593	-0.394031	0.917474	-0.930354	-0.353722	-0.096555
833	1035698													9.525320	0.544653	3.381302	0.358932	-0.850162	-0.385218	0.053697	-0.393227	0.917872	-0.931818	-0.350139	-0.095490
834	1035865													9.341127	0.485454	3.370379	0.356877	-0.851576	-0.384001	0.053122	-0.391904	0.918471	-0.932640	-0.348180	-0.094624
835	1036031													9.164250	0.487065	3.457566	0.354746	-0.852881	-0.383078	0.052627	-0.390861	0.918944	-0.933481	-0.346152	-0.093771
836	1036198													9.146511	0.478613	3.456954	0.352773	-0.854041	-0.382314	0.051973	-0.390068	0.919318	-0.934264	-0.344181	-0.093219
837	1036365													9.104519	0.498680	3.455896	0.350329	-0.855145	-0.382096	0.051252	-0.389835	0.919457	-0.935224	-0.341695	-0.092743
838	1036531													9.288596	0.468137	3.351161	0.347592	-0.856246	-0.382129	0.050442	-0.389874	0.919485	-0.936288	-0.338882	-0.092326
839	1036698													9.343098	0.436237	3.280391	0.345102	-0.857348	-0.381916	0.049691	-0.389654	0.919620	-0.937249	-0.336340	-0.091868
840	1036865													9.350290	0.470197	3.288158	0.343145	-0.858495	-0.381100	0.049064	-0.388799	0.920015	-0.938000	-0.334397	-0.091293
841	1037031													9.305485	0.425089	3.312073	0.341508	-0.859578	-0.380129	0.048562	-0.387767	0.920477	-0.938623	-0.332810	-0.090682
842	1037198													9.257283	0.408843	3.280519	0.339839	-0.860591	-0.379332	0.048087	-0.386910	0.920863	-0.939253	-0.331186	-0.090104
843	1037365													9.245613	0.385353	3.294830	0.338143	-0.861506	-0.378771	0.047598	-0.386308	0.921141	-0.939890	-0.329506	-0.089621
844	1037531													9.212040	0.422612	3.249861	0.336203	-0.862409	-0.378442	0.047071	-0.385943	0.921321	-0.940613	-0.327564	-0.089161
845	1037698													9.344617	0.434482	3.176450	0.334342	-0.863305	-0.378048	0.046512	-0.385529	0.921523	-0.941303	-0.325687	-0.088745
846	1037865													9.372836	0.455389	3.284260	0.333009	-0.863995	-0.377648	0.046136	-0.385098	0.921722	-0.941794	-0.324365	-0.088380
847	1038031													9.339062	0.508928	3.293090	0.331744	-0.864628	-0.377313	0.045996	-0.384663	0.921911	-0.942248	-0.323193	-0.087840
848	1038198													9.345167	0.428240	3.209848	0.330701	-0.865135	-0.377067	0.045802	-0.384363	0.922045	-0.942624	-0.322191	-0.087484
849	1038365													9.204609	0.426742	3.213911	0.329612	-0.865536	-0.377099	0.045475	-0.384402	0.922045	-0.943021	-0.321066	-0.087344
850	1038531													9.164531	0.442831	3.275943	0.328115	-0.865942	-0.377471	0.045107	-0.384775	0.921908	-0.943560	-0.319518	-0.087190
851	1038698													9.294890	0.435670	3.227343	0.326154	-0.866529	-0.377823	0.044634	-0.385117	0.921788	-0.944262	-0.317508	-0.086931
852	1038865													9.332439	0.461008	3.241043	0.324167	-0.867195	-0.378007	0.044225	-0.385255	0.921750	-0.944966	-0.315518	-0.086535
853	1039031													9.270365	0.461062	3.239965	0.322187	-0.867823	-0.378259	0.043943	-0.385425	0.921692	-0.945656	-0.313579	-0.086044
854	1039198													9.305917	0.441015	3.102948	0.320418	-0.868372	-0.378500	0.043677	-0.385598	0.921632	-0.946269	-0.311839	-0.085624
855	1039365													9.397567	0.446675	3.033623	0.319199	-0.868817	-0.378509	0.043430	-0.385572	0.921655	-0.946692	-0.310630	-0.085341
856	1039531													9.313289	0.448294	3.110955	0.318380	-0.869164	-0.378403	0.043256	-0.385439	0.921719	-0.946976	-0.309825	-0.085119
857	1039698													9.264273	0.421307	3.195022	0.317527	-0.869574	-0.378178	0.043152	-0.385153	0.921843	-0.947267	-0.309029	-0.084773
858	1039865													9.270526	0.372859	3.140189	0.316466	-0.869997	-0.378093	0.043045	-0.384998	0.921913	-0.947627	-0.308030	-0.084390
859	1040031													9.339358	0.349629	2.983418	0.315222	-0.870420	-0.378160	0.042848	-0.385015	0.921915	-0.948050	-0.306811	-0.084070
860	1040198													9.364607	0.450478	2.995051	0.313922	-0.870813	-0.378335	0.042714	-0.385122	0.921877	-0.948487	-0.305558	-0.083703
861	1040365													9.421019	0.484755	2.972871	0.312595	-0.871243	-0.378443	0.042644	-0.385135	0.921874	-0.948929	-0.304312	-0.083238
862	1040531													9.370444	0.404823	3.029877	0.311397	-0.871619	-0.378565	0.042514	-0.385195	0.921855	-0.949328	-0.303158	-0.082893
863	1040698													9.374039	0.409960	2.989712	0.310247	-0.871877	-0.378917	0.042364	-0.385509	0.921731	-0.949712	-0.302017	-0.082667
864	1040865													9.459366	0.452182	2.902241	0.309376	-0.872129	-0.379047	0.042196	-0.385620	0.921692	-0.950003	-0.301144	-0.082502
865	1041031													9.443918	0.410371	2.898148	0.308839	-0.872364	-0.378946	0.042116	-0.385489	0.921751	-0.950181	-0.300632	-0.082313
866	1041198													9.357955	0.403474	2.957425	0.308449	-0.872559	-0.378813	0.042131	-0.385308	0.921826	-0.950307	-0.300296	-0.082087
867	1041365													9.319456	0.425283	2.948800	0.308099	-0.872675	-0.378831	0.042168	-0.385284	0.921834	-0.950419	-0.299991	-0.081906
868	1041531													9.367324	0.411590	2.922163	0.307740	-0.872715	-0.379031	0.042210	-0.385449	0.921763	-0.950534	-0.299663	-0.081781
869	1041698													9.389738	0.394211	2.901308	0.307565	-0.872729	-0.379142	0.042264	-0.385533	0.921726	-0.950588	-0.299514	-0.081692
870	1041865													9.399832	0.423680	2.896109	0.307476	-0.872758	-0.379146	0.042327	-0.385509	0.921733	-0.950614	-0.299458	-0.081593
871	1042031													9.392579	0.425097	2.917112	0.307448	-0.872765	-0.379153	0.042394	-0.385493	0.921736	-0.950620	-0.299460	-0.081519
