// Start Time: Unknown
// Update Rate: 60.0Hz
//Filter Profile: human (46.1)
// Option Flags: AHS Disabled ICC Disabled
// Firmware Version: 4.0.2
0	sampleTimeFine	Year	Month	Day	Second	UTC_Nano	UTC_Year	UTC_Month	UTC_Day	UTC_Hour	UTC_Minute	UTC_Second	UTC_Valid	Acc_X	Acc_Y	Acc_Z	Mat[1][1]	Mat[2][1]	Mat[3][1]	Mat[1][2]	Mat[2][2]	Mat[3][2]	Mat[1][3]	Mat[2][3]	Mat[3][3]
0	1936516													-0.281491	-0.351074	-0.163742	0.146125	-0.922593	-0.357028	0.015977	-0.358654	0.933334	-0.989137	-0.142087	-0.037668
1	1936683													9.739120	0.171147	1.445437	0.146439	-0.922065	-0.358262	0.016229	-0.359878	0.932858	-0.989087	-0.142421	-0.037736
2	1936850													9.745872	0.169466	1.435103	0.146809	-0.921893	-0.358552	0.016395	-0.360162	0.932746	-0.989029	-0.142814	-0.037761
3	1937016													9.732411	0.167764	1.471018	0.146975	-0.921608	-0.359218	0.016475	-0.360831	0.932486	-0.989003	-0.142970	-0.037850
4	1937850													9.697239	0.171924	1.468710	0.147928	-0.920579	-0.361458	0.016649	-0.363109	0.931598	-0.988858	-0.143827	-0.038387
5	1938016													9.733223	0.156428	1.469949	0.148110	-0.920407	-0.361820	0.016660	-0.363481	0.931453	-0.988831	-0.143985	-0.038501
6	1938183													9.714810	0.190619	1.469557	0.148308	-0.920243	-0.362156	0.016635	-0.363832	0.931316	-0.988801	-0.144146	-0.038651
7	1938350													9.692144	0.174930	1.444713	0.148503	-0.920208	-0.362167	0.016645	-0.363850	0.931309	-0.988772	-0.144330	-0.038716
8	1938516													9.711652	0.172409	1.475003	0.148671	-0.920200	-0.362117	0.016695	-0.363799	0.931328	-0.988746	-0.144507	-0.038724
9	1938683													9.701825	0.195186	1.502379	0.148852	-0.920119	-0.362249	0.016752	-0.363931	0.931275	-0.988718	-0.144691	-0.038758
10	1938850													9.713830	0.163815	1.509556	0.149112	-0.920106	-0.362175	0.016826	-0.363856	0.931303	-0.988677	-0.144962	-0.038774
11	1939016													9.698298	0.175409	1.514055	0.149369	-0.920045	-0.362224	0.016902	-0.363905	0.931283	-0.988637	-0.145227	-0.038805
12	1939183													9.696530	0.193573	1.511770	0.149617	-0.919955	-0.362350	0.016917	-0.364040	0.931230	-0.988599	-0.145458	-0.038904
13	1939350													9.690557	0.177022	1.499851	0.149866	-0.919926	-0.362321	0.016945	-0.364016	0.931239	-0.988561	-0.145701	-0.038965
14	1939516													9.703327	0.175939	1.505973	0.150092	-0.919855	-0.362407	0.016976	-0.364107	0.931202	-0.988526	-0.145918	-0.039034
15	1939683													9.710984	0.176103	1.509960	0.150320	-0.919934	-0.362112	0.016989	-0.363816	0.931316	-0.988491	-0.146147	-0.039060
16	1939850													9.701775	0.171143	1.521268	0.150514	-0.919831	-0.362295	0.016984	-0.364009	0.931240	-0.988462	-0.146318	-0.039166
17	1940016													9.721455	0.172377	1.531439	0.150715	-0.919803	-0.362280	0.016946	-0.364008	0.931242	-0.988432	-0.146491	-0.039275
18	1940183													9.706195	0.157253	1.498123	0.150880	-0.919806	-0.362203	0.016867	-0.363949	0.931266	-0.988408	-0.146619	-0.039398
19	1940350													9.705705	0.168250	1.501460	0.151030	-0.919724	-0.362351	0.016783	-0.364117	0.931202	-0.988387	-0.146721	-0.039557
20	1940516													9.711635	0.167388	1.494068	0.151149	-0.919698	-0.362366	0.016679	-0.364153	0.931190	-0.988370	-0.146792	-0.039702
21	1940683													9.706056	0.172008	1.492817	0.151226	-0.919673	-0.362399	0.016548	-0.364209	0.931170	-0.988361	-0.146814	-0.039859
22	1940850													9.723006	0.176668	1.501431	0.151275	-0.919636	-0.362472	0.016409	-0.364306	0.931135	-0.988356	-0.146805	-0.040020
23	1941016													9.718125	0.178202	1.498570	0.151310	-0.919583	-0.362591	0.016288	-0.364445	0.931082	-0.988352	-0.146788	-0.040166
24	1941183													9.731135	0.183116	1.493793	0.151323	-0.919511	-0.362768	0.016184	-0.364641	0.931008	-0.988352	-0.146754	-0.040298
25	1941350													9.705022	0.186789	1.491947	0.151326	-0.919447	-0.362929	0.016096	-0.364816	0.930940	-0.988353	-0.146717	-0.040407
26	1941516													9.722717	0.178256	1.518296	0.151325	-0.919417	-0.363006	0.016027	-0.364905	0.930907	-0.988354	-0.146688	-0.040484
27	1941683													9.703123	0.177094	1.509567	0.151308	-0.919483	-0.362846	0.015986	-0.364748	0.930969	-0.988357	-0.146664	-0.040490
28	1941850													9.686632	0.193680	1.518626	0.151278	-0.919482	-0.362861	0.015949	-0.364768	0.930962	-0.988363	-0.146621	-0.040517
29	1942016													9.715468	0.213553	1.519766	0.151208	-0.919510	-0.362818	0.015949	-0.364721	0.930980	-0.988373	-0.146558	-0.040484
30	1942183													9.746444	0.177487	1.497025	0.151121	-0.919535	-0.362793	0.015927	-0.364695	0.930991	-0.988387	-0.146470	-0.040468
31	1942350													9.678597	0.160035	1.477371	0.151079	-0.919591	-0.362667	0.015868	-0.364575	0.931039	-0.988394	-0.146415	-0.040488
32	1942516													9.709277	0.200336	1.522685	0.150992	-0.919707	-0.362409	0.015858	-0.364311	0.931142	-0.988408	-0.146342	-0.040424
33	1942683													9.711266	0.194742	1.448224	0.150934	-0.919810	-0.362171	0.015891	-0.364064	0.931238	-0.988416	-0.146311	-0.040333
34	1942850													9.775719	0.172273	1.478905	0.150995	-0.919813	-0.362138	0.015942	-0.364025	0.931253	-0.988406	-0.146387	-0.040302
35	1943016													9.734936	0.185638	1.496499	0.151206	-0.919769	-0.362163	0.016030	-0.364046	0.931243	-0.988372	-0.146615	-0.040302
36	1943183													9.668551	0.185602	1.552074	0.151358	-0.919828	-0.361950	0.016092	-0.363827	0.931327	-0.988348	-0.146789	-0.040266
37	1943350													9.711388	0.167681	1.535570	0.151391	-0.919793	-0.362025	0.016106	-0.363903	0.931298	-0.988343	-0.146821	-0.040277
38	1943516													9.691157	0.154750	1.514220	0.151399	-0.919777	-0.362062	0.016108	-0.363940	0.931283	-0.988342	-0.146827	-0.040285
39	1943683													9.671120	0.191867	1.531368	0.151351	-0.919786	-0.362059	0.016095	-0.363937	0.931285	-0.988349	-0.146779	-0.040278
40	1943850													9.715547	0.178285	1.518629	0.151313	-0.919783	-0.362082	0.016041	-0.363966	0.931274	-0.988356	-0.146722	-0.040318
41	1944016													9.706303	0.178367	1.495144	0.151360	-0.919750	-0.362147	0.016010	-0.364038	0.931246	-0.988349	-0.146752	-0.040376
42	1944183													9.708777	0.181020	1.513676	0.151398	-0.919746	-0.362141	0.015922	-0.364047	0.931244	-0.988345	-0.146754	-0.040472
43	1944350													9.735514	0.181146	1.496547	0.151435	-0.919680	-0.362294	0.015817	-0.364220	0.931179	-0.988341	-0.146743	-0.040609
44	1944516													9.711274	0.184661	1.503284	0.151471	-0.919636	-0.362389	0.015705	-0.364334	0.931136	-0.988337	-0.146731	-0.040744
45	1944683													9.722231	0.188420	1.497315	0.151480	-0.919644	-0.362365	0.015611	-0.364324	0.931141	-0.988337	-0.146706	-0.040832
46	1944850													9.728411	0.181478	1.507221	0.151474	-0.919648	-0.362359	0.015512	-0.364332	0.931140	-0.988340	-0.146664	-0.040921
47	1945016													9.711407	0.189964	1.511580	0.151432	-0.919619	-0.362450	0.015399	-0.364439	0.931100	-0.988348	-0.146580	-0.041026
48	1945183													9.702708	0.171651	1.478450	0.151254	-0.919565	-0.362660	0.015293	-0.364661	0.931015	-0.988377	-0.146366	-0.041093
49	1945350													9.705855	0.174443	1.477489	0.151200	-0.919524	-0.362786	0.015140	-0.364808	0.930959	-0.988387	-0.146254	-0.041237
50	1945516													9.692176	0.208840	1.501935	0.151110	-0.919540	-0.362785	0.015154	-0.364801	0.930962	-0.988401	-0.146176	-0.041191
51	1945683													9.707779	0.187218	1.485195	0.151078	-0.919502	-0.362892	0.015118	-0.364914	0.930919	-0.988406	-0.146127	-0.041229
52	1945850													9.693421	0.178296	1.538563	0.151032	-0.919599	-0.362666	0.015057	-0.364692	0.931006	-0.988414	-0.146072	-0.041234
53	1946016													9.710297	0.182497	1.516476	0.150979	-0.919583	-0.362729	0.014976	-0.364765	0.930979	-0.988424	-0.145991	-0.041300
54	1946183													9.725100	0.195290	1.543394	0.150892	-0.919592	-0.362744	0.014914	-0.364786	0.930972	-0.988438	-0.145886	-0.041329
55	1946350													9.702032	0.188262	1.498831	0.150809	-0.919636	-0.362665	0.014890	-0.364707	0.931003	-0.988451	-0.145804	-0.041308
56	1946516													9.698936	0.189303	1.524773	0.150708	-0.919661	-0.362644	0.014887	-0.364681	0.931014	-0.988466	-0.145710	-0.041269
57	1946683													9.714101	0.189667	1.522273	0.150608	-0.919696	-0.362598	0.014920	-0.364625	0.931035	-0.988481	-0.145631	-0.041194
58	1946850													9.723576	0.199016	1.528875	0.150540	-0.919745	-0.362502	0.014957	-0.364519	0.931076	-0.988491	-0.145585	-0.041118
59	1947016													9.707086	0.184947	1.549646	0.150483	-0.919755	-0.362499	0.014992	-0.364509	0.931079	-0.988499	-0.145546	-0.041063
60	1947183													9.713197	0.191856	1.531393	0.150427	-0.919831	-0.362330	0.015003	-0.364334	0.931147	-0.988507	-0.145506	-0.041005
61	1947350													9.708942	0.191163	1.518300	0.150351	-0.919878	-0.362241	0.015018	-0.364239	0.931184	-0.988519	-0.145444	-0.040949
62	1947516													9.701292	0.171940	1.501492	0.150265	-0.919942	-0.362114	0.015029	-0.364105	0.931237	-0.988531	-0.145375	-0.040887
63	1947683													9.704879	0.183256	1.518172	0.150222	-0.919951	-0.362109	0.015010	-0.364101	0.931239	-0.988538	-0.145328	-0.040887
64	1947850													9.698785	0.177580	1.498735	0.150144	-0.919993	-0.362035	0.014979	-0.364028	0.931268	-0.988551	-0.145247	-0.040876
65	1948016													9.723104	0.168611	1.499207	0.150057	-0.920103	-0.361791	0.014938	-0.363783	0.931364	-0.988565	-0.145162	-0.040843
66	1948183													9.708806	0.171941	1.488921	0.149992	-0.920137	-0.361733	0.014873	-0.363731	0.931385	-0.988575	-0.145081	-0.040872
67	1948350													9.689551	0.181614	1.495413	0.149922	-0.920224	-0.361540	0.014809	-0.363542	0.931460	-0.988587	-0.145001	-0.040875
68	1948516													9.708552	0.176815	1.504403	0.149863	-0.920279	-0.361424	0.014717	-0.363436	0.931503	-0.988597	-0.144917	-0.040922
69	1948683													9.705365	0.190508	1.504610	0.149773	-0.920300	-0.361408	0.014646	-0.363426	0.931508	-0.988612	-0.144808	-0.040953
70	1948850													9.711535	0.181282	1.489347	0.149681	-0.920351	-0.361316	0.014555	-0.363342	0.931542	-0.988627	-0.144693	-0.040989
71	1949016													9.721561	0.193995	1.512246	0.149569	-0.920408	-0.361217	0.014501	-0.363245	0.931581	-0.988645	-0.144573	-0.040983
72	1949183													9.711870	0.199388	1.502014	0.149501	-0.920474	-0.361079	0.014465	-0.363108	0.931635	-0.988656	-0.144503	-0.040970
73	1949350													9.702476	0.203300	1.507997	0.149409	-0.920529	-0.360976	0.014416	-0.363007	0.931675	-0.988670	-0.144405	-0.040966
74	1949516													9.699243	0.195204	1.497751	0.149307	-0.920548	-0.360970	0.014380	-0.363001	0.931678	-0.988686	-0.144297	-0.040961
75	1949683													9.686472	0.214869	1.497322	0.149214	-0.920575	-0.360940	0.014355	-0.362971	0.931690	-0.988701	-0.144202	-0.040946
76	1949850													9.735209	0.198851	1.506356	0.149119	-0.920671	-0.360733	0.014338	-0.362761	0.931772	-0.988715	-0.144118	-0.040894
77	1950017													9.715937	0.187687	1.510855	0.149049	-0.920802	-0.360426	0.014306	-0.362452	0.931893	-0.988726	-0.144054	-0.040850
78	1950183													9.677340	0.189021	1.493971	0.148920	-0.920941	-0.360127	0.014264	-0.362149	0.932011	-0.988746	-0.143932	-0.040795
79	1950350													9.733452	0.230311	1.499174	0.148793	-0.921047	-0.359906	0.014262	-0.361921	0.932100	-0.988766	-0.143822	-0.040716
80	1950517													9.695788	0.197496	1.455270	0.148717	-0.921235	-0.359458	0.014260	-0.361465	0.932277	-0.988777	-0.143771	-0.040619
81	1950683													9.787082	0.203665	1.523131	0.148744	-0.921332	-0.359197	0.014338	-0.361190	0.932382	-0.988772	-0.143837	-0.040515
82	1950850													9.716094	0.192965	1.507393	0.148854	-0.921382	-0.359024	0.014410	-0.361009	0.932451	-0.988754	-0.143973	-0.040461
83	1951017													9.678261	0.198419	1.552374	0.148908	-0.921381	-0.359004	0.014448	-0.360985	0.932460	-0.988745	-0.144038	-0.040441
84	1951183													9.715851	0.198555	1.509238	0.148844	-0.921427	-0.358911	0.014467	-0.360886	0.932498	-0.988755	-0.143989	-0.040385
85	1951350													9.682364	0.192346	1.503509	0.148778	-0.921474	-0.358820	0.014477	-0.360789	0.932535	-0.988765	-0.143935	-0.040337
86	1951517													9.697659	0.217537	1.512217	0.148659	-0.921546	-0.358684	0.014507	-0.360642	0.932591	-0.988782	-0.143841	-0.040244
87	1951683													9.703781	0.188005	1.508523	0.148595	-0.921548	-0.358703	0.014484	-0.360663	0.932584	-0.988792	-0.143773	-0.040245
88	1951850													9.711494	0.198694	1.501960	0.148581	-0.921557	-0.358686	0.014427	-0.360654	0.932588	-0.988795	-0.143740	-0.040292
89	1952017													9.703262	0.191073	1.490231	0.148543	-0.921553	-0.358713	0.014359	-0.360689	0.932575	-0.988802	-0.143678	-0.040345
90	1952183													9.730506	0.171483	1.497344	0.148569	-0.921591	-0.358606	0.014284	-0.360592	0.932614	-0.988799	-0.143680	-0.040408
91	1952350													9.714653	0.191517	1.516391	0.148569	-0.921606	-0.358567	0.014164	-0.360571	0.932624	-0.988801	-0.143638	-0.040516
92	1952517													9.722939	0.194614	1.509921	0.148556	-0.921665	-0.358419	0.014039	-0.360438	0.932677	-0.988804	-0.143587	-0.040606
93	1952683													9.725168	0.194997	1.507845	0.148547	-0.921662	-0.358430	0.013900	-0.360470	0.932667	-0.988808	-0.143527	-0.040736
94	1952850													9.704426	0.198963	1.491871	0.148502	-0.921734	-0.358264	0.013792	-0.360315	0.932729	-0.988816	-0.143453	-0.040795
95	1953017													9.684406	0.186578	1.470005	0.148329	-0.921753	-0.358289	0.013649	-0.360354	0.932716	-0.988844	-0.143239	-0.040870
96	1953183													9.708564	0.180794	1.496021	0.148250	-0.921796	-0.358210	0.013474	-0.360296	0.932741	-0.988858	-0.143106	-0.040994
97	1953350													9.702537	0.227729	1.477206	0.148155	-0.921847	-0.358118	0.013497	-0.360196	0.932779	-0.988872	-0.143030	-0.040923
98	1953517													9.722825	0.215866	1.494323	0.148130	-0.921826	-0.358182	0.013471	-0.360263	0.932753	-0.988876	-0.142994	-0.040947
99	1953683													9.732448	0.196574	1.486515	0.148044	-0.921848	-0.358162	0.013426	-0.360246	0.932761	-0.988890	-0.142898	-0.040956
100	1953850													9.723683	0.189303	1.498132	0.147968	-0.921954	-0.357919	0.013375	-0.360004	0.932855	-0.988902	-0.142820	-0.040938
101	1954017													9.710458	0.215903	1.501528	0.147885	-0.922070	-0.357656	0.013348	-0.359738	0.932958	-0.988914	-0.142745	-0.040892
102	1954183													9.709321	0.209587	1.505390	0.147809	-0.922131	-0.357529	0.013330	-0.359609	0.933008	-0.988926	-0.142673	-0.040861
103	1954350													9.708108	0.208772	1.493410	0.147713	-0.922163	-0.357487	0.013341	-0.359561	0.933026	-0.988940	-0.142590	-0.040809
104	1954517													9.707740	0.215288	1.500655	0.147649	-0.922233	-0.357331	0.013402	-0.359392	0.933090	-0.988949	-0.142559	-0.040704
105	1954683													9.710390	0.201423	1.516255	0.147589	-0.922282	-0.357231	0.013445	-0.359282	0.933132	-0.988957	-0.142523	-0.040626
106	1954850													9.705555	0.218728	1.524212	0.147513	-0.922358	-0.357065	0.013489	-0.359105	0.933200	-0.988968	-0.142476	-0.040531
107	1955017													9.711266	0.207484	1.502726	0.147435	-0.922457	-0.356842	0.013524	-0.358870	0.933289	-0.988979	-0.142426	-0.040435
108	1955183													9.717121	0.207466	1.478325	0.147361	-0.922537	-0.356665	0.013550	-0.358685	0.933360	-0.988990	-0.142374	-0.040356
109	1955350													9.711359	0.212230	1.495177	0.147297	-0.922618	-0.356481	0.013576	-0.358493	0.933434	-0.988999	-0.142331	-0.040279
110	1955517													9.709567	0.204030	1.485406	0.147244	-0.922708	-0.356270	0.013573	-0.358277	0.933517	-0.989007	-0.142291	-0.040230
111	1955683													9.715203	0.203179	1.505383	0.147189	-0.922748	-0.356191	0.013548	-0.358199	0.933547	-0.989016	-0.142234	-0.040221
112	1955850													9.711653	0.184039	1.487921	0.147140	-0.922799	-0.356078	0.013499	-0.358090	0.933590	-0.989024	-0.142175	-0.040233
113	1956017													9.712221	0.202614	1.495116	0.147084	-0.922835	-0.356008	0.013437	-0.358025	0.933615	-0.989033	-0.142104	-0.040259
114	1956183													9.709499	0.202417	1.485353	0.147030	-0.922898	-0.355866	0.013340	-0.357893	0.933667	-0.989042	-0.142024	-0.040310
115	1956350													9.719157	0.191793	1.495069	0.146957	-0.922916	-0.355850	0.013238	-0.357889	0.933670	-0.989054	-0.141920	-0.040377
116	1956517													9.714039	0.194044	1.487109	0.146920	-0.922939	-0.355806	0.013180	-0.357850	0.933686	-0.989061	-0.141866	-0.040411
117	1956683													9.704793	0.206944	1.507181	0.146896	-0.922909	-0.355894	0.013097	-0.357951	0.933649	-0.989065	-0.141810	-0.040494
118	1956850													9.716251	0.197573	1.470233	0.146867	-0.922919	-0.355881	0.012998	-0.357951	0.933650	-0.989071	-0.141749	-0.040575
119	1957017													9.692033	0.203720	1.488221	0.146835	-0.922958	-0.355792	0.012946	-0.357866	0.933683	-0.989076	-0.141704	-0.040598
120	1957183													9.713730	0.234696	1.487545	0.146763	-0.922973	-0.355783	0.012919	-0.357859	0.933686	-0.989087	-0.141627	-0.040597
121	1957350													9.754581	0.205260	1.483078	0.146694	-0.922993	-0.355759	0.012874	-0.357838	0.933695	-0.989098	-0.141547	-0.040609
122	1957517													9.693933	0.190333	1.487252	0.146677	-0.923010	-0.355723	0.012794	-0.357812	0.933706	-0.989102	-0.141505	-0.040674
123	1957683													9.709857	0.235508	1.514842	0.146602	-0.923025	-0.355715	0.012793	-0.357801	0.933710	-0.989113	-0.141434	-0.040646
124	1957850													9.715285	0.232969	1.463062	0.146561	-0.923153	-0.355400	0.012787	-0.357481	0.933833	-0.989119	-0.141408	-0.040588
125	1958017													9.699393	0.197553	1.476437	0.146512	-0.923252	-0.355161	0.012778	-0.357239	0.933926	-0.989126	-0.141370	-0.040542
126	1958183													9.769958	0.214054	1.509077	0.146553	-0.923260	-0.355124	0.012853	-0.357192	0.933942	-0.989119	-0.141436	-0.040481
127	1958350													9.683003	0.212620	1.521269	0.146624	-0.923236	-0.355157	0.012912	-0.357220	0.933931	-0.989108	-0.141523	-0.040456
128	1958517													9.696307	0.221607	1.537565	0.146622	-0.923252	-0.355118	0.012925	-0.357179	0.933947	-0.989108	-0.141527	-0.040437
129	1958683													9.715121	0.192936	1.504285	0.146529	-0.923287	-0.355063	0.012929	-0.357119	0.933969	-0.989122	-0.141444	-0.040391
130	1958850													9.670801	0.201594	1.520746	0.146459	-0.923298	-0.355065	0.012909	-0.357121	0.933969	-0.989132	-0.141372	-0.040385
131	1959017													9.707463	0.198806	1.502503	0.146329	-0.923321	-0.355057	0.012869	-0.357113	0.933972	-0.989152	-0.141236	-0.040374
132	1959183													9.722968	0.168787	1.493867	0.146268	-0.923317	-0.355092	0.012789	-0.357158	0.933956	-0.989162	-0.141149	-0.040433
133	1959350													9.727241	0.191120	1.492625	0.146217	-0.923288	-0.355189	0.012661	-0.357272	0.933915	-0.989172	-0.141051	-0.040549
134	1959517													9.731718	0.191257	1.492460	0.146162	-0.923298	-0.355186	0.012501	-0.357290	0.933910	-0.989182	-0.140943	-0.040680
135	1959683													9.732502	0.203168	1.477887	0.146114	-0.923337	-0.355104	0.012359	-0.357224	0.933937	-0.989191	-0.140850	-0.040784
136	1959850													9.721607	0.205165	1.474344	0.146084	-0.923328	-0.355140	0.012185	-0.357284	0.933916	-0.989197	-0.140758	-0.040942
137	1960017													9.720920	0.198390	1.476148	0.146032	-0.923282	-0.355282	0.012004	-0.357451	0.933855	-0.989207	-0.140637	-0.041116
138	1960183													9.705620	0.181301	1.485353	0.145954	-0.923236	-0.355433	0.011819	-0.357627	0.933790	-0.989221	-0.140491	-0.041285
139	1960350													9.693830	0.181603	1.449653	0.145752	-0.923285	-0.355388	0.011638	-0.357599	0.933803	-0.989253	-0.140240	-0.041375
140	1960517													9.727658	0.160475	1.461626	0.145605	-0.923327	-0.355339	0.011406	-0.357576	0.933814	-0.989277	-0.140021	-0.041534
141	1960683													9.679598	0.202756	1.458375	0.145490	-0.923319	-0.355408	0.011306	-0.357655	0.933785	-0.989295	-0.139875	-0.041596
142	1960850													9.733558	0.206689	1.448868	0.145371	-0.923272	-0.355578	0.011276	-0.357826	0.933720	-0.989313	-0.139745	-0.041607
143	1961017													9.710578	0.207925	1.502583	0.145293	-0.923327	-0.355468	0.011127	-0.357733	0.933758	-0.989326	-0.139624	-0.041702
144	1961183													9.733693	0.175473	1.491771	0.145180	-0.923351	-0.355450	0.010990	-0.357729	0.933761	-0.989344	-0.139469	-0.041787
145	1961350													9.716499	0.199233	1.506746	0.145031	-0.923408	-0.355365	0.010872	-0.357653	0.933791	-0.989367	-0.139293	-0.041831
146	1961517													9.716930	0.197069	1.498996	0.144905	-0.923527	-0.355107	0.010808	-0.357396	0.933890	-0.989387	-0.139163	-0.041807
147	1961683													9.704739	0.179952	1.485665	0.144780	-0.923606	-0.354951	0.010734	-0.357244	0.933950	-0.989406	-0.139028	-0.041807
148	1961850													9.711499	0.200405	1.496081	0.144657	-0.923633	-0.354931	0.010708	-0.357222	0.933958	-0.989424	-0.138905	-0.041785
149	1962017													9.717625	0.184837	1.491178	0.144558	-0.923700	-0.354798	0.010713	-0.357082	0.934012	-0.989438	-0.138819	-0.041723
150	1962183													9.722391	0.187418	1.492809	0.144476	-0.923826	-0.354502	0.010733	-0.356777	0.934128	-0.989450	-0.138764	-0.041630
151	1962350													9.702254	0.182040	1.475618	0.144386	-0.923897	-0.354355	0.010719	-0.356626	0.934186	-0.989463	-0.138682	-0.041589
152	1962517													9.712589	0.186095	1.477460	0.144289	-0.923923	-0.354327	0.010723	-0.356593	0.934198	-0.989478	-0.138594	-0.041545
153	1962683													9.729112	0.182522	1.477821	0.144209	-0.923987	-0.354193	0.010720	-0.356454	0.934251	-0.989489	-0.138524	-0.041498
154	1962850													9.728253	0.181324	1.470894	0.144129	-0.924043	-0.354079	0.010703	-0.356339	0.934296	-0.989501	-0.138449	-0.041469
155	1963017													9.722775	0.184922	1.451633	0.144068	-0.924087	-0.353988	0.010649	-0.356252	0.934329	-0.989510	-0.138377	-0.041483
156	1963183													9.721229	0.162518	1.465984	0.143969	-0.924099	-0.353996	0.010575	-0.356266	0.934325	-0.989526	-0.138258	-0.041519
157	1963350													9.727096	0.164750	1.457477	0.143907	-0.924073	-0.354091	0.010509	-0.356368	0.934287	-0.989535	-0.138172	-0.041573
158	1963517													9.706119	0.171946	1.438534	0.143827	-0.924127	-0.353982	0.010424	-0.356266	0.934326	-0.989548	-0.138071	-0.041608
159	1963683													9.711204	0.174365	1.467170	0.143750	-0.924149	-0.353955	0.010331	-0.356249	0.934334	-0.989560	-0.137967	-0.041663
160	1963850													9.720387	0.169556	1.466176	0.143683	-0.924179	-0.353904	0.010218	-0.356210	0.934350	-0.989571	-0.137866	-0.041738
161	1964017													9.717931	0.168165	1.457168	0.143621	-0.924164	-0.353969	0.010096	-0.356291	0.934321	-0.989581	-0.137762	-0.041841
162	1964183													9.692773	0.177852	1.464886	0.143556	-0.924165	-0.353993	0.009980	-0.356328	0.934308	-0.989592	-0.137658	-0.041930
163	1964350													9.734447	0.178717	1.465723	0.143492	-0.924226	-0.353859	0.009947	-0.356194	0.934359	-0.989602	-0.137592	-0.041918
164	1964517													9.747798	0.184375	1.465888	0.143439	-0.924181	-0.353997	0.009884	-0.356341	0.934304	-0.989610	-0.137514	-0.041978
165	1964683													9.698977	0.159373	1.446113	0.143434	-0.924187	-0.353984	0.009818	-0.356336	0.934306	-0.989611	-0.137487	-0.042036
166	1964850													9.744031	0.233105	1.485536	0.143408	-0.924215	-0.353922	0.009821	-0.356272	0.934331	-0.989615	-0.137466	-0.042016
167	1965017													9.700659	0.216772	1.428838	0.143401	-0.924295	-0.353717	0.009813	-0.356065	0.934410	-0.989616	-0.137466	-0.041990
168	1965183													9.767309	0.199728	1.471584	0.143464	-0.924333	-0.353592	0.009845	-0.355937	0.934458	-0.989607	-0.137543	-0.041964
169	1965350													9.749473	0.181461	1.470526	0.143663	-0.924354	-0.353454	0.009915	-0.355797	0.934511	-0.989577	-0.137759	-0.041950
170	1965517													9.679495	0.189349	1.511269	0.143850	-0.924277	-0.353579	0.009935	-0.355929	0.934460	-0.989550	-0.137935	-0.042018
171	1965683													9.702340	0.175874	1.498842	0.143934	-0.924245	-0.353630	0.009917	-0.355986	0.934439	-0.989538	-0.138004	-0.042072
172	1965850													9.694362	0.179229	1.471184	0.143963	-0.924235	-0.353643	0.009902	-0.356003	0.934432	-0.989534	-0.138025	-0.042100
173	1966017													9.685167	0.192092	1.470004	0.144036	-0.924251	-0.353574	0.009867	-0.355941	0.934456	-0.989523	-0.138084	-0.042149
174	1966183													9.719090	0.174773	1.477596	0.144134	-0.924228	-0.353594	0.009818	-0.355972	0.934445	-0.989509	-0.138157	-0.042234
175	1966350													9.708389	0.149278	1.467771	0.144285	-0.924170	-0.353683	0.009769	-0.356075	0.934406	-0.989488	-0.138276	-0.042348
176	1966517													9.701255	0.148808	1.452936	0.144442	-0.924113	-0.353766	0.009701	-0.356176	0.934369	-0.989466	-0.138395	-0.042482
177	1966684													9.733121	0.145354	1.438145	0.144587	-0.924115	-0.353704	0.009601	-0.356133	0.934386	-0.989445	-0.138496	-0.042620
178	1966850													9.718962	0.177473	1.447208	0.144740	-0.924108	-0.353660	0.009532	-0.356105	0.934397	-0.989424	-0.138615	-0.042734
179	1967017													9.719771	0.180506	1.472793	0.144884	-0.924103	-0.353614	0.009396	-0.356083	0.934407	-0.989404	-0.138703	-0.042908
180	1967184													9.753326	0.156203	1.472946	0.144998	-0.923991	-0.353859	0.009298	-0.356350	0.934306	-0.989388	-0.138763	-0.043078
181	1967350													9.690147	0.168869	1.457090	0.145103	-0.923974	-0.353861	0.009190	-0.356372	0.934299	-0.989374	-0.138822	-0.043220
182	1967517													9.716406	0.165351	1.424345	0.145096	-0.923946	-0.353937	0.009037	-0.356470	0.934263	-0.989376	-0.138756	-0.043372
183	1967684													9.720094	0.181396	1.458868	0.145224	-0.923916	-0.353963	0.008896	-0.356522	0.934245	-0.989359	-0.138823	-0.043556
184	1967850													9.723161	0.190680	1.440539	0.145287	-0.923933	-0.353893	0.008865	-0.356458	0.934269	-0.989350	-0.138874	-0.043598
185	1968017													9.704887	0.190006	1.453097	0.145461	-0.923868	-0.353989	0.008784	-0.356574	0.934226	-0.989325	-0.139003	-0.043752
186	1968184													9.721457	0.160287	1.468756	0.145545	-0.923867	-0.353958	0.008696	-0.356559	0.934232	-0.989313	-0.139051	-0.043861
187	1968350													9.717736	0.155550	1.501663	0.145589	-0.923843	-0.354002	0.008646	-0.356613	0.934212	-0.989307	-0.139071	-0.043931
188	1968517													9.717357	0.186488	1.493456	0.145586	-0.923905	-0.353843	0.008636	-0.356453	0.934273	-0.989308	-0.139073	-0.043916
189	1968684													9.712803	0.153176	1.514195	0.145574	-0.923929	-0.353783	0.008656	-0.356389	0.934297	-0.989309	-0.139072	-0.043883
190	1968850													9.719090	0.149893	1.480357	0.145569	-0.923963	-0.353697	0.008709	-0.356294	0.934333	-0.989310	-0.139090	-0.043819
191	1969017													9.722234	0.160343	1.482781	0.145577	-0.923975	-0.353662	0.008752	-0.356254	0.934348	-0.989308	-0.139115	-0.043776
192	1969184													9.703115	0.163486	1.481093	0.145623	-0.923966	-0.353669	0.008814	-0.356254	0.934348	-0.989301	-0.139180	-0.043734
193	1969350													9.722206	0.165106	1.514294	0.145685	-0.923966	-0.353641	0.008861	-0.356222	0.934359	-0.989291	-0.139256	-0.043709
194	1969517													9.721973	0.155669	1.500126	0.145698	-0.924021	-0.353492	0.008965	-0.356057	0.934421	-0.989289	-0.139312	-0.043592
195	1969684													9.712375	0.162117	1.476062	0.145671	-0.924022	-0.353501	0.009048	-0.356053	0.934422	-0.989292	-0.139316	-0.043505
196	1969850													9.716505	0.171189	1.477878	0.145644	-0.924015	-0.353531	0.009131	-0.356071	0.934414	-0.989295	-0.139320	-0.043422
197	1970017													9.721501	0.161820	1.475053	0.145637	-0.924050	-0.353442	0.009169	-0.355975	0.934451	-0.989296	-0.139331	-0.043370
198	1970184													9.721483	0.162102	1.476680	0.145644	-0.924053	-0.353430	0.009211	-0.355957	0.934457	-0.989294	-0.139354	-0.043332
199	1970350													9.712439	0.163461	1.470798	0.145707	-0.924036	-0.353449	0.009213	-0.355979	0.934449	-0.989285	-0.139412	-0.043355
200	1970517													9.706382	0.151446	1.472900	0.145724	-0.924020	-0.353484	0.009184	-0.356019	0.934434	-0.989283	-0.139416	-0.043394
201	1970684													9.702884	0.158426	1.443100	0.145732	-0.924021	-0.353479	0.009127	-0.356022	0.934433	-0.989282	-0.139403	-0.043450
202	1970850													9.709464	0.183127	1.461625	0.145747	-0.924036	-0.353433	0.009097	-0.355981	0.934449	-0.989280	-0.139409	-0.043478
203	1971017													9.742387	0.165679	1.442674	0.145730	-0.924091	-0.353296	0.009070	-0.355845	0.934501	-0.989283	-0.139389	-0.043475
204	1971184													9.722343	0.115292	1.458284	0.145803	-0.924075	-0.353309	0.008992	-0.355873	0.934491	-0.989273	-0.139428	-0.043578
205	1971350													9.700687	0.162599	1.471216	0.145830	-0.924058	-0.353341	0.008959	-0.355911	0.934477	-0.989269	-0.139441	-0.043624
206	1971517													9.714839	0.166158	1.441408	0.145902	-0.924092	-0.353223	0.009025	-0.355786	0.934524	-0.989258	-0.139537	-0.043570
207	1971684													9.744178	0.163565	1.464307	0.145953	-0.924175	-0.352985	0.009105	-0.355536	0.934618	-0.989250	-0.139624	-0.043477
208	1971850													9.756415	0.169520	1.495466	0.146137	-0.924168	-0.352928	0.009242	-0.355467	0.934643	-0.989221	-0.139848	-0.043406
209	1972017													9.698853	0.176961	1.519062	0.146387	-0.924097	-0.353010	0.009387	-0.355540	0.934614	-0.989183	-0.140129	-0.043372
210	1972184													9.711391	0.167957	1.540047	0.146552	-0.924104	-0.352922	0.009508	-0.355442	0.934650	-0.989157	-0.140330	-0.043305
211	1972350													9.723840	0.165471	1.485578	0.146670	-0.924076	-0.352948	0.009614	-0.355458	0.934643	-0.989139	-0.140477	-0.043251
212	1972517													9.689283	0.172173	1.513898	0.146788	-0.924097	-0.352841	0.009731	-0.355339	0.934687	-0.989120	-0.140635	-0.043167
213	1972684													9.708966	0.165157	1.500334	0.146953	-0.924103	-0.352759	0.009806	-0.355252	0.934719	-0.989095	-0.140819	-0.043143
214	1972850													9.706481	0.150093	1.503244	0.147152	-0.924071	-0.352760	0.009871	-0.355253	0.934718	-0.989065	-0.141028	-0.043154
215	1973017													9.707004	0.147604	1.502976	0.147373	-0.924037	-0.352757	0.009923	-0.355252	0.934718	-0.989031	-0.141252	-0.043185
216	1973184													9.718608	0.141174	1.478890	0.147577	-0.924003	-0.352760	0.009932	-0.355263	0.934714	-0.989001	-0.141446	-0.043252
217	1973350													9.732133	0.157067	1.481719	0.147769	-0.923969	-0.352767	0.009947	-0.355276	0.934708	-0.988972	-0.141630	-0.043308
218	1973517													9.749281	0.159270	1.474231	0.147940	-0.923923	-0.352818	0.009960	-0.355334	0.934686	-0.988946	-0.141791	-0.043366
219	1973684													9.744725	0.168108	1.466313	0.148135	-0.923885	-0.352836	0.009961	-0.355360	0.934676	-0.988917	-0.141973	-0.043439
220	1973850													9.704391	0.151501	1.510714	0.148304	-0.923840	-0.352883	0.009965	-0.355414	0.934656	-0.988892	-0.142130	-0.043503
221	1974017													9.718781	0.160553	1.437116	0.148300	-0.923805	-0.352975	0.009896	-0.355517	0.934617	-0.988893	-0.142097	-0.043582
222	1974184													9.707315	0.150197	1.480089	0.148458	-0.923771	-0.352998	0.009811	-0.355560	0.934602	-0.988870	-0.142212	-0.043722
223	1974350													9.721183	0.186893	1.488063	0.148533	-0.923714	-0.353116	0.009872	-0.355674	0.934558	-0.988858	-0.142299	-0.043710
224	1974517													9.726769	0.165391	1.477706	0.148756	-0.923688	-0.353088	0.009805	-0.355666	0.934562	-0.988825	-0.142484	-0.043851
225	1974684													9.722216	0.156142	1.506643	0.148907	-0.923648	-0.353129	0.009725	-0.355726	0.934540	-0.988803	-0.142594	-0.043987
226	1974850													9.721964	0.160002	1.527684	0.149069	-0.923611	-0.353159	0.009655	-0.355772	0.934523	-0.988780	-0.142718	-0.044117
227	1975017													9.725928	0.179311	1.548791	0.149210	-0.923676	-0.352928	0.009593	-0.355555	0.934606	-0.988759	-0.142838	-0.044192
228	1975184													9.691179	0.140378	1.569058	0.149355	-0.923776	-0.352606	0.009534	-0.355244	0.934725	-0.988738	-0.142968	-0.044250
229	1975350													9.694983	0.128175	1.557510	0.149473	-0.923858	-0.352342	0.009508	-0.354986	0.934823	-0.988720	-0.143080	-0.044277
230	1975517													9.726025	0.118194	1.519129	0.149734	-0.923926	-0.352052	0.009474	-0.354709	0.934929	-0.988681	-0.143326	-0.044358
231	1975684													9.721862	0.115047	1.519929	0.150125	-0.923943	-0.351841	0.009373	-0.354528	0.934998	-0.988623	-0.143665	-0.044563
232	1975850													9.719469	0.134100	1.526502	0.150571	-0.923951	-0.351629	0.009227	-0.354355	0.935066	-0.988556	-0.144038	-0.044830
233	1976017													9.754652	0.174689	1.482811	0.151128	-0.923868	-0.351609	0.009067	-0.354384	0.935056	-0.988473	-0.144501	-0.045181
234	1976184													9.711773	0.161090	1.481979	0.151787	-0.923736	-0.351670	0.008917	-0.354499	0.935014	-0.988373	-0.145059	-0.045571
235	1976350													9.730577	0.189856	1.500142	0.152508	-0.923555	-0.351834	0.008764	-0.354720	0.934931	-0.988263	-0.145668	-0.046004
236	1976517													9.752127	0.208099	1.473299	0.153281	-0.923371	-0.351982	0.008604	-0.354930	0.934853	-0.988145	-0.146324	-0.046459
237	1976684													9.752196	0.201243	1.491465	0.154159	-0.923147	-0.352184	0.008438	-0.355202	0.934751	-0.988010	-0.147072	-0.046968
238	1976850													9.720939	0.188208	1.484028	0.155113	-0.922938	-0.352314	0.008259	-0.355407	0.934675	-0.987862	-0.147890	-0.047505
239	1977017													9.733228	0.180355	1.522519	0.156083	-0.922678	-0.352568	0.008059	-0.355741	0.934550	-0.987711	-0.148708	-0.048090
240	1977184													9.716559	0.173748	1.525428	0.157050	-0.922443	-0.352754	0.007831	-0.356012	0.934449	-0.987560	-0.149517	-0.048688
241	1977350													9.714781	0.157427	1.528017	0.158035	-0.922193	-0.352965	0.007619	-0.356308	0.934338	-0.987404	-0.150347	-0.049283
242	1977517													9.729257	0.167947	1.533332	0.158984	-0.922006	-0.353028	0.007452	-0.356445	0.934286	-0.987253	-0.151167	-0.049798
243	1977684													9.742805	0.126037	1.563503	0.160036	-0.921791	-0.353113	0.007260	-0.356615	0.934223	-0.987085	-0.152072	-0.050379
244	1977850													9.666301	0.105273	1.565989	0.161175	-0.921560	-0.353198	0.007098	-0.356785	0.934159	-0.986900	-0.153071	-0.050964
245	1978017													9.691286	0.148738	1.616589	0.162292	-0.921331	-0.353286	0.007029	-0.356944	0.934100	-0.986718	-0.154080	-0.051453
246	1978184													9.717018	0.128146	1.584460	0.163457	-0.921199	-0.353091	0.007034	-0.356808	0.934151	-0.986525	-0.155178	-0.051843
247	1978350													9.757379	0.113769	1.671806	0.164851	-0.920996	-0.352974	0.007080	-0.356756	0.934171	-0.986293	-0.156498	-0.052291
248	1978517													9.698978	0.116113	1.689527	0.166357	-0.920706	-0.353024	0.007214	-0.356867	0.934127	-0.986039	-0.157945	-0.052725
249	1978684													9.648606	0.103680	1.759874	0.167915	-0.920433	-0.352997	0.007302	-0.356911	0.934110	-0.985774	-0.159429	-0.053210
250	1978850													9.672426	0.093875	1.742706	0.169427	-0.920160	-0.352986	0.007366	-0.356972	0.934086	-0.985515	-0.160860	-0.053703
251	1979017													9.673577	0.096265	1.765668	0.171063	-0.919813	-0.353102	0.007480	-0.357162	0.934012	-0.985232	-0.162416	-0.054218
252	1979184													9.647809	0.093718	1.769592	0.172882	-0.919471	-0.353106	0.007579	-0.357252	0.933977	-0.984913	-0.164144	-0.054794
253	1979350													9.696198	0.086401	1.821047	0.174942	-0.919059	-0.353165	0.007657	-0.357416	0.933914	-0.984549	-0.166086	-0.055490
254	1979517													9.647929	0.091696	1.865791	0.177500	-0.918494	-0.353360	0.007547	-0.357781	0.933775	-0.984092	-0.168412	-0.056574
255	1979684													9.649820	0.073054	1.826205	0.179992	-0.918014	-0.353345	0.007572	-0.357908	0.933726	-0.983639	-0.170739	-0.057469
256	1979850													9.728677	0.114145	1.877145	0.182727	-0.917592	-0.353039	0.007699	-0.357738	0.933790	-0.983134	-0.173346	-0.058304
257	1980017													9.594027	0.105117	1.970736	0.185654	-0.917251	-0.352395	0.007837	-0.357236	0.933981	-0.982584	-0.176159	-0.059133
258	1980184													9.610674	0.129685	1.782423	0.188077	-0.916976	-0.351828	0.008098	-0.356761	0.934161	-0.982121	-0.178543	-0.059673
259	1980350													9.768256	0.174427	1.740938	0.190900	-0.916609	-0.351262	0.008439	-0.356297	0.934335	-0.981573	-0.181329	-0.060282
260	1980517													9.628682	0.173910	1.899969	0.193978	-0.916378	-0.350178	0.008724	-0.355333	0.934699	-0.980967	-0.184366	-0.060932
261	1980684													9.602695	0.115419	1.786494	0.196071	-0.916244	-0.349360	0.008956	-0.354587	0.934980	-0.980549	-0.186451	-0.061318
262	1980850													9.720274	0.128664	1.808721	0.198281	-0.916067	-0.348578	0.009188	-0.353886	0.935243	-0.980102	-0.188643	-0.061752
263	1981017													9.700384	0.158394	1.915207	0.200492	-0.915786	-0.348050	0.009338	-0.353461	0.935403	-0.979651	-0.190791	-0.062315
264	1981184													9.568012	0.171301	2.005869	0.202599	-0.915421	-0.347790	0.009393	-0.353322	0.935455	-0.979217	-0.192789	-0.062984
265	1981350													9.564301	0.171444	2.081858	0.204480	-0.915124	-0.347471	0.009343	-0.353131	0.935527	-0.978826	-0.194543	-0.063658
266	1981517													9.632384	0.205926	2.037367	0.206277	-0.914825	-0.347196	0.009225	-0.352993	0.935580	-0.978450	-0.196192	-0.064375
267	1981684													9.600161	0.212200	2.043503	0.208342	-0.914520	-0.346766	0.009124	-0.352713	0.935687	-0.978013	-0.198107	-0.065141
268	1981850													9.571991	0.213812	2.056553	0.210517	-0.914196	-0.346308	0.009083	-0.352402	0.935805	-0.977548	-0.200149	-0.065883
269	1982017													9.609398	0.212812	2.056695	0.212666	-0.913898	-0.345780	0.009058	-0.352016	0.935950	-0.977083	-0.202177	-0.066584
270	1982184													9.609942	0.197095	2.117565	0.215053	-0.913615	-0.345051	0.009099	-0.351429	0.936170	-0.976560	-0.204466	-0.067263
271	1982350													9.577433	0.180755	2.200865	0.217470	-0.913255	-0.344487	0.009138	-0.351013	0.936326	-0.976024	-0.206771	-0.067989
272	1982517													9.567585	0.171544	2.241655	0.219895	-0.912860	-0.343996	0.009188	-0.350673	0.936453	-0.975480	-0.209082	-0.068724
273	1982684													9.531568	0.162499	2.262118	0.222257	-0.912453	-0.343556	0.009291	-0.350371	0.936565	-0.974944	-0.211351	-0.069395
274	1982850													9.539804	0.153996	2.284743	0.224589	-0.912047	-0.343119	0.009453	-0.350058	0.936680	-0.974408	-0.213612	-0.069997
275	1983017													9.538599	0.134906	2.307660	0.226934	-0.911593	-0.342783	0.009603	-0.349854	0.936755	-0.973863	-0.215873	-0.070639
276	1983184													9.516294	0.100456	2.291009	0.229192	-0.911135	-0.342495	0.009781	-0.349688	0.936815	-0.973332	-0.218061	-0.071234
277	1983351													9.593841	0.094911	2.250171	0.231474	-0.910616	-0.342342	0.010004	-0.349653	0.936826	-0.972790	-0.220276	-0.071826
278	1983517													9.606382	0.115968	2.293235	0.233939	-0.910054	-0.342161	0.010162	-0.349619	0.936837	-0.972198	-0.222640	-0.072541
279	1983684													9.505082	0.082199	2.282047	0.236302	-0.909506	-0.341995	0.010321	-0.349594	0.936845	-0.971625	-0.224908	-0.073222
280	1983851													9.585412	0.109259	2.288238	0.238553	-0.908902	-0.342036	0.010483	-0.349774	0.936775	-0.971073	-0.227056	-0.073912
281	1984017													9.574022	0.104963	2.310488	0.240898	-0.908258	-0.342105	0.010645	-0.349991	0.936692	-0.970492	-0.229289	-0.074643
282	1984184													9.562522	0.112307	2.321337	0.243271	-0.907709	-0.341882	0.010803	-0.349914	0.936720	-0.969898	-0.231570	-0.075318
283	1984351													9.592643	0.109506	2.362066	0.245778	-0.907105	-0.341691	0.010965	-0.349880	0.936730	-0.969264	-0.233975	-0.076047
284	1984517													9.540546	0.097556	2.390264	0.248454	-0.906425	-0.341562	0.011112	-0.349928	0.936711	-0.968580	-0.236525	-0.076869
285	1984684													9.534739	0.133531	2.409245	0.251054	-0.905686	-0.341621	0.011333	-0.350150	0.936625	-0.967907	-0.239015	-0.077642
286	1984851													9.564178	0.141052	2.429818	0.253835	-0.904921	-0.341592	0.011593	-0.350287	0.936571	-0.967178	-0.241694	-0.078425
287	1985017													9.511195	0.150073	2.527204	0.256735	-0.904140	-0.341494	0.011829	-0.350372	0.936536	-0.966409	-0.244481	-0.079257
288	1985184													9.479021	0.174963	2.564856	0.259576	-0.903350	-0.341436	0.012076	-0.350491	0.936488	-0.965647	-0.247213	-0.080070
289	1985351													9.514782	0.190924	2.604744	0.262492	-0.902602	-0.341184	0.012367	-0.350407	0.936516	-0.964855	-0.250048	-0.080817
290	1985517													9.518499	0.162528	2.644042	0.265651	-0.901781	-0.340912	0.012542	-0.350355	0.936533	-0.963988	-0.253066	-0.081762
291	1985684													9.440670	0.164120	2.683609	0.269014	-0.900863	-0.340700	0.012751	-0.350378	0.936521	-0.963052	-0.256282	-0.082769
292	1985851													9.471340	0.197957	2.706510	0.272504	-0.899864	-0.340567	0.013000	-0.350487	0.936477	-0.962067	-0.259622	-0.083811
293	1986017													9.521070	0.216303	2.661026	0.276244	-0.898855	-0.340218	0.013170	-0.350420	0.936500	-0.960997	-0.263183	-0.084964
294	1986184													9.539474	0.211207	2.764461	0.280583	-0.897686	-0.339755	0.013413	-0.350273	0.936552	-0.959736	-0.267337	-0.086240
295	1986351													9.447197	0.188698	2.818382	0.285014	-0.896434	-0.339371	0.013735	-0.350201	0.936574	-0.958425	-0.271598	-0.087499
296	1986517													9.400608	0.217260	2.900300	0.289471	-0.895177	-0.338915	0.014008	-0.350075	0.936617	-0.957084	-0.275871	-0.088797
297	1986684													9.390044	0.208075	2.954365	0.293918	-0.893878	-0.338517	0.014194	-0.350039	0.936627	-0.955725	-0.280097	-0.090195
298	1986851													9.371160	0.218287	2.986338	0.298295	-0.892611	-0.338033	0.014442	-0.349895	0.936677	-0.954365	-0.284288	-0.091481
299	1987017													9.372110	0.253921	3.053005	0.302736	-0.891317	-0.337499	0.014666	-0.349717	0.936741	-0.952962	-0.288535	-0.092800
300	1987184													9.309377	0.260660	3.128859	0.307146	-0.890067	-0.336812	0.014884	-0.349383	0.936862	-0.951546	-0.292767	-0.094064
301	1987351													9.344499	0.283796	3.124964	0.311492	-0.888822	-0.336107	0.015009	-0.349059	0.936981	-0.950130	-0.296906	-0.095389
302	1987517													9.401322	0.327134	3.029566	0.315569	-0.887768	-0.335088	0.015509	-0.348259	0.937270	-0.948776	-0.300970	-0.096131
303	1987684													9.495379	0.270465	3.175660	0.320566	-0.886685	-0.333207	0.015891	-0.346687	0.937846	-0.947093	-0.305936	-0.097045
304	1987851													9.320068	0.173962	3.167429	0.325924	-0.885519	-0.331105	0.016026	-0.345004	0.938464	-0.945260	-0.311174	-0.098254
305	1988017													9.277685	0.156400	3.199023	0.331468	-0.884132	-0.329301	0.016133	-0.343670	0.938952	-0.943329	-0.316545	-0.099652
306	1988184													9.342384	0.175316	3.264176	0.337435	-0.882514	-0.327578	0.016216	-0.342487	0.939383	-0.941209	-0.322293	-0.101256
307	1988351													9.250172	0.193768	3.262720	0.343636	-0.880767	-0.325829	0.016275	-0.341320	0.939806	-0.938962	-0.328255	-0.102955
308	1988517													9.250756	0.197526	3.337684	0.349955	-0.878847	-0.324284	0.016265	-0.340421	0.940132	-0.936625	-0.334278	-0.104838
309	1988684													9.300324	0.162470	3.547201	0.356607	-0.876792	-0.322593	0.016231	-0.339428	0.940492	-0.934114	-0.340622	-0.106811
310	1988851													9.194506	0.184492	3.529751	0.363131	-0.874661	-0.321097	0.016291	-0.338609	0.940786	-0.931596	-0.346860	-0.108711
311	1989017													9.195460	0.216362	3.582522	0.369841	-0.872378	-0.319648	0.016268	-0.337910	0.941038	-0.928953	-0.353234	-0.110781
312	1989184													9.106722	0.221251	3.659736	0.376079	-0.870308	-0.318006	0.016119	-0.337004	0.941365	-0.926447	-0.359154	-0.112711
313	1989351													9.135041	0.147731	3.690322	0.381882	-0.868405	-0.316290	0.015851	-0.336022	0.941721	-0.924075	-0.364640	-0.114556
314	1989517													9.115712	0.180682	3.702157	0.387506	-0.866536	-0.314570	0.015537	-0.335044	0.942074	-0.921736	-0.369947	-0.116369
315	1989684													9.106628	0.200152	3.806619	0.392912	-0.864723	-0.312848	0.015118	-0.334089	0.942420	-0.919452	-0.375017	-0.118195
316	1989851													9.132839	0.160904	3.826040	0.398069	-0.863126	-0.310733	0.014722	-0.332672	0.942928	-0.917237	-0.379925	-0.119720
317	1990017													8.952215	0.196339	3.905653	0.403163	-0.861466	-0.308764	0.014233	-0.331456	0.943363	-0.915017	-0.384724	-0.121370
318	1990184													8.946269	0.193685	3.885517	0.408295	-0.859743	-0.306816	0.013702	-0.330298	0.943777	-0.912747	-0.389543	-0.123079
319	1990351													8.928560	0.211281	3.963062	0.413533	-0.857944	-0.304832	0.013101	-0.329159	0.944184	-0.910395	-0.394445	-0.124878
320	1990517													8.891564	0.180796	4.025164	0.418770	-0.856040	-0.303030	0.012577	-0.328200	0.944524	-0.908005	-0.399350	-0.126674
321	1990684													8.888583	0.165190	4.148526	0.424197	-0.853977	-0.301298	0.012081	-0.327350	0.944826	-0.905489	-0.404433	-0.128544
322	1990851													8.804139	0.158336	4.177979	0.429808	-0.851694	-0.299805	0.011652	-0.326779	0.945029	-0.902845	-0.409674	-0.130528
323	1991017													8.833078	0.130413	4.255183	0.435698	-0.849122	-0.298595	0.011331	-0.326538	0.945116	-0.900021	-0.415169	-0.132651
324	1991184													8.791456	0.159237	4.343289	0.441925	-0.846229	-0.297655	0.011138	-0.326613	0.945093	-0.896983	-0.420975	-0.134913
325	1991351													8.736150	0.177433	4.447708	0.448589	-0.842985	-0.296891	0.010981	-0.326966	0.944972	-0.893671	-0.427164	-0.137417
326	1991517													8.730283	0.177059	4.484337	0.455286	-0.839667	-0.296097	0.010777	-0.327343	0.944844	-0.890280	-0.433366	-0.139985
327	1991684													8.750749	0.118248	4.689059	0.462400	-0.836056	-0.295291	0.010587	-0.327804	0.944687	-0.886608	-0.439949	-0.142725
328	1991851													8.710262	0.161104	4.881318	0.470146	-0.832152	-0.294084	0.010265	-0.328028	0.944612	-0.882529	-0.447124	-0.145679
329	1992017													8.682920	0.165853	4.878381	0.478847	-0.827613	-0.292851	0.009884	-0.328478	0.944460	-0.877843	-0.455146	-0.149111
330	1992184													8.590583	0.135303	4.952757	0.488483	-0.822411	-0.291590	0.009522	-0.329128	0.944237	-0.872521	-0.464020	-0.152943
331	1992351													8.501853	0.147139	4.971484	0.498803	-0.816652	-0.290300	0.009131	-0.329973	0.943946	-0.866667	-0.473494	-0.157135
332	1992517													8.385211	0.170015	5.012686	0.509541	-0.810482	-0.288941	0.008742	-0.330911	0.943622	-0.860402	-0.483340	-0.161528
333	1992684													8.304883	0.210008	5.152395	0.519512	-0.804656	-0.287465	0.008224	-0.331704	0.943348	-0.854424	-0.492445	-0.165707
334	1992851													8.297274	0.194024	5.195837	0.527951	-0.799876	-0.285424	0.007330	-0.331775	0.943330	-0.849243	-0.500124	-0.169297
335	1993017													8.347537	0.171300	5.232585	0.535497	-0.795721	-0.282969	0.006344	-0.331258	0.943519	-0.844513	-0.507047	-0.172339
336	1993184													8.253082	0.153688	5.264090	0.542843	-0.791630	-0.280435	0.005398	-0.330621	0.943748	-0.839817	-0.513821	-0.175202
337	1993351													8.271365	0.218258	5.196970	0.550145	-0.787554	-0.277668	0.004380	-0.329783	0.944046	-0.835058	-0.520579	-0.177979
338	1993517													8.268497	0.185745	5.228674	0.557656	-0.783495	-0.274145	0.002973	-0.328379	0.944541	-0.830067	-0.527545	-0.180794
339	1993684													8.209496	0.102309	5.305913	0.565265	-0.779311	-0.270463	0.001421	-0.326949	0.945041	-0.824908	-0.534583	-0.183705
340	1993851													8.189751	0.067823	5.519321	0.572856	-0.775119	-0.266507	-0.000229	-0.325296	0.945612	-0.819656	-0.541639	-0.186525
341	1994017													8.113517	-0.003158	5.597675	0.580003	-0.771218	-0.262335	-0.002082	-0.323438	0.946247	-0.814612	-0.548280	-0.189201
342	1994184													8.090957	-0.060915	5.665911	0.586648	-0.767581	-0.258191	-0.003957	-0.321530	0.946891	-0.809832	-0.554471	-0.191662
343	1994351													7.996809	-0.068005	5.705793	0.592689	-0.764256	-0.254229	-0.005676	-0.319599	0.947536	-0.805412	-0.560151	-0.193760
344	1994517													7.913929	-0.138393	5.755014	0.598187	-0.761285	-0.250233	-0.007306	-0.317431	0.948253	-0.801323	-0.565405	-0.195445
345	1994684													7.834726	-0.176878	5.743542	0.603332	-0.758397	-0.246628	-0.008668	-0.315473	0.948895	-0.797443	-0.570361	-0.196908
346	1994851													7.763632	-0.248890	5.879394	0.608227	-0.755542	-0.243342	-0.009809	-0.313698	0.949472	-0.793702	-0.575108	-0.198211
347	1995017													7.700098	-0.279303	5.923984	0.612974	-0.752580	-0.240595	-0.010674	-0.312371	0.949900	-0.790031	-0.579696	-0.199508
348	1995184													7.645935	-0.246103	5.944273	0.617861	-0.749215	-0.238590	-0.011179	-0.311778	0.950089	-0.786208	-0.584356	-0.201011
349	1995351													7.606192	-0.180198	6.007582	0.623009	-0.745352	-0.237295	-0.011413	-0.311992	0.950016	-0.782131	-0.589161	-0.202881
350	1995517													7.606723	-0.115579	6.104668	0.628392	-0.741078	-0.236488	-0.011483	-0.312813	0.949745	-0.777812	-0.594097	-0.205079
351	1995684													7.536860	-0.090198	6.194564	0.633990	-0.736504	-0.235836	-0.011508	-0.313908	0.949384	-0.773256	-0.599185	-0.207490
352	1995851													7.574198	-0.065665	6.172120	0.639636	-0.731871	-0.235012	-0.011705	-0.314974	0.949028	-0.768589	-0.604281	-0.210035
353	1996017													7.490530	-0.020474	6.415040	0.645393	-0.727203	-0.233757	-0.012248	-0.315837	0.948734	-0.763752	-0.609444	-0.212746
354	1996184													7.418989	-0.042746	6.458377	0.651046	-0.722596	-0.232365	-0.012847	-0.316577	0.948480	-0.758929	-0.614519	-0.215389
355	1996351													7.344000	0.009756	6.481135	0.656587	-0.718060	-0.230834	-0.013485	-0.317171	0.948272	-0.754130	-0.619510	-0.217934
356	1996517													7.296513	-0.011131	6.524355	0.661960	-0.713625	-0.229233	-0.014095	-0.317630	0.948110	-0.749406	-0.624380	-0.220317
357	1996684													7.254667	-0.045232	6.570717	0.667098	-0.709363	-0.227562	-0.014667	-0.317912	0.948007	-0.744826	-0.629076	-0.222482
358	1996851													7.158461	-0.078467	6.632393	0.671915	-0.705351	-0.225856	-0.015142	-0.317972	0.947979	-0.740474	-0.633541	-0.224330
359	1997017													7.105664	-0.072336	6.702997	0.676395	-0.701589	-0.224193	-0.015591	-0.317957	0.947977	-0.736374	-0.637711	-0.226003
360	1997184													7.042490	-0.049317	6.725233	0.680469	-0.698125	-0.222674	-0.015937	-0.317905	0.947989	-0.732604	-0.641528	-0.227450
361	1997351													7.013411	-0.059268	6.807425	0.684126	-0.695016	-0.221188	-0.016264	-0.317724	0.948044	-0.729182	-0.644984	-0.228667
362	1997517													6.971229	-0.089514	6.849574	0.687470	-0.692187	-0.219689	-0.016603	-0.317414	0.948142	-0.726023	-0.648171	-0.229705
363	1997684													6.966230	-0.107505	6.899237	0.690528	-0.689584	-0.218277	-0.016946	-0.317119	0.948234	-0.723107	-0.651084	-0.230665
364	1997851													6.948879	-0.114857	6.948378	0.693234	-0.687279	-0.216968	-0.017212	-0.316748	0.948354	-0.720507	-0.653696	-0.231410
365	1998017													6.890105	-0.165970	6.932172	0.695668	-0.685163	-0.215864	-0.017312	-0.316397	0.948469	-0.718154	-0.656083	-0.231969
366	1998184													6.881117	-0.170121	6.907265	0.697905	-0.683102	-0.215173	-0.017125	-0.316272	0.948514	-0.715985	-0.658288	-0.232426
367	1998351													6.887260	-0.132357	6.938444	0.699950	-0.681131	-0.214782	-0.016828	-0.316379	0.948484	-0.713994	-0.660276	-0.232911
368	1998517													6.837617	-0.155123	6.965084	0.701883	-0.679272	-0.214358	-0.016593	-0.316452	0.948463	-0.712099	-0.662153	-0.233384
369	1998684													6.837119	-0.153844	7.029603	0.703755	-0.677390	-0.214178	-0.016299	-0.316787	0.948357	-0.710256	-0.663920	-0.233981
370	1998851													6.835753	-0.145813	7.035533	0.705476	-0.675634	-0.214064	-0.016122	-0.317257	0.948203	-0.708551	-0.665483	-0.234710
371	1999017													6.831444	-0.142682	7.079940	0.707064	-0.674007	-0.213950	-0.016054	-0.317775	0.948030	-0.706967	-0.666884	-0.235507
372	1999184													6.855786	-0.120406	7.057995	0.708591	-0.672444	-0.213817	-0.016084	-0.318333	0.947842	-0.705436	-0.668193	-0.236383
373	1999351													6.805914	-0.099064	7.099827	0.710052	-0.670961	-0.213629	-0.016229	-0.318899	0.947650	-0.703962	-0.669413	-0.237324
374	1999517													6.839718	-0.139065	7.067729	0.711375	-0.669638	-0.213380	-0.016437	-0.319378	0.947485	-0.702621	-0.670510	-0.238204
375	1999684													6.794364	-0.155830	7.052145	0.712585	-0.668410	-0.213192	-0.016584	-0.319834	0.947328	-0.701390	-0.671516	-0.238994
376	1999851													6.787522	-0.203450	7.025945	0.713701	-0.667177	-0.213322	-0.016485	-0.320464	0.947117	-0.700256	-0.672442	-0.239714
377	2000018													6.793035	-0.155202	7.015313	0.714625	-0.666031	-0.213807	-0.016064	-0.321199	0.946876	-0.699323	-0.673227	-0.240236
378	2000184													6.832486	-0.134126	7.048501	0.715342	-0.665036	-0.214505	-0.015374	-0.321878	0.946656	-0.698605	-0.673886	-0.240478
379	2000351													6.837764	-0.114497	7.083554	0.715813	-0.664259	-0.215341	-0.014562	-0.322516	0.946452	-0.698140	-0.674347	-0.240534
380	2000518													6.825986	-0.102333	7.085004	0.716050	-0.663777	-0.216038	-0.013888	-0.322973	0.946306	-0.697911	-0.674602	-0.240484
381	2000684													6.774770	-0.087676	7.075097	0.716107	-0.663541	-0.216573	-0.013348	-0.323243	0.946222	-0.697863	-0.674705	-0.240333
382	2000851													6.830617	-0.070415	7.042118	0.716002	-0.663485	-0.217093	-0.012894	-0.323494	0.946142	-0.697979	-0.674640	-0.240178
383	2001018													6.816261	-0.040674	7.047673	0.715806	-0.663614	-0.217343	-0.012695	-0.323561	0.946122	-0.698184	-0.674481	-0.240032
384	2001184													6.819969	-0.095569	7.101624	0.715573	-0.663809	-0.217516	-0.012600	-0.323602	0.946109	-0.698425	-0.674269	-0.239925
385	2001351													6.820371	-0.095750	7.078940	0.715308	-0.664011	-0.217769	-0.012550	-0.323785	0.946048	-0.698696	-0.673983	-0.239939
386	2001518													6.839834	-0.145695	7.036839	0.715069	-0.664180	-0.218040	-0.012548	-0.324051	0.945956	-0.698941	-0.673688	-0.240053
387	2001684													6.835877	-0.117658	7.007752	0.714866	-0.664254	-0.218480	-0.012503	-0.324535	0.945791	-0.699150	-0.673382	-0.240304
388	2001851													6.847933	-0.066036	7.065811	0.714642	-0.664329	-0.218982	-0.012553	-0.325189	0.945566	-0.699378	-0.672992	-0.240733
389	2002018													6.845254	-0.056445	7.025650	0.714448	-0.664387	-0.219440	-0.012694	-0.325881	0.945326	-0.699573	-0.672600	-0.241259
390	2002184													6.870809	-0.061784	7.001380	0.714306	-0.664476	-0.219632	-0.013058	-0.326435	0.945130	-0.699712	-0.672244	-0.241851
391	2002351													6.887779	-0.083091	6.965761	0.714192	-0.664579	-0.219692	-0.013537	-0.326923	0.944954	-0.699819	-0.671905	-0.242482
392	2002518													6.898416	-0.088589	7.014752	0.714080	-0.664676	-0.219762	-0.013988	-0.327402	0.944782	-0.699925	-0.671575	-0.243089
393	2002684													6.887803	-0.084784	7.053144	0.713925	-0.664813	-0.219851	-0.014447	-0.327892	0.944605	-0.700073	-0.671201	-0.243695
394	2002851													6.902002	-0.096166	7.021805	0.713769	-0.664959	-0.219917	-0.014847	-0.328291	0.944460	-0.700224	-0.670861	-0.244196
395	2003018													6.881537	-0.134172	7.044685	0.713625	-0.665096	-0.219970	-0.015179	-0.328614	0.944342	-0.700364	-0.670567	-0.244603
396	2003184													6.842036	-0.115727	7.034323	0.713499	-0.665197	-0.220073	-0.015407	-0.328915	0.944234	-0.700487	-0.670319	-0.244929
397	2003351													6.849002	-0.064815	7.024438	0.713346	-0.665273	-0.220339	-0.015445	-0.329252	0.944116	-0.700642	-0.670078	-0.245146
398	2003518													6.853941	-0.124849	6.979538	0.713197	-0.665343	-0.220609	-0.015469	-0.329585	0.943999	-0.700793	-0.669845	-0.245351
399	2003684													6.843146	-0.077153	7.006933	0.713076	-0.665352	-0.220973	-0.015362	-0.329939	0.943877	-0.700919	-0.669661	-0.245493
400	2003851													6.851973	-0.031116	6.985404	0.712951	-0.665449	-0.221085	-0.015433	-0.330104	0.943818	-0.701044	-0.669484	-0.245618
401	2004018													6.850773	-0.146015	6.999157	0.712814	-0.665693	-0.220793	-0.015808	-0.329980	0.943856	-0.701175	-0.669303	-0.245737
402	2004184													6.922153	-0.097054	6.983008	0.712682	-0.665847	-0.220753	-0.016036	-0.330075	0.943818	-0.701304	-0.669102	-0.245916
403	2004351													6.884174	-0.135848	6.977672	0.712506	-0.666098	-0.220565	-0.016354	-0.330024	0.943831	-0.701476	-0.668878	-0.246038
404	2004518													6.937565	-0.166032	6.942404	0.712355	-0.666273	-0.220521	-0.016567	-0.330090	0.943804	-0.701623	-0.668671	-0.246180
405	2004684													6.929621	-0.126130	6.966785	0.712236	-0.666340	-0.220707	-0.016684	-0.330405	0.943692	-0.701742	-0.668449	-0.246444
406	2004851													6.921127	-0.120110	6.995692	0.712189	-0.666332	-0.220879	-0.016814	-0.330750	0.943569	-0.701786	-0.668286	-0.246760
407	2005018													6.912342	-0.136446	6.998315	0.712240	-0.666235	-0.221010	-0.017023	-0.331159	0.943421	-0.701729	-0.668180	-0.247206
408	2005184													6.928512	-0.116636	6.998718	0.712407	-0.666049	-0.221034	-0.017373	-0.331610	0.943257	-0.701552	-0.668142	-0.247812
409	2005351													6.908219	-0.126938	6.960390	0.712638	-0.665786	-0.221080	-0.017729	-0.332129	0.943067	-0.701308	-0.668146	-0.248491
410	2005518													6.918276	-0.084550	6.995231	0.712866	-0.665522	-0.221140	-0.018041	-0.332627	0.942886	-0.701069	-0.668161	-0.249126
411	2005684													6.890793	-0.140478	6.985819	0.713062	-0.665342	-0.221047	-0.018386	-0.332924	0.942775	-0.700860	-0.668193	-0.249628
412	2005851													6.906160	-0.170704	7.020980	0.713209	-0.665213	-0.220964	-0.018660	-0.333141	0.942692	-0.700703	-0.668213	-0.250012
413	2006018													6.878207	-0.149148	7.015431	0.713314	-0.665066	-0.221065	-0.018822	-0.333492	0.942565	-0.700592	-0.668184	-0.250402
414	2006184													6.851212	-0.150241	7.033951	0.713373	-0.664943	-0.221246	-0.018933	-0.333883	0.942424	-0.700529	-0.668111	-0.250772
415	2006351													6.838008	-0.160854	7.016766	0.713370	-0.664878	-0.221452	-0.019063	-0.334299	0.942274	-0.700529	-0.667968	-0.251153
416	2006518													6.842735	-0.153074	7.041952	0.713370	-0.664841	-0.221562	-0.019293	-0.334674	0.942136	-0.700522	-0.667817	-0.251573
417	2006684													6.823989	-0.189178	7.024690	0.713319	-0.664891	-0.221575	-0.019636	-0.334993	0.942016	-0.700564	-0.667607	-0.252013
418	2006851													6.808993	-0.200390	7.087985	0.713242	-0.665043	-0.221369	-0.020108	-0.335111	0.941964	-0.700630	-0.667397	-0.252388
419	2007018													6.820686	-0.256880	7.031130	0.713155	-0.665346	-0.220737	-0.020797	-0.334828	0.942050	-0.700698	-0.667237	-0.252622
420	2007184													6.844340	-0.273073	7.036298	0.713056	-0.665714	-0.219945	-0.021611	-0.334432	0.942172	-0.700774	-0.667068	-0.252856
421	2007351													6.808050	-0.235240	7.059389	0.712837	-0.666109	-0.219459	-0.022368	-0.334353	0.942182	-0.700973	-0.666714	-0.253239
422	2007518													6.832505	-0.262922	7.056410	0.712400	-0.666714	-0.219042	-0.023200	-0.334330	0.942170	-0.701390	-0.666120	-0.253644
423	2007684													6.784907	-0.199738	7.140862	0.711630	-0.667505	-0.219134	-0.023953	-0.334782	0.941991	-0.702146	-0.665100	-0.254229
424	2007851													6.742119	-0.113261	7.115901	0.710469	-0.668682	-0.219313	-0.024911	-0.335347	0.941765	-0.703287	-0.663632	-0.254911
425	2008018													6.747819	-0.106864	7.137979	0.708951	-0.670185	-0.219639	-0.025832	-0.335898	0.941544	-0.704785	-0.661835	-0.255447
426	2008184													6.739049	-0.096873	7.083493	0.707163	-0.671888	-0.220199	-0.026658	-0.336547	0.941289	-0.706548	-0.659775	-0.255905
427	2008351													6.735292	-0.117641	7.059183	0.705187	-0.673748	-0.220850	-0.027340	-0.337094	0.941074	-0.708494	-0.657595	-0.256134
428	2008518													6.781124	-0.141002	7.026998	0.703079	-0.675665	-0.221715	-0.027821	-0.337684	0.940848	-0.710568	-0.655322	-0.256216
429	2008684													6.834294	-0.159109	6.973167	0.700758	-0.677740	-0.222725	-0.028030	-0.338119	0.940686	-0.712848	-0.652950	-0.255937
430	2008851													6.829672	-0.171093	6.947500	0.698265	-0.679884	-0.224016	-0.027877	-0.338531	0.940542	-0.715296	-0.650503	-0.255337
431	2009018													6.900266	-0.177969	6.895320	0.695454	-0.682235	-0.225608	-0.027410	-0.338926	0.940414	-0.718048	-0.647830	-0.254408
432	2009184													6.981458	-0.168187	6.820392	0.692340	-0.684811	-0.227374	-0.026815	-0.339309	0.940293	-0.721073	-0.644905	-0.253281
433	2009351													7.016237	-0.179863	6.853402	0.688811	-0.687851	-0.228909	-0.026422	-0.339374	0.940280	-0.724459	-0.641627	-0.251940
434	2009518													7.048216	-0.160547	6.769202	0.684584	-0.691482	-0.230648	-0.026146	-0.339507	0.940240	-0.728465	-0.637642	-0.250501
435	2009684													7.084716	-0.130407	6.690115	0.679848	-0.695506	-0.232547	-0.025820	-0.339606	0.940213	-0.732898	-0.633198	-0.248839
436	2009851													7.090618	-0.207716	6.616239	0.674729	-0.699899	-0.234268	-0.025501	-0.339326	0.940323	-0.737625	-0.628489	-0.246801
437	2010018													7.130141	-0.253071	6.535763	0.669420	-0.704514	-0.235661	-0.025242	-0.338613	0.940587	-0.742455	-0.623700	-0.244458
438	2010184													7.208583	-0.265961	6.374515	0.663934	-0.709215	-0.237077	-0.024694	-0.337658	0.940945	-0.747383	-0.618871	-0.241696
439	2010351													7.278373	-0.292654	6.342915	0.658110	-0.714130	-0.238558	-0.023934	-0.336525	0.941370	-0.752541	-0.613815	-0.238563
440	2010518													7.384307	-0.358781	6.377411	0.651868	-0.719208	-0.240433	-0.022735	-0.335447	0.941785	-0.757992	-0.608453	-0.235018
441	2010684													7.318488	-0.324264	6.315289	0.645405	-0.724461	-0.242094	-0.021520	-0.334063	0.942305	-0.763538	-0.602958	-0.231196
442	2010851													7.432443	-0.394313	6.196672	0.638908	-0.729664	-0.243694	-0.020308	-0.332667	0.942826	-0.769015	-0.597430	-0.227362
443	2011018													7.531003	-0.312690	6.212306	0.632199	-0.734740	-0.245932	-0.018755	-0.331830	0.943153	-0.774579	-0.591647	-0.223562
444	2011184													7.690587	-0.240029	6.214890	0.624979	-0.740031	-0.248505	-0.017161	-0.331282	0.943376	-0.780453	-0.585326	-0.219744
445	2011351													7.673377	-0.244081	6.188100	0.617295	-0.745534	-0.251248	-0.015552	-0.330858	0.943552	-0.786578	-0.578543	-0.215832
446	2011518													7.737889	-0.169493	6.112626	0.609305	-0.751078	-0.254221	-0.013828	-0.330624	0.943661	-0.792815	-0.571463	-0.211837
447	2011684													7.758209	-0.109466	6.002859	0.601244	-0.756526	-0.257245	-0.011989	-0.330436	0.943752	-0.798976	-0.564341	-0.207742
448	2011851													7.805702	-0.114120	5.885790	0.593219	-0.761778	-0.260355	-0.010070	-0.330402	0.943786	-0.804978	-0.557250	-0.203672
449	2012018													7.846375	-0.048303	5.937995	0.584870	-0.767214	-0.263267	-0.008379	-0.330267	0.943850	-0.811084	-0.549824	-0.199592
450	2012184													7.906789	-0.031091	5.816103	0.576265	-0.772773	-0.265971	-0.006725	-0.329914	0.943987	-0.817236	-0.542198	-0.195314
451	2012351													7.914651	0.037664	5.708811	0.567623	-0.778244	-0.268590	-0.005142	-0.329586	0.944112	-0.823273	-0.534518	-0.191082
452	2012518													8.028723	0.052822	5.536308	0.558886	-0.783688	-0.271070	-0.003561	-0.329153	0.944270	-0.829237	-0.526774	-0.186750
453	2012684													8.104104	0.032654	5.419718	0.550360	-0.788776	-0.273743	-0.001887	-0.329038	0.944315	-0.834925	-0.519197	-0.182578
454	2012851													8.177935	0.088732	5.355482	0.542226	-0.793465	-0.276415	-0.000159	-0.329071	0.944305	-0.840233	-0.511983	-0.178557
455	2013018													8.245353	0.091136	5.261856	0.534178	-0.798034	-0.278920	0.001463	-0.329065	0.944306	-0.845371	-0.504836	-0.174611
456	2013184													8.348448	0.072212	5.161818	0.526072	-0.802431	-0.281698	0.003334	-0.329289	0.944223	-0.850434	-0.497669	-0.170554
457	2013351													8.357453	0.108955	5.018734	0.518488	-0.806277	-0.284759	0.005130	-0.330079	0.943939	-0.855070	-0.490882	-0.167005
458	2013518													8.507395	0.134016	4.915904	0.511308	-0.809890	-0.287477	0.006740	-0.330721	0.943705	-0.859371	-0.484461	-0.163642
459	2013684													8.567639	0.136052	4.874506	0.504315	-0.813392	-0.289930	0.008237	-0.331207	0.943522	-0.863480	-0.478221	-0.160333
460	2013851													8.588889	0.181218	4.792655	0.497230	-0.816927	-0.292221	0.009540	-0.331640	0.943358	-0.867566	-0.471853	-0.157108
461	2014018													8.755300	0.148808	4.678842	0.490009	-0.820528	-0.294321	0.010871	-0.331855	0.943268	-0.871649	-0.465410	-0.153692
462	2014184													8.700330	0.175839	4.635660	0.482865	-0.823984	-0.296465	0.012177	-0.332197	0.943131	-0.875610	-0.459016	-0.150373
463	2014351													8.748841	0.160477	4.598743	0.475573	-0.827493	-0.298473	0.013507	-0.332390	0.943045	-0.879573	-0.452518	-0.146899
464	2014518													8.758772	0.216095	4.516092	0.468078	-0.831251	-0.299874	0.014743	-0.331951	0.943181	-0.883564	-0.445904	-0.143124
465	2014684													8.753878	0.293050	4.458172	0.460507	-0.834864	-0.301556	0.015977	-0.331871	0.943190	-0.887512	-0.439163	-0.139491
466	2014851													8.843606	0.237943	4.412470	0.452613	-0.838388	-0.303723	0.017192	-0.332340	0.943003	-0.891541	-0.432037	-0.136008
467	2015018													8.839743	0.256958	4.424257	0.444295	-0.842039	-0.305895	0.018183	-0.332900	0.942787	-0.895696	-0.424438	-0.132595
468	2015184													8.767887	0.260990	4.393514	0.435796	-0.845865	-0.307562	0.019031	-0.332981	0.942741	-0.899844	-0.416696	-0.129014
469	2015351													8.809972	0.245674	4.271803	0.427401	-0.849657	-0.308887	0.019973	-0.332708	0.942818	-0.903841	-0.409131	-0.125230
470	2015518													8.895640	0.284031	4.189891	0.419292	-0.853173	-0.310307	0.020655	-0.332750	0.942789	-0.907617	-0.401713	-0.121897
471	2015684													8.809319	0.210965	4.195449	0.411264	-0.856478	-0.311941	0.021165	-0.333157	0.942634	-0.911270	-0.394274	-0.118888
472	2015851													8.773777	0.251714	4.140592	0.402489	-0.860091	-0.313442	0.021658	-0.333357	0.942552	-0.915169	-0.386155	-0.115545
473	2016018													8.983308	0.305554	3.970131	0.393663	-0.863755	-0.314574	0.022092	-0.333218	0.942591	-0.918989	-0.378013	-0.112094
474	2016184													9.026746	0.248180	3.886751	0.385446	-0.867092	-0.315568	0.022419	-0.333093	0.942627	-0.922458	-0.370406	-0.108950
475	2016351													9.113481	0.250606	3.816798	0.377650	-0.870047	-0.316858	0.022516	-0.333468	0.942492	-0.925675	-0.363067	-0.106344
476	2016518													8.901772	0.245137	3.861264	0.369479	-0.873120	-0.318037	0.022576	-0.333720	0.942402	-0.928965	-0.355378	-0.103591
477	2016685													9.082747	0.276492	3.600016	0.360692	-0.876335	-0.319279	0.022626	-0.334000	0.942301	-0.932410	-0.347105	-0.100644
478	2016851													9.265672	0.288799	3.532048	0.352426	-0.879197	-0.320639	0.022594	-0.334528	0.942115	-0.935567	-0.339270	-0.098032
479	2017018													9.239807	0.235614	3.444964	0.344308	-0.881906	-0.322015	0.022438	-0.335159	0.941895	-0.938589	-0.331527	-0.095610
480	2017185													9.166287	0.229222	3.371510	0.335887	-0.884520	-0.323736	0.022199	-0.336175	0.941538	-0.941641	-0.323436	-0.093281
481	2017351													9.173514	0.240267	3.209239	0.326900	-0.887218	-0.325548	0.021948	-0.337254	0.941158	-0.944804	-0.314809	-0.090776
482	2017518													9.290118	0.268598	3.137267	0.317986	-0.890242	-0.326121	0.021743	-0.337036	0.941241	-0.947846	-0.306392	-0.087816
483	2017685													9.474383	0.320499	2.821360	0.309237	-0.893238	-0.326339	0.021791	-0.336414	0.941462	-0.950735	-0.298246	-0.084567
484	2017851													9.598306	0.246675	2.719851	0.301553	-0.895528	-0.327254	0.021699	-0.336697	0.941363	-0.953203	-0.290972	-0.082099
485	2018018													9.447334	0.251391	2.822479	0.294166	-0.897633	-0.328209	0.021555	-0.337085	0.941227	-0.955511	-0.283952	-0.079811
486	2018185													9.507330	0.264654	2.703935	0.287007	-0.899440	-0.329597	0.021364	-0.337977	0.940912	-0.957690	-0.277090	-0.077786
487	2018351													9.502664	0.270099	2.651977	0.280228	-0.901339	-0.330242	0.021286	-0.338107	0.940867	-0.959698	-0.270687	-0.075561
488	2018518													9.619266	0.329222	2.581319	0.273942	-0.902987	-0.331015	0.021225	-0.338421	0.940755	-0.961512	-0.264738	-0.073541
489	2018685													9.537308	0.229089	2.632644	0.268146	-0.904595	-0.331370	0.021274	-0.338323	0.940789	-0.963143	-0.259319	-0.071476
490	2018851													9.546480	0.244698	2.592563	0.262657	-0.905853	-0.332329	0.021398	-0.338869	0.940590	-0.964652	-0.254164	-0.069623
491	2019018													9.589404	0.284094	2.622461	0.257628	-0.907153	-0.332718	0.021309	-0.338924	0.940572	-0.966009	-0.249408	-0.067986
492	2019185													9.526321	0.242374	2.489543	0.252993	-0.908569	-0.332411	0.021337	-0.338265	0.940809	-0.967233	-0.245111	-0.066192
493	2019351													9.664603	0.293259	2.292876	0.248481	-0.909717	-0.332675	0.021153	-0.338269	0.940812	-0.968406	-0.240811	-0.064810
494	2019518													9.610107	0.263329	2.372034	0.244863	-0.910690	-0.332694	0.020814	-0.338123	0.940872	-0.969334	-0.237310	-0.063839
495	2019685													9.525340	0.219173	2.379348	0.241169	-0.911641	-0.332790	0.020409	-0.338071	0.940899	-0.970269	-0.233707	-0.062927
496	2019851													9.559585	0.208583	2.397522	0.237610	-0.912404	-0.333257	0.019911	-0.338436	0.940779	-0.971156	-0.230174	-0.062249
497	2020018													9.533458	0.197593	2.260080	0.234000	-0.913208	-0.333610	0.019457	-0.338669	0.940704	-0.972042	-0.226616	-0.061481
498	2020185													9.659764	0.200238	2.077284	0.230627	-0.913690	-0.334636	0.019031	-0.339606	0.940375	-0.972856	-0.223244	-0.060933
499	2020351													9.596037	0.185245	2.235526	0.227824	-0.914298	-0.334896	0.018640	-0.339783	0.940319	-0.973524	-0.220469	-0.060369
500	2020518													9.487143	0.157794	2.228098	0.224353	-0.914960	-0.335431	0.018357	-0.340177	0.940182	-0.974335	-0.217090	-0.059524
501	2020685													9.692333	0.181626	2.130319	0.220999	-0.915470	-0.336266	0.017950	-0.340915	0.939923	-0.975109	-0.213758	-0.058909
502	2020851													9.651876	0.185262	2.120188	0.218087	-0.915978	-0.336782	0.017604	-0.341341	0.939775	-0.975770	-0.210882	-0.058318
503	2021018													9.639467	0.194739	2.058864	0.215207	-0.916429	-0.337408	0.017246	-0.341884	0.939584	-0.976416	-0.208024	-0.057771
504	2021185													9.592117	0.150404	2.050854	0.212415	-0.916731	-0.338354	0.016921	-0.342753	0.939273	-0.977033	-0.205241	-0.057294
505	2021351													9.499454	0.128287	2.085485	0.208911	-0.916886	-0.340111	0.016717	-0.344386	0.938679	-0.977792	-0.201786	-0.056619
506	2021518													9.666785	0.200250	1.951075	0.205351	-0.917218	-0.341384	0.016534	-0.345517	0.938267	-0.978549	-0.198318	-0.055787
507	2021685													9.624560	0.141706	2.019406	0.202537	-0.917493	-0.342323	0.016310	-0.346359	0.937960	-0.979139	-0.195555	-0.055186
508	2021851													9.589493	0.229883	2.009640	0.199683	-0.917837	-0.343078	0.016198	-0.346990	0.937729	-0.979727	-0.192806	-0.054421
509	2022018													9.681353	0.213157	1.905847	0.196986	-0.918207	-0.343645	0.016124	-0.347431	0.937567	-0.980274	-0.190229	-0.053634
510	2022185													9.628046	0.188971	1.923136	0.194320	-0.918602	-0.344109	0.015896	-0.347801	0.937434	-0.980809	-0.187632	-0.052983
511	2022351													9.629358	0.221427	1.939584	0.191757	-0.918975	-0.344549	0.015751	-0.348137	0.937311	-0.981316	-0.185163	-0.052283
512	2022518													9.639884	0.220695	1.939547	0.189243	-0.919438	-0.344703	0.015612	-0.348185	0.937296	-0.981806	-0.182758	-0.051537
513	2022685													9.696799	0.196283	1.959363	0.186896	-0.919788	-0.345050	0.015480	-0.348438	0.937204	-0.982258	-0.180501	-0.050883
514	2022851													9.648986	0.179444	1.939620	0.184550	-0.919983	-0.345792	0.015397	-0.349086	0.936964	-0.982703	-0.178240	-0.050259
515	2023018													9.663610	0.190764	1.873761	0.182328	-0.920152	-0.346521	0.015323	-0.349727	0.936726	-0.983118	-0.176101	-0.049666
516	2023185													9.602233	0.171095	1.874857	0.180033	-0.920208	-0.347569	0.015252	-0.350689	0.936368	-0.983542	-0.173878	-0.049101
517	2023351													9.580114	0.168784	1.854404	0.177050	-0.920283	-0.348902	0.015153	-0.351911	0.935911	-0.984085	-0.170990	-0.048361
518	2023518													9.732846	0.192324	1.653907	0.174283	-0.920483	-0.349768	0.015028	-0.352676	0.935625	-0.984581	-0.168320	-0.047632
519	2023685													9.700487	0.159006	1.689250	0.171908	-0.920695	-0.350383	0.014887	-0.353209	0.935426	-0.985001	-0.166023	-0.047013
520	2023851													9.702901	0.184715	1.631658	0.169581	-0.920914	-0.350942	0.014714	-0.353694	0.935246	-0.985406	-0.163763	-0.046430
521	2024018													9.712868	0.144981	1.570590	0.167416	-0.921145	-0.351373	0.014546	-0.354057	0.935111	-0.985779	-0.161663	-0.045876
522	2024185													9.696507	0.147013	1.575038	0.165173	-0.921440	-0.351661	0.014408	-0.354266	0.935034	-0.986159	-0.159509	-0.045239
523	2024351													9.701726	0.183393	1.577501	0.162763	-0.921857	-0.351693	0.014325	-0.354201	0.935060	-0.986561	-0.157231	-0.044445
524	2024518													9.727895	0.171362	1.512198	0.160282	-0.922331	-0.351591	0.014280	-0.353992	0.935139	-0.986968	-0.154907	-0.043568
525	2024685													9.744659	0.173925	1.523915	0.157917	-0.922708	-0.351670	0.014229	-0.353975	0.935147	-0.987350	-0.152680	-0.042769
526	2024851													9.711208	0.184270	1.472469	0.155504	-0.923103	-0.351709	0.014199	-0.353915	0.935170	-0.987733	-0.150417	-0.041928
527	2025018													9.733203	0.189090	1.437650	0.153030	-0.923570	-0.351569	0.014144	-0.353676	0.935261	-0.988120	-0.148095	-0.041060
528	2025185													9.689648	0.187721	1.478454	0.150557	-0.924189	-0.351009	0.014171	-0.353003	0.935515	-0.988500	-0.145822	-0.040050
529	2025351													9.707321	0.248568	1.412375	0.147840	-0.924930	-0.350211	0.014374	-0.352056	0.935869	-0.988907	-0.143393	-0.038753
530	2025518													9.755191	0.204072	1.381336	0.145363	-0.925633	-0.349389	0.014463	-0.351114	0.936221	-0.989273	-0.141146	-0.037652
531	2025685													9.726884	0.202554	1.389867	0.143043	-0.926333	-0.348492	0.014421	-0.350125	0.936592	-0.989611	-0.138998	-0.036724
532	2025851													9.732422	0.187719	1.341988	0.140449	-0.927080	-0.347558	0.014356	-0.349093	0.936978	-0.989984	-0.136588	-0.035720
533	2026018													9.691428	0.208063	1.363230	0.137339	-0.927933	-0.346522	0.014263	-0.347948	0.937405	-0.990421	-0.133685	-0.034551
534	2026185													9.600764	0.216069	1.504598	0.133590	-0.928931	-0.345313	0.014147	-0.346613	0.937902	-0.990936	-0.130179	-0.033162
535	2026351													9.564082	0.145554	1.610225	0.129032	-0.929640	-0.345139	0.014430	-0.346251	0.938031	-0.991536	-0.126016	-0.031263
536	2026518													9.689529	0.180574	1.412062	0.124641	-0.930519	-0.344382	0.014590	-0.345332	0.938367	-0.992095	-0.121983	-0.029467
537	2026685													9.783113	0.142752	1.261714	0.120674	-0.931201	-0.343950	0.014845	-0.344751	0.938577	-0.992581	-0.118368	-0.027779
538	2026851													9.788346	0.141928	1.246639	0.117327	-0.931808	-0.343464	0.015327	-0.344113	0.938803	-0.992975	-0.115411	-0.026092
539	2027018													9.834017	0.166881	1.186583	0.114703	-0.932305	-0.343004	0.015859	-0.343520	0.939011	-0.993273	-0.113147	-0.024618
540	2027185													9.842393	0.128766	1.097393	0.112718	-0.932597	-0.342866	0.016318	-0.343281	0.939091	-0.993493	-0.111447	-0.023476
541	2027351													9.805931	0.124531	1.048976	0.111182	-0.932750	-0.342951	0.016785	-0.343279	0.939084	-0.993658	-0.110166	-0.022510
542	2027518													9.837216	0.152961	1.018586	0.110077	-0.932792	-0.343194	0.017243	-0.343448	0.939013	-0.993774	-0.109281	-0.021722
543	2027685													9.819420	0.208513	0.953530	0.109477	-0.932770	-0.343445	0.017600	-0.343649	0.938933	-0.993834	-0.108836	-0.021205
544	2027851													9.799200	0.193105	0.989401	0.109280	-0.932754	-0.343553	0.017947	-0.343715	0.938903	-0.993849	-0.108769	-0.020821
545	2028018													9.810886	0.198054	0.944685	0.109187	-0.932694	-0.343745	0.018266	-0.343871	0.938839	-0.993853	-0.108788	-0.020510
546	2028185													9.777047	0.248893	0.966080	0.109197	-0.932664	-0.343823	0.018490	-0.343926	0.938815	-0.993848	-0.108873	-0.020311
547	2028351													9.733505	0.236425	1.060161	0.109034	-0.932748	-0.343647	0.018742	-0.343718	0.938886	-0.993861	-0.108811	-0.019995
548	2028518													9.830501	0.244243	0.927491	0.108737	-0.932902	-0.343322	0.018951	-0.343361	0.939012	-0.993890	-0.108612	-0.019657
549	2028685													9.844068	0.250643	0.884404	0.108907	-0.933019	-0.342950	0.019070	-0.342978	0.939150	-0.993869	-0.108820	-0.019560
550	2028851													9.781528	0.217021	1.038794	0.109169	-0.933239	-0.342269	0.019149	-0.342288	0.939400	-0.993839	-0.109107	-0.019497
551	2029018													9.804214	0.227506	0.936935	0.109158	-0.933396	-0.341842	0.019176	-0.341856	0.939557	-0.993839	-0.109115	-0.019417
552	2029185													9.766787	0.242302	0.988979	0.109183	-0.933490	-0.341579	0.019197	-0.341589	0.939653	-0.993836	-0.109151	-0.019376
553	2029351													9.801687	0.289258	1.008132	0.109279	-0.933603	-0.341239	0.019214	-0.341247	0.939777	-0.993825	-0.109254	-0.019353
554	2029518													9.800821	0.252048	1.100647	0.109850	-0.933703	-0.340781	0.019157	-0.340804	0.939939	-0.993764	-0.109781	-0.019550
555	2029685													9.938251	0.265021	0.886709	0.111573	-0.933641	-0.340391	0.019040	-0.340458	0.940067	-0.993574	-0.111367	-0.020210
556	2029851													9.806181	0.286696	0.835169	0.114234	-0.933480	-0.339948	0.018932	-0.340080	0.940206	-0.993273	-0.113840	-0.021176
557	2030018													9.649076	0.260698	1.212263	0.116450	-0.933416	-0.339374	0.018862	-0.339559	0.940396	-0.993017	-0.115910	-0.021936
558	2030185													9.774914	0.230222	1.285645	0.117789	-0.933366	-0.339049	0.018748	-0.339275	0.940500	-0.992862	-0.117137	-0.022464
559	2030351													9.856199	0.183334	1.028959	0.119190	-0.933079	-0.339349	0.018741	-0.339610	0.940380	-0.992695	-0.118443	-0.022991
560	2030518													9.754090	0.172549	1.213812	0.121040	-0.932713	-0.339699	0.018719	-0.340009	0.940236	-0.992471	-0.120165	-0.023696
561	2030685													9.684033	0.188248	1.287341	0.122338	-0.932375	-0.340162	0.018705	-0.340509	0.940055	-0.992312	-0.121367	-0.024217
562	2030851													9.703063	0.190238	1.262768	0.123003	-0.932026	-0.340877	0.018634	-0.341256	0.939786	-0.992231	-0.121948	-0.024608
563	2031018													9.745671	0.206938	1.234596	0.123356	-0.931764	-0.341467	0.018599	-0.341864	0.939566	-0.992188	-0.122252	-0.024841
564	2031185													9.749990	0.208678	1.253814	0.123377	-0.931610	-0.341877	0.018553	-0.342284	0.939413	-0.992186	-0.122245	-0.024946
565	2031351													9.720461	0.202210	1.284731	0.122929	-0.931566	-0.342158	0.018487	-0.342564	0.939313	-0.992243	-0.121794	-0.024889
566	2031518													9.735853	0.210375	1.231896	0.122083	-0.931627	-0.342296	0.018342	-0.342700	0.939266	-0.992350	-0.120946	-0.024750
567	2031685													9.743756	0.244367	1.218350	0.121019	-0.931712	-0.342442	0.018097	-0.342849	0.939216	-0.992485	-0.119861	-0.024630
568	2031851													9.781446	0.267854	1.106499	0.119883	-0.931822	-0.342542	0.017833	-0.342953	0.939183	-0.992628	-0.118701	-0.024497
569	2032018													9.822356	0.265370	1.071879	0.118986	-0.931931	-0.342558	0.017555	-0.342981	0.939178	-0.992741	-0.117763	-0.024450
570	2032185													9.794246	0.236479	1.115668	0.118366	-0.932095	-0.342327	0.017327	-0.342759	0.939264	-0.992819	-0.117108	-0.024420
571	2032351													9.714008	0.207459	1.136525	0.117701	-0.932338	-0.341895	0.017107	-0.342333	0.939423	-0.992902	-0.116420	-0.024343
572	2032518													9.771804	0.193526	1.099177	0.117160	-0.932579	-0.341424	0.016787	-0.341883	0.939593	-0.992971	-0.115814	-0.024400
573	2032685													9.803405	0.209073	1.043966	0.116995	-0.932708	-0.341128	0.016537	-0.341610	0.939696	-0.992995	-0.115581	-0.024543
574	2032851													9.791555	0.208536	1.029176	0.117140	-0.932791	-0.340849	0.016344	-0.341355	0.939792	-0.992981	-0.115658	-0.024741
575	2033018													9.741274	0.222763	1.121290	0.117518	-0.932854	-0.340549	0.016062	-0.341095	0.939892	-0.992941	-0.115924	-0.025101
576	2033185													9.772276	0.173004	1.117917	0.117847	-0.932927	-0.340233	0.015781	-0.340818	0.939997	-0.992906	-0.116145	-0.025442
577	2033352													9.760184	0.179886	1.124128	0.118085	-0.932959	-0.340065	0.015556	-0.340681	0.940050	-0.992882	-0.116296	-0.025716
578	2033518													9.725595	0.204329	1.149072	0.118295	-0.933016	-0.339833	0.015399	-0.340472	0.940129	-0.992859	-0.116446	-0.025909
579	2033685													9.716608	0.179100	1.146291	0.118407	-0.933070	-0.339646	0.015276	-0.340301	0.940193	-0.992848	-0.116514	-0.026040
580	2033852													9.741045	0.159959	1.127948	0.118499	-0.933061	-0.339639	0.015205	-0.340303	0.940193	-0.992838	-0.116576	-0.026139
581	2034018													9.741588	0.191417	1.181129	0.118636	-0.932991	-0.339785	0.015180	-0.340457	0.940138	-0.992822	-0.116693	-0.026228
582	2034185													9.764688	0.186265	1.179585	0.118848	-0.932891	-0.339985	0.015161	-0.340667	0.940062	-0.992797	-0.116879	-0.026345
583	2034352													9.741682	0.199049	1.207978	0.119093	-0.932805	-0.340136	0.015199	-0.340821	0.940005	-0.992767	-0.117118	-0.026411
584	2034518													9.735768	0.207227	1.240026	0.119247	-0.932746	-0.340242	0.015237	-0.340928	0.939966	-0.992748	-0.117273	-0.026442
585	2034685													9.744028	0.203188	1.219418	0.119405	-0.932685	-0.340354	0.015289	-0.341038	0.939925	-0.992728	-0.117435	-0.026461
586	2034852													9.760194	0.199206	1.249537	0.119658	-0.932622	-0.340438	0.015309	-0.341128	0.939892	-0.992697	-0.117677	-0.026541
587	2035018													9.738498	0.176429	1.219889	0.119897	-0.932567	-0.340505	0.015277	-0.341206	0.939864	-0.992669	-0.117889	-0.026663
588	2035185													9.743497	0.178911	1.202341	0.120149	-0.932495	-0.340613	0.015221	-0.341328	0.939821	-0.992639	-0.118103	-0.026816
589	2035352													9.740705	0.173652	1.223734	0.120395	-0.932441	-0.340674	0.015143	-0.341405	0.939794	-0.992611	-0.118306	-0.026984
590	2035518													9.740341	0.160159	1.210481	0.120555	-0.932395	-0.340743	0.015023	-0.341494	0.939764	-0.992593	-0.118412	-0.027162
591	2035685													9.770514	0.169573	1.199896	0.120747	-0.932370	-0.340743	0.014859	-0.341519	0.939757	-0.992572	-0.118536	-0.027383
592	2035852													9.748127	0.135272	1.181269	0.120903	-0.932371	-0.340686	0.014682	-0.341486	0.939772	-0.992556	-0.118623	-0.027597
593	2036018													9.727170	0.149068	1.153573	0.120983	-0.932349	-0.340719	0.014502	-0.341544	0.939754	-0.992549	-0.118635	-0.027800
594	2036185													9.761063	0.176996	1.151452	0.120983	-0.932358	-0.340692	0.014389	-0.341530	0.939761	-0.992550	-0.118597	-0.027904
595	2036352													9.774910	0.129948	1.118478	0.121085	-0.932385	-0.340582	0.014238	-0.341440	0.939796	-0.992540	-0.118645	-0.028068
596	2036518													9.644111	0.130055	1.110871	0.120999	-0.932368	-0.340660	0.014048	-0.341539	0.939763	-0.992553	-0.118496	-0.028227
597	2036685													9.742776	0.163975	1.059008	0.120533	-0.932338	-0.340907	0.013950	-0.341786	0.939674	-0.992611	-0.118018	-0.028190
598	2036852													9.744739	0.166614	1.073861	0.119655	-0.932345	-0.341197	0.013849	-0.342065	0.939574	-0.992719	-0.117150	-0.028017
599	2037018													9.807634	0.183227	1.168245	0.118746	-0.932474	-0.341161	0.013715	-0.342019	0.939593	-0.992830	-0.116252	-0.027824
600	2037185													9.809905	0.185557	1.148854	0.117988	-0.932610	-0.341054	0.013670	-0.341895	0.939639	-0.992921	-0.115528	-0.027591
601	2037352													9.788484	0.170433	1.120737	0.117646	-0.932644	-0.341079	0.013562	-0.341923	0.939630	-0.992963	-0.115169	-0.027577
602	2037518													9.764819	0.182042	1.149004	0.117530	-0.932673	-0.341040	0.013413	-0.341898	0.939642	-0.992979	-0.115010	-0.027674
603	2037685													9.741631	0.195258	1.164909	0.117407	-0.932700	-0.341008	0.013275	-0.341878	0.939650	-0.992995	-0.114848	-0.027757
604	2037852													9.752053	0.194007	1.194194	0.117460	-0.932726	-0.340918	0.013129	-0.341806	0.939679	-0.992991	-0.114850	-0.027902
605	2038018													9.771938	0.180037	1.198935	0.117629	-0.932769	-0.340743	0.012963	-0.341653	0.939737	-0.992973	-0.114957	-0.028096
606	2038185													9.764633	0.154460	1.236694	0.117921	-0.932785	-0.340599	0.012788	-0.341537	0.939781	-0.992941	-0.115176	-0.028346
607	2038352													9.778027	0.175993	1.215383	0.118292	-0.932769	-0.340513	0.012607	-0.341483	0.939804	-0.992899	-0.115464	-0.028635
608	2038518													9.805532	0.156822	1.180121	0.118837	-0.932720	-0.340456	0.012404	-0.341465	0.939813	-0.992836	-0.115907	-0.029009
609	2038685													9.786830	0.159268	1.181193	0.119569	-0.932639	-0.340423	0.012215	-0.341475	0.939811	-0.992751	-0.116530	-0.029438
610	2038852													9.790711	0.172482	1.168438	0.120496	-0.932541	-0.340365	0.012042	-0.341465	0.939817	-0.992641	-0.117343	-0.029915
611	2039018													9.785753	0.154131	1.211113	0.121632	-0.932409	-0.340322	0.011862	-0.341477	0.939815	-0.992504	-0.118348	-0.030474
612	2039185													9.758654	0.146087	1.219208	0.122814	-0.932266	-0.340288	0.011658	-0.341505	0.939808	-0.992361	-0.119388	-0.031074
613	2039352													9.777402	0.144308	1.186604	0.124044	-0.932123	-0.340234	0.011370	-0.341525	0.939804	-0.992212	-0.120445	-0.031766
614	2039518													9.788651	0.171669	1.192634	0.125387	-0.931942	-0.340239	0.011116	-0.341604	0.939778	-0.992046	-0.121618	-0.032473
615	2039685													9.797311	0.149522	1.213759	0.126818	-0.931774	-0.340168	0.010982	-0.341597	0.939782	-0.991865	-0.122917	-0.033087
616	2039852													9.774605	0.141042	1.211402	0.128460	-0.931511	-0.340272	0.010769	-0.341784	0.939717	-0.991656	-0.124380	-0.033874
617	2040018													9.740962	0.113778	1.240340	0.130014	-0.931287	-0.340295	0.010498	-0.341896	0.939679	-0.991457	-0.125744	-0.034675
618	2040185													9.726608	0.108674	1.282971	0.131341	-0.931078	-0.340358	0.010220	-0.342043	0.939629	-0.991285	-0.126890	-0.035409
619	2040352													9.744601	0.134671	1.243660	0.132459	-0.930896	-0.340423	0.009982	-0.342179	0.939582	-0.991138	-0.127854	-0.036033
620	2040518													9.726970	0.151438	1.249512	0.133595	-0.930765	-0.340336	0.009829	-0.342153	0.939593	-0.990987	-0.128870	-0.036561
621	2040685													9.758414	0.141566	1.213988	0.134780	-0.930621	-0.340264	0.009687	-0.342143	0.939598	-0.990828	-0.129936	-0.037099
622	2040852													9.788410	0.143843	1.254547	0.136229	-0.930409	-0.340265	0.009506	-0.342224	0.939570	-0.990632	-0.131232	-0.037776
623	2041018													9.736499	0.130418	1.255488	0.137735	-0.930173	-0.340305	0.009448	-0.342331	0.939532	-0.990424	-0.132622	-0.038363
624	2041185													9.754650	0.112012	1.261243	0.139192	-0.929694	-0.341020	0.009539	-0.343098	0.939251	-0.990219	-0.133989	-0.038888
625	2041352													9.721334	0.104478	1.313643	0.140586	-0.929120	-0.342011	0.009687	-0.344134	0.938871	-0.990021	-0.135305	-0.039380
626	2041518													9.741322	0.115738	1.325891	0.141807	-0.928651	-0.342781	0.009875	-0.344936	0.938574	-0.989845	-0.136481	-0.039744
627	2041685													9.796649	0.140159	1.312014	0.143291	-0.928251	-0.343247	0.009973	-0.345455	0.938382	-0.989630	-0.137885	-0.040243
628	2041852													9.742544	0.096889	1.396250	0.145077	-0.927821	-0.343657	0.010058	-0.345931	0.938206	-0.989369	-0.139569	-0.040855
629	2042018													9.691314	0.112487	1.442497	0.146789	-0.927376	-0.344131	0.010213	-0.346460	0.938009	-0.989115	-0.141204	-0.041385
630	2042185													9.735819	0.129425	1.428982	0.148603	-0.926963	-0.344467	0.010392	-0.346851	0.937863	-0.988842	-0.142949	-0.041910
631	2042352													9.743055	0.116053	1.472001	0.150750	-0.926542	-0.344666	0.010517	-0.347128	0.937759	-0.988516	-0.144992	-0.042585
632	2042518													9.666390	0.119689	1.544060	0.152902	-0.926201	-0.344633	0.010618	-0.347174	0.937741	-0.988184	-0.147042	-0.043249
633	2042685													9.720599	0.130126	1.485628	0.154938	-0.925851	-0.344664	0.010766	-0.347274	0.937702	-0.987866	-0.148996	-0.043839
634	2042852													9.765393	0.117488	1.527671	0.157300	-0.925441	-0.344696	0.010917	-0.347391	0.937657	-0.987491	-0.151256	-0.044542
635	2043018													9.691584	0.108147	1.567634	0.159739	-0.925037	-0.344660	0.011072	-0.347443	0.937636	-0.987097	-0.153593	-0.045258
636	2043185													9.689566	0.125926	1.602420	0.162159	-0.924596	-0.344711	0.011233	-0.347582	0.937582	-0.986701	-0.155910	-0.045978
637	2043352													9.698333	0.142795	1.636426	0.164729	-0.924053	-0.344950	0.011326	-0.347933	0.937451	-0.986274	-0.158332	-0.046849
638	2043518													9.661136	0.165239	1.676424	0.167196	-0.923558	-0.345088	0.011461	-0.348171	0.937361	-0.985857	-0.160678	-0.047627
639	2043685													9.753653	0.175621	1.619479	0.169910	-0.923117	-0.344942	0.011554	-0.348142	0.937371	-0.985392	-0.163254	-0.048487
640	2043852													9.726206	0.145364	1.643881	0.172980	-0.922638	-0.344699	0.011553	-0.348049	0.937405	-0.984858	-0.166135	-0.049546
641	2044018													9.666012	0.192652	1.723474	0.176012	-0.922106	-0.344588	0.011600	-0.348086	0.937391	-0.984320	-0.168989	-0.050571
642	2044185													9.704725	0.185814	1.672387	0.178983	-0.921687	-0.344177	0.011679	-0.347811	0.937492	-0.983783	-0.171814	-0.051488
643	2044352													9.805147	0.205187	1.694112	0.182255	-0.921267	-0.343585	0.011789	-0.347365	0.937656	-0.983181	-0.174943	-0.052448
644	2044518													9.709051	0.167707	1.793598	0.185851	-0.920775	-0.342975	0.011909	-0.346920	0.937819	-0.982506	-0.178379	-0.053510
645	2044685													9.588469	0.172993	1.843854	0.189274	-0.920137	-0.342818	0.011911	-0.346951	0.937808	-0.981852	-0.181586	-0.054709
646	2044852													9.613921	0.176820	1.834292	0.192374	-0.919566	-0.342624	0.011852	-0.346943	0.937811	-0.981250	-0.184472	-0.055844
647	2045018													9.696413	0.178542	1.802353	0.195682	-0.918967	-0.342357	0.011801	-0.346874	0.937837	-0.980596	-0.187558	-0.057032
648	2045185													9.656368	0.194671	1.872195	0.199185	-0.918343	-0.342010	0.011731	-0.346744	0.937886	-0.979892	-0.190825	-0.058293
649	2045352													9.626993	0.182699	1.966976	0.202774	-0.917769	-0.341443	0.011684	-0.346395	0.938016	-0.979156	-0.194194	-0.059517
650	2045518													9.636456	0.157106	2.036886	0.206423	-0.917197	-0.340792	0.011579	-0.345979	0.938171	-0.978394	-0.197606	-0.060798
651	2045685													9.610228	0.136583	2.072245	0.210197	-0.916657	-0.339938	0.011496	-0.345364	0.938398	-0.977591	-0.201156	-0.062056
652	2045852													9.639711	0.161981	2.102362	0.214007	-0.916081	-0.339112	0.011406	-0.344788	0.938611	-0.976766	-0.204737	-0.063338
653	2046018													9.642872	0.137814	2.175379	0.218161	-0.915411	-0.338273	0.011335	-0.344222	0.938820	-0.975847	-0.208648	-0.064719
654	2046185													9.574010	0.143020	2.213098	0.222414	-0.914683	-0.337471	0.011205	-0.343720	0.939005	-0.974888	-0.212629	-0.066199
655	2046352													9.554326	0.132309	2.305833	0.226636	-0.913968	-0.336598	0.011085	-0.343148	0.939216	-0.973916	-0.216592	-0.067639
656	2046518													9.527553	0.106981	2.296788	0.230823	-0.913216	-0.335793	0.010909	-0.342662	0.939395	-0.972935	-0.220497	-0.069132
657	2046685													9.476969	0.107864	2.220304	0.234684	-0.912500	-0.335062	0.010698	-0.342243	0.939551	-0.972013	-0.224082	-0.070557
658	2046852													9.602231	0.100118	2.272886	0.238724	-0.911775	-0.334180	0.010445	-0.341699	0.939751	-0.971031	-0.227832	-0.072049
659	2047018													9.566250	0.135935	2.292019	0.242883	-0.911059	-0.333137	0.010341	-0.340969	0.940018	-0.970001	-0.231759	-0.073395
660	2047185													9.542672	0.131956	2.290612	0.246943	-0.910231	-0.332414	0.010212	-0.340574	0.940162	-0.968976	-0.235562	-0.074807
661	2047352													9.579685	0.134604	2.343800	0.251147	-0.909416	-0.331493	0.010026	-0.340007	0.940369	-0.967897	-0.239495	-0.076274
662	2047518													9.551452	0.102332	2.439432	0.255398	-0.908565	-0.330576	0.009797	-0.339466	0.940567	-0.966786	-0.243458	-0.077798
663	2047685													9.522626	0.114178	2.426026	0.259397	-0.907733	-0.329748	0.009652	-0.338981	0.940744	-0.965723	-0.247209	-0.079169
664	2047852													9.546165	0.156803	2.445616	0.263481	-0.906873	-0.328876	0.009561	-0.338451	0.940936	-0.964617	-0.251063	-0.080504
665	2048018													9.514751	0.120380	2.568142	0.267635	-0.906019	-0.327874	0.009532	-0.337782	0.941176	-0.963473	-0.255017	-0.081766
666	2048185													9.473022	0.150439	2.607208	0.271621	-0.905268	-0.326667	0.009407	-0.336914	0.941488	-0.962358	-0.258801	-0.082998
667	2048352													9.463952	0.150051	2.624472	0.275512	-0.904523	-0.325470	0.009206	-0.336075	0.941790	-0.961253	-0.262471	-0.084266
668	2048518													9.476179	0.116218	2.738821	0.279482	-0.903723	-0.324307	0.009016	-0.335281	0.942075	-0.960109	-0.266217	-0.085557
669	2048685													9.429554	0.139812	2.819187	0.283365	-0.902988	-0.322982	0.008815	-0.334320	0.942419	-0.958972	-0.269896	-0.086775
670	2048852													9.372986	0.149962	2.782084	0.287088	-0.902223	-0.321831	0.008650	-0.333519	0.942704	-0.957865	-0.273422	-0.087945
671	2049018													9.430599	0.113683	2.792259	0.291008	-0.901399	-0.320616	0.008480	-0.332677	0.943003	-0.956683	-0.277140	-0.089168
672	2049185													9.375821	0.138869	2.873632	0.294941	-0.900557	-0.319384	0.008286	-0.331830	0.943303	-0.955480	-0.280865	-0.090409
673	2049352													9.365845	0.115339	2.959581	0.298909	-0.899745	-0.317981	0.008050	-0.330825	0.943658	-0.954248	-0.284627	-0.091644
674	2049518													9.374624	0.088676	2.974790	0.302904	-0.898890	-0.316617	0.007784	-0.329880	0.943991	-0.952989	-0.288403	-0.092925
675	2049685													9.364191	0.091223	2.994931	0.306910	-0.897933	-0.315472	0.007524	-0.329170	0.944241	-0.951709	-0.292170	-0.094270
676	2049852													9.388004	0.114131	3.031352	0.311045	-0.896921	-0.314299	0.007273	-0.328447	0.944494	-0.950367	-0.296066	-0.095639
677	2050019													9.358906	0.105200	3.117551	0.315250	-0.895886	-0.313059	0.006942	-0.327694	0.944758	-0.948983	-0.300008	-0.097086
678	2050185													9.314745	0.076433	3.120967	0.319426	-0.894877	-0.311709	0.006505	-0.326864	0.945049	-0.947589	-0.303901	-0.098588
679	2050352													9.301027	0.055645	3.165533	0.323514	-0.893866	-0.310389	0.006084	-0.326058	0.945330	-0.946204	-0.307716	-0.100046
680	2050519													9.310069	0.061496	3.192204	0.327678	-0.892817	-0.309040	0.005661	-0.325238	0.945615	-0.944773	-0.311607	-0.101519
681	2050685													9.303079	0.088516	3.229269	0.331837	-0.891745	-0.307692	0.005182	-0.324446	0.945890	-0.943323	-0.315475	-0.103043
682	2050852													9.313995	0.067434	3.292519	0.336243	-0.890621	-0.306163	0.004610	-0.323531	0.946206	-0.941764	-0.319566	-0.104679
683	2051019													9.295330	0.060291	3.275665	0.340883	-0.889441	-0.304456	0.003943	-0.322497	0.946562	-0.940098	-0.323867	-0.106426
684	2051185													9.268176	0.066694	3.260348	0.345673	-0.888152	-0.302813	0.003278	-0.321561	0.946883	-0.938349	-0.328305	-0.108244
685	2051352													9.295266	0.063712	3.304066	0.350715	-0.886695	-0.301284	0.002668	-0.320771	0.947153	-0.936479	-0.332984	-0.110133
686	2051519													9.291469	0.052153	3.379700	0.355971	-0.885113	-0.299765	0.002047	-0.320038	0.947402	-0.934495	-0.337862	-0.112113
687	2051685													9.211635	0.043480	3.426852	0.361326	-0.883456	-0.298242	0.001410	-0.319333	0.947641	-0.932438	-0.342828	-0.114138
688	2051852													9.215548	0.037190	3.522576	0.366816	-0.881669	-0.296827	0.000834	-0.318757	0.947836	-0.930293	-0.347929	-0.116189
689	2052019													9.187366	0.020505	3.559763	0.372550	-0.879707	-0.295503	0.000284	-0.318317	0.947984	-0.928012	-0.353255	-0.118339
690	2052185													9.189103	0.035277	3.608043	0.378430	-0.877697	-0.294004	-0.000352	-0.317763	0.948170	-0.925630	-0.358712	-0.120560
691	2052352													9.114467	0.018685	3.670315	0.384372	-0.875566	-0.292648	-0.000983	-0.317389	0.948295	-0.923178	-0.364210	-0.122857
692	2052519													9.101488	0.023857	3.738553	0.390272	-0.873399	-0.291310	-0.001645	-0.317062	0.948404	-0.920698	-0.369656	-0.125177
693	2052685													9.074424	-0.000151	3.810704	0.396256	-0.871191	-0.289842	-0.002315	-0.316630	0.948546	-0.918137	-0.375196	-0.127484
694	2052852													9.039845	-0.017956	3.873359	0.402353	-0.868914	-0.288272	-0.003041	-0.316152	0.948704	-0.915480	-0.380837	-0.129847
695	2053019													9.020782	0.024392	3.980675	0.408627	-0.866496	-0.286721	-0.003811	-0.315763	0.948830	-0.912693	-0.386625	-0.132332
696	2053185													9.012599	0.022853	3.981787	0.415208	-0.863960	-0.284914	-0.004611	-0.315181	0.949020	-0.909715	-0.392727	-0.134849
697	2053352													8.974639	-0.013742	4.097582	0.422093	-0.861270	-0.282933	-0.005442	-0.314500	0.949242	-0.906536	-0.399128	-0.137435
698	2053519													8.904169	-0.016098	4.127628	0.428839	-0.858544	-0.281070	-0.006184	-0.313914	0.949431	-0.903360	-0.405415	-0.139928
699	2053685													8.928786	0.000916	4.248766	0.435723	-0.855676	-0.279220	-0.006978	-0.313418	0.949589	-0.900054	-0.411809	-0.142535
700	2053852													8.818345	-0.022061	4.368537	0.442632	-0.852750	-0.277299	-0.007784	-0.312885	0.949759	-0.896670	-0.418235	-0.145130
701	2054019													8.798778	-0.044752	4.356558	0.449383	-0.849795	-0.275507	-0.008581	-0.312493	0.949881	-0.893298	-0.424497	-0.147721
702	2054185													8.752032	0.008948	4.488767	0.456187	-0.846755	-0.273679	-0.009307	-0.312067	0.950014	-0.889835	-0.430837	-0.150242
703	2054352													8.728314	-0.019600	4.587147	0.463049	-0.843676	-0.271656	-0.009999	-0.311448	0.950211	-0.886276	-0.437278	-0.152651
704	2054519													8.637177	-0.089446	4.665749	0.470188	-0.840385	-0.269585	-0.010713	-0.310868	0.950393	-0.882501	-0.443975	-0.155170
705	2054685													8.585706	-0.107934	4.693867	0.477155	-0.837100	-0.267557	-0.011523	-0.310384	0.950542	-0.878743	-0.450473	-0.157747
706	2054852													8.587725	-0.097276	4.743948	0.483977	-0.833769	-0.265700	-0.012317	-0.310090	0.950628	-0.874994	-0.456809	-0.160346
707	2055019													8.550941	-0.095706	4.836746	0.490873	-0.830353	-0.263738	-0.013163	-0.309753	0.950726	-0.871132	-0.463214	-0.162979
708	2055185													8.490498	-0.129229	4.873000	0.497812	-0.826853	-0.261718	-0.014112	-0.309450	0.950811	-0.867170	-0.469632	-0.165717
709	2055352													8.464404	-0.116662	4.933557	0.504667	-0.823344	-0.259644	-0.015127	-0.309140	0.950896	-0.863181	-0.475959	-0.168467
710	2055519													8.445206	-0.120035	5.002792	0.511350	-0.819922	-0.257390	-0.016265	-0.308689	0.951024	-0.859219	-0.482120	-0.171184
711	2055685													8.424837	-0.102194	5.003931	0.517742	-0.816668	-0.254942	-0.017502	-0.308039	0.951213	-0.855357	-0.488021	-0.173778
712	2055852													8.438571	-0.185552	5.073658	0.524124	-0.813452	-0.252171	-0.018943	-0.307162	0.951469	-0.851431	-0.493910	-0.176400
713	2056019													8.346409	-0.177999	5.122137	0.530627	-0.810016	-0.249618	-0.020207	-0.306503	0.951655	-0.847364	-0.499930	-0.179007
714	2056185													8.326810	-0.173453	5.169909	0.537321	-0.806364	-0.247109	-0.021417	-0.305950	0.951807	-0.843106	-0.506134	-0.181663
715	2056352													8.286375	-0.208370	5.245537	0.544265	-0.802480	-0.244541	-0.022640	-0.305442	0.951941	-0.838608	-0.512572	-0.184410
716	2056519													8.244959	-0.250112	5.322409	0.551362	-0.798392	-0.242012	-0.023867	-0.305066	0.952032	-0.833925	-0.519138	-0.187257
717	2056685													8.216890	-0.263668	5.393564	0.558532	-0.794103	-0.239673	-0.025003	-0.304929	0.952047	-0.829106	-0.525756	-0.190168
718	2056852													8.176469	-0.238123	5.502871	0.565697	-0.789677	-0.237480	-0.025988	-0.304919	0.952024	-0.824203	-0.532385	-0.193014
719	2057019													8.124287	-0.275083	5.592641	0.572745	-0.785217	-0.235367	-0.026910	-0.304981	0.951978	-0.819292	-0.538907	-0.195807
720	2057185													8.040289	-0.261970	5.646956	0.579715	-0.780723	-0.233244	-0.027721	-0.304984	0.951954	-0.814348	-0.545396	-0.198446
721	2057352													7.914804	-0.284498	5.700262	0.586759	-0.776060	-0.231182	-0.028452	-0.305076	0.951903	-0.809262	-0.551960	-0.201087
722	2057519													7.841634	-0.283061	5.761341	0.593709	-0.771358	-0.229165	-0.029127	-0.305204	0.951841	-0.804152	-0.558442	-0.203669
723	2057685													7.791184	-0.284899	5.834175	0.600586	-0.766645	-0.227051	-0.029808	-0.305241	0.951808	-0.799004	-0.564875	-0.206176
724	2057852													7.815189	-0.300389	5.916327	0.607032	-0.762156	-0.225012	-0.030484	-0.305273	0.951777	-0.794092	-0.570900	-0.208544
725	2058019													7.730255	-0.272215	5.963531	0.613104	-0.757849	-0.223090	-0.031093	-0.305321	0.951742	-0.789390	-0.576580	-0.210757
726	2058185													7.650101	-0.301523	5.991225	0.618952	-0.753625	-0.221241	-0.031674	-0.305403	0.951696	-0.784790	-0.582046	-0.212900
727	2058352													7.606977	-0.292311	6.058445	0.624625	-0.749431	-0.219538	-0.032158	-0.305572	0.951626	-0.780262	-0.587350	-0.214968
728	2058519													7.568636	-0.306660	6.105205	0.630084	-0.745335	-0.217878	-0.032639	-0.305751	0.951552	-0.775841	-0.592446	-0.216975
729	2058685													7.531985	-0.306316	6.185648	0.635331	-0.741348	-0.216235	-0.033097	-0.305893	0.951491	-0.771531	-0.597354	-0.218880
730	2058852													7.497676	-0.313226	6.266878	0.640293	-0.737528	-0.214659	-0.033551	-0.306042	0.951427	-0.767398	-0.601989	-0.220702
731	2059019													7.444599	-0.305505	6.357070	0.644824	-0.734000	-0.213179	-0.033973	-0.306158	0.951374	-0.763576	-0.606227	-0.222354
732	2059185													7.385877	-0.312475	6.403445	0.648993	-0.730723	-0.211780	-0.034341	-0.306220	0.951341	-0.760019	-0.610141	-0.223829
733	2059352													7.314737	-0.304659	6.458619	0.652857	-0.727623	-0.210575	-0.034625	-0.306369	0.951283	-0.756689	-0.613761	-0.225209
734	2059519													7.273473	-0.300895	6.454519	0.656486	-0.724671	-0.209471	-0.034857	-0.306534	0.951221	-0.753532	-0.617162	-0.226495
735	2059685													7.270700	-0.269439	6.423710	0.659931	-0.721806	-0.208535	-0.034964	-0.306759	0.951145	-0.750512	-0.620399	-0.227677
736	2059852													7.266111	-0.285282	6.483291	0.663152	-0.719118	-0.207602	-0.035046	-0.306890	0.951099	-0.747664	-0.623448	-0.228717
737	2060019													7.254595	-0.293892	6.510835	0.666160	-0.716594	-0.206699	-0.035132	-0.306991	0.951064	-0.744981	-0.626299	-0.229680
738	2060185													7.236003	-0.277949	6.611928	0.668986	-0.714248	-0.205690	-0.035320	-0.306971	0.951063	-0.742436	-0.628983	-0.230586
739	2060352													7.207179	-0.293309	6.631313	0.671623	-0.712064	-0.204664	-0.035553	-0.306896	0.951079	-0.740040	-0.631490	-0.231434
740	2060519													7.180048	-0.271717	6.639711	0.674180	-0.709972	-0.203523	-0.035851	-0.306698	0.951131	-0.737697	-0.633937	-0.232223
741	2060685													7.171537	-0.282629	6.651737	0.676697	-0.707931	-0.202274	-0.036194	-0.306385	0.951219	-0.735371	-0.636367	-0.232952
742	2060852													7.166575	-0.259941	6.753140	0.679148	-0.706023	-0.200722	-0.036715	-0.305797	0.951389	-0.733082	-0.638764	-0.233603
743	2061019													7.163284	-0.255918	6.785955	0.681522	-0.704255	-0.198878	-0.037433	-0.304960	0.951629	-0.730839	-0.641112	-0.234199
744	2061185													7.186312	-0.249348	6.834959	0.683732	-0.702783	-0.196486	-0.038552	-0.303669	0.951997	-0.728714	-0.643336	-0.234721
745	2061352													7.167989	-0.295228	6.788588	0.685896	-0.701453	-0.193677	-0.039943	-0.302039	0.952459	-0.726603	-0.645551	-0.235185
746	2061519													7.114911	-0.318672	6.767039	0.688091	-0.700122	-0.190680	-0.041453	-0.300279	0.952950	-0.724439	-0.647813	-0.235641
747	2061685													7.124209	-0.381565	6.772402	0.690343	-0.698755	-0.187529	-0.043024	-0.298395	0.953472	-0.722202	-0.650155	-0.236058
748	2061852													7.072306	-0.446269	6.744153	0.692677	-0.697296	-0.184328	-0.044574	-0.296466	0.954003	-0.719869	-0.652600	-0.236436
749	2062019													7.102895	-0.466672	6.724714	0.695073	-0.695676	-0.181406	-0.045904	-0.294755	0.954470	-0.717472	-0.655099	-0.236810
750	2062185													7.050396	-0.481369	6.731672	0.697591	-0.693804	-0.178895	-0.046953	-0.293410	0.954833	-0.714956	-0.657683	-0.237256
751	2062352													7.048466	-0.446901	6.765479	0.700136	-0.691758	-0.176860	-0.047664	-0.292429	0.955099	-0.712417	-0.660269	-0.237712
752	2062519													7.009792	-0.539669	6.798340	0.702561	-0.689739	-0.175122	-0.048156	-0.291605	0.955326	-0.709992	-0.662742	-0.238085
753	2062685													6.981106	-0.563308	6.841200	0.704857	-0.687723	-0.173819	-0.048344	-0.291044	0.955488	-0.707700	-0.665079	-0.238392
754	2062852													6.919145	-0.542573	6.846675	0.706998	-0.685779	-0.172803	-0.048337	-0.290629	0.955614	-0.705562	-0.667264	-0.238622
755	2063019													6.949137	-0.538625	6.898643	0.709028	-0.683846	-0.172143	-0.048129	-0.290471	0.955673	-0.703536	-0.669314	-0.238865
756	2063185													6.929829	-0.514103	6.963158	0.710901	-0.682010	-0.171704	-0.047756	-0.290392	0.955715	-0.701669	-0.671219	-0.239010
757	2063352													6.840415	-0.543832	6.959037	0.712681	-0.680208	-0.171473	-0.047209	-0.290396	0.955741	-0.699898	-0.673044	-0.239072
758	2063519													6.873115	-0.508919	6.976827	0.714441	-0.678266	-0.171839	-0.046279	-0.290861	0.955645	-0.698164	-0.674800	-0.239193
759	2063685													6.879042	-0.484723	6.965948	0.716182	-0.676273	-0.172446	-0.045202	-0.291516	0.955497	-0.696448	-0.676515	-0.239348
760	2063852													6.860926	-0.492841	7.054555	0.717921	-0.674193	-0.173358	-0.043911	-0.292396	0.955289	-0.694738	-0.678209	-0.239522
761	2064019													6.881855	-0.434153	7.049547	0.719689	-0.672014	-0.174486	-0.042555	-0.293537	0.955000	-0.692991	-0.679878	-0.239852
762	2064185													6.867856	-0.391413	7.101687	0.721391	-0.669837	-0.175822	-0.041222	-0.294966	0.954618	-0.691300	-0.681405	-0.240398
763	2064352													6.800224	-0.377117	7.119245	0.723086	-0.667610	-0.177324	-0.039888	-0.296636	0.954157	-0.689605	-0.682865	-0.241123
764	2064519													6.741230	-0.297850	7.110810	0.724749	-0.665423	-0.178748	-0.038686	-0.298316	0.953683	-0.687926	-0.684266	-0.241947
765	2064685													6.721871	-0.299240	7.149609	0.726350	-0.663404	-0.179751	-0.037836	-0.299719	0.953277	-0.686283	-0.685612	-0.242801
766	2064852													6.715534	-0.263521	7.136806	0.727910	-0.661462	-0.180598	-0.037055	-0.300952	0.952919	-0.684671	-0.686947	-0.243576
767	2065019													6.672676	-0.251220	7.194530	0.729415	-0.659631	-0.181219	-0.036477	-0.302041	0.952597	-0.683098	-0.688228	-0.244375
768	2065185													6.650352	-0.282240	7.261860	0.730841	-0.657945	-0.181602	-0.036151	-0.303005	0.952303	-0.681589	-0.689417	-0.245234
769	2065352													6.638861	-0.298548	7.271832	0.732087	-0.656530	-0.181707	-0.036090	-0.303746	0.952069	-0.680255	-0.690440	-0.246062
770	2065519													6.576684	-0.311069	7.258101	0.733193	-0.655279	-0.181764	-0.036145	-0.304468	0.951837	-0.679060	-0.691310	-0.246918
771	2065685													6.602459	-0.274765	7.258763	0.734153	-0.654204	-0.181760	-0.036382	-0.305212	0.951589	-0.678009	-0.691999	-0.247874
772	2065852													6.563776	-0.275464	7.307422	0.734963	-0.653336	-0.181609	-0.036748	-0.305797	0.951387	-0.677111	-0.692561	-0.248758
773	2066019													6.558696	-0.325568	7.307802	0.735607	-0.652688	-0.181331	-0.037217	-0.306219	0.951233	-0.676385	-0.692985	-0.249548
774	2066185													6.564271	-0.344837	7.346889	0.736066	-0.652208	-0.181193	-0.037598	-0.306655	0.951078	-0.675865	-0.693244	-0.250240
775	2066352													6.549163	-0.353458	7.299937	0.736314	-0.651911	-0.181256	-0.037870	-0.307161	0.950904	-0.675580	-0.693299	-0.250855
776	2066519													6.522880	-0.301629	7.337195	0.736375	-0.651797	-0.181416	-0.038141	-0.307705	0.950717	-0.675497	-0.693165	-0.251447
777	2066686													6.485090	-0.357351	7.358198	0.736256	-0.651942	-0.181380	-0.038587	-0.308046	0.950589	-0.675602	-0.692878	-0.251958
778	2066852													6.507456	-0.341761	7.277544	0.736022	-0.652196	-0.181417	-0.039057	-0.308454	0.950437	-0.675830	-0.692457	-0.252501
779	2067019													6.514921	-0.365298	7.304888	0.735661	-0.652592	-0.181458	-0.039635	-0.308908	0.950266	-0.676190	-0.691881	-0.253117
780	2067186													6.517026	-0.361726	7.327040	0.735255	-0.653047	-0.181466	-0.040276	-0.309355	0.950093	-0.676593	-0.691252	-0.253757
781	2067352													6.514025	-0.410308	7.300303	0.734741	-0.653606	-0.181537	-0.040938	-0.309853	0.949903	-0.677112	-0.690501	-0.254419
782	2067519													6.551219	-0.396460	7.323842	0.734072	-0.654364	-0.181510	-0.041685	-0.310210	0.949754	-0.677791	-0.689621	-0.254993
783	2067686													6.540929	-0.446476	7.289058	0.733274	-0.655282	-0.181424	-0.042435	-0.310410	0.949655	-0.678607	-0.688659	-0.255423
784	2067852													6.580060	-0.458964	7.245521	0.732380	-0.656260	-0.181501	-0.043108	-0.310717	0.949524	-0.679530	-0.687589	-0.255853
785	2068019													6.593219	-0.450737	7.219772	0.731415	-0.657234	-0.181865	-0.043557	-0.311171	0.949355	-0.680540	-0.686451	-0.256222
786	2068186													6.623816	-0.389283	7.222852	0.730352	-0.658291	-0.182317	-0.043940	-0.311632	0.949186	-0.681656	-0.685229	-0.256527
787	2068352													6.654551	-0.443128	7.197365	0.729197	-0.659452	-0.182741	-0.044253	-0.311932	0.949073	-0.682872	-0.683975	-0.256642
788	2068519													6.706682	-0.452017	7.130619	0.728016	-0.660618	-0.183238	-0.044464	-0.312220	0.948969	-0.684117	-0.682717	-0.256675
789	2068686													6.704598	-0.379676	7.128761	0.726825	-0.661804	-0.183685	-0.044673	-0.312428	0.948890	-0.685368	-0.681472	-0.256646
790	2068852													6.748827	-0.454889	7.107664	0.725646	-0.663050	-0.183854	-0.045028	-0.312391	0.948886	-0.686593	-0.680277	-0.256542
791	2069019													6.781271	-0.469827	7.075676	0.724535	-0.664236	-0.183955	-0.045282	-0.312193	0.948939	-0.687749	-0.679210	-0.256273
792	2069186													6.805755	-0.483637	7.001068	0.723535	-0.665258	-0.184196	-0.045301	-0.312025	0.948993	-0.688799	-0.678286	-0.255898
793	2069352													6.869554	-0.463498	7.068254	0.722573	-0.666166	-0.184689	-0.045107	-0.312029	0.949001	-0.689821	-0.677392	-0.255512
794	2069519													6.832342	-0.400898	7.131984	0.721658	-0.666962	-0.185399	-0.044778	-0.312234	0.948949	-0.690801	-0.676515	-0.255191
795	2069686													6.834357	-0.429064	7.060949	0.720712	-0.667797	-0.186069	-0.044539	-0.312458	0.948887	-0.691803	-0.675586	-0.254936
796	2069852													6.819637	-0.413667	7.034798	0.719817	-0.668628	-0.186547	-0.044490	-0.312620	0.948836	-0.692736	-0.674689	-0.254777
797	2070019													6.826458	-0.411341	7.012352	0.718922	-0.669542	-0.186723	-0.044720	-0.312627	0.948823	-0.693651	-0.673779	-0.254696
798	2070186													6.816229	-0.428141	6.976185	0.717986	-0.670499	-0.186888	-0.044956	-0.312604	0.948819	-0.694604	-0.672837	-0.254588
799	2070352													6.868124	-0.453346	6.984278	0.717023	-0.671428	-0.187249	-0.045040	-0.312697	0.948784	-0.695593	-0.671867	-0.254452
800	2070519													6.893630	-0.424212	6.984600	0.716045	-0.672382	-0.187568	-0.045082	-0.312684	0.948787	-0.696596	-0.670919	-0.254208
801	2070686													6.907280	-0.464787	6.978252	0.715154	-0.673201	-0.188032	-0.044963	-0.312765	0.948766	-0.697520	-0.670059	-0.253944
802	2070852													6.913042	-0.450175	6.978181	0.714382	-0.673860	-0.188601	-0.044788	-0.313003	0.948695	-0.698321	-0.669284	-0.253785
803	2071019													6.961496	-0.411379	6.993573	0.713664	-0.674427	-0.189293	-0.044604	-0.313435	0.948562	-0.699067	-0.668511	-0.253769
804	2071186													6.957854	-0.397972	6.985148	0.712955	-0.675038	-0.189789	-0.044631	-0.313796	0.948441	-0.699788	-0.667725	-0.253850
805	2071352													6.963342	-0.428980	6.990360	0.712298	-0.675655	-0.190059	-0.044891	-0.314088	0.948332	-0.700440	-0.666963	-0.254055
806	2071519													6.930968	-0.422070	6.899820	0.711663	-0.676266	-0.190261	-0.045198	-0.314340	0.948234	-0.701065	-0.666224	-0.254270
807	2071686													6.948306	-0.414137	6.911044	0.710962	-0.676958	-0.190422	-0.045524	-0.314519	0.948159	-0.701755	-0.665437	-0.254429
808	2071852													6.946386	-0.413270	6.991335	0.710254	-0.677621	-0.190710	-0.045663	-0.314694	0.948094	-0.702463	-0.664679	-0.254455
809	2072019													6.917680	-0.458320	7.043692	0.709460	-0.678348	-0.191075	-0.045623	-0.314765	0.948072	-0.703267	-0.663902	-0.254261
810	2072186													6.885394	-0.451382	6.992426	0.708463	-0.679217	-0.191689	-0.045388	-0.314899	0.948039	-0.704287	-0.662950	-0.253923
811	2072352													6.909391	-0.407461	6.977140	0.707237	-0.680245	-0.192565	-0.044925	-0.315071	0.948004	-0.705547	-0.661813	-0.253390
812	2072519													6.864716	-0.470214	7.002390	0.705712	-0.681607	-0.193342	-0.044443	-0.314941	0.948070	-0.707103	-0.660472	-0.252550
813	2072686													6.871901	-0.432644	6.991945	0.703920	-0.683161	-0.194390	-0.043790	-0.314901	0.948114	-0.708928	-0.658884	-0.251581
814	2072852													6.892875	-0.412680	7.009667	0.701736	-0.685084	-0.195515	-0.043112	-0.314762	0.948191	-0.711131	-0.656951	-0.250416
815	2073019													6.836457	-0.413584	6.957503	0.699235	-0.687298	-0.196704	-0.042362	-0.314504	0.948310	-0.713636	-0.654759	-0.249028
816	2073186													6.842350	-0.398813	6.894133	0.696628	-0.689591	-0.197924	-0.041576	-0.314219	0.948440	-0.716227	-0.652480	-0.247564
817	2073352													6.909885	-0.380684	6.863968	0.694004	-0.691846	-0.199267	-0.040737	-0.314062	0.948528	-0.718817	-0.650165	-0.246144
818	2073519													6.934869	-0.342961	6.877363	0.691374	-0.694101	-0.200565	-0.040010	-0.313955	0.948594	-0.721389	-0.647809	-0.244831
819	2073686													6.942689	-0.343616	6.834417	0.688928	-0.696203	-0.201691	-0.039520	-0.313925	0.948625	-0.723751	-0.645564	-0.243786
820	2073852													6.994358	-0.354713	6.805652	0.686648	-0.698118	-0.202847	-0.039152	-0.314128	0.948573	-0.725935	-0.643393	-0.243028
821	2074019													7.042466	-0.347484	6.777409	0.684470	-0.699937	-0.203933	-0.039067	-0.314540	0.948440	-0.727993	-0.641212	-0.242638
822	2074186													7.028074	-0.377012	6.686392	0.682029	-0.701985	-0.205069	-0.039357	-0.315233	0.948198	-0.730265	-0.638627	-0.242626
823	2074352													7.032873	-0.352427	6.596649	0.679135	-0.704550	-0.205876	-0.040294	-0.315842	0.947956	-0.732906	-0.635495	-0.242889
824	2074519													7.154821	-0.344427	6.547445	0.675800	-0.707545	-0.206576	-0.041569	-0.316400	0.947715	-0.735912	-0.631879	-0.243235
825	2074686													7.426358	-0.295115	6.644017	0.671877	-0.710968	-0.207618	-0.042611	-0.316953	0.947483	-0.739436	-0.627746	-0.243249
826	2074852													7.244423	-0.507250	6.953987	0.666750	-0.715495	-0.208594	-0.043537	-0.316802	0.947492	-0.744009	-0.622659	-0.242378
827	2075019													7.221956	-0.479783	6.685661	0.660751	-0.720580	-0.210174	-0.044107	-0.316795	0.947468	-0.749308	-0.616770	-0.241105
828	2075186													7.118095	-0.390560	6.469185	0.654379	-0.725762	-0.212267	-0.044154	-0.316910	0.947427	-0.754876	-0.610604	-0.239424
829	2075352													7.086212	-0.409074	6.287851	0.647751	-0.730914	-0.214904	-0.043680	-0.317247	0.947337	-0.760599	-0.604251	-0.237423
830	2075519													7.262222	-0.372971	6.136650	0.640836	-0.736044	-0.218103	-0.042837	-0.317950	0.947139	-0.766482	-0.597618	-0.235284
831	2075686													7.452002	-0.306138	6.291543	0.633443	-0.741503	-0.221186	-0.042001	-0.318375	0.947034	-0.772649	-0.590602	-0.232816
832	2075852													7.551650	-0.287953	6.246971	0.625231	-0.747577	-0.224086	-0.041190	-0.318336	0.947083	-0.779352	-0.582916	-0.229826
833	2076019													7.540228	-0.328165	6.126878	0.616532	-0.753938	-0.226860	-0.040231	-0.317930	0.947260	-0.786301	-0.574889	-0.226346
834	2076186													7.589870	-0.315708	5.990200	0.607429	-0.760382	-0.229889	-0.038984	-0.317582	0.947429	-0.793417	-0.566534	-0.222551
835	2076352													7.676468	-0.344113	5.854427	0.598197	-0.766786	-0.232810	-0.037621	-0.317074	0.947654	-0.800466	-0.558125	-0.218519
836	2076519													7.845560	-0.345111	5.760075	0.588912	-0.773157	-0.235395	-0.036309	-0.316276	0.947972	-0.807381	-0.549725	-0.214331
837	2076686													7.887876	-0.336878	5.646653	0.579672	-0.779325	-0.237977	-0.034804	-0.315463	0.948300	-0.814107	-0.541420	-0.209988
838	2076852													7.954399	-0.362682	5.522372	0.570115	-0.785396	-0.241086	-0.032918	-0.315049	0.948504	-0.820906	-0.532820	-0.205468
839	2077019													8.093359	-0.299249	5.484706	0.560133	-0.791535	-0.244383	-0.030971	-0.314809	0.948650	-0.827823	-0.523801	-0.200850
840	2077186													8.132415	-0.333805	5.444736	0.549869	-0.797719	-0.247564	-0.029175	-0.314557	0.948790	-0.834741	-0.514488	-0.196239
841	2077352													8.208600	-0.337076	5.304271	0.539577	-0.803747	-0.250696	-0.027452	-0.314398	0.948894	-0.841489	-0.505119	-0.191706
842	2077519													8.288140	-0.325709	5.242779	0.529048	-0.809778	-0.253710	-0.025794	-0.314185	0.949011	-0.848200	-0.495528	-0.187106
843	2077686													8.394491	-0.295720	5.124529	0.518197	-0.815849	-0.256636	-0.024250	-0.313963	0.949126	-0.854917	-0.485611	-0.182479
844	2077852													8.485188	-0.286186	5.066380	0.507355	-0.821736	-0.259501	-0.022806	-0.313835	0.949203	-0.861436	-0.475665	-0.177966
845	2078019													8.558640	-0.299402	4.939601	0.496676	-0.827312	-0.262427	-0.021482	-0.313983	0.949186	-0.867670	-0.465800	-0.173720
846	2078186													8.529491	-0.232118	4.764458	0.486058	-0.832711	-0.265217	-0.020247	-0.314126	0.949165	-0.873692	-0.455979	-0.169543
847	2078352													8.613917	-0.193096	4.591202	0.475258	-0.838223	-0.267418	-0.019160	-0.313725	0.949320	-0.879638	-0.446048	-0.165161
848	2078519													8.662251	-0.177386	4.541744	0.464403	-0.843555	-0.269713	-0.017985	-0.313466	0.949429	-0.885441	-0.436067	-0.160746
849	2078686													8.723272	-0.174713	4.490088	0.453682	-0.848611	-0.272090	-0.016743	-0.313382	0.949479	-0.891007	-0.426206	-0.156384
850	2078852													8.794189	-0.163064	4.446445	0.443104	-0.853501	-0.274216	-0.015505	-0.313135	0.949582	-0.896336	-0.416512	-0.151985
851	2079019													8.801075	-0.221625	4.271327	0.432418	-0.858213	-0.276561	-0.014074	-0.313107	0.949614	-0.901564	-0.406738	-0.147471
852	2079186													8.819487	-0.281167	4.108942	0.421755	-0.862525	-0.279595	-0.012412	-0.313825	0.949400	-0.906625	-0.396944	-0.143063
853	2079352													8.899220	-0.166536	4.014868	0.411480	-0.866538	-0.282481	-0.010632	-0.314478	0.949205	-0.911357	-0.387576	-0.138615
854	2079519													8.910662	-0.024604	3.992704	0.401492	-0.870422	-0.284903	-0.008934	-0.314783	0.949121	-0.915819	-0.378519	-0.134159
855	2079686													9.099821	-0.077172	3.872553	0.391513	-0.874221	-0.287150	-0.007207	-0.314965	0.949076	-0.920145	-0.369506	-0.129614
856	2079852													9.062723	-0.045934	3.783270	0.381783	-0.877874	-0.289100	-0.005447	-0.314925	0.949101	-0.924236	-0.360776	-0.125015
857	2080019													9.200645	0.028928	3.692303	0.371965	-0.881483	-0.290910	-0.003807	-0.314844	0.949136	-0.928239	-0.351938	-0.120467
858	2080186													9.102060	0.037227	3.509357	0.362235	-0.884985	-0.292552	-0.002064	-0.314629	0.949212	-0.932084	-0.343234	-0.115796
859	2080352													9.246822	0.063640	3.370358	0.352411	-0.888340	-0.294377	-0.000336	-0.314678	0.949199	-0.935845	-0.334409	-0.111194
860	2080519													9.299809	0.065646	3.303420	0.342565	-0.891586	-0.296181	0.001388	-0.314776	0.949165	-0.939493	-0.325562	-0.106594
861	2080686													9.270452	0.095041	3.272494	0.332606	-0.894994	-0.297251	0.003096	-0.314159	0.949365	-0.943061	-0.316684	-0.101720
862	2080852													9.281601	0.110296	3.133643	0.322359	-0.898591	-0.297690	0.004768	-0.312932	0.949764	-0.946605	-0.307585	-0.096592
