// Start Time: Unknown
// Update Rate: 60.0Hz
//Filter Profile: human (46.1)
// Option Flags: AHS Disabled ICC Disabled
// Firmware Version: 4.0.2
0	sampleTimeFine	Year	Month	Day	Second	UTC_Nano	UTC_Year	UTC_Month	UTC_Day	UTC_Hour	UTC_Minute	UTC_Second	UTC_Valid	Acc_X	Acc_Y	Acc_Z	Mat[1][1]	Mat[2][1]	Mat[3][1]	Mat[1][2]	Mat[2][2]	Mat[3][2]	Mat[1][3]	Mat[2][3]	Mat[3][3]
0	1936516													0.137700	-0.162445	-0.315440	-0.346182	-0.862430	0.369286	-0.020890	0.400613	0.916009	-0.937935	0.309391	-0.156701
1	1936683													9.092715	-0.223835	-3.335421	-0.345093	-0.863271	0.368340	-0.020966	0.399441	0.916519	-0.938334	0.308561	-0.155943
2	1936850													9.087628	-0.174249	-3.333683	-0.344197	-0.864128	0.367167	-0.021674	0.398271	0.917012	-0.938647	0.307674	-0.155813
3	1937016													9.099266	-0.181826	-3.312812	-0.343559	-0.864485	0.366924	-0.021558	0.397862	0.917192	-0.938884	0.307200	-0.155325
4	1937850													9.117660	-0.177781	-3.304971	-0.342890	-0.864895	0.366583	-0.021318	0.397305	0.917439	-0.939134	0.306766	-0.154670
5	1938016													9.137817	-0.207293	-3.326664	-0.342200	-0.864944	0.367111	-0.021101	0.397674	0.917284	-0.939390	0.306149	-0.154335
6	1938183													9.140560	-0.208828	-3.305205	-0.341628	-0.865259	0.366902	-0.021119	0.397359	0.917420	-0.939598	0.305668	-0.154023
7	1938350													9.133712	-0.201128	-3.285520	-0.341064	-0.865355	0.367202	-0.021218	0.397611	0.917309	-0.939801	0.305069	-0.153972
8	1938516													9.126456	-0.209819	-3.290953	-0.340490	-0.865714	0.366886	-0.021305	0.397204	0.917483	-0.940007	0.304577	-0.153689
9	1938683													9.129549	-0.210936	-3.270499	-0.339968	-0.865966	0.366776	-0.021372	0.397019	0.917562	-0.940194	0.304102	-0.153481
10	1938850													9.145877	-0.218225	-3.269469	-0.339472	-0.866080	0.366966	-0.021389	0.397141	0.917508	-0.940373	0.303619	-0.153343
11	1939016													9.163767	-0.211776	-3.260054	-0.338965	-0.866255	0.367023	-0.021457	0.397135	0.917509	-0.940554	0.303128	-0.153202
12	1939183													9.158455	-0.205265	-3.254992	-0.338430	-0.866329	0.367341	-0.021525	0.397401	0.917392	-0.940745	0.302566	-0.153141
13	1939350													9.158269	-0.214869	-3.254774	-0.337868	-0.866454	0.367563	-0.021574	0.397556	0.917324	-0.940946	0.302005	-0.153014
14	1939516													9.156677	-0.200221	-3.260599	-0.337285	-0.866586	0.367787	-0.021620	0.397707	0.917258	-0.941154	0.301426	-0.152876
15	1939683													9.141392	-0.191994	-3.241807	-0.336734	-0.866688	0.368053	-0.021615	0.397892	0.917178	-0.941352	0.300890	-0.152717
16	1939850													9.137517	-0.200262	-3.234365	-0.336248	-0.866815	0.368198	-0.021660	0.397976	0.917140	-0.941524	0.300411	-0.152594
17	1940016													9.146414	-0.202804	-3.219577	-0.335805	-0.866937	0.368313	-0.021705	0.398037	0.917113	-0.941681	0.299977	-0.152480
18	1940183													9.142281	-0.195982	-3.228901	-0.335388	-0.867044	0.368441	-0.021826	0.398140	0.917065	-0.941827	0.299531	-0.152456
19	1940350													9.155734	-0.199762	-3.237151	-0.335064	-0.867113	0.368574	-0.021949	0.398264	0.917008	-0.941940	0.299166	-0.152477
20	1940516													9.134465	-0.220200	-3.247004	-0.334755	-0.867239	0.368560	-0.022121	0.398251	0.917010	-0.942045	0.298821	-0.152501
21	1940683													9.136394	-0.209965	-3.233280	-0.334523	-0.867337	0.368540	-0.022340	0.398259	0.917001	-0.942123	0.298525	-0.152603
22	1940850													9.141195	-0.205886	-3.233039	-0.334355	-0.867455	0.368414	-0.022565	0.398169	0.917035	-0.942177	0.298302	-0.152703
23	1941016													9.125587	-0.213130	-3.225304	-0.334278	-0.867560	0.368237	-0.022813	0.398047	0.917082	-0.942198	0.298160	-0.152849
24	1941183													9.123611	-0.202083	-3.240102	-0.334288	-0.867621	0.368085	-0.023053	0.397963	0.917112	-0.942189	0.298094	-0.153036
25	1941350													9.131907	-0.209115	-3.249508	-0.334389	-0.867695	0.367817	-0.023241	0.397757	0.917196	-0.942149	0.298152	-0.153172
26	1941516													9.128090	-0.188879	-3.237902	-0.334498	-0.867792	0.367488	-0.023413	0.397483	0.917311	-0.942106	0.298235	-0.153275
27	1941683													9.150017	-0.188391	-3.246810	-0.334622	-0.867750	0.367475	-0.023545	0.397533	0.917286	-0.942058	0.298292	-0.153455
28	1941850													9.161893	-0.188087	-3.256222	-0.334724	-0.867648	0.367623	-0.023683	0.397750	0.917188	-0.942018	0.298299	-0.153685
29	1942016													9.158624	-0.182397	-3.279139	-0.334816	-0.867584	0.367689	-0.023771	0.397864	0.917137	-0.941984	0.298332	-0.153835
30	1942183													9.156782	-0.180777	-3.254288	-0.334920	-0.867431	0.367956	-0.023802	0.398173	0.917001	-0.941946	0.298364	-0.154003
31	1942350													9.134817	-0.226902	-3.249061	-0.335001	-0.867308	0.368172	-0.023827	0.398424	0.916892	-0.941917	0.298387	-0.154138
32	1942516													9.144508	-0.198970	-3.260477	-0.335084	-0.867188	0.368379	-0.023922	0.398687	0.916775	-0.941884	0.298384	-0.154339
33	1942683													9.160004	-0.208148	-3.264294	-0.335217	-0.867055	0.368573	-0.023980	0.398934	0.916666	-0.941836	0.298443	-0.154521
34	1942850													9.128311	-0.214316	-3.300944	-0.335338	-0.866896	0.368836	-0.023981	0.399233	0.916536	-0.941793	0.298504	-0.154667
35	1943016													9.146919	-0.193770	-3.281056	-0.335517	-0.866700	0.369132	-0.023899	0.399551	0.916399	-0.941731	0.298646	-0.154769
36	1943183													9.195467	-0.208067	-3.259746	-0.335635	-0.866429	0.369661	-0.023705	0.400069	0.916178	-0.941694	0.298739	-0.154816
37	1943350													9.199304	-0.213148	-3.257554	-0.335646	-0.866338	0.369865	-0.023585	0.400248	0.916103	-0.941693	0.298763	-0.154775
38	1943516													9.169879	-0.186919	-3.252765	-0.335560	-0.866230	0.370196	-0.023475	0.400549	0.915975	-0.941726	0.298674	-0.154743
39	1943683													9.130990	-0.183849	-3.254096	-0.335401	-0.866210	0.370386	-0.023426	0.400707	0.915907	-0.941784	0.298519	-0.154689
40	1943850													9.139960	-0.182938	-3.246219	-0.335256	-0.866196	0.370551	-0.023418	0.400853	0.915843	-0.941836	0.298365	-0.154673
41	1944016													9.140096	-0.190658	-3.246481	-0.335130	-0.866178	0.370707	-0.023429	0.401000	0.915778	-0.941881	0.298219	-0.154681
42	1944183													9.150966	-0.199123	-3.264799	-0.335007	-0.866148	0.370889	-0.023512	0.401197	0.915690	-0.941922	0.298042	-0.154769
43	1944350													9.150263	-0.212956	-3.257510	-0.334926	-0.866149	0.370959	-0.023646	0.401300	0.915641	-0.941948	0.297900	-0.154886
44	1944516													9.123233	-0.215978	-3.231690	-0.334861	-0.866197	0.370906	-0.023833	0.401291	0.915640	-0.941966	0.297773	-0.155021
45	1944683													9.142431	-0.206161	-3.264255	-0.334855	-0.866216	0.370867	-0.024017	0.401307	0.915628	-0.941964	0.297696	-0.155184
46	1944850													9.160512	-0.195590	-3.260804	-0.334868	-0.866292	0.370676	-0.024181	0.401160	0.915689	-0.941955	0.297672	-0.155283
47	1945016													9.150731	-0.192811	-3.295625	-0.334913	-0.866318	0.370575	-0.024339	0.401110	0.915706	-0.941935	0.297663	-0.155422
48	1945183													9.142957	-0.180327	-3.233188	-0.334969	-0.866410	0.370311	-0.024490	0.400889	0.915799	-0.941911	0.297695	-0.155504
49	1945350													9.120454	-0.206266	-3.255917	-0.335077	-0.866409	0.370215	-0.024660	0.400860	0.915808	-0.941868	0.297736	-0.155684
50	1945516													9.121437	-0.181366	-3.265602	-0.335224	-0.866368	0.370178	-0.024906	0.400924	0.915773	-0.941809	0.297770	-0.155978
51	1945683													9.119924	-0.169758	-3.280582	-0.335448	-0.866282	0.370175	-0.025011	0.400994	0.915739	-0.941727	0.297924	-0.156180
52	1945850													9.143608	-0.165926	-3.263866	-0.335691	-0.866168	0.370222	-0.025071	0.401105	0.915689	-0.941639	0.298106	-0.156363
53	1946016													9.171144	-0.198646	-3.272473	-0.335954	-0.866033	0.370300	-0.025143	0.401256	0.915621	-0.941543	0.298297	-0.156578
54	1946183													9.162876	-0.201944	-3.264958	-0.336172	-0.865917	0.370372	-0.025270	0.401411	0.915549	-0.941461	0.298423	-0.156825
55	1946350													9.161613	-0.184660	-3.284403	-0.336343	-0.865842	0.370393	-0.025396	0.401503	0.915506	-0.941397	0.298518	-0.157032
56	1946516													9.149705	-0.191247	-3.267469	-0.336482	-0.865753	0.370476	-0.025498	0.401648	0.915439	-0.941345	0.298582	-0.157222
57	1946683													9.136586	-0.195203	-3.272737	-0.336622	-0.865683	0.370511	-0.025517	0.401715	0.915409	-0.941294	0.298692	-0.157316
58	1946850													9.144823	-0.199692	-3.283945	-0.336747	-0.865556	0.370693	-0.025478	0.401918	0.915321	-0.941250	0.298788	-0.157397
59	1947016													9.155556	-0.201584	-3.250043	-0.336849	-0.865514	0.370699	-0.025436	0.401929	0.915317	-0.941215	0.298894	-0.157404
60	1947183													9.156796	-0.183989	-3.285962	-0.336942	-0.865380	0.370929	-0.025390	0.402174	0.915211	-0.941183	0.298955	-0.157481
61	1947350													9.173154	-0.182279	-3.270706	-0.336977	-0.865246	0.371208	-0.025373	0.402470	0.915082	-0.941171	0.298943	-0.157577
62	1947516													9.149022	-0.177845	-3.262270	-0.336983	-0.865113	0.371514	-0.025315	0.402776	0.914948	-0.941170	0.298917	-0.157630
63	1947683													9.144087	-0.180817	-3.299598	-0.336993	-0.865004	0.371757	-0.025288	0.403026	0.914839	-0.941168	0.298893	-0.157691
64	1947850													9.125097	-0.177798	-3.242529	-0.337049	-0.864926	0.371889	-0.025238	0.403160	0.914782	-0.941149	0.298941	-0.157713
65	1948016													9.131566	-0.194285	-3.273467	-0.337114	-0.864897	0.371897	-0.025253	0.403186	0.914770	-0.941125	0.298990	-0.157761
66	1948183													9.145645	-0.193730	-3.289249	-0.337230	-0.864813	0.371986	-0.025298	0.403314	0.914712	-0.941082	0.299058	-0.157888
67	1948350													9.150978	-0.188978	-3.267509	-0.337373	-0.864691	0.372141	-0.025382	0.403529	0.914615	-0.941029	0.299120	-0.158087
68	1948516													9.136350	-0.194370	-3.274340	-0.337545	-0.864697	0.371972	-0.025477	0.403412	0.914664	-0.940965	0.299263	-0.158200
69	1948683													9.141635	-0.200503	-3.277043	-0.337732	-0.864674	0.371855	-0.025616	0.403366	0.914680	-0.940894	0.299391	-0.158379
70	1948850													9.143075	-0.189660	-3.260556	-0.337934	-0.864585	0.371878	-0.025773	0.403476	0.914627	-0.940817	0.299499	-0.158631
71	1949016													9.136653	-0.185176	-3.273614	-0.338190	-0.864546	0.371737	-0.025930	0.403422	0.914646	-0.940720	0.299685	-0.158851
72	1949183													9.128871	-0.174368	-3.288004	-0.338453	-0.864504	0.371594	-0.026049	0.403356	0.914672	-0.940623	0.299894	-0.159037
73	1949350													9.137149	-0.172993	-3.287676	-0.338689	-0.864445	0.371516	-0.026132	0.403343	0.914676	-0.940535	0.300082	-0.159198
74	1949516													9.146708	-0.184915	-3.306257	-0.338905	-0.864408	0.371406	-0.026209	0.403289	0.914697	-0.940455	0.300262	-0.159332
75	1949683													9.133358	-0.168314	-3.287597	-0.339092	-0.864345	0.371382	-0.026265	0.403315	0.914684	-0.940386	0.300408	-0.159463
76	1949850													9.139497	-0.148021	-3.313634	-0.339292	-0.864200	0.371537	-0.026291	0.403524	0.914591	-0.940314	0.300545	-0.159633
77	1950017													9.139322	-0.162306	-3.306924	-0.339477	-0.864101	0.371598	-0.026282	0.403618	0.914550	-0.940247	0.300702	-0.159729
78	1950183													9.147704	-0.180574	-3.304722	-0.339630	-0.863954	0.371799	-0.026312	0.403868	0.914439	-0.940191	0.300788	-0.159898
79	1950350													9.120979	-0.168238	-3.287765	-0.339792	-0.863785	0.372045	-0.026391	0.404183	0.914297	-0.940130	0.300853	-0.160135
80	1950517													9.121241	-0.179951	-3.297403	-0.339995	-0.863591	0.372310	-0.026400	0.404503	0.914155	-0.940057	0.300979	-0.160328
81	1950683													9.133606	-0.198909	-3.324883	-0.340209	-0.863401	0.372553	-0.026414	0.404803	0.914022	-0.939979	0.301118	-0.160523
82	1950850													9.139509	-0.170489	-3.313845	-0.340463	-0.863157	0.372888	-0.026311	0.405171	0.913862	-0.939890	0.301325	-0.160656
83	1951017													9.167882	-0.194111	-3.315247	-0.340671	-0.862942	0.373194	-0.026146	0.405480	0.913730	-0.939819	0.301524	-0.160698
84	1951183													9.176750	-0.191525	-3.300952	-0.340802	-0.862747	0.373526	-0.025976	0.405800	0.913593	-0.939776	0.301652	-0.160708
85	1951350													9.134513	-0.177537	-3.314121	-0.340828	-0.862702	0.373607	-0.025870	0.405857	0.913570	-0.939770	0.301704	-0.160646
86	1951517													9.131688	-0.159309	-3.297288	-0.340780	-0.862609	0.373865	-0.025778	0.406092	0.913469	-0.939790	0.301654	-0.160624
87	1951683													9.128516	-0.140885	-3.312748	-0.340729	-0.862616	0.373896	-0.025695	0.406089	0.913472	-0.939810	0.301639	-0.160531
88	1951850													9.125204	-0.164255	-3.299595	-0.340687	-0.862570	0.374040	-0.025652	0.406220	0.913415	-0.939827	0.301594	-0.160521
89	1952017													9.138915	-0.138925	-3.340803	-0.340652	-0.862564	0.374086	-0.025702	0.406278	0.913388	-0.939838	0.301533	-0.160569
90	1952183													9.143325	-0.166011	-3.306815	-0.340614	-0.862592	0.374054	-0.025832	0.406280	0.913383	-0.939848	0.301449	-0.160667
91	1952350													9.126642	-0.172784	-3.321996	-0.340613	-0.862583	0.374077	-0.025996	0.406356	0.913345	-0.939844	0.301373	-0.160834
92	1952517													9.134926	-0.170984	-3.304682	-0.340641	-0.862609	0.373991	-0.026201	0.406336	0.913348	-0.939828	0.301324	-0.161016
93	1952683													9.123750	-0.178247	-3.321963	-0.340689	-0.862622	0.373917	-0.026441	0.406343	0.913338	-0.939804	0.301277	-0.161246
94	1952850													9.142562	-0.171136	-3.299611	-0.340727	-0.862719	0.373659	-0.026626	0.406136	0.913425	-0.939785	0.301279	-0.161352
95	1953017													9.123803	-0.159978	-3.312299	-0.340745	-0.862774	0.373517	-0.026794	0.406043	0.913461	-0.939774	0.301249	-0.161474
96	1953183													9.112337	-0.194141	-3.312932	-0.340800	-0.862806	0.373392	-0.027026	0.405995	0.913475	-0.939747	0.301221	-0.161681
97	1953350													9.100623	-0.159793	-3.315307	-0.340915	-0.862864	0.373154	-0.027280	0.405845	0.913535	-0.939698	0.301258	-0.161897
98	1953517													9.099175	-0.161662	-3.312066	-0.341087	-0.862845	0.373038	-0.027391	0.405790	0.913556	-0.939633	0.301384	-0.162044
99	1953683													9.116616	-0.169260	-3.312335	-0.341294	-0.862794	0.372968	-0.027408	0.405759	0.913569	-0.939557	0.301574	-0.162131
100	1953850													9.148481	-0.174619	-3.312637	-0.341486	-0.862755	0.372882	-0.027419	0.405707	0.913592	-0.939487	0.301755	-0.162199
101	1954017													9.141312	-0.183048	-3.323223	-0.341649	-0.862672	0.372924	-0.027490	0.405804	0.913547	-0.939425	0.301861	-0.162357
102	1954183													9.117958	-0.154206	-3.336902	-0.341777	-0.862604	0.372964	-0.027578	0.405898	0.913502	-0.939376	0.301928	-0.162516
103	1954350													9.133995	-0.146013	-3.316803	-0.341905	-0.862487	0.373119	-0.027589	0.406088	0.913417	-0.939330	0.302008	-0.162638
104	1954517													9.147155	-0.167989	-3.313177	-0.342010	-0.862372	0.373288	-0.027554	0.406276	0.913335	-0.939292	0.302084	-0.162712
105	1954683													9.150112	-0.179003	-3.316947	-0.342048	-0.862305	0.373407	-0.027476	0.406383	0.913290	-0.939281	0.302129	-0.162695
106	1954850													9.154383	-0.170986	-3.320948	-0.342066	-0.862258	0.373500	-0.027384	0.406456	0.913260	-0.939277	0.302167	-0.162647
107	1955017													9.148804	-0.158827	-3.309415	-0.342014	-0.862237	0.373595	-0.027315	0.406525	0.913231	-0.939298	0.302133	-0.162589
108	1955183													9.142013	-0.152110	-3.331656	-0.341911	-0.862227	0.373713	-0.027279	0.406619	0.913190	-0.939336	0.302035	-0.162549
109	1955350													9.138014	-0.166032	-3.321574	-0.341794	-0.862205	0.373872	-0.027196	0.406739	0.913139	-0.939381	0.301938	-0.162470
110	1955517													9.131059	-0.149003	-3.344748	-0.341663	-0.862194	0.374016	-0.027113	0.406841	0.913096	-0.939431	0.301830	-0.162379
111	1955683													9.127625	-0.154678	-3.313739	-0.341581	-0.862116	0.374270	-0.027069	0.407082	0.912991	-0.939463	0.301729	-0.162388
112	1955850													9.129003	-0.160364	-3.316964	-0.341510	-0.862079	0.374420	-0.027110	0.407240	0.912919	-0.939487	0.301620	-0.162447
113	1956017													9.124954	-0.177130	-3.294688	-0.341472	-0.862090	0.374431	-0.027182	0.407268	0.912904	-0.939499	0.301554	-0.162504
114	1956183													9.122390	-0.169888	-3.307076	-0.341429	-0.862117	0.374406	-0.027285	0.407267	0.912901	-0.939511	0.301476	-0.162576
115	1956350													9.115665	-0.202844	-3.327781	-0.341434	-0.862185	0.374247	-0.027435	0.407147	0.912950	-0.939505	0.301445	-0.162668
116	1956517													9.112556	-0.181608	-3.324635	-0.341467	-0.862228	0.374118	-0.027609	0.407073	0.912978	-0.939488	0.301423	-0.162807
117	1956683													9.113239	-0.177778	-3.316200	-0.341531	-0.862301	0.373889	-0.027784	0.406898	0.913051	-0.939460	0.301447	-0.162926
118	1956850													9.125823	-0.173931	-3.294462	-0.341638	-0.862361	0.373655	-0.027942	0.406720	0.913125	-0.939416	0.301518	-0.163047
119	1957017													9.117711	-0.164676	-3.303055	-0.341742	-0.862482	0.373280	-0.028089	0.406390	0.913268	-0.939374	0.301617	-0.163107
120	1957183													9.124827	-0.148997	-3.310726	-0.341847	-0.862547	0.373033	-0.028239	0.406195	0.913350	-0.939331	0.301692	-0.163214
121	1957350													9.115104	-0.126595	-3.317242	-0.341990	-0.862584	0.372815	-0.028340	0.406024	0.913423	-0.939276	0.301816	-0.163302
122	1957517													9.110794	-0.141157	-3.320389	-0.342166	-0.862577	0.372669	-0.028398	0.405921	0.913467	-0.939210	0.301974	-0.163388
123	1957683													9.113856	-0.146052	-3.305035	-0.342346	-0.862452	0.372796	-0.028509	0.406123	0.913373	-0.939141	0.302061	-0.163623
124	1957850													9.119120	-0.137035	-3.310634	-0.342539	-0.862317	0.372930	-0.028601	0.406331	0.913278	-0.939068	0.302167	-0.163848
125	1958017													9.150180	-0.153156	-3.321577	-0.342688	-0.862177	0.373116	-0.028638	0.406568	0.913172	-0.939013	0.302248	-0.164017
126	1958183													9.126248	-0.159210	-3.342027	-0.342845	-0.862002	0.373376	-0.028594	0.406858	0.913044	-0.938957	0.302357	-0.164137
127	1958350													9.143783	-0.163573	-3.319602	-0.342966	-0.861850	0.373617	-0.028404	0.407074	0.912954	-0.938918	0.302500	-0.164093
128	1958517													9.152282	-0.170370	-3.326154	-0.343009	-0.861720	0.373876	-0.028183	0.407285	0.912866	-0.938909	0.302585	-0.163988
129	1958683													9.150781	-0.179307	-3.312137	-0.342962	-0.861669	0.374036	-0.027985	0.407382	0.912829	-0.938932	0.302598	-0.163830
130	1958850													9.124210	-0.158416	-3.337200	-0.342848	-0.861625	0.374243	-0.027854	0.407538	0.912763	-0.938978	0.302515	-0.163723
131	1959017													9.110281	-0.152583	-3.341172	-0.342706	-0.861595	0.374441	-0.027801	0.407705	0.912691	-0.939031	0.302375	-0.163676
132	1959183													9.127099	-0.157473	-3.323575	-0.342564	-0.861578	0.374611	-0.027821	0.407865	0.912618	-0.939082	0.302209	-0.163690
133	1959350													9.141523	-0.154404	-3.340970	-0.342432	-0.861604	0.374672	-0.027934	0.407941	0.912581	-0.939127	0.302031	-0.163760
134	1959517													9.141758	-0.163662	-3.314903	-0.342256	-0.861702	0.374608	-0.028150	0.407910	0.912588	-0.939185	0.301793	-0.163867
135	1959683													9.127246	-0.184630	-3.314921	-0.342097	-0.861810	0.374503	-0.028404	0.407851	0.912606	-0.939235	0.301563	-0.164004
136	1959850													9.113472	-0.191576	-3.310642	-0.341989	-0.861927	0.374334	-0.028687	0.407744	0.912645	-0.939266	0.301376	-0.164170
137	1960017													9.116390	-0.167415	-3.326399	-0.341940	-0.862020	0.374163	-0.028944	0.407636	0.912686	-0.939276	0.301254	-0.164337
138	1960183													9.132712	-0.165862	-3.328584	-0.341948	-0.862111	0.373946	-0.029158	0.407476	0.912750	-0.939266	0.301210	-0.164473
139	1960350													9.138015	-0.164251	-3.324395	-0.341924	-0.862258	0.373629	-0.029372	0.407205	0.912864	-0.939269	0.301156	-0.164559
140	1960517													9.093392	-0.175392	-3.320346	-0.341932	-0.862376	0.373349	-0.029580	0.406976	0.912960	-0.939259	0.301127	-0.164668
141	1960683													9.074983	-0.180666	-3.309386	-0.341997	-0.862423	0.373183	-0.029887	0.406911	0.912979	-0.939226	0.301083	-0.164938
142	1960850													9.085096	-0.146444	-3.324615	-0.342144	-0.862436	0.373016	-0.030102	0.406831	0.913007	-0.939165	0.301151	-0.165156
143	1961017													9.115050	-0.155512	-3.333811	-0.342376	-0.862425	0.372829	-0.030176	0.406700	0.913063	-0.939078	0.301361	-0.165269
144	1961183													9.142662	-0.185673	-3.326960	-0.342605	-0.862353	0.372786	-0.030217	0.406710	0.913058	-0.938993	0.301554	-0.165398
145	1961350													9.159840	-0.202644	-3.321243	-0.342762	-0.862273	0.372825	-0.030340	0.406821	0.913004	-0.938932	0.301632	-0.165604
146	1961517													9.147997	-0.184281	-3.307471	-0.342853	-0.862247	0.372804	-0.030503	0.406867	0.912978	-0.938894	0.301645	-0.165797
147	1961683													9.141473	-0.176725	-3.315076	-0.342910	-0.862154	0.372966	-0.030573	0.407072	0.912884	-0.938871	0.301634	-0.165948
148	1961850													9.122426	-0.202503	-3.324489	-0.342928	-0.862142	0.372977	-0.030596	0.407095	0.912873	-0.938863	0.301638	-0.165982
149	1962017													9.138418	-0.191738	-3.332936	-0.342897	-0.862133	0.373025	-0.030592	0.407138	0.912854	-0.938875	0.301604	-0.165981
150	1962183													9.144420	-0.209948	-3.304862	-0.342828	-0.862157	0.373035	-0.030592	0.407136	0.912855	-0.938900	0.301540	-0.165953
151	1962350													9.141898	-0.195583	-3.324585	-0.342703	-0.862156	0.373150	-0.030590	0.407234	0.912811	-0.938946	0.301409	-0.165934
152	1962517													9.121825	-0.187679	-3.312537	-0.342541	-0.862204	0.373189	-0.030579	0.407241	0.912809	-0.939005	0.301262	-0.165861
153	1962683													9.132414	-0.188269	-3.311690	-0.342383	-0.862195	0.373355	-0.030559	0.407381	0.912747	-0.939063	0.301100	-0.165829
154	1962850													9.114418	-0.164720	-3.322869	-0.342257	-0.862168	0.373532	-0.030514	0.407530	0.912682	-0.939111	0.300974	-0.165788
155	1963017													9.124499	-0.179676	-3.328469	-0.342157	-0.862190	0.373574	-0.030476	0.407543	0.912677	-0.939149	0.300894	-0.165720
156	1963183													9.124027	-0.194059	-3.322586	-0.342055	-0.862199	0.373646	-0.030457	0.407595	0.912655	-0.939186	0.300798	-0.165680
157	1963350													9.129031	-0.188495	-3.333740	-0.342002	-0.862267	0.373537	-0.030501	0.407484	0.912703	-0.939204	0.300753	-0.165660
158	1963517													9.125044	-0.194993	-3.318024	-0.341936	-0.862316	0.373484	-0.030602	0.407447	0.912716	-0.939225	0.300661	-0.165710
159	1963683													9.129848	-0.180640	-3.334540	-0.341876	-0.862356	0.373448	-0.030731	0.407439	0.912715	-0.939242	0.300559	-0.165795
160	1963850													9.132060	-0.197636	-3.309071	-0.341811	-0.862434	0.373327	-0.030884	0.407348	0.912750	-0.939261	0.300459	-0.165871
161	1964017													9.127344	-0.198316	-3.316324	-0.341737	-0.862538	0.373154	-0.031020	0.407195	0.912814	-0.939284	0.300367	-0.165910
162	1964183													9.127880	-0.210856	-3.323969	-0.341649	-0.862708	0.372842	-0.031234	0.406916	0.912931	-0.939308	0.300257	-0.165968
163	1964350													9.112875	-0.214281	-3.317976	-0.341579	-0.862792	0.372711	-0.031438	0.406830	0.912963	-0.939327	0.300132	-0.166089
164	1964517													9.106380	-0.179755	-3.310321	-0.341531	-0.862873	0.372568	-0.031580	0.406715	0.913009	-0.939340	0.300055	-0.166156
165	1964683													9.108710	-0.204819	-3.295880	-0.341559	-0.862989	0.372274	-0.031660	0.406435	0.913131	-0.939327	0.300102	-0.166144
166	1964850													9.133543	-0.184167	-3.332358	-0.341579	-0.863038	0.372143	-0.031741	0.406326	0.913177	-0.939317	0.300110	-0.166186
167	1965017													9.140264	-0.164745	-3.325165	-0.341569	-0.863073	0.372070	-0.031748	0.406249	0.913211	-0.939320	0.300112	-0.166163
168	1965183													9.136349	-0.161037	-3.323931	-0.341524	-0.863086	0.372079	-0.031742	0.406248	0.913211	-0.939337	0.300073	-0.166139
169	1965350													9.142241	-0.156756	-3.329964	-0.341512	-0.863060	0.372152	-0.031636	0.406290	0.913196	-0.939345	0.300094	-0.166057
170	1965517													9.175675	-0.162067	-3.326473	-0.341428	-0.862987	0.372399	-0.031437	0.406472	0.913122	-0.939382	0.300058	-0.165911
171	1965683													9.177186	-0.185543	-3.301599	-0.341207	-0.863011	0.372546	-0.031263	0.406530	0.913102	-0.939468	0.299910	-0.165691
172	1965850													9.148562	-0.186960	-3.298284	-0.340863	-0.863015	0.372851	-0.031123	0.406744	0.913012	-0.939598	0.299607	-0.165504
173	1966017													9.129934	-0.177944	-3.306646	-0.340431	-0.863107	0.373033	-0.031012	0.406821	0.912982	-0.939758	0.299238	-0.165261
174	1966183													9.133620	-0.187393	-3.294810	-0.339973	-0.863172	0.373300	-0.030889	0.406979	0.912915	-0.939928	0.298836	-0.165025
175	1966350													9.145077	-0.201277	-3.279981	-0.339481	-0.863273	0.373513	-0.030822	0.407091	0.912867	-0.940108	0.298389	-0.164808
176	1966517													9.146429	-0.204880	-3.278258	-0.338961	-0.863451	0.373575	-0.030840	0.407067	0.912878	-0.940295	0.297908	-0.164608
177	1966684													9.148393	-0.216004	-3.277124	-0.338414	-0.863658	0.373591	-0.030945	0.407016	0.912897	-0.940488	0.297376	-0.164466
178	1966850													9.159429	-0.227490	-3.298708	-0.337888	-0.863891	0.373529	-0.031084	0.406896	0.912945	-0.940673	0.296862	-0.164338
179	1967017													9.145982	-0.209444	-3.249103	-0.337406	-0.864186	0.373283	-0.031235	0.406595	0.913074	-0.940841	0.296418	-0.164181
180	1967184													9.130972	-0.208132	-3.259234	-0.337009	-0.864436	0.373062	-0.031368	0.406331	0.913188	-0.940979	0.296050	-0.164052
181	1967350													9.147623	-0.199667	-3.265654	-0.336665	-0.864641	0.372897	-0.031532	0.406145	0.913265	-0.941097	0.295706	-0.163998
182	1967517													9.119494	-0.183284	-3.242931	-0.336347	-0.864922	0.372532	-0.031699	0.405753	0.913433	-0.941204	0.295422	-0.163891
183	1967684													9.143916	-0.225090	-3.230748	-0.336106	-0.865172	0.372169	-0.031930	0.405398	0.913582	-0.941283	0.295177	-0.163882
184	1967850													9.116936	-0.175201	-3.237811	-0.335936	-0.865343	0.371925	-0.032153	0.405179	0.913672	-0.941336	0.294977	-0.163937
185	1968017													9.129353	-0.173708	-3.250390	-0.335856	-0.865452	0.371745	-0.032268	0.405009	0.913743	-0.941361	0.294890	-0.163951
186	1968184													9.173464	-0.200614	-3.228584	-0.335814	-0.865525	0.371613	-0.032320	0.404879	0.913799	-0.941374	0.294856	-0.163938
187	1968350													9.172836	-0.219492	-3.268809	-0.335776	-0.865606	0.371456	-0.032428	0.404741	0.913856	-0.941383	0.294806	-0.163973
188	1968517													9.173211	-0.207474	-3.246793	-0.335687	-0.865669	0.371392	-0.032550	0.404695	0.913872	-0.941411	0.294686	-0.164028
189	1968684													9.143797	-0.203869	-3.235713	-0.335589	-0.865715	0.371372	-0.032597	0.404670	0.913881	-0.941444	0.294583	-0.164022
190	1968850													9.140997	-0.214272	-3.245158	-0.335504	-0.865756	0.371353	-0.032586	0.404631	0.913899	-0.941475	0.294515	-0.163967
191	1969017													9.140520	-0.211311	-3.261548	-0.335454	-0.865757	0.371396	-0.032507	0.404642	0.913897	-0.941495	0.294498	-0.163882
192	1969184													9.155375	-0.215030	-3.248569	-0.335382	-0.865775	0.371420	-0.032391	0.404619	0.913912	-0.941525	0.294479	-0.163745
193	1969350													9.188990	-0.212502	-3.236300	-0.335262	-0.865819	0.371425	-0.032260	0.404561	0.913942	-0.941572	0.294428	-0.163566
194	1969517													9.180903	-0.211390	-3.255096	-0.335099	-0.865851	0.371498	-0.032133	0.404569	0.913943	-0.941635	0.294324	-0.163393
195	1969684													9.161066	-0.188595	-3.241660	-0.334933	-0.865876	0.371589	-0.031998	0.404592	0.913938	-0.941699	0.294217	-0.163217
196	1969850													9.152272	-0.175760	-3.252328	-0.334739	-0.865921	0.371660	-0.031837	0.404581	0.913948	-0.941773	0.294102	-0.162997
197	1970017													9.135228	-0.184947	-3.233850	-0.334561	-0.865906	0.371854	-0.031712	0.404714	0.913893	-0.941841	0.293960	-0.162861
198	1970184													9.137503	-0.204337	-3.230095	-0.334424	-0.865903	0.371983	-0.031609	0.404794	0.913862	-0.941892	0.293860	-0.162743
199	1970350													9.151139	-0.199005	-3.238224	-0.334325	-0.865875	0.372140	-0.031534	0.404917	0.913810	-0.941930	0.293774	-0.162678
200	1970517													9.161287	-0.200972	-3.237773	-0.334233	-0.865858	0.372260	-0.031477	0.405009	0.913771	-0.941965	0.293695	-0.162622
201	1970684													9.163898	-0.199772	-3.263599	-0.334179	-0.865830	0.372375	-0.031498	0.405127	0.913718	-0.941983	0.293616	-0.162657
202	1970850													9.133662	-0.206283	-3.233791	-0.334109	-0.865795	0.372519	-0.031573	0.405290	0.913643	-0.942005	0.293495	-0.162747
203	1971017													9.128584	-0.200132	-3.234046	-0.334088	-0.865785	0.372562	-0.031612	0.405344	0.913618	-0.942012	0.293451	-0.162789
204	1971184													9.126580	-0.240401	-3.249982	-0.334141	-0.865764	0.372562	-0.031685	0.405377	0.913600	-0.941990	0.293467	-0.162885
205	1971350													9.145005	-0.226629	-3.247368	-0.334234	-0.865804	0.372386	-0.031813	0.405248	0.913653	-0.941953	0.293527	-0.162992
206	1971517													9.153091	-0.235876	-3.244169	-0.334328	-0.865819	0.372266	-0.031920	0.405171	0.913683	-0.941916	0.293588	-0.163097
207	1971684													9.144241	-0.233011	-3.252952	-0.334431	-0.865877	0.372039	-0.031996	0.404974	0.913768	-0.941877	0.293689	-0.163141
208	1971850													9.166599	-0.203640	-3.257685	-0.334569	-0.865859	0.371956	-0.031954	0.404899	0.913803	-0.941829	0.293845	-0.163135
209	1972017													9.194264	-0.201805	-3.246266	-0.334682	-0.865829	0.371925	-0.031792	0.404836	0.913836	-0.941795	0.294021	-0.163018
210	1972184													9.211119	-0.208153	-3.222245	-0.334659	-0.865811	0.371988	-0.031581	0.404833	0.913845	-0.941810	0.294079	-0.162824
211	1972350													9.199142	-0.179307	-3.231264	-0.334507	-0.865836	0.372065	-0.031396	0.404829	0.913853	-0.941870	0.294009	-0.162602
212	1972517													9.163716	-0.170855	-3.240821	-0.334242	-0.865877	0.372210	-0.031206	0.404874	0.913840	-0.941971	0.293828	-0.162346
213	1972684													9.147194	-0.168015	-3.217958	-0.333920	-0.865861	0.372534	-0.030992	0.405091	0.913751	-0.942092	0.293574	-0.162102
214	1972850													9.166146	-0.186090	-3.235171	-0.333590	-0.865849	0.372859	-0.030830	0.405323	0.913654	-0.942214	0.293290	-0.161906
215	1973017													9.165078	-0.199700	-3.208536	-0.333232	-0.865860	0.373153	-0.030725	0.405536	0.913562	-0.942344	0.292963	-0.161741
216	1973184													9.163646	-0.232493	-3.228900	-0.332859	-0.865926	0.373333	-0.030687	0.405646	0.913515	-0.942477	0.292615	-0.161596
217	1973350													9.168392	-0.225253	-3.231756	-0.332518	-0.866009	0.373444	-0.030714	0.405710	0.913486	-0.942597	0.292280	-0.161504
218	1973517													9.146633	-0.217970	-3.212638	-0.332246	-0.866103	0.373467	-0.030763	0.405701	0.913488	-0.942691	0.292014	-0.161437
219	1973684													9.149729	-0.213360	-3.230273	-0.332063	-0.866184	0.373443	-0.030779	0.405647	0.913512	-0.942755	0.291849	-0.161360
220	1973850													9.166327	-0.209824	-3.213988	-0.331941	-0.866299	0.373285	-0.030829	0.405474	0.913586	-0.942796	0.291749	-0.161301
221	1974017													9.149930	-0.189129	-3.199494	-0.331840	-0.866396	0.373148	-0.030897	0.405333	0.913647	-0.942830	0.291655	-0.161275
222	1974184													9.136945	-0.209012	-3.234884	-0.331804	-0.866521	0.372891	-0.031099	0.405117	0.913736	-0.942835	0.291585	-0.161368
223	1974350													9.124592	-0.170880	-3.231866	-0.331854	-0.866620	0.372616	-0.031342	0.404911	0.913819	-0.942810	0.291576	-0.161533
224	1974517													9.140802	-0.177749	-3.219557	-0.331937	-0.866659	0.372450	-0.031486	0.404796	0.913865	-0.942776	0.291619	-0.161654
225	1974684													9.156336	-0.189087	-3.191697	-0.332038	-0.866675	0.372323	-0.031632	0.404725	0.913891	-0.942735	0.291669	-0.161799
226	1974850													9.201364	-0.228805	-3.202560	-0.332079	-0.866743	0.372128	-0.031857	0.404597	0.913940	-0.942713	0.291646	-0.161970
227	1975017													9.183534	-0.211148	-3.213125	-0.332041	-0.866843	0.371930	-0.032126	0.404464	0.913989	-0.942718	0.291533	-0.162147
228	1975184													9.196930	-0.236219	-3.241135	-0.331908	-0.866976	0.371740	-0.032365	0.404314	0.914048	-0.942756	0.291348	-0.162255
229	1975350													9.220085	-0.252062	-3.276040	-0.331591	-0.867227	0.371435	-0.032702	0.404039	0.914157	-0.942856	0.290980	-0.162335
230	1975517													9.231889	-0.274202	-3.291490	-0.331087	-0.867642	0.370917	-0.033249	0.403571	0.914344	-0.943014	0.290394	-0.162465
231	1975684													9.245079	-0.279675	-3.286416	-0.330325	-0.868259	0.370151	-0.033974	0.402848	0.914636	-0.943256	0.289551	-0.162569
232	1975850													9.242373	-0.286729	-3.269290	-0.329309	-0.869076	0.369139	-0.034853	0.401866	0.915035	-0.943579	0.288463	-0.162628
233	1976017													9.231278	-0.305310	-3.264834	-0.328044	-0.870027	0.368023	-0.035799	0.400751	0.915487	-0.943984	0.287145	-0.162610
234	1976184													9.222132	-0.272968	-3.231588	-0.326544	-0.871150	0.366696	-0.036752	0.399373	0.916052	-0.944467	0.285655	-0.162429
235	1976350													9.193713	-0.264100	-3.244895	-0.324929	-0.872305	0.365382	-0.037611	0.397959	0.916632	-0.944990	0.284098	-0.162117
236	1976517													9.189651	-0.234168	-3.234999	-0.323245	-0.873461	0.364113	-0.038411	0.396562	0.917204	-0.945536	0.282495	-0.161737
237	1976684													9.179031	-0.193865	-3.204165	-0.321553	-0.874578	0.362929	-0.039080	0.395216	0.917757	-0.946085	0.280924	-0.161261
238	1976850													9.194122	-0.167867	-3.173811	-0.319830	-0.875640	0.361889	-0.039690	0.393998	0.918254	-0.946643	0.279322	-0.160766
239	1977017													9.205731	-0.188047	-3.156744	-0.318121	-0.876555	0.361178	-0.040210	0.393102	0.918615	-0.947197	0.277708	-0.160300
240	1977184													9.203344	-0.194928	-3.124146	-0.316393	-0.877355	0.360755	-0.040649	0.392481	0.918861	-0.947757	0.276057	-0.159842
241	1977350													9.209536	-0.229994	-3.113996	-0.314657	-0.878055	0.360569	-0.041088	0.392107	0.919001	-0.948316	0.274355	-0.159457
242	1977517													9.211042	-0.258835	-3.105322	-0.312931	-0.878674	0.360564	-0.041486	0.391913	0.919066	-0.948870	0.272646	-0.159094
243	1977684													9.194913	-0.284000	-3.082994	-0.311228	-0.879200	0.360755	-0.041816	0.391910	0.919053	-0.949415	0.270950	-0.158738
244	1977850													9.221322	-0.339977	-3.072940	-0.309589	-0.879675	0.361008	-0.042107	0.391971	0.919014	-0.949938	0.269315	-0.158391
245	1978017													9.238966	-0.348322	-3.039613	-0.307930	-0.880138	0.361297	-0.042386	0.392064	0.918961	-0.950464	0.267662	-0.158033
246	1978184													9.258651	-0.373860	-3.034276	-0.306183	-0.880599	0.361659	-0.042594	0.392197	0.918895	-0.951019	0.265945	-0.157592
247	1978350													9.248223	-0.371615	-3.019084	-0.304371	-0.881056	0.362074	-0.042683	0.392342	0.918829	-0.951597	0.264211	-0.157024
248	1978517													9.303977	-0.342135	-2.999331	-0.302499	-0.881513	0.362531	-0.042626	0.392482	0.918772	-0.952196	0.262474	-0.156300
249	1978684													9.337248	-0.344912	-2.987150	-0.300411	-0.881982	0.363128	-0.042424	0.392692	0.918691	-0.952866	0.260580	-0.155386
250	1978850													9.351260	-0.349013	-2.950336	-0.298035	-0.882521	0.363774	-0.042262	0.392918	0.918602	-0.953619	0.258402	-0.154400
251	1979017													9.305315	-0.322419	-2.943101	-0.295453	-0.883106	0.364460	-0.042171	0.393175	0.918496	-0.954426	0.256003	-0.153406
252	1979184													9.255473	-0.336748	-2.928777	-0.292768	-0.883698	0.365191	-0.042145	0.393480	0.918367	-0.955254	0.253477	-0.152442
253	1979350													9.239564	-0.343084	-2.918513	-0.290028	-0.884288	0.365949	-0.042253	0.393844	0.918206	-0.956085	0.250843	-0.151590
254	1979517													9.100490	-0.360363	-2.930687	-0.287490	-0.884884	0.366511	-0.042670	0.394119	0.918068	-0.956833	0.248296	-0.151063
255	1979684													9.103662	-0.355915	-2.900768	-0.285476	-0.885408	0.366820	-0.043460	0.394313	0.917948	-0.957400	0.246110	-0.151047
256	1979850													9.189396	-0.382063	-2.905646	-0.283752	-0.885888	0.366998	-0.044481	0.394477	0.917829	-0.957866	0.244111	-0.151338
257	1980017													8.958897	-0.384309	-2.926356	-0.282562	-0.886279	0.366973	-0.045703	0.394566	0.917730	-0.958160	0.242544	-0.151995
258	1980184													8.984326	-0.399890	-2.887609	-0.282233	-0.886517	0.366648	-0.047065	0.394521	0.917681	-0.958191	0.241744	-0.153071
259	1980350													9.337397	-0.462973	-2.856616	-0.282038	-0.886762	0.366207	-0.048401	0.394368	0.917677	-0.958182	0.241095	-0.154147
260	1980517													9.292499	-0.442083	-2.809656	-0.281744	-0.887124	0.365555	-0.049983	0.394042	0.917732	-0.958187	0.240294	-0.155360
261	1980684													9.621945	-0.379236	-2.775786	-0.281282	-0.887561	0.364851	-0.051828	0.393698	0.917778	-0.958225	0.239245	-0.156741
262	1980850													9.911392	-0.337394	-2.676154	-0.279744	-0.888244	0.364371	-0.053798	0.393430	0.917779	-0.958566	0.237141	-0.157846
263	1981017													9.854896	-0.234372	-2.645402	-0.276965	-0.889105	0.364394	-0.055867	0.393488	0.917631	-0.959255	0.233794	-0.158654
264	1981184													9.706717	-0.268416	-2.618855	-0.273241	-0.889998	0.365025	-0.057695	0.393944	0.917322	-0.960214	0.229590	-0.158990
265	1981350													9.649654	-0.324591	-2.585996	-0.268727	-0.890875	0.366235	-0.059185	0.394774	0.916870	-0.961396	0.224713	-0.158813
266	1981517													9.595680	-0.380396	-2.571427	-0.263557	-0.891757	0.367840	-0.060375	0.395824	0.916340	-0.962753	0.219299	-0.158162
267	1981684													9.564727	-0.487076	-2.524328	-0.257860	-0.892630	0.369758	-0.061246	0.397031	0.915759	-0.964239	0.213491	-0.157048
268	1981850													9.569628	-0.541972	-2.455629	-0.251694	-0.893545	0.371789	-0.061918	0.398236	0.915191	-0.965824	0.207327	-0.155560
269	1982017													9.616901	-0.542501	-2.370384	-0.245044	-0.894501	0.373928	-0.062356	0.399429	0.914641	-0.967505	0.200811	-0.153655
270	1982184													9.533955	-0.546743	-2.319652	-0.238009	-0.895453	0.376187	-0.062466	0.400628	0.914109	-0.969252	0.194067	-0.151288
271	1982350													9.529916	-0.549043	-2.231508	-0.230840	-0.896367	0.378470	-0.062219	0.401778	0.913621	-0.971000	0.187352	-0.148517
272	1982517													9.601133	-0.585893	-2.184260	-0.223447	-0.897265	0.380772	-0.061629	0.402872	0.913179	-0.972766	0.180580	-0.145319
273	1982684													9.630545	-0.638520	-2.111789	-0.215700	-0.898212	0.382999	-0.060765	0.403820	0.912818	-0.974567	0.173622	-0.141684
274	1982850													9.661363	-0.625753	-2.069947	-0.207578	-0.899237	0.385078	-0.059640	0.404553	0.912568	-0.976399	0.166463	-0.137607
275	1983017													9.604474	-0.596505	-1.981383	-0.199051	-0.900356	0.386960	-0.058446	0.405066	0.912418	-0.978245	0.159002	-0.133251
276	1983184													9.504070	-0.536304	-1.892996	-0.190488	-0.901485	0.388638	-0.057330	0.405427	0.912328	-0.980014	0.151507	-0.128911
277	1983351													9.547774	-0.488361	-1.820873	-0.182018	-0.902550	0.390222	-0.056268	0.405762	0.912245	-0.981684	0.144088	-0.124641
278	1983517													9.569421	-0.488726	-1.739341	-0.173567	-0.903568	0.391712	-0.055261	0.406059	0.912175	-0.983270	0.136677	-0.120411
279	1983684													9.526076	-0.484345	-1.691203	-0.165315	-0.904509	0.393108	-0.054351	0.406342	0.912103	-0.984742	0.129418	-0.116336
280	1983851													9.485472	-0.498863	-1.600622	-0.157394	-0.905389	0.394333	-0.053484	0.406539	0.912066	-0.986087	0.122463	-0.112411
281	1984017													9.469699	-0.499745	-1.536980	-0.149898	-0.906199	0.395390	-0.052703	0.406664	0.912056	-0.987296	0.115877	-0.108718
282	1984184													9.473670	-0.486344	-1.476506	-0.142874	-0.906970	0.396224	-0.052059	0.406663	0.912094	-0.988371	0.109687	-0.105318
283	1984351													9.513750	-0.492582	-1.425580	-0.136275	-0.907709	0.396855	-0.051505	0.406542	0.912179	-0.989331	0.103867	-0.102153
284	1984517													9.411386	-0.492104	-1.374590	-0.130202	-0.908411	0.397287	-0.051079	0.406311	0.912306	-0.990171	0.098491	-0.099303
285	1984684													9.451946	-0.455381	-1.308925	-0.124787	-0.909054	0.397553	-0.050777	0.406011	0.912457	-0.990883	0.093676	-0.096824
286	1984851													9.596575	-0.431750	-1.259659	-0.119818	-0.909668	0.397677	-0.050537	0.405632	0.912638	-0.991509	0.089254	-0.094574
287	1985017													9.680688	-0.412979	-1.199096	-0.114983	-0.910255	0.397763	-0.050305	0.405240	0.912825	-0.992093	0.084950	-0.092386
288	1985184													9.720023	-0.396246	-1.176294	-0.110108	-0.910831	0.397823	-0.050081	0.404833	0.913018	-0.992657	0.080607	-0.090191
289	1985351													9.779279	-0.383461	-1.142760	-0.105044	-0.911412	0.397862	-0.049892	0.404402	0.913220	-0.993215	0.076078	-0.087952
290	1985517													9.813527	-0.382519	-1.104997	-0.099658	-0.911980	0.397946	-0.049699	0.404000	0.913408	-0.993780	0.071251	-0.085586
291	1985684													9.839248	-0.387459	-1.076321	-0.093863	-0.912526	0.398103	-0.049519	0.403653	0.913571	-0.994353	0.066037	-0.083075
292	1985851													9.834114	-0.389722	-1.029847	-0.087548	-0.913068	0.398300	-0.049336	0.403319	0.913729	-0.994938	0.060345	-0.080357
293	1986017													9.911062	-0.381431	-1.027115	-0.080730	-0.913588	0.398546	-0.049226	0.403018	0.913867	-0.995520	0.054158	-0.077508
294	1986184													9.907766	-0.378992	-0.950098	-0.073323	-0.914090	0.398828	-0.049162	0.402731	0.913997	-0.996096	0.047410	-0.074468
295	1986351													9.938058	-0.355357	-0.878197	-0.065319	-0.914550	0.399163	-0.049003	0.402474	0.914119	-0.996660	0.040149	-0.071105
296	1986517													9.965891	-0.356764	-0.798338	-0.056610	-0.914925	0.399635	-0.048725	0.402332	0.914196	-0.997207	0.032280	-0.067356
297	1986684													9.936177	-0.342940	-0.657297	-0.047174	-0.915242	0.400134	-0.048454	0.402205	0.914267	-0.997711	0.023741	-0.063321
298	1986851													9.932901	-0.281430	-0.548905	-0.037139	-0.915427	0.400767	-0.048156	0.402217	0.914277	-0.998149	0.014656	-0.059021
299	1987017													9.887677	-0.218453	-0.439568	-0.026669	-0.915424	0.401605	-0.047920	0.402457	0.914184	-0.998495	0.005135	-0.054601
300	1987184													9.759618	-0.146648	-0.332802	-0.015984	-0.915140	0.402819	-0.047599	0.403111	0.913913	-0.998739	-0.004566	-0.050003
301	1987351													9.672159	-0.234643	-0.214301	-0.005343	-0.914561	0.404412	-0.047203	0.404197	0.913453	-0.998871	-0.014209	-0.045329
302	1987517													9.826556	-0.310000	-0.083139	0.005349	-0.913784	0.406165	-0.046961	0.405493	0.912891	-0.998882	-0.023957	-0.040743
303	1987684													9.895420	-0.345356	-0.006533	0.016454	-0.912861	0.407939	-0.046982	0.406837	0.912292	-0.998760	-0.034177	-0.036194
304	1987851													9.911035	-0.354408	0.107404	0.028026	-0.911786	0.409708	-0.047204	0.408204	0.911669	-0.998492	-0.044890	-0.031599
305	1988017													9.898644	-0.365542	0.207882	0.040118	-0.910555	0.411436	-0.047535	0.409563	0.911043	-0.998064	-0.056107	-0.026852
306	1988184													9.816702	-0.387695	0.316146	0.052544	-0.909165	0.413107	-0.047987	0.410902	0.910416	-0.997465	-0.067661	-0.022038
307	1988351													9.754370	-0.385887	0.448864	0.065136	-0.907621	0.414706	-0.048491	0.412219	0.909794	-0.996698	-0.079370	-0.017161
308	1988517													9.831683	-0.402141	0.587576	0.077823	-0.905944	0.416184	-0.049015	0.413469	0.909198	-0.995762	-0.091155	-0.012228
309	1988684													9.867332	-0.429201	0.763196	0.090796	-0.904134	0.417489	-0.049590	0.414596	0.908653	-0.994634	-0.103205	-0.007192
310	1988851													9.826589	-0.422786	0.895662	0.104070	-0.902164	0.418652	-0.050232	0.415633	0.908144	-0.993301	-0.115540	-0.002062
311	1989017													9.801410	-0.452367	1.030689	0.117473	-0.900058	0.419638	-0.050827	0.416560	0.907686	-0.991774	-0.127958	0.003188
312	1989184													9.900390	-0.461557	1.189857	0.131013	-0.897835	0.420390	-0.051408	0.417322	0.907303	-0.990047	-0.140479	0.008519
313	1989351													9.950167	-0.454794	1.359547	0.144950	-0.895454	0.420893	-0.052031	0.417899	0.907002	-0.988070	-0.153369	0.013983
314	1989517													9.788765	-0.461831	1.527401	0.159131	-0.892922	0.421150	-0.052767	0.418283	0.906783	-0.985846	-0.166520	0.019445
315	1989684													9.748545	-0.524210	1.670670	0.173364	-0.890262	0.421162	-0.053646	0.418467	0.906646	-0.983396	-0.179774	0.024789
316	1989851													9.536690	-0.543278	1.793539	0.187634	-0.887546	0.420779	-0.054607	0.418299	0.906666	-0.980720	-0.193099	0.030021
317	1990017													9.408889	-0.568766	1.898675	0.201267	-0.884928	0.419993	-0.055412	0.417795	0.906850	-0.977968	-0.205791	0.035053
318	1990184													9.311921	-0.576323	2.052755	0.214104	-0.882467	0.418822	-0.055792	0.417017	0.907185	-0.975216	-0.217599	0.040050
319	1990351													9.338592	-0.573552	2.175385	0.225945	-0.880235	0.417295	-0.055822	0.415969	0.907664	-0.972539	-0.228376	0.044849
320	1990517													9.391425	-0.561345	2.312716	0.237029	-0.878193	0.415444	-0.055528	0.414684	0.908269	-0.969914	-0.238355	0.049528
321	1990684													9.386608	-0.488906	2.430876	0.247409	-0.876296	0.413393	-0.055007	0.413265	0.908948	-0.967348	-0.247622	0.054044
322	1990851													9.315512	-0.415530	2.515194	0.257075	-0.874487	0.411320	-0.054469	0.411837	0.909628	-0.964855	-0.256247	0.058241
323	1991017													9.371220	-0.360278	2.629991	0.266044	-0.872721	0.409363	-0.054011	0.410505	0.910257	-0.962447	-0.264279	0.062076
324	1991184													9.434321	-0.303925	2.700225	0.274669	-0.870880	0.407585	-0.053688	0.409336	0.910803	-0.960039	-0.272052	0.065676
325	1991351													9.468923	-0.305370	2.730309	0.283185	-0.868880	0.406021	-0.053400	0.408409	0.911236	-0.957577	-0.279730	0.069257
326	1991517													9.552964	-0.345503	2.781528	0.291891	-0.866653	0.404615	-0.053229	0.407662	0.911580	-0.954969	-0.287619	0.072862
327	1991684													9.593756	-0.356338	2.807053	0.301179	-0.864129	0.403202	-0.053200	0.406950	0.911900	-0.952082	-0.296096	0.076593
328	1991851													9.387665	-0.321830	2.908285	0.311077	-0.861263	0.401817	-0.053374	0.406295	0.912182	-0.948885	-0.305206	0.080420
329	1992017													9.338702	-0.337031	3.051814	0.321279	-0.858132	0.400486	-0.053598	0.405751	0.912411	-0.945467	-0.314603	0.084365
330	1992184													9.380220	-0.428750	3.104560	0.331998	-0.854700	0.399080	-0.053845	0.405215	0.912634	-0.941742	-0.324481	0.088509
331	1992351													9.323928	-0.449633	3.160583	0.343359	-0.850969	0.397436	-0.054071	0.404550	0.912916	-0.937646	-0.334948	0.092893
332	1992517													9.261885	-0.427639	3.235233	0.355318	-0.846941	0.395525	-0.054267	0.403733	0.913266	-0.933169	-0.345963	0.097492
333	1992684													9.500992	-0.420201	3.389095	0.367965	-0.842543	0.393347	-0.054436	0.402782	0.913676	-0.928245	-0.357613	0.102345
334	1992851													9.792350	-0.388894	3.638422	0.382014	-0.837405	0.390919	-0.054702	0.401770	0.914105	-0.922536	-0.370585	0.107674
335	1993017													9.653852	-0.295622	3.844420	0.397650	-0.831346	0.388251	-0.055194	0.400705	0.914543	-0.915876	-0.385097	0.113455
336	1993184													9.163979	-0.225241	3.995181	0.414066	-0.824454	0.385778	-0.056047	0.399920	0.914835	-0.908520	-0.400424	0.119385
337	1993351													8.731874	-0.214603	4.143053	0.430178	-0.817074	0.383845	-0.057456	0.399555	0.914907	-0.900914	-0.415627	0.124934
338	1993517													8.620193	-0.267282	4.279268	0.445191	-0.809567	0.382631	-0.059516	0.399615	0.914749	-0.893455	-0.430011	0.129723
339	1993684													8.559951	-0.381936	4.427903	0.459035	-0.802117	0.381962	-0.062033	0.399947	0.914437	-0.886250	-0.443453	0.133832
340	1993851													8.636990	-0.527926	4.550257	0.471855	-0.794794	0.381648	-0.064859	0.400403	0.914041	-0.879288	-0.456048	0.137383
341	1994017													8.776576	-0.601031	4.731766	0.484057	-0.787559	0.381366	-0.067776	0.400775	0.913666	-0.872408	-0.468114	0.140620
342	1994184													8.791949	-0.706518	4.919116	0.496070	-0.780250	0.380951	-0.070539	0.401076	0.913325	-0.865412	-0.479945	0.143924
343	1994351													8.694349	-0.852714	5.045621	0.507973	-0.772967	0.380111	-0.073006	0.401063	0.913137	-0.858273	-0.491599	0.147298
344	1994517													8.513902	-0.965623	5.181375	0.519590	-0.765924	0.378664	-0.075146	0.400502	0.913209	-0.851105	-0.502949	0.150541
345	1994684													8.298905	-0.968415	5.269080	0.530711	-0.759340	0.376495	-0.076691	0.399368	0.913577	-0.844076	-0.513720	0.153715
346	1994851													8.228171	-1.032982	5.323322	0.541103	-0.753454	0.373516	-0.077557	0.397553	0.914296	-0.837372	-0.523697	0.156682
347	1995017													8.126001	-1.054664	5.385405	0.550898	-0.748304	0.369531	-0.077775	0.394820	0.915461	-0.830941	-0.533065	0.159306
348	1995184													8.052061	-0.900487	5.444344	0.560020	-0.743912	0.364655	-0.077268	0.391332	0.917000	-0.824868	-0.541714	0.161673
349	1995351													7.990170	-0.733324	5.526719	0.568494	-0.740112	0.359234	-0.075996	0.387549	0.918711	-0.819170	-0.549582	0.164073
350	1995517													8.023830	-0.610718	5.602361	0.576409	-0.736649	0.353696	-0.074213	0.383856	0.920406	-0.813784	-0.556779	0.166590
351	1995684													8.037453	-0.543945	5.635666	0.584006	-0.733274	0.348205	-0.072379	0.380209	0.922064	-0.808516	-0.563694	0.168970
352	1995851													8.046599	-0.425555	5.738439	0.591389	-0.729795	0.343013	-0.070823	0.376720	0.923616	-0.803271	-0.570509	0.171102
353	1996017													8.100890	-0.382167	5.836213	0.598748	-0.725980	0.338311	-0.069656	0.373595	0.924973	-0.797903	-0.577391	0.173120
354	1996184													8.050700	-0.438031	5.962439	0.606343	-0.721624	0.334077	-0.068919	0.370845	0.926134	-0.792211	-0.584579	0.175126
355	1996351													7.944368	-0.446835	6.110948	0.614022	-0.716864	0.330277	-0.068450	0.368508	0.927101	-0.786316	-0.591867	0.177203
356	1996517													7.781099	-0.471157	6.265687	0.621541	-0.711864	0.327011	-0.068033	0.366808	0.927806	-0.780422	-0.598916	0.179556
357	1996684													7.733490	-0.567453	6.402890	0.628600	-0.706925	0.324220	-0.067623	0.365621	0.928304	-0.774783	-0.605457	0.182025
358	1996851													7.628460	-0.571772	6.522863	0.635210	-0.702152	0.321701	-0.067213	0.364692	0.928699	-0.769410	-0.611541	0.184462
359	1997017													7.534181	-0.529836	6.632890	0.641289	-0.697636	0.319457	-0.066683	0.364093	0.928973	-0.764396	-0.617042	0.186968
360	1997184													7.487696	-0.492429	6.700506	0.646801	-0.693374	0.317617	-0.066122	0.363910	0.929084	-0.759787	-0.621934	0.189530
361	1997351													7.466611	-0.470581	6.755413	0.651771	-0.689385	0.316137	-0.065603	0.364029	0.929074	-0.755573	-0.626284	0.192038
362	1997517													7.410671	-0.482958	6.798698	0.656291	-0.685631	0.314949	-0.065212	0.364316	0.928990	-0.751685	-0.630226	0.194385
363	1997684													7.387481	-0.464646	6.842085	0.660288	-0.682176	0.314094	-0.064968	0.364775	0.928826	-0.748197	-0.633699	0.196537
364	1997851													7.431988	-0.579098	6.873037	0.663926	-0.678938	0.313441	-0.064822	0.365322	0.928622	-0.744983	-0.636854	0.198537
365	1998017													7.397945	-0.681083	6.873184	0.667352	-0.675961	0.312598	-0.064521	0.365686	0.928499	-0.741942	-0.639805	0.200427
366	1998184													7.285522	-0.675320	6.869298	0.670552	-0.673356	0.311371	-0.063858	0.365768	0.928513	-0.739109	-0.642500	0.202267
367	1998351													7.278163	-0.572464	6.864492	0.673343	-0.671253	0.309885	-0.062778	0.365718	0.928606	-0.736660	-0.644724	0.204114
368	1998517													7.320643	-0.530794	6.856394	0.675911	-0.669426	0.308241	-0.061560	0.365503	0.928772	-0.734407	-0.646743	0.205838
369	1998684													7.294513	-0.445403	6.856853	0.678354	-0.667745	0.306517	-0.060380	0.365104	0.929007	-0.732250	-0.648703	0.207351
370	1998851													7.343279	-0.444489	6.895394	0.680710	-0.666153	0.304752	-0.059290	0.364550	0.929295	-0.730149	-0.650649	0.208657
371	1999017													7.338978	-0.367652	6.914613	0.683095	-0.664520	0.302977	-0.058450	0.363775	0.929651	-0.727987	-0.652749	0.209651
372	1999184													7.275297	-0.346594	6.933884	0.685462	-0.662817	0.301356	-0.057869	0.362984	0.929997	-0.725805	-0.654916	0.210455
373	1999351													7.269802	-0.393368	6.990752	0.687636	-0.661215	0.299919	-0.057448	0.362236	0.930314	-0.723779	-0.656947	0.211101
374	1999517													7.255246	-0.484538	7.021910	0.689633	-0.659723	0.298615	-0.057135	0.361507	0.930617	-0.721901	-0.658846	0.211614
375	1999684													7.226357	-0.541556	7.027542	0.691462	-0.658437	0.297223	-0.056770	0.360633	0.930979	-0.720179	-0.660610	0.211984
376	1999851													7.143972	-0.588377	7.052452	0.693006	-0.657494	0.295711	-0.056212	0.359650	0.931392	-0.718737	-0.662083	0.212281
377	2000018													7.179582	-0.622427	7.089458	0.694157	-0.657030	0.294038	-0.055382	0.358527	0.931875	-0.717690	-0.663152	0.212487
378	2000184													7.196571	-0.579053	7.099103	0.694966	-0.657023	0.292135	-0.054271	0.357195	0.932452	-0.716992	-0.663877	0.212581
379	2000351													7.265364	-0.467868	7.092534	0.695471	-0.657388	0.290107	-0.052924	0.355777	0.933071	-0.716603	-0.664277	0.212641
380	2000518													7.270963	-0.419242	7.090452	0.695834	-0.657834	0.288217	-0.051641	0.354438	0.933652	-0.716343	-0.664551	0.212659
381	2000684													7.202291	-0.356353	7.071537	0.696037	-0.658378	0.286479	-0.050497	0.353118	0.934215	-0.716228	-0.664715	0.212537
382	2000851													7.166214	-0.286269	7.033604	0.695944	-0.659055	0.285146	-0.049625	0.351998	0.934684	-0.716379	-0.664639	0.212265
383	2001018													7.265043	-0.286069	6.964361	0.695608	-0.659799	0.284245	-0.049067	0.351095	0.935053	-0.716744	-0.664377	0.211850
384	2001184													7.261365	-0.319854	6.911182	0.695259	-0.660407	0.283686	-0.048807	0.350399	0.935328	-0.717100	-0.664141	0.211385
385	2001351													7.313134	-0.349221	6.899375	0.695006	-0.660858	0.283254	-0.048620	0.349856	0.935541	-0.717358	-0.663979	0.211021
386	2001518													7.310069	-0.401074	6.881597	0.694973	-0.661099	0.282772	-0.048506	0.349264	0.935768	-0.717398	-0.664050	0.210662
387	2001684													7.261603	-0.389347	6.858363	0.694978	-0.661340	0.282196	-0.048438	0.348514	0.936051	-0.717398	-0.664204	0.210176
388	2001851													7.316111	-0.291581	6.885216	0.695036	-0.661562	0.281532	-0.048276	0.347748	0.936344	-0.717352	-0.664385	0.209759
389	2002018													7.334758	-0.294448	6.879087	0.695246	-0.661589	0.280952	-0.048217	0.347069	0.936599	-0.717153	-0.664713	0.209399
390	2002184													7.285613	-0.324493	6.885669	0.695506	-0.661499	0.280517	-0.048418	0.346374	0.936846	-0.716887	-0.665164	0.208877
391	2002351													7.281271	-0.342141	6.891207	0.695665	-0.661444	0.280252	-0.048880	0.345636	0.937095	-0.716701	-0.665603	0.208116
392	2002518													7.302557	-0.428187	6.898283	0.695737	-0.661457	0.280044	-0.049437	0.344853	0.937354	-0.716593	-0.665996	0.207227
393	2002684													7.327644	-0.454740	6.897520	0.695780	-0.661558	0.279699	-0.049870	0.343979	0.937652	-0.716522	-0.666348	0.206342
394	2002851													7.311296	-0.423599	6.907757	0.695873	-0.661635	0.279286	-0.050139	0.343181	0.937930	-0.716413	-0.666683	0.205637
395	2003018													7.288607	-0.446806	6.892345	0.695936	-0.661759	0.278833	-0.050351	0.342366	0.938216	-0.716336	-0.666979	0.204945
396	2003184													7.273992	-0.448133	6.939218	0.696026	-0.661898	0.278278	-0.050484	0.341493	0.938528	-0.716240	-0.667288	0.204272
397	2003351													7.250505	-0.442007	6.943706	0.696087	-0.662079	0.277694	-0.050443	0.340728	0.938808	-0.716184	-0.667499	0.203779
398	2003518													7.205383	-0.462828	6.938964	0.696015	-0.662398	0.277114	-0.050236	0.340070	0.939057	-0.716268	-0.667519	0.203418
399	2003684													7.265296	-0.386279	6.924761	0.695774	-0.662866	0.276598	-0.049986	0.339473	0.939287	-0.716519	-0.667358	0.203062
400	2003851													7.293160	-0.306708	6.906226	0.695486	-0.663289	0.276310	-0.049825	0.339101	0.939430	-0.716810	-0.667127	0.202792
401	2004018													7.249345	-0.347099	6.871558	0.695210	-0.663574	0.276321	-0.049941	0.338897	0.939497	-0.717070	-0.666947	0.202465
402	2004184													7.293813	-0.429850	6.876194	0.694833	-0.663929	0.276416	-0.050155	0.338682	0.939563	-0.717421	-0.666703	0.202028
403	2004351													7.369249	-0.469807	6.860813	0.694589	-0.664197	0.276383	-0.050391	0.338320	0.939681	-0.717639	-0.666620	0.201524
404	2004518													7.290380	-0.449336	6.820180	0.694392	-0.664504	0.276141	-0.050528	0.337773	0.939871	-0.717821	-0.666592	0.200971
405	2004684													7.364791	-0.420865	6.818552	0.694118	-0.664939	0.275784	-0.050505	0.337179	0.940085	-0.718087	-0.666458	0.200460
406	2004851													7.373823	-0.435329	6.805340	0.694024	-0.665221	0.275341	-0.050430	0.336586	0.940301	-0.718184	-0.666477	0.200051
407	2005018													7.347184	-0.384761	6.787493	0.694067	-0.665406	0.274783	-0.050395	0.335847	0.940568	-0.718144	-0.666664	0.199567
408	2005184													7.362381	-0.311601	6.817624	0.694230	-0.665448	0.274268	-0.050484	0.335100	0.940829	-0.717980	-0.666998	0.199042
409	2005351													7.338874	-0.352567	6.845442	0.694456	-0.665315	0.274019	-0.050816	0.334527	0.941015	-0.717738	-0.667418	0.198506
410	2005518													7.327862	-0.436264	6.878557	0.694664	-0.665130	0.273943	-0.051190	0.334154	0.941127	-0.717511	-0.667790	0.198077
411	2005684													7.309691	-0.493994	6.896376	0.694883	-0.664933	0.273866	-0.051488	0.333852	0.941218	-0.717277	-0.668137	0.197752
412	2005851													7.312505	-0.527120	6.927420	0.695094	-0.664781	0.273696	-0.051703	0.333495	0.941333	-0.717057	-0.668466	0.197439
413	2006018													7.301503	-0.490155	6.911281	0.695326	-0.664703	0.273299	-0.051713	0.333013	0.941503	-0.716832	-0.668784	0.197179
414	2006184													7.276433	-0.422028	6.952849	0.695530	-0.664674	0.272850	-0.051607	0.332555	0.941671	-0.716641	-0.669041	0.197000
415	2006351													7.258459	-0.380675	6.956993	0.695675	-0.664689	0.272444	-0.051572	0.332068	0.941844	-0.716503	-0.669268	0.196732
416	2006518													7.244247	-0.393348	6.930733	0.695753	-0.664750	0.272096	-0.051737	0.331451	0.942053	-0.716416	-0.669513	0.196216
417	2006684													7.241529	-0.416180	6.965812	0.695785	-0.664851	0.271765	-0.052109	0.330648	0.942315	-0.716357	-0.669810	0.195415
418	2006851													7.231163	-0.498054	6.972887	0.695782	-0.665072	0.271231	-0.052628	0.329404	0.942721	-0.716322	-0.670203	0.194192
419	2007018													7.240161	-0.615283	7.010080	0.695772	-0.665512	0.270177	-0.053161	0.327408	0.943387	-0.716293	-0.670745	0.192422
420	2007184													7.194567	-0.557331	7.045557	0.695750	-0.666265	0.268370	-0.053503	0.324517	0.944366	-0.716289	-0.671401	0.190135
421	2007351													7.189581	-0.465462	7.069483	0.695572	-0.667380	0.266051	-0.053623	0.321052	0.945542	-0.716453	-0.671959	0.187528
422	2007518													7.210616	-0.474530	7.129807	0.695192	-0.668851	0.263337	-0.053646	0.317048	0.946891	-0.716820	-0.672398	0.184528
423	2007684													7.243567	-0.304288	7.203591	0.694653	-0.670587	0.260327	-0.053646	0.312593	0.948371	-0.717342	-0.672755	0.181169
424	2007851													7.206065	-0.305075	7.228158	0.693920	-0.672408	0.257569	-0.053833	0.308261	0.949777	-0.718037	-0.672935	0.177711
425	2008018													7.113071	-0.310579	7.266503	0.692872	-0.674390	0.255197	-0.054306	0.304109	0.951088	-0.719013	-0.672841	0.174086
426	2008184													7.068696	-0.284798	7.195398	0.691337	-0.676629	0.253431	-0.054883	0.300564	0.952181	-0.720445	-0.672187	0.170656
427	2008351													7.076353	-0.381567	7.114750	0.689312	-0.679058	0.252447	-0.055522	0.297918	0.952976	-0.722334	-0.670914	0.167656
428	2008518													7.094510	-0.415052	7.021020	0.686787	-0.681713	0.252174	-0.056176	0.296116	0.953499	-0.724685	-0.669016	0.165072
429	2008684													7.264005	-0.512533	6.993062	0.683981	-0.684435	0.252425	-0.056771	0.295035	0.953798	-0.727288	-0.666710	0.162942
430	2008851													7.235431	-0.524031	6.946399	0.681099	-0.687060	0.253085	-0.057279	0.294597	0.953903	-0.729947	-0.664199	0.161296
431	2009018													7.237865	-0.476231	6.930188	0.677882	-0.689803	0.254260	-0.057648	0.294911	0.953784	-0.732907	-0.661211	0.160150
432	2009184													7.302705	-0.408117	6.938807	0.674259	-0.692680	0.256064	-0.057898	0.296088	0.953404	-0.736221	-0.657668	0.159535
433	2009351													7.410161	-0.390993	6.922688	0.670161	-0.695721	0.258567	-0.058221	0.298022	0.952782	-0.739929	-0.653571	0.159217
434	2009518													7.469938	-0.305730	6.915258	0.665723	-0.698727	0.261905	-0.058608	0.300941	0.951840	-0.743894	-0.649011	0.159392
435	2009684													7.353396	-0.280833	6.944153	0.660677	-0.701798	0.266433	-0.059102	0.305194	0.950454	-0.748340	-0.643690	0.160157
436	2009851													7.294589	-0.464850	6.851812	0.654585	-0.705343	0.272047	-0.059859	0.310368	0.948730	-0.753615	-0.637309	0.160941
437	2010018													7.278473	-0.557514	6.747794	0.647288	-0.709628	0.278291	-0.060855	0.315818	0.946866	-0.759812	-0.629831	0.161241
438	2010184													7.325851	-0.657662	6.677668	0.638760	-0.714694	0.284954	-0.061840	0.321469	0.944899	-0.766917	-0.621185	0.161145
439	2010351													7.444302	-0.713067	6.642741	0.628978	-0.720582	0.291804	-0.062456	0.327298	0.942855	-0.774910	-0.611260	0.160858
440	2010518													7.587567	-0.891537	6.513724	0.617981	-0.727283	0.298595	-0.062691	0.333004	0.940839	-0.783689	-0.600140	0.160196
441	2010684													7.684602	-0.829288	6.282584	0.606213	-0.734601	0.304741	-0.062646	0.337879	0.939102	-0.792831	-0.588387	0.158807
442	2010851													7.580165	-0.730743	6.082165	0.593602	-0.742485	0.310407	-0.062445	0.342055	0.937603	-0.802332	-0.575947	0.156680
443	2011018													7.741416	-0.651240	5.934112	0.579677	-0.751181	0.315755	-0.062074	0.345668	0.936302	-0.812479	-0.562352	0.153747
444	2011184													8.203179	-0.621788	5.854600	0.565060	-0.760154	0.320739	-0.061522	0.348848	0.935158	-0.822753	-0.548152	0.150354
445	2011351													8.381710	-0.583783	5.681766	0.550692	-0.768709	0.325309	-0.060991	0.351629	0.934150	-0.832478	-0.534270	0.146755
446	2011518													8.326245	-0.589890	5.480617	0.536496	-0.776880	0.329591	-0.060473	0.354161	0.933227	-0.841734	-0.520604	0.143026
447	2011684													8.297775	-0.585309	5.260478	0.522215	-0.784851	0.333616	-0.059851	0.356502	0.932376	-0.850711	-0.506868	0.139197
448	2011851													8.315715	-0.579613	5.130267	0.507715	-0.792714	0.337387	-0.059057	0.358672	0.931594	-0.859498	-0.492909	0.135288
449	2012018													8.620701	-0.579457	4.970438	0.493208	-0.800350	0.340860	-0.058137	0.360631	0.930895	-0.867967	-0.478941	0.131336
450	2012184													8.782181	-0.561654	4.800063	0.479391	-0.807404	0.343925	-0.057208	0.362308	0.930301	-0.875735	-0.465653	0.127497
451	2012351													8.720012	-0.505892	4.621138	0.466056	-0.814001	0.346691	-0.056205	0.363819	0.929772	-0.882968	-0.452811	0.123809
452	2012518													8.704492	-0.470645	4.523364	0.452907	-0.820264	0.349347	-0.054972	0.365400	0.929226	-0.889861	-0.440057	0.120401
453	2012684													8.670965	-0.404878	4.381429	0.439517	-0.826351	0.352093	-0.053424	0.367241	0.928590	-0.896644	-0.426941	0.117262
454	2012851													8.668440	-0.413560	4.204209	0.425648	-0.832357	0.354973	-0.051549	0.369342	0.927863	-0.903419	-0.413241	0.114302
455	2013018													8.857348	-0.402095	3.994289	0.411330	-0.838269	0.357927	-0.049566	0.371533	0.927096	-0.910138	-0.399084	0.111273
456	2013184													9.052886	-0.390333	3.930250	0.396941	-0.843959	0.360792	-0.047586	0.373634	0.926355	-0.916610	-0.384877	0.108151
457	2013351													8.803666	-0.296311	3.760038	0.382147	-0.849529	0.363681	-0.045791	0.375659	0.925626	-0.922966	-0.370378	0.104656
458	2013518													8.746392	-0.226331	3.587188	0.365992	-0.855317	0.366718	-0.044420	0.377553	0.924922	-0.929557	-0.354804	0.100188
459	2013684													9.010976	-0.149526	3.393635	0.348731	-0.861138	0.369902	-0.043539	0.379368	0.924221	-0.936211	-0.338409	0.094804
460	2013851													9.122150	-0.266922	3.216844	0.330726	-0.866796	0.373208	-0.042885	0.381250	0.923477	-0.942752	-0.321423	0.088917
461	2014018													9.257055	-0.351168	3.052165	0.312236	-0.872281	0.376343	-0.042100	0.383055	0.922766	-0.949071	-0.303965	0.082880
462	2014184													9.277309	-0.369023	2.821297	0.293301	-0.877627	0.379138	-0.041294	0.384579	0.922168	-0.955128	-0.286129	0.076557
463	2014351													9.339810	-0.306749	2.642536	0.273842	-0.882837	0.381588	-0.040551	0.385804	0.921689	-0.960919	-0.267871	0.069849
464	2014518													9.452150	-0.307774	2.475081	0.254198	-0.887732	0.383816	-0.039800	0.386913	0.921257	-0.966333	-0.249457	0.063021
465	2014684													9.500171	-0.327800	2.303517	0.234233	-0.892320	0.385876	-0.038806	0.388020	0.920834	-0.971406	-0.230664	0.056259
466	2014851													9.540832	-0.314691	2.068877	0.214030	-0.896597	0.387692	-0.037541	0.389046	0.920453	-0.976105	-0.211559	0.049608
467	2015018													9.664673	-0.260416	1.890385	0.193866	-0.900459	0.389345	-0.036223	0.390033	0.920088	-0.980359	-0.192477	0.042996
468	2015184													9.706849	-0.184334	1.696445	0.174062	-0.903835	0.390877	-0.034872	0.391030	0.919717	-0.984117	-0.173719	0.036545
469	2015351													9.624420	-0.178611	1.532390	0.154525	-0.906729	0.392384	-0.033462	0.392123	0.919304	-0.987422	-0.155185	0.030252
470	2015518													9.686479	-0.200711	1.373912	0.135116	-0.909202	0.393823	-0.032012	0.393254	0.918872	-0.990313	-0.136761	0.024030
471	2015684													9.786565	-0.147505	1.164262	0.116146	-0.911256	0.395124	-0.030683	0.394335	0.918454	-0.992758	-0.118799	0.017840
472	2015851													9.921353	-0.111206	1.014300	0.097939	-0.912861	0.396349	-0.029624	0.395413	0.918026	-0.994751	-0.101652	0.011684
473	2016018													9.812506	-0.109051	0.901215	0.080468	-0.914039	0.397565	-0.028840	0.396556	0.917557	-0.996340	-0.085300	0.005549
474	2016184													9.653139	-0.100454	0.750331	0.063001	-0.914859	0.398829	-0.028185	0.397833	0.917025	-0.997615	-0.069015	-0.000721
475	2016351													9.784790	-0.107024	0.513191	0.045573	-0.915366	0.400035	-0.027722	0.399138	0.916472	-0.998576	-0.052857	-0.007186
476	2016518													9.949828	-0.093622	0.346737	0.028651	-0.915533	0.401220	-0.027473	0.400512	0.915879	-0.999212	-0.037264	-0.013678
477	2016685													9.879986	-0.126684	0.180980	0.012389	-0.915396	0.402364	-0.027468	0.401932	0.915258	-0.999546	-0.022391	-0.020164
478	2016851													9.843123	-0.105691	0.035264	-0.003602	-0.914991	0.403459	-0.027696	0.403398	0.914605	-0.999610	-0.007880	-0.026794
479	2017018													9.906971	-0.137617	-0.178502	-0.019196	-0.914332	0.404510	-0.028098	0.404918	0.913921	-0.999421	0.006177	-0.033464
480	2017185													10.023712	-0.205364	-0.330706	-0.034104	-0.913505	0.405395	-0.028686	0.406358	0.913263	-0.999007	0.019516	-0.040063
481	2017351													9.965282	-0.240642	-0.460986	-0.048082	-0.912575	0.406072	-0.029549	0.407664	0.912654	-0.998406	0.031883	-0.046568
482	2017518													9.685539	-0.295978	-0.636117	-0.061594	-0.911592	0.406456	-0.030746	0.408769	0.912120	-0.997628	0.043684	-0.053205
483	2017685													9.290486	-0.302229	-0.780456	-0.075695	-0.910501	0.406520	-0.032050	0.409701	0.911657	-0.996616	0.055979	-0.060194
484	2017851													9.434337	-0.225755	-0.944632	-0.090750	-0.909205	0.406338	-0.033090	0.410549	0.911238	-0.995324	0.069249	-0.067343
485	2018018													9.530924	-0.244443	-1.149182	-0.106136	-0.907664	0.406057	-0.033872	0.411426	0.910813	-0.993775	0.082916	-0.074411
486	2018185													9.430490	-0.295534	-1.350155	-0.121802	-0.905878	0.405647	-0.034516	0.412308	0.910390	-0.991954	0.096886	-0.081487
487	2018351													9.451303	-0.319610	-1.506136	-0.137879	-0.903846	0.405033	-0.035110	0.413142	0.909990	-0.989827	0.111247	-0.088698
488	2018518													9.556721	-0.363439	-1.692069	-0.154153	-0.901605	0.404160	-0.035633	0.413856	0.909645	-0.987404	0.125823	-0.095924
489	2018685													9.592641	-0.362277	-1.890776	-0.170139	-0.899231	0.403035	-0.036140	0.414417	0.909369	-0.984757	0.140153	-0.103006
490	2018851													9.588059	-0.338007	-2.062321	-0.185811	-0.896741	0.401659	-0.036607	0.414812	0.909170	-0.981903	0.154230	-0.109904
491	2019018													9.560144	-0.315915	-2.217463	-0.201003	-0.894134	0.400152	-0.036928	0.415115	0.909019	-0.978894	0.167939	-0.116458
492	2019185													9.398939	-0.331557	-2.393750	-0.215886	-0.891381	0.398539	-0.037065	0.415352	0.908905	-0.975715	0.181448	-0.122708
493	2019351													9.495589	-0.339722	-2.492637	-0.230623	-0.888458	0.396807	-0.037061	0.415525	0.908827	-0.972337	0.194891	-0.128757
494	2019518													9.608851	-0.350144	-2.612983	-0.244668	-0.885536	0.394923	-0.037050	0.415543	0.908819	-0.968899	0.207727	-0.134479
495	2019685													9.673785	-0.345725	-2.716984	-0.257841	-0.882663	0.392967	-0.037038	0.415450	0.908862	-0.965477	0.219787	-0.139812
496	2019851													9.654704	-0.378228	-2.848581	-0.269926	-0.879911	0.391019	-0.037008	0.415273	0.908944	-0.962170	0.230877	-0.144657
497	2020018													9.357840	-0.374877	-2.888206	-0.281246	-0.877287	0.388933	-0.037070	0.414922	0.909101	-0.958920	0.241263	-0.149216
498	2020185													9.488159	-0.365190	-2.948360	-0.292192	-0.874703	0.386677	-0.037289	0.414434	0.909315	-0.955632	0.251276	-0.153711
499	2020351													9.623419	-0.362729	-3.046862	-0.302195	-0.872351	0.384294	-0.037651	0.413751	0.909611	-0.952502	0.260411	-0.157878
500	2020518													9.464434	-0.378037	-3.104474	-0.311329	-0.870206	0.381859	-0.038105	0.412937	0.909962	-0.949538	0.268747	-0.161718
501	2020685													9.397479	-0.377715	-3.165204	-0.319873	-0.868217	0.379316	-0.038664	0.411979	0.910373	-0.946671	0.276538	-0.165349
502	2020851													9.316240	-0.357823	-3.243476	-0.327950	-0.866323	0.376741	-0.039307	0.410964	0.910804	-0.943877	0.283890	-0.168828
503	2021018													9.293494	-0.356180	-3.251312	-0.335765	-0.864459	0.374129	-0.039976	0.409907	0.911251	-0.941097	0.291010	-0.172190
504	2021185													9.387123	-0.365762	-3.317676	-0.343085	-0.862698	0.371544	-0.040675	0.408826	0.911705	-0.938423	0.297679	-0.175353
505	2021351													9.360519	-0.382777	-3.362014	-0.349704	-0.861138	0.368983	-0.041458	0.407689	0.912179	-0.935943	0.303695	-0.178271
506	2021518													9.288527	-0.392904	-3.403593	-0.355826	-0.859726	0.366414	-0.042381	0.406516	0.912660	-0.933591	0.309219	-0.181085
507	2021685													9.166532	-0.388166	-3.427647	-0.361560	-0.858441	0.363804	-0.043403	0.405276	0.913163	-0.931338	0.314373	-0.183791
508	2021851													9.024184	-0.399913	-3.478966	-0.367241	-0.857136	0.361180	-0.044437	0.404038	0.913662	-0.929064	0.319485	-0.186468
509	2022018													9.024340	-0.408793	-3.510243	-0.372946	-0.855776	0.358550	-0.045482	0.402826	0.914146	-0.926738	0.324620	-0.189154
510	2022185													9.098487	-0.430824	-3.585104	-0.378492	-0.854447	0.355898	-0.046534	0.401583	0.914640	-0.924434	0.329622	-0.191757
511	2022351													9.124629	-0.431897	-3.661643	-0.383670	-0.853227	0.353272	-0.047586	0.400307	0.915145	-0.922243	0.334303	-0.194188
512	2022518													9.154186	-0.422445	-3.694100	-0.388436	-0.852100	0.350774	-0.048593	0.399078	0.915628	-0.920193	0.338618	-0.196423
513	2022685													9.113709	-0.432596	-3.772314	-0.392690	-0.851109	0.348438	-0.049609	0.397924	0.916076	-0.918332	0.342448	-0.198483
514	2022851													9.012622	-0.428804	-3.811308	-0.396620	-0.850185	0.346236	-0.050585	0.396838	0.916494	-0.916588	0.345985	-0.200401
515	2023018													8.987855	-0.425941	-3.842440	-0.400288	-0.849300	0.344179	-0.051584	0.395869	0.916857	-0.914936	0.349253	-0.202272
516	2023185													8.990129	-0.451582	-3.868998	-0.403699	-0.848462	0.342256	-0.052587	0.394995	0.917177	-0.913379	0.352265	-0.204077
517	2023351													8.881520	-0.474522	-3.867564	-0.406854	-0.847704	0.340393	-0.053646	0.394158	0.917476	-0.911917	0.355018	-0.205841
518	2023518													8.826378	-0.476390	-3.882164	-0.410047	-0.846916	0.338519	-0.054763	0.393348	0.917757	-0.910419	0.357785	-0.207671
519	2023685													8.778928	-0.488004	-3.934503	-0.413308	-0.846099	0.336589	-0.055964	0.392542	0.918030	-0.908870	0.360592	-0.209592
520	2023851													8.738124	-0.487349	-3.960361	-0.416795	-0.845150	0.334668	-0.057068	0.391774	0.918290	-0.907207	0.363639	-0.211521
521	2024018													8.796393	-0.560241	-3.984262	-0.420392	-0.844132	0.332735	-0.058257	0.391068	0.918516	-0.905470	0.366753	-0.213578
522	2024185													8.845999	-0.581780	-4.009816	-0.423970	-0.843174	0.330616	-0.059747	0.390292	0.918750	-0.903703	0.369769	-0.215850
523	2024351													8.802280	-0.579268	-4.080395	-0.427503	-0.842260	0.328389	-0.061384	0.389463	0.918994	-0.901927	0.372715	-0.218198
524	2024518													8.757613	-0.573410	-4.095060	-0.431039	-0.841319	0.326172	-0.063027	0.388665	0.919221	-0.900130	0.375662	-0.220555
525	2024685													8.749484	-0.608858	-4.112876	-0.434576	-0.840362	0.323938	-0.064619	0.387843	0.919457	-0.898314	0.378641	-0.222851
526	2024851													8.782706	-0.608408	-4.138400	-0.438061	-0.839393	0.321748	-0.066148	0.387046	0.919685	-0.896508	0.381595	-0.225074
527	2025018													8.833108	-0.647551	-4.171804	-0.441362	-0.838443	0.319709	-0.067589	0.386340	0.919877	-0.894780	0.384390	-0.227185
528	2025185													8.811827	-0.635676	-4.213520	-0.444390	-0.837570	0.317796	-0.069019	0.385706	0.920037	-0.893171	0.386921	-0.229212
529	2025351													8.724930	-0.603955	-4.226506	-0.447229	-0.836724	0.316035	-0.070216	0.385095	0.920202	-0.891659	0.389351	-0.230977
530	2025518													8.742130	-0.589220	-4.242605	-0.449926	-0.835814	0.314612	-0.070955	0.384625	0.920342	-0.890242	0.391763	-0.232358
531	2025685													8.799170	-0.585550	-4.246151	-0.452425	-0.834862	0.313556	-0.071170	0.384277	0.920470	-0.888958	0.394128	-0.233274
532	2025851													8.903313	-0.630797	-4.232981	-0.454519	-0.833970	0.312901	-0.070838	0.384014	0.920606	-0.887916	0.396268	-0.233619
533	2026018													9.029419	-0.645769	-4.218109	-0.455906	-0.833333	0.312578	-0.070105	0.383732	0.920780	-0.887263	0.397876	-0.233367
534	2026185													8.933833	-0.668493	-4.279364	-0.456514	-0.832981	0.312631	-0.068917	0.383434	0.920993	-0.887043	0.398900	-0.232449
535	2026351													8.620291	-0.641802	-4.346944	-0.456769	-0.832753	0.312865	-0.067416	0.383091	0.921247	-0.887027	0.399706	-0.231125
536	2026518													8.370194	-0.695568	-4.390664	-0.457405	-0.832291	0.313165	-0.065592	0.382782	0.921507	-0.886836	0.400961	-0.229678
537	2026685													8.389427	-0.780052	-4.406989	-0.458370	-0.831760	0.313166	-0.063965	0.382322	0.921813	-0.886457	0.402499	-0.228448
538	2026851													8.417280	-0.708493	-4.525574	-0.459599	-0.831238	0.312749	-0.062660	0.381616	0.922195	-0.885914	0.404242	-0.227476
539	2027018													8.323603	-0.593383	-4.592069	-0.461216	-0.830573	0.312133	-0.061337	0.380788	0.922626	-0.885165	0.406385	-0.226571
540	2027185													8.344758	-0.592913	-4.608815	-0.463249	-0.829730	0.311366	-0.060056	0.379922	0.923067	-0.884191	0.408910	-0.225828
541	2027351													8.350667	-0.527613	-4.649404	-0.465641	-0.828731	0.310456	-0.058912	0.379058	0.923496	-0.883011	0.411728	-0.225328
542	2027518													8.296819	-0.475211	-4.681751	-0.468481	-0.827490	0.309491	-0.057928	0.378329	0.923857	-0.881572	0.414881	-0.225175
543	2027685													8.316425	-0.411145	-4.690518	-0.471756	-0.825957	0.308613	-0.057062	0.377874	0.924097	-0.879881	0.418338	-0.225395
544	2027851													8.324587	-0.374197	-4.697683	-0.475368	-0.824138	0.307932	-0.056273	0.377773	0.924187	-0.877985	0.422001	-0.225958
545	2028018													8.375980	-0.359112	-4.714585	-0.479261	-0.821991	0.307636	-0.055549	0.378219	0.924048	-0.875913	0.425771	-0.226927
546	2028185													8.446852	-0.357056	-4.758554	-0.483178	-0.819764	0.307450	-0.054981	0.378880	0.923811	-0.873794	0.429461	-0.228138
547	2028351													8.385530	-0.336729	-4.821006	-0.487109	-0.817330	0.307729	-0.054404	0.380072	0.923356	-0.871645	0.433033	-0.229602
548	2028518													8.273203	-0.372428	-4.834429	-0.491232	-0.814656	0.308266	-0.053838	0.381631	0.922745	-0.869364	0.436685	-0.231329
549	2028685													8.344890	-0.427347	-4.855098	-0.495526	-0.811822	0.308868	-0.053336	0.383364	0.922056	-0.866954	0.440429	-0.233266
550	2028851													8.321143	-0.472871	-4.922986	-0.499766	-0.809001	0.309436	-0.052923	0.385103	0.921355	-0.864542	0.444086	-0.235276
551	2029018													8.275755	-0.512341	-4.951342	-0.503991	-0.806188	0.309928	-0.052585	0.386809	0.920659	-0.862107	0.447706	-0.237342
552	2029185													8.260449	-0.529479	-4.993963	-0.508240	-0.803392	0.310248	-0.052287	0.388365	0.920021	-0.859627	0.451369	-0.239389
553	2029351													8.198312	-0.555498	-5.059124	-0.512443	-0.800684	0.310335	-0.052064	0.389696	0.919471	-0.857142	0.455019	-0.241384
554	2029518													7.983164	-0.602132	-5.139216	-0.516781	-0.797974	0.310119	-0.051915	0.390782	0.919018	-0.854542	0.458832	-0.243376
555	2029685													7.922876	-0.668448	-5.109334	-0.521600	-0.795108	0.309414	-0.051915	0.391562	0.918686	-0.851609	0.463124	-0.245517
556	2029851													8.240762	-0.624179	-5.091209	-0.526581	-0.792244	0.308321	-0.051815	0.391912	0.918542	-0.848544	0.467711	-0.247423
557	2030018													8.476934	-0.641230	-5.231634	-0.530945	-0.789773	0.307173	-0.051445	0.391859	0.918586	-0.845843	0.471916	-0.248685
558	2030185													8.307959	-0.602425	-5.243768	-0.534773	-0.787708	0.305834	-0.050904	0.391310	0.918850	-0.843461	0.475808	-0.249360
559	2030351													8.350439	-0.479243	-5.240197	-0.538190	-0.785877	0.304548	-0.049907	0.390424	0.919282	-0.841345	0.479549	-0.249343
560	2030518													8.506006	-0.458928	-5.255708	-0.540975	-0.784372	0.303489	-0.048532	0.389363	0.919805	-0.839637	0.482863	-0.248702
561	2030685													8.556815	-0.433673	-5.287570	-0.542828	-0.783418	0.302646	-0.047118	0.388200	0.920370	-0.838521	0.485342	-0.247639
562	2030851													8.571507	-0.415890	-5.261892	-0.543656	-0.783085	0.302019	-0.045845	0.387013	0.920934	-0.838055	0.486825	-0.246302
563	2031018													8.582469	-0.353146	-5.277927	-0.543443	-0.783379	0.301641	-0.044865	0.385924	0.921439	-0.838246	0.487217	-0.244874
564	2031185													8.587509	-0.296872	-5.263378	-0.542178	-0.784283	0.301568	-0.044223	0.385033	0.921843	-0.839099	0.486467	-0.243439
565	2031351													8.564163	-0.254222	-5.254186	-0.539974	-0.785705	0.301821	-0.043837	0.384359	0.922142	-0.840540	0.484702	-0.241986
566	2031518													8.471788	-0.231489	-5.215345	-0.536968	-0.787529	0.302429	-0.043776	0.384026	0.922284	-0.842466	0.481998	-0.240685
567	2031685													8.364130	-0.255774	-5.213895	-0.533375	-0.789598	0.303390	-0.043996	0.384079	0.922251	-0.844734	0.478558	-0.239598
568	2031851													8.237708	-0.273518	-5.144657	-0.529494	-0.791740	0.304605	-0.044518	0.384510	0.922047	-0.847145	0.474657	-0.238843
569	2032018													8.152843	-0.297076	-5.081536	-0.525616	-0.793787	0.305990	-0.045225	0.385246	0.921705	-0.849519	0.470624	-0.238390
570	2032185													8.125703	-0.317027	-5.031434	-0.521930	-0.795626	0.307521	-0.045965	0.386231	0.921256	-0.851749	0.466696	-0.238156
571	2032351													8.148066	-0.353847	-4.984816	-0.518493	-0.797259	0.309100	-0.046739	0.387369	0.920739	-0.853804	0.462950	-0.238111
572	2032518													8.051562	-0.389572	-4.937946	-0.515470	-0.798608	0.310670	-0.047516	0.388628	0.920169	-0.855589	0.459557	-0.238273
573	2032685													8.100993	-0.460717	-4.898851	-0.512853	-0.799740	0.312087	-0.048352	0.389868	0.919600	-0.857114	0.456529	-0.238614
574	2032851													8.146985	-0.443605	-4.861562	-0.510581	-0.800696	0.313356	-0.049144	0.391020	0.919069	-0.858424	0.453860	-0.238997
575	2033018													8.211446	-0.467820	-4.861104	-0.508602	-0.801490	0.314544	-0.049817	0.392105	0.918571	-0.859560	0.451517	-0.239353
576	2033185													8.254863	-0.502480	-4.825627	-0.506904	-0.802146	0.315611	-0.050344	0.393061	0.918133	-0.860531	0.449516	-0.239628
577	2033352													8.290025	-0.542708	-4.773626	-0.505445	-0.802717	0.316499	-0.050808	0.393853	0.917768	-0.861362	0.447800	-0.239855
578	2033518													8.271244	-0.541882	-4.758050	-0.504213	-0.803227	0.317170	-0.051227	0.394446	0.917490	-0.862059	0.446362	-0.240031
579	2033685													8.280184	-0.552256	-4.761150	-0.503252	-0.803651	0.317620	-0.051550	0.394822	0.917310	-0.862601	0.445265	-0.240124
580	2033852													8.299348	-0.551036	-4.743689	-0.502517	-0.804023	0.317844	-0.051850	0.394998	0.917218	-0.863011	0.444437	-0.240181
581	2034018													8.336611	-0.526046	-4.746024	-0.501969	-0.804346	0.317891	-0.052112	0.395013	0.917196	-0.863314	0.443838	-0.240201
582	2034185													8.384851	-0.514495	-4.730931	-0.501470	-0.804686	0.317818	-0.052341	0.394889	0.917237	-0.863590	0.443332	-0.240143
583	2034352													8.429139	-0.493802	-4.726906	-0.500965	-0.805036	0.317728	-0.052481	0.394699	0.917310	-0.863875	0.442865	-0.239980
584	2034518													8.443409	-0.488150	-4.739237	-0.500387	-0.805406	0.317700	-0.052527	0.394508	0.917390	-0.864207	0.442363	-0.239712
585	2034685													8.446019	-0.478924	-4.759028	-0.499755	-0.805770	0.317772	-0.052478	0.394365	0.917454	-0.864576	0.441826	-0.239371
586	2034852													8.455432	-0.455745	-4.752489	-0.499025	-0.806163	0.317922	-0.052342	0.394237	0.917517	-0.865005	0.441223	-0.238931
587	2035018													8.454832	-0.443776	-4.751125	-0.498191	-0.806580	0.318173	-0.052147	0.394160	0.917561	-0.865498	0.440529	-0.238428
588	2035185													8.472924	-0.457184	-4.734791	-0.497232	-0.807028	0.318539	-0.051917	0.394159	0.917575	-0.866063	0.439710	-0.237887
589	2035352													8.481432	-0.441879	-4.767673	-0.496100	-0.807540	0.319005	-0.051664	0.394209	0.917567	-0.866727	0.438724	-0.237288
590	2035518													8.457514	-0.469839	-4.745823	-0.494829	-0.808105	0.319549	-0.051458	0.394327	0.917528	-0.867466	0.437576	-0.236708
591	2035685													8.457342	-0.467466	-4.723110	-0.493488	-0.808692	0.320137	-0.051303	0.394502	0.917462	-0.868238	0.436333	-0.236170
592	2035852													8.473040	-0.501212	-4.726673	-0.492093	-0.809301	0.320743	-0.051195	0.394706	0.917380	-0.869036	0.435016	-0.235664
593	2036018													8.456402	-0.500728	-4.731297	-0.490615	-0.809963	0.321336	-0.051160	0.394907	0.917296	-0.869873	0.433599	-0.235185
594	2036185													8.427248	-0.498330	-4.749047	-0.489127	-0.810641	0.321893	-0.051143	0.395075	0.917224	-0.870712	0.432177	-0.234701
595	2036352													8.385185	-0.499822	-4.721294	-0.487694	-0.811304	0.322396	-0.051139	0.395205	0.917168	-0.871516	0.430811	-0.234228
596	2036518													8.387196	-0.487648	-4.716113	-0.486444	-0.811866	0.322872	-0.051142	0.395365	0.917099	-0.872214	0.429605	-0.233843
597	2036685													8.441492	-0.457732	-4.680946	-0.485311	-0.812343	0.323377	-0.051132	0.395588	0.917004	-0.872845	0.428497	-0.233520
598	2036852													8.464883	-0.447675	-4.658166	-0.484231	-0.812773	0.323914	-0.051121	0.395863	0.916886	-0.873446	0.427425	-0.233239
599	2037018													8.413311	-0.428224	-4.656460	-0.483272	-0.813093	0.324544	-0.051088	0.396268	0.916712	-0.873979	0.426441	-0.233044
600	2037185													8.350269	-0.397848	-4.649352	-0.482560	-0.813228	0.325264	-0.050900	0.396774	0.916504	-0.874383	0.425712	-0.232861
601	2037352													8.419438	-0.440709	-4.621452	-0.482035	-0.813196	0.326120	-0.050525	0.397399	0.916254	-0.874694	0.425189	-0.232647
602	2037518													8.491182	-0.503321	-4.628728	-0.481518	-0.813156	0.326983	-0.050134	0.398026	0.916003	-0.875001	0.424679	-0.232424
603	2037685													8.521870	-0.498984	-4.621729	-0.480878	-0.813208	0.327793	-0.049822	0.398597	0.915772	-0.875371	0.424043	-0.232193
604	2037852													8.561848	-0.467742	-4.607070	-0.480009	-0.813408	0.328571	-0.049552	0.399082	0.915575	-0.875863	0.423203	-0.231869
605	2038018													8.593264	-0.462350	-4.610239	-0.478906	-0.813745	0.329345	-0.049343	0.399525	0.915393	-0.876478	0.422136	-0.231488
606	2038185													8.611627	-0.443737	-4.609685	-0.477503	-0.814249	0.330135	-0.049172	0.399915	0.915232	-0.877253	0.420793	-0.230999
607	2038352													8.590150	-0.449167	-4.606824	-0.475861	-0.814892	0.330918	-0.049072	0.400262	0.915086	-0.878150	0.419215	-0.230457
608	2038518													8.567607	-0.468355	-4.584782	-0.474022	-0.815639	0.331717	-0.049015	0.400590	0.914945	-0.879148	0.417445	-0.229867
609	2038685													8.549656	-0.467983	-4.570661	-0.472097	-0.816448	0.332472	-0.049045	0.400888	0.914813	-0.880181	0.415574	-0.229300
610	2038852													8.578131	-0.472428	-4.593234	-0.470097	-0.817298	0.333215	-0.049098	0.401163	0.914690	-0.881248	0.413633	-0.228713
611	2039018													8.600548	-0.460290	-4.572395	-0.467944	-0.818314	0.333754	-0.049232	0.401204	0.914665	-0.882386	0.411580	-0.228028
612	2039185													8.679911	-0.458916	-4.546283	-0.465604	-0.819349	0.334485	-0.049315	0.401386	0.914581	-0.883618	0.409337	-0.227293
613	2039352													8.685524	-0.474072	-4.532646	-0.462912	-0.820562	0.335246	-0.049437	0.401520	0.914515	-0.885025	0.406767	-0.226434
614	2039518													8.747430	-0.523634	-4.537030	-0.459877	-0.822033	0.335819	-0.049663	0.401400	0.914555	-0.886593	0.403906	-0.225419
615	2039685													8.759363	-0.470779	-4.499724	-0.456412	-0.823727	0.336395	-0.049932	0.401186	0.914635	-0.888367	0.400653	-0.224236
616	2039852													8.815845	-0.474401	-4.471256	-0.452472	-0.825619	0.337079	-0.050117	0.400930	0.914737	-0.890369	0.396999	-0.222787
617	2040018													8.883699	-0.513894	-4.422501	-0.447962	-0.827743	0.337892	-0.050297	0.400667	0.914842	-0.892636	0.392820	-0.221116
618	2040185													8.982733	-0.503136	-4.391072	-0.442771	-0.830187	0.338737	-0.050640	0.400337	0.914968	-0.895203	0.387968	-0.219298
619	2040352													8.920881	-0.462528	-4.335053	-0.436818	-0.832924	0.339746	-0.051022	0.400018	0.915086	-0.898102	0.382392	-0.217233
620	2040518													8.862381	-0.440037	-4.272325	-0.430387	-0.835784	0.340928	-0.051315	0.399743	0.915190	-0.901185	0.376391	-0.214933
621	2040685													8.805702	-0.423405	-4.184296	-0.423581	-0.838662	0.342381	-0.051409	0.399609	0.915243	-0.904398	0.370078	-0.212382
622	2040852													8.754848	-0.438978	-4.130830	-0.416593	-0.841465	0.344073	-0.051287	0.399631	0.915240	-0.907645	0.363636	-0.209640
623	2041018													8.780585	-0.475913	-4.052052	-0.409584	-0.844136	0.345941	-0.050999	0.399802	0.915182	-0.910846	0.357201	-0.206802
624	2041185													8.851642	-0.484287	-3.951428	-0.402563	-0.846712	0.347881	-0.050621	0.400045	0.915096	-0.913991	0.350774	-0.203905
625	2041352													8.905879	-0.470450	-3.866990	-0.395455	-0.849233	0.349883	-0.050129	0.400323	0.915002	-0.917116	0.344303	-0.200880
626	2041518													8.909002	-0.469441	-3.743040	-0.388300	-0.851682	0.351939	-0.049519	0.400638	0.914897	-0.920201	0.337827	-0.197742
627	2041685													8.889948	-0.475888	-3.658759	-0.381286	-0.854031	0.353911	-0.048856	0.400911	0.914813	-0.923165	0.331515	-0.194586
628	2041852													8.895862	-0.487199	-3.601063	-0.374452	-0.856272	0.355787	-0.048199	0.401158	0.914740	-0.925993	0.325377	-0.191486
629	2042018													8.900947	-0.469218	-3.505545	-0.367873	-0.858394	0.357533	-0.047548	0.401358	0.914686	-0.928660	0.319488	-0.188464
630	2042185													8.936425	-0.469985	-3.439746	-0.361557	-0.860423	0.359095	-0.047041	0.401494	0.914653	-0.931163	0.313807	-0.185638
631	2042352													8.994347	-0.476923	-3.385585	-0.355405	-0.862390	0.360515	-0.046644	0.401578	0.914636	-0.933548	0.308251	-0.182948
632	2042518													8.978983	-0.445868	-3.353059	-0.349448	-0.864289	0.361789	-0.046327	0.401598	0.914644	-0.935810	0.302860	-0.180378
633	2042685													9.036717	-0.452116	-3.269440	-0.343722	-0.866114	0.362908	-0.046093	0.401548	0.914677	-0.937939	0.297667	-0.177943
634	2042852													9.112695	-0.444092	-3.248394	-0.338089	-0.867909	0.363910	-0.045946	0.401440	0.914732	-0.939992	0.292541	-0.175600
635	2043018													9.183412	-0.459342	-3.197052	-0.332424	-0.869738	0.364759	-0.045862	0.401204	0.914840	-0.942014	0.287386	-0.173258
636	2043185													9.200706	-0.462749	-3.158431	-0.326629	-0.871626	0.365489	-0.045881	0.400864	0.914988	-0.944038	0.282093	-0.170925
637	2043352													9.234638	-0.435323	-3.142531	-0.320657	-0.873587	0.366093	-0.045929	0.400388	0.915194	-0.946081	0.276649	-0.168510
638	2043518													9.181451	-0.386302	-3.074630	-0.314623	-0.875537	0.366670	-0.045911	0.399871	0.915421	-0.948106	0.271178	-0.166005
639	2043685													9.160563	-0.349621	-3.022513	-0.308650	-0.877417	0.367252	-0.045845	0.399377	0.915640	-0.950070	0.265776	-0.163493
640	2043852													9.232440	-0.376213	-2.962829	-0.302819	-0.879173	0.367908	-0.045756	0.398999	0.915809	-0.951949	0.260490	-0.161052
641	2044018													9.237304	-0.350850	-2.891912	-0.296986	-0.880852	0.368644	-0.045742	0.398743	0.915921	-0.953786	0.255153	-0.158713
642	2044185													9.272829	-0.351667	-2.871299	-0.291279	-0.882411	0.369470	-0.045806	0.398639	0.915963	-0.955541	0.249877	-0.156535
643	2044352													9.281271	-0.362314	-2.817535	-0.285672	-0.883883	0.370327	-0.045931	0.398615	0.915968	-0.957226	0.244657	-0.154470
644	2044518													9.355489	-0.332358	-2.750518	-0.280064	-0.885278	0.371278	-0.045960	0.398677	0.915939	-0.958880	0.239458	-0.152343
645	2044685													9.351441	-0.338914	-2.689697	-0.274409	-0.886595	0.372357	-0.045932	0.398864	0.915859	-0.960515	0.234217	-0.150175
646	2044852													9.309192	-0.339941	-2.611456	-0.268798	-0.887812	0.373548	-0.045874	0.399181	0.915724	-0.962103	0.229009	-0.148027
647	2045018													9.262428	-0.375411	-2.574518	-0.263353	-0.888911	0.374809	-0.045841	0.399616	0.915536	-0.963610	0.223928	-0.145989
648	2045185													9.319279	-0.360170	-2.495936	-0.258137	-0.889913	0.376060	-0.045893	0.400108	0.915318	-0.965018	0.219019	-0.144123
649	2045352													9.416752	-0.379719	-2.456319	-0.252958	-0.890868	0.377314	-0.045983	0.400628	0.915086	-0.966384	0.214129	-0.142307
650	2045518													9.459971	-0.392301	-2.384464	-0.247667	-0.891835	0.378539	-0.046149	0.401127	0.914859	-0.967746	0.209111	-0.140503
651	2045685													9.502099	-0.424266	-2.346579	-0.242238	-0.892812	0.379746	-0.046323	0.401600	0.914643	-0.969110	0.203970	-0.138641
652	2045852													9.562151	-0.435274	-2.332697	-0.236502	-0.893864	0.380887	-0.046572	0.401986	0.914461	-0.970514	0.198534	-0.136699
653	2046018													9.633643	-0.472415	-2.277914	-0.230384	-0.895026	0.381906	-0.046855	0.402211	0.914347	-0.971971	0.192757	-0.134599
654	2046185													9.731830	-0.478130	-2.220082	-0.223658	-0.896341	0.382818	-0.047178	0.402263	0.914308	-0.973525	0.186431	-0.132257
655	2046352													9.861856	-0.497646	-2.172990	-0.216051	-0.897835	0.383685	-0.047522	0.402169	0.914331	-0.975225	0.179309	-0.129556
656	2046518													9.842301	-0.474068	-2.100171	-0.207346	-0.899562	0.384442	-0.047947	0.401855	0.914447	-0.977092	0.171174	-0.126454
657	2046685													9.819386	-0.443996	-2.002208	-0.197764	-0.901401	0.385183	-0.048355	0.401436	0.914610	-0.979056	0.162251	-0.122977
658	2046852													9.849054	-0.464602	-1.910103	-0.187289	-0.903319	0.385925	-0.048782	0.400945	0.914802	-0.981093	0.152506	-0.119158
659	2047018													9.651166	-0.409113	-1.801100	-0.176215	-0.905225	0.386674	-0.049227	0.400433	0.915003	-0.983120	0.142202	-0.115124
660	2047185													9.631811	-0.420364	-1.694892	-0.165024	-0.906985	0.387485	-0.049662	0.400014	0.915163	-0.985038	0.131781	-0.111055
661	2047352													9.682108	-0.419300	-1.556991	-0.153762	-0.908588	0.388361	-0.050086	0.399697	0.915278	-0.986838	0.121284	-0.106966
662	2047518													9.614256	-0.413830	-1.470098	-0.142379	-0.910054	0.389268	-0.050569	0.399449	0.915360	-0.988520	0.110643	-0.102893
663	2047685													9.506013	-0.395056	-1.343679	-0.131304	-0.911306	0.390233	-0.051167	0.399346	0.915371	-0.990021	0.100225	-0.099065
664	2047852													9.604949	-0.410480	-1.193439	-0.120623	-0.912353	0.391232	-0.051880	0.399365	0.915323	-0.991342	0.090112	-0.095506
665	2048018													9.719830	-0.424564	-1.070294	-0.110068	-0.913216	0.392328	-0.052700	0.399533	0.915203	-0.992526	0.080059	-0.092102
666	2048185													9.738947	-0.422237	-0.962619	-0.099462	-0.913928	0.393501	-0.053527	0.399804	0.915036	-0.993601	0.069948	-0.088685
667	2048352													9.738402	-0.455488	-0.850027	-0.088918	-0.914453	0.394803	-0.054275	0.400232	0.914805	-0.994559	0.059915	-0.085219
668	2048518													9.830565	-0.474096	-0.736837	-0.078322	-0.914833	0.396164	-0.054938	0.400742	0.914542	-0.995413	0.049864	-0.081646
669	2048685													9.685838	-0.499055	-0.649562	-0.067589	-0.915086	0.397554	-0.055523	0.401298	0.914263	-0.996167	0.039721	-0.077932
670	2048852													9.621952	-0.514758	-0.542802	-0.057174	-0.915187	0.398954	-0.056023	0.401919	0.913960	-0.996791	0.029904	-0.074250
671	2049018													9.641286	-0.502151	-0.444737	-0.047072	-0.915153	0.400348	-0.056471	0.402589	0.913637	-0.997294	0.020399	-0.070630
672	2049185													9.701745	-0.520661	-0.335410	-0.037251	-0.914998	0.401735	-0.056847	0.403304	0.913299	-0.997688	0.011183	-0.067038
673	2049352													9.719174	-0.539804	-0.295148	-0.027500	-0.914754	0.403074	-0.057156	0.404006	0.912969	-0.997986	0.002068	-0.063393
674	2049518													9.664933	-0.564177	-0.196982	-0.017872	-0.914430	0.404350	-0.057439	0.404686	0.912650	-0.998189	-0.006915	-0.059757
675	2049685													9.677669	-0.556143	-0.088886	-0.008504	-0.914046	0.405520	-0.057705	0.405308	0.912357	-0.998297	-0.015642	-0.056192
676	2049852													9.766323	-0.563054	-0.010594	0.000766	-0.913605	0.406601	-0.057992	0.405877	0.912086	-0.998317	-0.024278	-0.052671
677	2050019													9.844470	-0.571362	0.070083	0.010090	-0.913143	0.407515	-0.058263	0.406307	0.911877	-0.998250	-0.032944	-0.049103
678	2050185													9.921196	-0.582922	0.145017	0.019697	-0.912655	0.408255	-0.058546	0.406581	0.911737	-0.998090	-0.041861	-0.045424
679	2050352													9.950389	-0.560106	0.261657	0.029737	-0.912120	0.408844	-0.058886	0.406716	0.911655	-0.997822	-0.051185	-0.041617
680	2050519													9.857928	-0.565802	0.317937	0.040130	-0.911510	0.409316	-0.059283	0.406752	0.911613	-0.997434	-0.060849	-0.037714
681	2050685													9.830719	-0.535245	0.431522	0.050675	-0.910800	0.409727	-0.059751	0.406754	0.911582	-0.996926	-0.070676	-0.033808
682	2050852													9.827367	-0.536424	0.503072	0.061473	-0.909975	0.410081	-0.060261	0.406725	0.911561	-0.996288	-0.080748	-0.029834
683	2051019													9.714645	-0.549273	0.592306	0.072471	-0.909032	0.410376	-0.060774	0.406668	0.911552	-0.995517	-0.091001	-0.025774
684	2051185													9.609701	-0.557792	0.695981	0.083221	-0.908024	0.410568	-0.061248	0.406557	0.911570	-0.994647	-0.101009	-0.021780
685	2051352													9.616220	-0.598870	0.813276	0.093572	-0.906969	0.410673	-0.061678	0.406410	0.911607	-0.993700	-0.110631	-0.017912
686	2051519													9.666698	-0.616445	0.951211	0.103578	-0.905902	0.410625	-0.062049	0.406156	0.911695	-0.992684	-0.119911	-0.014142
687	2051685													9.696220	-0.610325	1.039428	0.113398	-0.904816	0.410425	-0.062322	0.405798	0.911836	-0.991593	-0.128979	-0.010373
688	2051852													9.751434	-0.596490	1.123036	0.123143	-0.903686	0.410107	-0.062501	0.405369	0.912014	-0.990419	-0.137940	-0.006563
689	2052019													9.711243	-0.586199	1.216257	0.132816	-0.902519	0.409657	-0.062596	0.404856	0.912235	-0.989162	-0.146802	-0.002723
690	2052185													9.710999	-0.581703	1.317866	0.142494	-0.901283	0.409127	-0.062677	0.404299	0.912477	-0.987809	-0.155665	0.001120
691	2052352													9.706485	-0.569879	1.389130	0.152109	-0.899992	0.408506	-0.062756	0.403687	0.912742	-0.986369	-0.164472	0.004924
692	2052519													9.764221	-0.570121	1.499699	0.161810	-0.898621	0.407797	-0.062865	0.403017	0.913031	-0.984818	-0.173374	0.008720
693	2052685													9.757617	-0.543979	1.623877	0.171722	-0.897125	0.407036	-0.062974	0.402332	0.913325	-0.983131	-0.182471	0.012594
694	2052852													9.732848	-0.559244	1.714512	0.181825	-0.895478	0.406275	-0.063073	0.401691	0.913601	-0.981306	-0.191741	0.016557
695	2053019													9.658182	-0.558311	1.805586	0.192042	-0.893710	0.405466	-0.063220	0.401032	0.913880	-0.979348	-0.201137	0.020514
696	2053185													9.595519	-0.582837	1.906925	0.202210	-0.891856	0.404603	-0.063391	0.400351	0.914166	-0.977288	-0.210502	0.024419
697	2053352													9.622099	-0.584644	1.977507	0.212408	-0.889913	0.403654	-0.063573	0.399621	0.914474	-0.975111	-0.219903	0.028308
698	2053519													9.635112	-0.582367	2.083727	0.222675	-0.887858	0.402646	-0.063690	0.398884	0.914787	-0.972810	-0.229344	0.032273
699	2053685													9.690257	-0.570772	2.194023	0.233188	-0.885637	0.401585	-0.063653	0.398183	0.915095	-0.970346	-0.238952	0.036478
700	2053852													9.615770	-0.587449	2.334066	0.243980	-0.883234	0.400465	-0.063470	0.397515	0.915398	-0.967701	-0.248757	0.040927
701	2054019													9.637289	-0.555793	2.477564	0.255078	-0.880632	0.399277	-0.063182	0.396874	0.915696	-0.964854	-0.258801	0.045594
702	2054185													9.518531	-0.562070	2.599639	0.266431	-0.877826	0.398040	-0.062847	0.396266	0.915982	-0.961803	-0.269061	0.050408
703	2054352													9.486382	-0.530221	2.731164	0.277905	-0.874841	0.396765	-0.062533	0.395683	0.916256	-0.958571	-0.279443	0.055256
704	2054519													9.463571	-0.523013	2.831917	0.289565	-0.871649	0.395448	-0.062202	0.395138	0.916513	-0.955135	-0.289988	0.060200
705	2054685													9.449734	-0.537538	2.978861	0.301327	-0.868259	0.394117	-0.061946	0.394629	0.916750	-0.951507	-0.300655	0.065127
706	2054852													9.463927	-0.515635	3.126960	0.313297	-0.864636	0.392747	-0.061807	0.394126	0.916976	-0.947642	-0.311560	0.070038
707	2055019													9.418213	-0.502377	3.234756	0.325504	-0.860746	0.391361	-0.061758	0.393665	0.917177	-0.943522	-0.322715	0.074982
708	2055185													9.304740	-0.484198	3.339129	0.337874	-0.856599	0.389972	-0.061922	0.393210	0.917361	-0.939152	-0.334100	0.079813
709	2055352													9.238611	-0.487349	3.439070	0.350255	-0.852238	0.388602	-0.062271	0.392778	0.917522	-0.934582	-0.345565	0.084503
710	2055519													9.209196	-0.499275	3.570271	0.362653	-0.847659	0.387244	-0.062823	0.392350	0.917668	-0.929804	-0.357123	0.089034
711	2055685													9.181191	-0.522282	3.695167	0.374962	-0.842888	0.385931	-0.063581	0.391942	0.917790	-0.924857	-0.368674	0.093372
712	2055852													9.124927	-0.555343	3.817843	0.387187	-0.837943	0.384628	-0.064437	0.391553	0.917896	-0.919747	-0.380181	0.097610
713	2056019													8.963997	-0.601038	3.918457	0.399204	-0.832914	0.383263	-0.065366	0.391098	0.918025	-0.914529	-0.391531	0.101683
714	2056185													8.862246	-0.590945	3.981034	0.410756	-0.827909	0.381897	-0.066250	0.390654	0.918151	-0.909335	-0.402437	0.105615
715	2056352													8.840930	-0.613866	4.064076	0.421864	-0.822929	0.380551	-0.067011	0.390281	0.918254	-0.904179	-0.412879	0.109500
716	2056519													8.877316	-0.650823	4.182096	0.432619	-0.817989	0.379124	-0.067574	0.389911	0.918370	-0.899041	-0.422923	0.113408
717	2056685													8.896247	-0.705254	4.276540	0.443301	-0.812968	0.377581	-0.068052	0.389493	0.918512	-0.893786	-0.432872	0.117339
718	2056852													8.910086	-0.707313	4.402780	0.454070	-0.807843	0.375779	-0.068440	0.388895	0.918737	-0.888333	-0.442889	0.121297
719	2057019													8.930050	-0.720319	4.576745	0.465103	-0.802508	0.373711	-0.068744	0.388134	0.919035	-0.882583	-0.453137	0.125355
720	2057185													8.827223	-0.710575	4.682566	0.476533	-0.796889	0.371327	-0.069002	0.387162	0.919426	-0.876445	-0.463759	0.129509
721	2057352													8.612644	-0.696143	4.758188	0.488134	-0.791058	0.368716	-0.069178	0.386070	0.919872	-0.870023	-0.474528	0.133730
722	2057519													8.482738	-0.691787	4.875308	0.499519	-0.785216	0.365946	-0.069231	0.384888	0.920363	-0.863532	-0.485074	0.137898
723	2057685													8.441940	-0.677898	5.015255	0.510625	-0.779404	0.363031	-0.069177	0.383615	0.920899	-0.857016	-0.495347	0.141966
724	2057852													8.473055	-0.624012	5.203122	0.521414	-0.773641	0.360009	-0.069037	0.382270	0.921468	-0.850507	-0.505320	0.145911
725	2058019													8.455766	-0.620457	5.352719	0.532083	-0.767776	0.356942	-0.068822	0.380958	0.922027	-0.843890	-0.515161	0.149861
726	2058185													8.231348	-0.614343	5.488757	0.542463	-0.761895	0.353906	-0.068589	0.379703	0.922562	-0.837275	-0.524730	0.153717
727	2058352													8.073230	-0.617895	5.613770	0.552051	-0.756352	0.350958	-0.068323	0.378460	0.923093	-0.831007	-0.533572	0.157253
728	2058519													8.024870	-0.620823	5.696209	0.560701	-0.751279	0.348128	-0.068061	0.377196	0.923629	-0.825216	-0.541574	0.160362
729	2058685													7.993644	-0.619587	5.800653	0.568494	-0.746666	0.345405	-0.067787	0.375908	0.924174	-0.819890	-0.548801	0.163087
730	2058852													8.022623	-0.585501	5.908258	0.575565	-0.742425	0.342826	-0.067491	0.374671	0.924698	-0.814966	-0.555361	0.165540
731	2059019													8.064961	-0.596726	6.029133	0.582162	-0.738396	0.340379	-0.067191	0.373511	0.925189	-0.810292	-0.561481	0.167830
732	2059185													8.012999	-0.607745	6.050044	0.588480	-0.734469	0.338004	-0.066836	0.372434	0.925649	-0.805744	-0.567317	0.170081
733	2059352													7.904462	-0.573406	6.123487	0.594468	-0.730675	0.335741	-0.066379	0.371511	0.926053	-0.801375	-0.572795	0.172350
734	2059519													7.795141	-0.547586	6.165093	0.599925	-0.727157	0.333665	-0.065850	0.370758	0.926392	-0.797342	-0.577738	0.174543
735	2059685													7.727873	-0.559280	6.237407	0.604719	-0.724024	0.331819	-0.065277	0.370170	0.926668	-0.793759	-0.582034	0.176587
736	2059852													7.747249	-0.540971	6.265349	0.608824	-0.721303	0.330235	-0.064765	0.369695	0.926893	-0.790657	-0.585703	0.178364
737	2060019													7.788813	-0.508318	6.280029	0.612410	-0.718886	0.328870	-0.064327	0.369312	0.927076	-0.787919	-0.588906	0.179927
738	2060185													7.819828	-0.477112	6.276328	0.615672	-0.716604	0.327761	-0.064030	0.369070	0.927193	-0.785397	-0.591833	0.181342
739	2060352													7.825262	-0.487460	6.295065	0.618845	-0.714248	0.326925	-0.063939	0.369009	0.927224	-0.782906	-0.594711	0.182691
740	2060519													7.768742	-0.498762	6.298272	0.621979	-0.711794	0.326329	-0.064095	0.369071	0.927189	-0.780406	-0.597608	0.183932
741	2060685													7.747512	-0.499687	6.277987	0.625060	-0.709284	0.325908	-0.064513	0.369153	0.927127	-0.777906	-0.600535	0.184984
742	2060852													7.792682	-0.472256	6.277060	0.628125	-0.706631	0.325780	-0.065235	0.369383	0.926985	-0.775373	-0.603514	0.185921
743	2061019													7.834773	-0.411733	6.287829	0.631448	-0.703559	0.326005	-0.066258	0.369931	0.926694	-0.772583	-0.606759	0.186976
744	2061185													7.905763	-0.457423	6.280291	0.635145	-0.699858	0.326788	-0.067593	0.371099	0.926130	-0.769430	-0.610315	0.188396
745	2061352													7.894389	-0.508569	6.296099	0.639416	-0.695456	0.327852	-0.069182	0.372642	0.925393	-0.765742	-0.614393	0.190160
746	2061519													7.746801	-0.539049	6.297448	0.644115	-0.690482	0.329167	-0.070815	0.374649	0.924458	-0.761644	-0.618767	0.192421
747	2061685													7.638368	-0.681728	6.361459	0.648971	-0.685183	0.330698	-0.072442	0.377039	0.923360	-0.757357	-0.623190	0.195051
748	2061852													7.626555	-0.785800	6.422655	0.653837	-0.679882	0.332050	-0.073902	0.379368	0.922290	-0.753018	-0.627566	0.197800
749	2062019													7.522347	-0.759139	6.530392	0.658614	-0.674738	0.333100	-0.075095	0.381522	0.921304	-0.748724	-0.631798	0.200607
750	2062185													7.490330	-0.732857	6.583442	0.663026	-0.669979	0.333954	-0.075951	0.383600	0.920371	-0.744733	-0.635594	0.203451
751	2062352													7.397352	-0.730091	6.688958	0.666972	-0.665626	0.334799	-0.076503	0.385790	0.919409	-0.741145	-0.638833	0.206389
752	2062519													7.419301	-0.869698	6.781148	0.670445	-0.661787	0.335473	-0.076735	0.387873	0.918513	-0.737981	-0.641555	0.209265
753	2062685													7.376253	-0.876992	6.818888	0.673545	-0.658487	0.335755	-0.076657	0.389566	0.917803	-0.735160	-0.643919	0.211913
754	2062852													7.326830	-0.861142	6.853292	0.676282	-0.655727	0.335655	-0.076282	0.390867	0.917281	-0.732682	-0.645945	0.214316
755	2063019													7.287030	-0.802027	6.844703	0.678628	-0.653553	0.335162	-0.075647	0.391704	0.916976	-0.730577	-0.647639	0.216382
756	2063185													7.363680	-0.761128	6.891358	0.680685	-0.651799	0.334405	-0.074795	0.392258	0.916809	-0.728748	-0.649070	0.218252
757	2063352													7.339236	-0.823538	6.875867	0.682680	-0.650283	0.333285	-0.073796	0.392420	0.916821	-0.726981	-0.650491	0.219909
758	2063519													7.239722	-0.750339	6.865771	0.684554	-0.649135	0.331676	-0.072467	0.392143	0.917045	-0.725351	-0.651803	0.221402
759	2063685													7.292532	-0.754918	6.860548	0.686175	-0.648423	0.329713	-0.070755	0.391612	0.917406	-0.723987	-0.652830	0.222835
760	2063852													7.342042	-0.705327	6.864909	0.687771	-0.647936	0.327337	-0.068861	0.390657	0.917957	-0.722654	-0.653885	0.224065
761	2064019													7.358646	-0.588064	6.857743	0.689429	-0.647538	0.324626	-0.066824	0.389392	0.918645	-0.721265	-0.655033	0.225187
762	2064185													7.371738	-0.518409	6.906778	0.691144	-0.647128	0.321784	-0.064741	0.388015	0.919376	-0.719811	-0.656254	0.226279
763	2064352													7.350651	-0.454734	6.925857	0.693037	-0.646552	0.318857	-0.062724	0.386545	0.920135	-0.718168	-0.657688	0.227335
764	2064519													7.238385	-0.439841	6.931969	0.694981	-0.645864	0.316008	-0.060902	0.385039	0.920889	-0.716444	-0.659245	0.228261
765	2064685													7.195633	-0.445309	6.972534	0.696791	-0.645233	0.313299	-0.059211	0.383557	0.921617	-0.714826	-0.660726	0.229054
766	2064852													7.206905	-0.414830	6.997783	0.698597	-0.644546	0.310681	-0.057736	0.382010	0.922353	-0.713182	-0.662290	0.229658
767	2065019													7.175403	-0.342237	7.035890	0.700347	-0.643772	0.308338	-0.056430	0.380679	0.922984	-0.711569	-0.663808	0.230279
768	2065185													7.172221	-0.322374	7.092928	0.702046	-0.642884	0.306319	-0.055422	0.379515	0.923524	-0.709972	-0.665333	0.230807
769	2065352													7.200982	-0.384089	7.147086	0.703749	-0.641857	0.304560	-0.054789	0.378378	0.924028	-0.708333	-0.666971	0.231116
770	2065519													7.091440	-0.332668	7.219782	0.705526	-0.640687	0.302906	-0.054453	0.377148	0.924551	-0.706589	-0.668789	0.231201
771	2065685													6.995339	-0.283797	7.241990	0.707024	-0.639649	0.301607	-0.054363	0.376066	0.924997	-0.705097	-0.670391	0.231114
772	2065852													7.010118	-0.353130	7.294467	0.708137	-0.638817	0.300758	-0.054538	0.375197	0.925339	-0.703966	-0.671669	0.230851
773	2066019													7.010014	-0.433503	7.313956	0.709008	-0.638099	0.300229	-0.054902	0.374497	0.925601	-0.703060	-0.672742	0.230488
774	2066185													7.031036	-0.513750	7.310069	0.709704	-0.637553	0.299743	-0.055275	0.373765	0.925875	-0.702328	-0.673666	0.230022
775	2066352													6.996596	-0.521781	7.306806	0.710266	-0.637223	0.299114	-0.055466	0.372935	0.926198	-0.701745	-0.674438	0.229539
776	2066519													6.964124	-0.432880	7.308395	0.710606	-0.637135	0.298492	-0.055558	0.372105	0.926526	-0.701393	-0.674979	0.229023
777	2066686													6.987498	-0.425608	7.313459	0.710765	-0.637209	0.297954	-0.055697	0.371264	0.926855	-0.701221	-0.675372	0.228391
778	2066852													6.955005	-0.388599	7.264874	0.710846	-0.637345	0.297471	-0.055923	0.370382	0.927195	-0.701121	-0.675728	0.227642
779	2067019													6.987822	-0.410100	7.236476	0.710790	-0.637546	0.297173	-0.056302	0.369556	0.927501	-0.701147	-0.675990	0.226782
780	2067186													6.999460	-0.448639	7.217704	0.710705	-0.637735	0.296972	-0.056849	0.368696	0.927810	-0.701190	-0.676282	0.225779
781	2067352													6.994312	-0.447842	7.249697	0.710559	-0.637946	0.296869	-0.057515	0.367836	0.928110	-0.701283	-0.676551	0.224677
782	2067519													7.025048	-0.544212	7.295659	0.710332	-0.638209	0.296845	-0.058222	0.367014	0.928391	-0.701454	-0.676749	0.223544
783	2067686													6.981499	-0.615392	7.279240	0.710132	-0.638492	0.296716	-0.058932	0.366048	0.928728	-0.701598	-0.677006	0.222314
784	2067852													6.948623	-0.589110	7.232858	0.709751	-0.639062	0.296399	-0.059469	0.364895	0.929148	-0.701938	-0.677091	0.220980
785	2068019													6.995264	-0.516909	7.215792	0.709122	-0.639913	0.296068	-0.059847	0.363763	0.929567	-0.702541	-0.676896	0.219656
786	2068186													7.032188	-0.550591	7.206033	0.708325	-0.640880	0.295886	-0.060200	0.362797	0.929922	-0.703314	-0.676499	0.218397
787	2068352													7.086515	-0.620909	7.174536	0.707412	-0.641945	0.295761	-0.060455	0.361961	0.930231	-0.704211	-0.675937	0.217247
788	2068519													7.096721	-0.626879	7.103460	0.706450	-0.643073	0.295610	-0.060690	0.361090	0.930554	-0.705156	-0.675331	0.216064
789	2068686													7.113914	-0.529389	7.047053	0.705377	-0.644294	0.295514	-0.060758	0.360411	0.930813	-0.706224	-0.674529	0.215079
790	2068852													7.165547	-0.560537	6.991448	0.704262	-0.645444	0.295664	-0.060913	0.359992	0.930965	-0.707322	-0.673653	0.214212
791	2069019													7.195133	-0.631016	6.967834	0.703246	-0.646455	0.295872	-0.061195	0.359582	0.931105	-0.708308	-0.672902	0.213315
792	2069186													7.167150	-0.703133	6.911567	0.702281	-0.647487	0.295909	-0.061289	0.359128	0.931274	-0.709256	-0.672152	0.212525
793	2069352													7.250149	-0.682203	6.913647	0.701188	-0.648799	0.295628	-0.060934	0.358590	0.931504	-0.710368	-0.671173	0.211905
794	2069519													7.358814	-0.563460	6.938994	0.700276	-0.650048	0.295045	-0.060244	0.358014	0.931771	-0.711326	-0.670271	0.211547
795	2069686													7.281787	-0.449031	6.944733	0.699611	-0.651029	0.294457	-0.059646	0.357452	0.932025	-0.712030	-0.669618	0.211246
796	2069852													7.203485	-0.392226	6.959041	0.698917	-0.651894	0.294192	-0.059415	0.356997	0.932214	-0.712731	-0.669020	0.210779
797	2070019													7.200169	-0.444595	6.984300	0.698062	-0.652728	0.294372	-0.059648	0.356675	0.932323	-0.713548	-0.668378	0.210047
798	2070186													7.197127	-0.502402	6.971109	0.697079	-0.653577	0.294820	-0.060031	0.356543	0.932348	-0.714477	-0.667619	0.209303
799	2070352													7.232919	-0.609535	6.916862	0.695988	-0.654504	0.295340	-0.060322	0.356559	0.932323	-0.715515	-0.666702	0.208679
800	2070519													7.366147	-0.661917	6.835140	0.694948	-0.655473	0.295638	-0.060333	0.356541	0.932330	-0.716524	-0.665758	0.208230
801	2070686													7.312708	-0.674979	6.770725	0.694188	-0.656296	0.295598	-0.060145	0.356346	0.932416	-0.717276	-0.665051	0.207898
802	2070852													7.343710	-0.516012	6.775580	0.693562	-0.657143	0.295186	-0.059726	0.355892	0.932617	-0.717916	-0.664458	0.207585
803	2071019													7.397994	-0.432350	6.815899	0.693109	-0.657794	0.294798	-0.059422	0.355437	0.932810	-0.718379	-0.664057	0.207269
804	2071186													7.405844	-0.450558	6.870073	0.692833	-0.658193	0.294558	-0.059394	0.355010	0.932974	-0.718648	-0.663890	0.206870
805	2071352													7.328413	-0.459133	6.898576	0.692609	-0.658475	0.294454	-0.059644	0.354540	0.933137	-0.718843	-0.663862	0.206284
806	2071519													7.306711	-0.499918	6.917540	0.692249	-0.658833	0.294501	-0.060098	0.354041	0.933297	-0.719152	-0.663773	0.205490
807	2071686													7.238255	-0.568390	6.908031	0.691668	-0.659348	0.294712	-0.060566	0.353674	0.933406	-0.719671	-0.663457	0.204691
808	2071852													7.304206	-0.679176	6.911759	0.690884	-0.660090	0.294891	-0.060866	0.353336	0.933514	-0.720399	-0.662899	0.203938
809	2072019													7.382272	-0.657967	6.953055	0.690132	-0.660902	0.294832	-0.060789	0.353024	0.933637	-0.721126	-0.662255	0.203458
810	2072186													7.324367	-0.625640	7.020690	0.689491	-0.661642	0.294672	-0.060460	0.352844	0.933727	-0.721766	-0.661612	0.203280
811	2072352													7.233057	-0.571278	7.124319	0.688715	-0.662466	0.294637	-0.059997	0.352911	0.933731	-0.722546	-0.660752	0.203309
812	2072519													7.214059	-0.608043	7.111584	0.687551	-0.663588	0.294830	-0.059573	0.353109	0.933684	-0.723689	-0.659519	0.203248
813	2072686													7.154227	-0.548477	7.095291	0.686017	-0.665042	0.295127	-0.059166	0.353291	0.933641	-0.725176	-0.657955	0.203016
814	2072852													7.266817	-0.511117	7.148433	0.684075	-0.666832	0.295593	-0.058645	0.353656	0.933535	-0.727050	-0.655943	0.202822
815	2073019													7.235496	-0.570427	7.096348	0.682017	-0.668687	0.296160	-0.058139	0.354101	0.933398	-0.729022	-0.653812	0.202626
816	2073186													7.066027	-0.485299	6.993895	0.679606	-0.670862	0.296783	-0.057652	0.354474	0.933287	-0.731308	-0.651378	0.202226
817	2073352													7.107435	-0.432080	6.881980	0.676600	-0.673530	0.297607	-0.057219	0.354852	0.933170	-0.734125	-0.648411	0.201554
818	2073519													7.331366	-0.373845	6.782781	0.673375	-0.676318	0.298596	-0.056896	0.355283	0.933025	-0.737108	-0.645265	0.200759
819	2073686													7.295498	-0.313683	6.684582	0.670256	-0.678863	0.299837	-0.056875	0.355846	0.932812	-0.739948	-0.642276	0.199897
820	2073852													7.335890	-0.305546	6.620323	0.667020	-0.681343	0.301423	-0.057120	0.356616	0.932503	-0.742847	-0.639215	0.198952
821	2074019													7.449314	-0.311394	6.639687	0.663749	-0.683705	0.303290	-0.057625	0.357543	0.932117	-0.745732	-0.636169	0.197920
822	2074186													7.418192	-0.204843	6.770766	0.660312	-0.686057	0.305473	-0.058385	0.358631	0.931652	-0.748718	-0.633016	0.196753
823	2074352													7.203995	-0.147645	6.902673	0.655984	-0.688850	0.308498	-0.059597	0.360179	0.930977	-0.752419	-0.629092	0.195218
824	2074519													7.165395	-0.246114	6.963950	0.649997	-0.692723	0.312473	-0.061232	0.362104	0.930124	-0.757466	-0.623711	0.192950
825	2074686													7.455618	-0.585500	7.059413	0.642472	-0.697626	0.317094	-0.063133	0.364200	0.929178	-0.763705	-0.616990	0.189945
826	2074852													8.207037	-0.941074	6.929527	0.634819	-0.702805	0.321045	-0.065292	0.365226	0.928627	-0.769897	-0.610471	0.185964
827	2075019													7.921927	-0.777067	6.785745	0.628268	-0.707416	0.323794	-0.067088	0.365377	0.928439	-0.775099	-0.605031	0.182095
828	2075186													7.317128	-0.812977	6.628197	0.621396	-0.712413	0.326089	-0.068280	0.365373	0.928354	-0.780515	-0.599141	0.178397
829	2075352													7.108698	-0.746627	6.497855	0.612786	-0.718851	0.328247	-0.068702	0.365338	0.928336	-0.787257	-0.591423	0.174487
830	2075519													7.237710	-0.634487	6.388188	0.602214	-0.726678	0.330572	-0.068559	0.365472	0.928294	-0.795386	-0.581695	0.170272
831	2075686													7.685927	-0.558839	6.241454	0.590064	-0.735398	0.333190	-0.068133	0.365862	0.928172	-0.804477	-0.570382	0.165777
832	2075852													8.148739	-0.619364	6.060898	0.577658	-0.743914	0.336010	-0.067919	0.366405	0.927973	-0.813448	-0.558873	0.161131
833	2076019													8.119184	-0.587524	5.866151	0.565424	-0.751977	0.338860	-0.067797	0.367076	0.927717	-0.822009	-0.547528	0.156572
834	2076186													7.999413	-0.573032	5.743197	0.552912	-0.759838	0.341958	-0.067618	0.368125	0.927314	-0.830492	-0.535846	0.152162
835	2076352													7.913182	-0.605051	5.583727	0.539576	-0.767830	0.345390	-0.067299	0.369586	0.926756	-0.839243	-0.523300	0.147745
836	2076519													8.096596	-0.638543	5.374211	0.525214	-0.776132	0.348953	-0.066881	0.371149	0.926162	-0.848338	-0.509772	0.143024
837	2076686													8.263885	-0.635652	5.210414	0.510208	-0.784451	0.352597	-0.066484	0.372773	0.925538	-0.857478	-0.495659	0.138038
838	2076852													8.321981	-0.668631	5.103765	0.494588	-0.792754	0.356263	-0.065908	0.374519	0.924874	-0.866625	-0.480912	0.132983
839	2077019													8.473737	-0.620022	5.000053	0.478206	-0.801147	0.359838	-0.065037	0.376293	0.924215	-0.875836	-0.465368	0.127841
840	2077186													8.547121	-0.601641	4.773030	0.461246	-0.809433	0.363415	-0.063993	0.378172	0.923521	-0.884962	-0.449226	0.122632
841	2077352													8.595299	-0.601417	4.509081	0.443777	-0.817571	0.366933	-0.062936	0.380015	0.922837	-0.893925	-0.432627	0.117187
842	2077519													8.738303	-0.619756	4.334225	0.425866	-0.825580	0.370211	-0.062022	0.381570	0.922257	-0.902658	-0.415719	0.111294
843	2077686													8.944425	-0.617887	4.193949	0.407685	-0.833379	0.373193	-0.061303	0.382798	0.921796	-0.911062	-0.398680	0.104972
844	2077852													9.021154	-0.561252	3.954755	0.389446	-0.840860	0.375881	-0.060630	0.383811	0.921419	-0.919052	-0.381632	0.098492
845	2078019													9.050620	-0.525677	3.702052	0.371239	-0.847939	0.378394	-0.060045	0.384740	0.921070	-0.926594	-0.364657	0.091916
846	2078186													9.082284	-0.544281	3.516987	0.352952	-0.854680	0.380720	-0.059668	0.385518	0.920769	-0.933737	-0.347704	0.085073
847	2078352													9.104321	-0.559667	3.359036	0.334495	-0.861120	0.382866	-0.059424	0.386187	0.920505	-0.940522	-0.330655	0.078006
848	2078519													9.169720	-0.593497	3.191714	0.315686	-0.867295	0.384891	-0.059267	0.386819	0.920249	-0.947011	-0.313321	0.070712
849	2078686													9.180642	-0.574887	2.986588	0.296548	-0.873205	0.386746	-0.058981	0.387443	0.920005	-0.953195	-0.295637	0.063393
850	2078852													9.319574	-0.576516	2.758044	0.277346	-0.878754	0.388421	-0.058542	0.388073	0.919767	-0.958985	-0.277833	0.056186
851	2079019													9.466263	-0.581975	2.544361	0.258374	-0.883862	0.389912	-0.058055	0.388681	0.919542	-0.964299	-0.260222	0.049112
852	2079186													9.329346	-0.565924	2.416177	0.239603	-0.888573	0.391189	-0.057514	0.389228	0.919344	-0.969166	-0.242776	0.042155
853	2079352													9.180199	-0.542803	2.256910	0.220308	-0.893063	0.392304	-0.056990	0.389714	0.919171	-0.973764	-0.224858	0.034961
854	2079519													9.253498	-0.559393	2.053137	0.200070	-0.897433	0.393174	-0.056500	0.390052	0.919058	-0.978151	-0.206090	0.027333
855	2079686													9.531435	-0.588452	1.853454	0.179504	-0.901539	0.393707	-0.056074	0.390180	0.919029	-0.982158	-0.187046	0.019486
856	2079852													9.442395	-0.551256	1.618841	0.158835	-0.905257	0.394057	-0.055646	0.390281	0.919013	-0.985736	-0.167899	0.011617
857	2080019													9.541311	-0.552885	1.361308	0.137881	-0.908613	0.394222	-0.055028	0.390382	0.919007	-0.988919	-0.148407	0.003827
858	2080186													9.471153	-0.546828	1.150677	0.116688	-0.911560	0.394261	-0.054269	0.390527	0.918990	-0.991685	-0.128632	-0.003899
859	2080352													9.553808	-0.479011	0.921384	0.095116	-0.914062	0.394263	-0.053312	0.390813	0.918925	-0.994038	-0.108423	-0.011558
860	2080519													9.706070	-0.416886	0.693578	0.073449	-0.916029	0.394329	-0.052156	0.391328	0.918772	-0.995934	-0.088050	-0.019034
861	2080686													9.768356	-0.402988	0.427347	0.052029	-0.917405	0.394538	-0.050971	0.392119	0.918501	-0.997344	-0.067899	-0.026359
862	2080852													9.746024	-0.372630	0.210316	0.030936	-0.918212	0.394879	-0.049794	0.393162	0.918120	-0.998280	-0.048065	-0.033559
863	2081019													9.620297	-0.341632	-0.005082	0.009666	-0.918461	0.395393	-0.048649	0.394512	0.917602	-0.998769	-0.028105	-0.040869
864	2081186													9.710672	-0.286028	-0.249708	-0.011697	-0.918144	0.396074	-0.047526	0.396164	0.916949	-0.998802	-0.008098	-0.048269
865	2081352													9.880931	-0.272854	-0.475286	-0.032615	-0.917279	0.396908	-0.046524	0.398082	0.916169	-0.998385	0.011415	-0.055659
