sampleTimeFine,D4:22:CD:00:A9:12_acc_x,D4:22:CD:00:A9:12_acc_y,D4:22:CD:00:A9:12_acc_z,D4:22:CD:00:A9:12_gyro_x,D4:22:CD:00:A9:12_gyro_y,D4:22:CD:00:A9:12_gyro_z,D4:22:CD:00:A9:12_quat_w,D4:22:CD:00:A9:12_quat_x,D4:22:CD:00:A9:12_quat_y,D4:22:CD:00:A9:12_quat_z,D4:22:CD:00:A1:93_acc_x,D4:22:CD:00:A1:93_acc_y,D4:22:CD:00:A1:93_acc_z,D4:22:CD:00:A1:93_gyro_x,D4:22:CD:00:A1:93_gyro_y,D4:22:CD:00:A1:93_gyro_z,D4:22:CD:00:A1:93_quat_w,D4:22:CD:00:A1:93_quat_x,D4:22:CD:00:A1:93_quat_y,D4:22:CD:00:A1:93_quat_z
274320,0.0,0.0,0.0,0.0,0.0,0.0,0.6250767111778259,-0.3882332444190979,-0.4296310842037201,-0.5234225988388062,0.0,0.0,0.0,0.0,0.0,0.0,0.3418826460838318,-0.660877525806427,-0.42139944434165955,-0.5184392929077148
274486,9.273102760314941,-0.32850709557533264,3.219960927963257,-0.4942226707935333,0.04940049350261688,1.2550030946731567,0.6256517767906189,-0.3878597319126129,-0.4299859404563904,-0.5227205753326416,9.442545890808105,-0.1344974935054779,-2.258873701095581,1.1720564365386963,0.14247703552246094,0.7057899236679077,0.34188830852508545,-0.6608843803405762,-0.4215129315853119,-0.5183348655700684
274653,9.26517391204834,-0.33348679542541504,3.2126073837280273,-0.09714896231889725,0.18044787645339966,1.1655890941619873,0.6257091164588928,-0.38778024911880493,-0.4302009344100952,-0.5225340723991394,9.482474327087402,-0.12205994129180908,-2.250316619873047,1.0519455671310425,-0.3375113606452942,0.500798761844635,0.3415977358818054,-0.6611819267272949,-0.42155373096466064,-0.518113911151886
274820,9.237504959106445,-0.3319157063961029,3.172327995300293,-0.010936623439192772,-0.21126636862754822,1.2849315404891968,0.6256297826766968,-0.3878607749938965,-0.430368036031723,-0.5224316120147705,9.548884391784668,-0.07307979464530945,-2.247567653656006,0.6816883683204651,-0.3061998188495636,0.14492304623126984,0.3414669930934906,-0.6611973643302917,-0.4218670427799225,-0.5179252028465271
274986,9.269850730895996,-0.3334331512451172,3.1555910110473633,0.2500759959220886,-0.29265066981315613,1.0134751796722412,0.6257367730140686,-0.38779938220977783,-0.430787593126297,-0.5220032334327698,9.53916072845459,-0.08553215116262436,-2.24072265625,0.2698618173599243,0.07918806374073029,-0.03844466805458069,0.3411155343055725,-0.6611231565475464,-0.4220340847969055,-0.5181154012680054
275153,9.327308654785156,-0.3157714307308197,3.2233662605285645,0.7375624179840088,-0.1354655623435974,0.7475898265838623,0.625583827495575,-0.38793471455574036,-0.43107157945632935,-0.5218514204025269,9.534082412719727,-0.08820715546607971,-2.241359233856201,0.02853895165026188,0.29702407121658325,-0.0903744101524353,0.3409236669540405,-0.6609315872192383,-0.4222458302974701,-0.5183136463165283
275320,9.315766334533691,-0.2963069677352905,3.2890665531158447,0.609588623046875,0.14184953272342682,0.6358416676521301,0.6253918409347534,-0.3880406320095062,-0.43118053674697876,-0.5219128131866455,9.506921768188477,-0.07879815250635147,-2.227644443511963,-0.08619953691959381,0.6169010400772095,0.2550320327281952,0.34081804752349854,-0.6607669591903687,-0.42233726382255554,-0.5185185074806213
275486,9.272231101989746,-0.32064223289489746,3.24953031539917,0.913496196269989,0.43042778968811035,1.0255517959594727,0.6254693865776062,-0.3878890573978424,-0.43125101923942566,-0.5218742489814758,9.48100757598877,-0.09206955879926682,-2.2126171588897705,-0.04730665683746338,0.673172116279602,0.29945728182792664,0.34080687165260315,-0.6605702638626099,-0.42245325446128845,-0.5186818838119507
275653,9.24361801147461,-0.35320284962654114,3.276479482650757,1.1776912212371826,0.6150314211845398,0.9972496628761292,0.6257420182228088,-0.38758254051208496,-0.4313695430755615,-0.5216772556304932,9.469529151916504,-0.12191648036241531,-2.215092182159424,0.032163143157958984,0.662658154964447,0.4658757746219635,0.34082189202308655,-0.6604269742965698,-0.4224759042263031,-0.5188359618186951
275820,9.246021270751953,-0.3480820059776306,3.308610200881958,1.1515661478042603,0.44602593779563904,0.9414267539978027,0.6259528398513794,-0.38737350702285767,-0.431362122297287,-0.5215858221054077,9.487351417541504,-0.12128311395645142,-2.2042429447174072,0.1367397904396057,0.6219211220741272,0.5530486106872559,0.34089943766593933,-0.6603143811225891,-0.42246711254119873,-0.5189354419708252
275986,9.242535591125488,-0.32478898763656616,3.286768913269043,1.0013220310211182,0.32782334089279175,0.7244744300842285,0.626141369342804,-0.3871851861476898,-0.43130114674568176,-0.521549642086029,9.48764419555664,-0.11355872452259064,-2.220576286315918,0.3785492777824402,0.5328658819198608,0.5316491723060608,0.34106314182281494,-0.6601742506027222,-0.4225141406059265,-0.5189679265022278
276153,9.2317476272583,-0.32736077904701233,3.289567470550537,1.1104322671890259,0.3386063277721405,0.6123676896095276,0.6263362169265747,-0.386973112821579,-0.4312540292739868,-0.5215119123458862,9.483134269714355,-0.12061470001935959,-2.218390464782715,0.5282682776451111,0.4572058916091919,0.49956926703453064,0.3412471413612366,-0.6600391268730164,-0.422583669424057,-0.5189623236656189
276320,9.204812049865723,-0.3457804024219513,3.248019218444824,0.9246760606765747,0.31467121839523315,0.600918710231781,0.6264491677284241,-0.3868401348590851,-0.4311416447162628,-0.5215678811073303,9.47070026397705,-0.1167135238647461,-2.2189130783081055,0.800672173500061,0.1769261211156845,0.6504025459289551,0.3413958251476288,-0.6599822640419006,-0.4225902855396271,-0.51893150806427
276486,9.23863697052002,-0.3347845673561096,3.2600960731506348,0.7974321246147156,0.33559679985046387,0.6645918488502502,0.6265859007835388,-0.3867170214653015,-0.43104246258735657,-0.5215768814086914,9.487283706665039,-0.11551032960414886,-2.2327256202697754,0.889138400554657,-0.2296946793794632,0.5707597732543945,0.3415178954601288,-0.6599589586257935,-0.4226241409778595,-0.5188531279563904
276653,9.226966857910156,-0.3440564274787903,3.2560174465179443,0.5126189589500427,0.3611070215702057,0.8307286500930786,0.6267650723457336,-0.3865983188152313,-0.4309573471546173,-0.5215201377868652,9.508919715881348,-0.09885342419147491,-2.2411575317382812,0.8379515409469604,-0.4193951487541199,0.4519297182559967,0.34158363938331604,-0.659976065158844,-0.42264053225517273,-0.5187748670578003
276820,9.234131813049316,-0.34542587399482727,3.2528645992279053,0.15658965706825256,0.19607162475585938,0.6748626232147217,0.6267988085746765,-0.38660821318626404,-0.4308021366596222,-0.5216003060340881,9.523907661437988,-0.08631211519241333,-2.2517688274383545,0.7070322036743164,-0.414311021566391,0.3688933551311493,0.34169748425483704,-0.6599379181861877,-0.4227529764175415,-0.5186567902565002
276986,9.258782386779785,-0.3383522927761078,3.231217384338379,0.2832060158252716,0.1423233598470688,0.6108948588371277,0.6269307732582092,-0.3865315020084381,-0.43074876070022583,-0.5215426683425903,9.472060203552246,-0.09971896559000015,-2.265348434448242,0.5893673896789551,-0.3262673318386078,0.3932766020298004,0.3417612314224243,-0.6599332094192505,-0.42280808091163635,-0.5185757279396057
277153,9.304415702819824,-0.33062100410461426,3.2740659713745117,0.5004016757011414,0.27922323346138,0.6852613687515259,0.6270485520362854,-0.3864668905735016,-0.4306837022304535,-0.521502673625946,9.491963386535645,-0.1165158823132515,-2.2974491119384766,0.6304501891136169,-0.7600184679031372,0.8047831058502197,0.3417629301548004,-0.6600439548492432,-0.422770619392395,-0.518464207649231
277320,9.291770935058594,-0.3223336637020111,3.26273250579834,0.778465986251831,0.45472145080566406,0.7071858048439026,0.6271427869796753,-0.38640716671943665,-0.43059486150741577,-0.5215070247650146,9.543670654296875,-0.10330549627542496,-2.2864842414855957,0.6376473903656006,-0.49263471364974976,0.8779457211494446,0.34181609749794006,-0.6601212024688721,-0.4227582514286041,-0.5183408856391907
277486,9.253904342651367,-0.3523580729961395,3.213726282119751,0.5213912725448608,0.33322760462760925,0.926097571849823,0.6273062229156494,-0.3863306939601898,-0.43055209517478943,-0.5214024186134338,9.520434379577637,-0.0853799507021904,-2.3143489360809326,0.4280458390712738,-0.2554226517677307,0.6753107905387878,0.3419492244720459,-0.6600965857505798,-0.4228716194629669,-0.5181919932365417
277653,9.27855396270752,-0.3945353031158447,3.2029740810394287,1.053085446357727,0.31720688939094543,0.9224606156349182,0.6274421811103821,-0.3862590789794922,-0.4305204749107361,-0.5213180184364319,9.486845016479492,-0.10728264600038528,-2.2963972091674805,0.23190376162528992,-0.06715649366378784,0.4988008737564087,0.341948926448822,-0.6601465940475464,-0.42284855246543884,-0.5181472301483154
277820,9.295747756958008,-0.3251160681247711,3.314181327819824,0.6718659996986389,0.3707502484321594,0.7826153039932251,0.6275109648704529,-0.38625335693359375,-0.4304399788379669,-0.521306037902832,9.465991020202637,-0.12711983919143677,-2.3010315895080566,0.1531575322151184,-0.3184554874897003,0.693739116191864,0.3419257700443268,-0.6602451801300049,-0.4227975904941559,-0.5180785655975342
277986,9.274983406066895,-0.30949223041534424,3.2319447994232178,0.8942224979400635,0.1721109300851822,0.5880483388900757,0.627579927444458,-0.38621315360069275,-0.43041524291038513,-0.5212730765342712,9.47652816772461,-0.13187319040298462,-2.2814207077026367,0.2992395758628845,-0.29810622334480286,0.783857524394989,0.3418673574924469,-0.6603917479515076,-0.4226732552051544,-0.5180315971374512
278153,9.277864456176758,-0.3496771454811096,3.2126779556274414,0.642629086971283,0.08456673473119736,0.9030974507331848,0.627669095993042,-0.3862054944038391,-0.43038493394851685,-0.5211963653564453,9.469656944274902,-0.11712795495986938,-2.3125035762786865,0.4190301299095154,-0.23833897709846497,0.9124587774276733,0.34191152453422546,-0.6604756116867065,-0.4226362705230713,-0.5179257988929749
278320,9.285508155822754,-0.3915248513221741,3.2188894748687744,0.8734250068664551,0.15843375027179718,1.053802490234375,0.6278151869773865,-0.3861601650714874,-0.43038472533226013,-0.5210542678833008,9.461076736450195,-0.13084334135055542,-2.3201866149902344,0.6204612255096436,-0.31308963894844055,0.9148663878440857,0.34197187423706055,-0.6605553030967712,-0.42262184619903564,-0.517795979976654
278486,9.292353630065918,-0.39085888862609863,3.2005114555358887,1.130858302116394,0.14841921627521515,1.3010419607162476,0.6279380917549133,-0.3861604332923889,-0.430350661277771,-0.520933985710144,9.490250587463379,-0.15094244480133057,-2.302734613418579,0.7505738139152527,-0.26904863119125366,0.8729384541511536,0.34204304218292236,-0.6606261730194092,-0.422617644071579,-0.5176620483398438
278653,9.27756404876709,-0.3461399972438812,3.2443478107452393,0.8548173904418945,0.15036576986312866,1.136147379875183,0.6280255317687988,-0.3861871063709259,-0.43030259013175964,-0.5208483934402466,9.482787132263184,-0.1361398845911026,-2.3287415504455566,0.8897915482521057,-0.2188093066215515,0.8566998839378357,0.34211811423301697,-0.6606977581977844,-0.4226028621196747,-0.5175331234931946
278820,9.284236907958984,-0.3592851758003235,3.220844268798828,0.46319931745529175,-0.04060893505811691,1.1657301187515259,0.6281300187110901,-0.3862246870994568,-0.43027883768081665,-0.5207144021987915,9.502409934997559,-0.13061051070690155,-2.331592082977295,1.0124636888504028,-0.05710351839661598,0.9258543252944946,0.3422359526157379,-0.6607438325881958,-0.42260292172431946,-0.5173963904380798
278986,9.295208930969238,-0.3660408556461334,3.1880667209625244,0.3739005923271179,0.16149447858333588,1.121970772743225,0.6282104253768921,-0.3862762153148651,-0.4302143156528473,-0.5206323266029358,9.525540351867676,-0.14482973515987396,-2.3363451957702637,0.9149177074432373,0.12289614230394363,1.017317295074463,0.3423875570297241,-0.6607667207717896,-0.4226105809211731,-0.517260730266571
279153,9.287688255310059,-0.382475882768631,3.219130754470825,0.18184375762939453,0.2275240123271942,1.0781729221343994,0.6282826662063599,-0.3863374590873718,-0.43013811111450195,-0.5205627679824829,9.509085655212402,-0.13389846682548523,-2.3052823543548584,0.9035584926605225,0.4849700629711151,1.0051511526107788,0.3425458073616028,-0.660774290561676,-0.4225817918777466,-0.5171695351600647
279320,9.290417671203613,-0.3659408390522003,3.226867198944092,0.4265475273132324,0.3371463716030121,1.0928490161895752,0.6283477544784546,-0.3863944411277771,-0.43004894256591797,-0.5205156207084656,9.494438171386719,-0.14733107388019562,-2.316309690475464,0.9145207405090332,0.6323711276054382,0.8994348645210266,0.34269455075263977,-0.6607729196548462,-0.42253997921943665,-0.5171070098876953
279486,9.273611068725586,-0.37722697854042053,3.2314484119415283,0.2987144887447357,0.40258678793907166,1.0276391506195068,0.628420889377594,-0.38644081354141235,-0.4299609661102295,-0.5204656720161438,9.511950492858887,-0.15324795246124268,-2.3030853271484375,0.7165473103523254,0.706353485584259,0.89508056640625,0.34284210205078125,-0.6607650518417358,-0.42249560356140137,-0.5170555114746094
279653,9.294730186462402,-0.3838396668434143,3.2223570346832275,0.23020055890083313,0.3504009544849396,0.9323728084564209,0.628466010093689,-0.3865029513835907,-0.42986759543418884,-0.5204418301582336,9.494758605957031,-0.14684990048408508,-2.3116464614868164,0.5402166843414307,0.8451743125915527,0.8912003040313721,0.34297436475753784,-0.6607610583305359,-0.42241984605789185,-0.5170347094535828
279820,9.289597511291504,-0.3943187892436981,3.2617599964141846,0.23036698997020721,0.5362209677696228,0.8614894151687622,0.6285484433174133,-0.3865218162536621,-0.4297850728034973,-0.5203965306282043,9.481136322021484,-0.14205829799175262,-2.2952425479888916,0.4374329447746277,0.8529092669487,0.8251450657844543,0.3430677354335785,-0.6607776880264282,-0.4223099648952484,-0.5170414447784424
279986,9.273402214050293,-0.37829679250717163,3.2366559505462646,0.5088026523590088,0.68506920337677,0.9005104899406433,0.6286677122116089,-0.3864997625350952,-0.429712176322937,-0.5203290581703186,9.483949661254883,-0.14780068397521973,-2.27799654006958,0.37616729736328125,0.9770283699035645,0.8477355241775513,0.3432004749774933,-0.6607593894004822,-0.42223191261291504,-0.5170402526855469
280153,9.282902717590332,-0.37352806329727173,3.2484054565429688,0.5675197839736938,0.5170243382453918,0.8352108597755432,0.6287723779678345,-0.3864828944206238,-0.4296608865261078,-0.5202574729919434,9.491827011108398,-0.14252051711082458,-2.239802837371826,0.22356685996055603,0.9445642828941345,0.8326752781867981,0.34330040216445923,-0.6607622504234314,-0.4221240282058716,-0.5170586109161377
280320,9.273524284362793,-0.39631110429763794,3.265547752380371,0.29914990067481995,0.7242310643196106,0.7339894771575928,0.6288301944732666,-0.3864985406398773,-0.4295485317707062,-0.5202688574790955,9.511417388916016,-0.12206728756427765,-2.2242376804351807,-0.012716704979538918,0.9939199686050415,0.6934830546379089,0.34333571791648865,-0.6607913374900818,-0.42196202278137207,-0.5171301364898682
280486,9.261600494384766,-0.38434457778930664,3.2630863189697266,0.2329283207654953,0.7535576224327087,0.6657317280769348,0.6289337873458862,-0.38647037744522095,-0.42946961522102356,-0.5202296376228333,9.51192569732666,-0.14483314752578735,-2.235827684402466,-0.24624048173427582,1.3120040893554688,0.6734667420387268,0.3434140980243683,-0.6607659459114075,-0.42182719707489014,-0.5172206163406372
280653,9.236615180969238,-0.36100515723228455,3.26165771484375,-0.034397855401039124,0.7867003679275513,0.5495267510414124,0.628998339176178,-0.3864710032939911,-0.4293600618839264,-0.5202416777610779,9.48038101196289,-0.13650308549404144,-2.223194122314453,-0.3498695194721222,1.0815539360046387,0.5388335585594177,0.3434641659259796,-0.6607490181922913,-0.42171376943588257,-0.5173013210296631
280820,9.262420654296875,-0.36868855357170105,3.2791128158569336,0.12685328722000122,0.8082535266876221,0.4014982283115387,0.6290777921676636,-0.38643160462379456,-0.4292803406715393,-0.5202404856681824,9.512911796569824,-0.14284515380859375,-2.2077577114105225,-0.44211357831954956,0.954809308052063,0.5666745901107788,0.34349510073661804,-0.660750687122345,-0.4215891659259796,-0.5173803567886353
280986,9.238405227661133,-0.370671808719635,3.28562068939209,0.4795657694339752,0.8938639760017395,0.5484511256217957,0.6291223764419556,-0.3864201605319977,-0.42915797233581543,-0.5202959775924683,9.512701034545898,-0.15812164545059204,-2.211757183074951,-0.5071314573287964,0.9489569067955017,0.5895979404449463,0.343519002199173,-0.6607581973075867,-0.4214518964290619,-0.5174666047096252
281153,9.20036506652832,-0.37345975637435913,3.2868993282318115,0.22341316938400269,0.3544093072414398,0.4846755266189575,0.6291295886039734,-0.3864554762840271,-0.4290792644023895,-0.5203258991241455,9.491938591003418,-0.14258883893489838,-2.2074553966522217,-0.42199480533599854,0.9300931096076965,0.5496164560317993,0.34354734420776367,-0.6607598066329956,-0.4213232398033142,-0.517550528049469
281320,9.268930435180664,-0.3711707592010498,3.303675413131714,0.14434675872325897,0.12517565488815308,0.3827753961086273,0.6291800141334534,-0.38645094633102417,-0.4290711581707001,-0.5202749967575073,9.44993782043457,-0.16907529532909393,-2.2134313583374023,-0.4558931887149811,0.39948770403862,0.5916726589202881,0.3435323238372803,-0.660813570022583,-0.42119890451431274,-0.5175930857658386
281486,9.275620460510254,-0.36607587337493896,3.299499988555908,0.3326769471168518,0.6679216027259827,0.4433366060256958,0.6292740106582642,-0.38639548420906067,-0.4290193021297455,-0.520245373249054,9.469171524047852,-0.17059756815433502,-2.227078437805176,-0.14807981252670288,-0.2225615382194519,0.8000831007957458,0.34356632828712463,-0.6608779430389404,-0.4211597740650177,-0.5175201892852783
281653,9.23306655883789,-0.39621874690055847,3.2913622856140137,-0.10608780384063721,0.4835869371891022,0.41777512431144714,0.6292432546615601,-0.38646310567855835,-0.42888760566711426,-0.5203409790992737,9.5165376663208,-0.17050278186798096,-2.2040274143218994,0.013798841275274754,-0.4451230764389038,0.5968207120895386,0.34359320998191833,-0.6609335541725159,-0.4211697280406952,-0.5174230933189392
281820,9.209444999694824,-0.4298100471496582,3.24841570854187,0.14620369672775269,0.021943680942058563,0.5241190791130066,0.6292238235473633,-0.38653451204299927,-0.4288231134414673,-0.5203646421432495,9.570391654968262,-0.1533084362745285,-2.207338809967041,0.07998204976320267,-0.2725191116333008,0.1557060033082962,0.34355831146240234,-0.660983145236969,-0.42115718126296997,-0.5173930525779724
281986,9.276142120361328,-0.4171198606491089,3.2530922889709473,0.7994427680969238,-0.5291839838027954,0.32171469926834106,0.6292429566383362,-0.38653406500816345,-0.4289071559906006,-0.5202724933624268,9.552063941955566,-0.16250285506248474,-2.2136330604553223,0.09686082601547241,0.08993259817361832,-0.09461331367492676,0.34353479743003845,-0.6609833240509033,-0.4211583733558655,-0.5174074172973633
282153,9.295124053955078,-0.3494524657726288,3.3410181999206543,0.4439384937286377,-0.10612621158361435,0.011544925160706043,0.6292163133621216,-0.3865396976470947,-0.42892128229141235,-0.5202890038490295,9.530878067016602,-0.15089449286460876,-2.2041773796081543,0.2603466808795929,0.30783265829086304,-0.044181905686855316,0.3435453474521637,-0.6609610319137573,-0.42115575075149536,-0.5174312591552734
282320,9.21717357635498,-0.3413275182247162,3.294924259185791,0.3838511109352112,0.10709308832883835,0.03965486213564873,0.6291740536689758,-0.3865571916103363,-0.4288887679576874,-0.5203537940979004,9.505659103393555,-0.1325453817844391,-2.2044677734375,0.39532560110092163,0.42408865690231323,0.08935630321502686,0.3436258137226105,-0.6608984470367432,-0.4211939871311188,-0.5174264311790466
282486,9.218571662902832,-0.4078020751476288,3.32129168510437,0.6866444945335388,-0.15669849514961243,0.39841195940971375,0.6292187571525574,-0.3865392506122589,-0.42892709374427795,-0.5202814936637878,9.50860595703125,-0.09467650949954987,-2.1868650913238525,0.16821777820587158,0.4206949770450592,0.0939922034740448,0.34370023012161255,-0.6608342528343201,-0.4212345480918884,-0.5174260139465332
282653,9.24081039428711,-0.4057697057723999,3.32198429107666,0.974505603313446,-0.22167789936065674,0.47446879744529724,0.6292592883110046,-0.38652303814888,-0.4289703071117401,-0.5202089548110962,9.518531799316406,-0.07146009057760239,-2.1948468685150146,-0.17658677697181702,0.5778033137321472,0.12310104817152023,0.34371334314346313,-0.6608079075813293,-0.42118826508522034,-0.5174887180328369
282820,9.243556022644043,-0.3666457533836365,3.3205113410949707,1.1824934482574463,-0.29198476672172546,0.3391569256782532,0.6293502449989319,-0.3864409327507019,-0.4290810227394104,-0.5200685262680054,9.504559516906738,-0.0789182186126709,-2.1826939582824707,-0.5933053493499756,0.593683123588562,0.2906465232372284,0.3437197208404541,-0.6607930064201355,-0.4211210012435913,-0.5175582766532898
282986,9.225027084350586,-0.32763412594795227,3.3095414638519287,1.0959737300872803,0.1624293327331543,0.18765783309936523,0.6294237971305847,-0.3863464593887329,-0.42912960052490234,-0.5200096368789673,9.490650177001953,-0.09112503379583359,-2.206664562225342,-0.8928586840629578,0.6407848000526428,0.27803224325180054,0.3436962366104126,-0.6607894897460938,-0.421027272939682,-0.5176547169685364
283153,9.214766502380371,-0.34900563955307007,3.3662338256835938,0.41626399755477905,0.027808982878923416,0.0003137555322609842,0.6293874979019165,-0.3863513469696045,-0.4291135370731354,-0.5200631022453308,9.475799560546875,-0.11729171872138977,-2.2019150257110596,-0.9430851936340332,0.3512333035469055,0.4941905438899994,0.3436674475669861,-0.6608209609985352,-0.42092639207839966,-0.5177154541015625
283320,9.20989990234375,-0.3698084354400635,3.3348026275634766,0.5332244038581848,-0.161885067820549,0.14852163195610046,0.629396378993988,-0.38633573055267334,-0.4291427433490753,-0.520039975643158,9.473238945007324,-0.12945178151130676,-2.1898462772369385,-0.8439127802848816,-0.05468311160802841,0.5951557755470276,0.3435841202735901,-0.6609219312667847,-0.4207838475704193,-0.5177578330039978
283486,9.232730865478516,-0.3586287498474121,3.302600145339966,0.7761608958244324,-0.2256222814321518,0.35556191205978394,0.6293742656707764,-0.38636142015457153,-0.42914143204689026,-0.5200486183166504,9.472412109375,-0.1314430683851242,-2.1924245357513428,-0.6592580080032349,-0.3455536961555481,0.5928507447242737,0.3435138463973999,-0.6610243320465088,-0.4206864535808563,-0.5177528262138367
283653,9.230509757995605,-0.3635103106498718,3.285684585571289,0.8071008920669556,-0.2668202519416809,0.3769356608390808,0.6293537020683289,-0.3863877058029175,-0.4291456341743469,-0.5200505256652832,9.499564170837402,-0.13918079435825348,-2.209721326828003,-0.3472825586795807,-0.7164512276649475,0.3706349730491638,0.3434547185897827,-0.6611084938049316,-0.4206782281398773,-0.5176911354064941
283820,9.246795654296875,-0.371700257062912,3.2717039585113525,0.636533260345459,-0.21627365052700043,0.2795306146144867,0.6293382048606873,-0.38640379905700684,-0.4291519522666931,-0.520051896572113,9.533714294433594,-0.146786630153656,-2.2128942012786865,-0.17750881612300873,-0.920149028301239,0.1943555623292923,0.34339070320129395,-0.6611849665641785,-0.4207155704498291,-0.5176058411598206
283986,9.248461723327637,-0.36371439695358276,3.2968268394470215,0.4810768961906433,-0.13762983679771423,0.18413607776165009,0.6293566823005676,-0.38638490438461304,-0.42917874455451965,-0.5200216174125671,9.485921859741211,-0.15251174569129944,-2.2311391830444336,0.20429326593875885,-0.9791862964630127,0.2657637596130371,0.3433671295642853,-0.6612496376037598,-0.420779287815094,-0.5174868702888489
284153,9.250260353088379,-0.3609859347343445,3.2889091968536377,0.38618186116218567,-0.23506054282188416,0.26050034165382385,0.6293323040008545,-0.3864174485206604,-0.42917513847351074,-0.5200299620628357,9.522808074951172,-0.1357875019311905,-2.252074718475342,0.4752756655216217,-1.2012485265731812,0.5463765859603882,0.3433520495891571,-0.6613554358482361,-0.4208151698112488,-0.5173327326774597
284320,9.256791114807129,-0.355264276266098,3.3342556953430176,0.3814755380153656,-0.4500536024570465,0.33602583408355713,0.6293171048164368,-0.38645675778388977,-0.42919978499412537,-0.5199986696243286,9.523761749267578,-0.13843728601932526,-2.234163999557495,0.6572411060333252,-1.1101311445236206,0.5577101111412048,0.3433908522129059,-0.6614213585853577,-0.4208979606628418,-0.5171552896499634
284486,9.237898826599121,-0.40155893564224243,3.2320220470428467,-0.05952391028404236,-0.7348154783248901,0.538833498954773,0.6292810440063477,-0.38656488060951233,-0.4292100667953491,-0.5199536681175232,9.509926795959473,-0.09840767830610275,-2.2748453617095947,0.5325840711593628,-0.9324046969413757,0.3876546323299408,0.34341755509376526,-0.6614682078361511,-0.4209809899330139,-0.5170100331306458
284653,9.266581535339355,-0.41060391068458557,3.278681755065918,0.8530502319335938,-0.7946212887763977,0.4183642566204071,0.6291985511779785,-0.3866572082042694,-0.42923882603645325,-0.5199612379074097,9.509339332580566,-0.09779960662126541,-2.2749674320220947,0.3470456600189209,-0.8179799318313599,0.27877500653266907,0.34337684512138367,-0.6615476608276367,-0.42099469900131226,-0.5169241428375244
284986,9.236546516418457,-0.3433716893196106,3.270474910736084,0.5165632963180542,-0.877042829990387,0.22520604729652405,0.629112184047699,-0.38677847385406494,-0.42935892939567566,-0.5198763012886047,9.485596656799316,-0.09654328972101212,-2.2982747554779053,0.1188749372959137,-0.7938271760940552,0.20124538242816925,0.3433285653591156,-0.6616159677505493,-0.4210233688354492,-0.5168454051017761
285153,9.263251304626465,-0.3434176743030548,3.262934684753418,0.4950999319553375,-0.629291296005249,0.3664601445198059,0.6290323138237,-0.3868735134601593,-0.42936065793037415,-0.5199005603790283,9.461796760559082,-0.10311438888311386,-2.299818754196167,-0.00373945408500731,-0.7853876948356628,0.4148808717727661,0.34331491589546204,-0.6616780757904053,-0.4210622310638428,-0.5167433619499207
285320,9.280058860778809,-0.3845958709716797,3.2363827228546143,0.7241799235343933,-0.8636987209320068,0.5705420970916748,0.6290746331214905,-0.3868882358074188,-0.42947134375572205,-0.5197470784187317,9.449907302856445,-0.10149285197257996,-2.3016366958618164,-0.2283628135919571,-0.8795016407966614,0.5744864344596863,0.3432491421699524,-0.6617976427078247,-0.4210283160209656,-0.5166615843772888
285486,9.303017616271973,-0.357559472322464,3.2195708751678467,0.950813889503479,-0.8412107229232788,0.6208198666572571,0.6290243864059448,-0.3869750499725342,-0.42951256036758423,-0.5197092294692993,9.484082221984863,-0.08543142676353455,-2.2996826171875,-0.4393218159675598,-0.8361777067184448,0.6458690166473389,0.34318122267723083,-0.6619201302528381,-0.4209844172000885,-0.5165854692459106
285653,9.271111488342285,-0.3252338469028473,3.229379892349243,0.619475245475769,-0.18505176901817322,0.5746529698371887,0.6289993524551392,-0.38703426718711853,-0.42947742342948914,-0.5197243690490723,9.510916709899902,-0.10190483182668686,-2.3002097606658936,-0.5381612777709961,-0.6214410066604614,0.6860426068305969,0.3431362807750702,-0.6620198488235474,-0.4209415018558502,-0.5165225267410278
285820,9.250336647033691,-0.33908891677856445,3.245154857635498,0.5480669140815735,-0.1217883825302124,0.5464277267456055,0.629004180431366,-0.3870662748813629,-0.4294580817222595,-0.5197107791900635,9.52468490600586,-0.1064324826002121,-2.3098535537719727,-0.5812289714813232,-0.28720802068710327,0.6902302503585815,0.3431207835674286,-0.6620859503746033,-0.42089614272117615,-0.5164850950241089
285986,9.270523071289062,-0.37739333510398865,3.2370145320892334,0.39674708247184753,-0.3532247245311737,0.4197601079940796,0.6289874315261841,-0.3871119022369385,-0.42946478724479675,-0.5196914076805115,9.524113655090332,-0.12518411874771118,-2.316450595855713,-0.482556015253067,0.17147061228752136,0.7485759258270264,0.34307289123535156,-0.6621761322021484,-0.42073583602905273,-0.5165318846702576
286153,9.309590339660645,-0.34696364402770996,3.262892246246338,0.5377321839332581,-0.05952391028404236,0.5439688563346863,0.628983199596405,-0.38714954257011414,-0.42943131923675537,-0.5196961164474487,9.529007911682129,-0.1373840868473053,-2.2971837520599365,-0.3885318636894226,0.6266723275184631,0.6350861191749573,0.3430662155151367,-0.6622101068496704,-0.42058777809143066,-0.5166133642196655
286320,9.262717247009277,-0.3516271114349365,3.2856528759002686,0.6521953344345093,0.3192174434661865,0.618911623954773,0.6290309429168701,-0.3871389925479889,-0.42938050627708435,-0.5196882486343384,9.522269248962402,-0.13758312165737152,-2.305603265762329,-0.11911185830831528,0.9988374710083008,0.5649456977844238,0.34316277503967285,-0.6621495485305786,-0.42052584886550903,-0.5166773200035095
286486,9.252077102661133,-0.35976287722587585,3.301175594329834,0.5675197839736938,-0.016302483156323433,0.48448342084884644,0.6291437149047852,-0.3870694041252136,-0.42943689227104187,-0.5195570588111877,9.509542465209961,-0.13590380549430847,-2.2881553173065186,0.08907456696033478,1.1485183238983154,0.6705596446990967,0.34328681230545044,-0.6620817184448242,-0.4204499423503876,-0.5167436003684998
286653,9.274113655090332,-0.38656654953956604,3.259448289871216,0.46298155188560486,-0.029044799506664276,0.5457490086555481,0.6291232705116272,-0.3871220648288727,-0.4293849766254425,-0.5195854902267456,9.49979019165039,-0.1178709864616394,-2.292070150375366,0.3064879775047302,1.2461154460906982,0.6254045367240906,0.34343358874320984,-0.6619935631752014,-0.4203890860080719,-0.5168085098266602
286820,9.271580696105957,-0.3733079135417938,3.2761828899383545,0.8046805262565613,0.3689829111099243,0.6164911985397339,0.6291756629943848,-0.3870985805988312,-0.42933592200279236,-0.5195800065994263,9.474393844604492,-0.1169305220246315,-2.2556135654449463,0.389556348323822,1.254446029663086,0.5659893751144409,0.3435673415660858,-0.6619104743003845,-0.4203190207481384,-0.5168829560279846
286986,9.275043487548828,-0.37751948833465576,3.2802894115448,0.7015126347541809,0.36720284819602966,0.6487888693809509,0.6291999816894531,-0.3871069550514221,-0.4292590916156769,-0.5196077227592468,9.486419677734375,-0.12600760161876678,-2.2631824016571045,0.5223390460014343,1.2230768203735352,0.623650074005127,0.34371960163116455,-0.6618233323097229,-0.42026007175445557,-0.516941249370575
287153,9.273441314697266,-0.3709559142589569,3.260850429534912,0.7028059959411621,0.3877314329147339,0.5554305911064148,0.6292709708213806,-0.3870646059513092,-0.4292246699333191,-0.5195819139480591,9.50346565246582,-0.1346641480922699,-2.249228000640869,0.6046966910362244,1.1806493997573853,0.7690662145614624,0.343869149684906,-0.6617593169212341,-0.4201715886592865,-0.5169956088066101
287320,9.261207580566406,-0.3623150885105133,3.2521166801452637,0.7957032322883606,0.4266243278980255,0.7626244425773621,0.6293493509292603,-0.3870368003845215,-0.42917054891586304,-0.5195525288581848,9.487205505371094,-0.11526168137788773,-2.234663248062134,0.7314922213554382,1.1841838359832764,0.8119673728942871,0.3440393805503845,-0.6616872549057007,-0.42009493708610535,-0.5170370936393738
287486,9.261080741882324,-0.36798515915870667,3.2649757862091064,0.6236500144004822,0.5064847469329834,0.7809248566627502,0.6294019818305969,-0.38703784346580505,-0.42907893657684326,-0.5195635557174683,9.503928184509277,-0.10205629467964172,-2.2000744342803955,0.6129438877105713,1.1511949300765991,0.7849076390266418,0.34416911005973816,-0.661641538143158,-0.4199819564819336,-0.5171008706092834
287653,9.248482704162598,-0.3511993885040283,3.283067226409912,0.40637749433517456,0.47094714641571045,0.5903663635253906,0.6294612288475037,-0.3870202600955963,-0.4290115535259247,-0.5195605158805847,9.507110595703125,-0.09918945282697678,-2.192359209060669,0.3808416426181793,1.1571369171142578,0.7974066138267517,0.34428974986076355,-0.6615975499153137,-0.4198656976222992,-0.517171323299408
287820,9.236087799072266,-0.3571451008319855,3.2828009128570557,0.4830362796783447,0.28058069944381714,0.5758439302444458,0.6295154094696045,-0.3870055675506592,-0.42897114157676697,-0.5195389986038208,9.49303150177002,-0.08592257648706436,-2.189347982406616,0.24993513524532318,0.9329233765602112,0.8142469525337219,0.34440723061561584,-0.6615593433380127,-0.4197777807712555,-0.5172134637832642
287986,9.253000259399414,-0.3506897985935211,3.2946510314941406,0.4382396638393402,0.19359998404979706,0.8065246343612671,0.629572331905365,-0.38702112436294556,-0.42891737818717957,-0.5195028781890869,9.489563941955566,-0.09418661147356033,-2.1824207305908203,0.09702731668949127,0.6150057315826416,0.839078426361084,0.3444877862930298,-0.6615567207336426,-0.41968685388565063,-0.5172366499900818
288153,9.232133865356445,-0.36911723017692566,3.2938785552978516,0.5953607559204102,0.3503112494945526,0.9201810359954834,0.6296601295471191,-0.38701409101486206,-0.42885756492614746,-0.5194510817527771,9.537731170654297,-0.12346795946359634,-2.1795921325683594,-0.012242869473993778,0.5064079165458679,1.0071873664855957,0.3445487916469574,-0.6615894436836243,-0.41955849528312683,-0.5172584652900696
288320,9.237542152404785,-0.3515559434890747,3.3053855895996094,0.6215881705284119,0.21041472256183624,0.9032766222953796,0.6297286152839661,-0.38702282309532166,-0.42880532145500183,-0.5194046497344971,9.552916526794434,-0.13219915330410004,-2.1743171215057373,0.07254157215356827,0.5470936894416809,1.0875216722488403,0.3446364998817444,-0.6616109013557434,-0.419439435005188,-0.5172690153121948
288486,9.234136581420898,-0.3595045506954193,3.3167994022369385,0.6038385629653931,0.1858777403831482,0.9130222201347351,0.6298261880874634,-0.3870094120502472,-0.42877665162086487,-0.519320011138916,9.441105842590332,-0.15141157805919647,-2.1785128116607666,0.21535800397396088,0.3038370609283447,1.0517919063568115,0.34472405910491943,-0.6616377830505371,-0.4193515479564667,-0.5172476172447205
288653,9.239961624145508,-0.35165202617645264,3.3231334686279297,0.11380362510681152,0.004629495088011026,0.8204323053359985,0.6298390626907349,-0.3870806396007538,-0.4287034869194031,-0.5193118453025818,9.46655559539795,-0.1750890165567398,-2.2017767429351807,0.3644751012325287,-0.47985392808914185,1.172389268875122,0.3448297381401062,-0.6616893410682678,-0.419356107711792,-0.5171074867248535
288820,9.243019104003906,-0.3986441195011139,3.221411943435669,-0.20426127314567566,-0.2633625864982605,0.898448646068573,0.6298493146896362,-0.38718390464782715,-0.42864570021629333,-0.5192700028419495,9.480834007263184,-0.18457916378974915,-2.19962477684021,0.6259936094284058,-0.7574188709259033,1.0641628503799438,0.3448856472969055,-0.6617820858955383,-0.41934090852737427,-0.5169637799263
288987,9.226887702941895,-0.44124436378479004,3.2154932022094727,0.5652402639389038,-0.582240641117096,0.9286587834358215,0.6298689246177673,-0.38725629448890686,-0.42866188287734985,-0.5191788673400879,9.543526649475098,-0.1643160581588745,-2.2118847370147705,0.7325296401977539,-0.877465546131134,0.6030701994895935,0.3449074625968933,-0.6618529558181763,-0.419379860162735,-0.5168270468711853
289153,9.301209449768066,-0.35134848952293396,3.3257761001586914,0.5327249765396118,-0.8408521413803101,0.6271206140518188,0.629835307598114,-0.3873433470726013,-0.4287071228027344,-0.5191173553466797,9.54891300201416,-0.16748958826065063,-2.2068233489990234,0.7043300271034241,-0.45526573061943054,0.31882044672966003,0.34495481848716736,-0.6618561744689941,-0.41945403814315796,-0.5167310833930969
289320,9.246355056762695,-0.3275090754032135,3.3045620918273926,0.4498806595802307,-0.15590450167655945,0.42410147190093994,0.6297951936721802,-0.38739722967147827,-0.4286728799343109,-0.5191540718078613,9.537270545959473,-0.17496885359287262,-2.2181055545806885,0.8844898343086243,-0.17597205936908722,0.6386847496032715,0.34507185220718384,-0.6618397831916809,-0.4195110499858856,-0.5166277289390564
289487,9.212179183959961,-0.3785988390445709,3.3125102519989014,0.6951606273651123,-0.25083795189857483,0.7037665247917175,0.6298047304153442,-0.3874352276325226,-0.4286659359931946,-0.519119918346405,9.516834259033203,-0.1373652219772339,-2.205878257751465,0.7980597019195557,0.004206886049360037,0.7241670489311218,0.3452204465866089,-0.6618008613586426,-0.4195733368396759,-0.5165277123451233
289653,9.254410743713379,-0.4273248016834259,3.3430910110473633,0.4390208423137665,-0.3578222095966339,0.8546509146690369,0.629802405834198,-0.3875155448913574,-0.4286390542984009,-0.5190848112106323,9.5230712890625,-0.11482130736112595,-2.2320616245269775,0.5449806451797485,0.2631897032260895,0.7485504150390625,0.3453124761581421,-0.6617965698242188,-0.41953733563423157,-0.5165007710456848
289820,9.259090423583984,-0.3958740830421448,3.305434465408325,0.48882484436035156,-0.3403800129890442,0.6955705285072327,0.6298055052757263,-0.38756927847862244,-0.4286322295665741,-0.5190467238426208,9.507416725158691,-0.10292371362447739,-2.2030162811279297,0.14298932254314423,0.4021514356136322,0.8315867781639099,0.34541985392570496,-0.6617745757102966,-0.4195080101490021,-0.5164809226989746
289987,9.222570419311523,-0.3265147805213928,3.3408710956573486,0.2525860071182251,-0.09433156251907349,0.5250155329704285,0.6297566890716553,-0.3876490294933319,-0.4285636246204376,-0.5191031694412231,9.497981071472168,-0.09926144033670425,-2.2125818729400635,-0.43669649958610535,0.5098143219947815,0.6848771572113037,0.3453931510448456,-0.6618235111236572,-0.41934970021247864,-0.5165646076202393
290153,9.211641311645508,-0.3495241403579712,3.3331360816955566,-0.2388640195131302,-0.46498578786849976,0.40249714255332947,0.6296417713165283,-0.38779816031455994,-0.42849409580230713,-0.519188642501831,9.536690711975098,-0.1452438235282898,-2.185859203338623,-0.7686243057250977,0.6458178162574768,0.658944308757782,0.34536269307136536,-0.6618586182594299,-0.41919171810150146,-0.5166682004928589
290320,9.229743957519531,-0.40337830781936646,3.3014652729034424,0.009854485280811787,-0.37224215269088745,0.4212200343608856,0.629599392414093,-0.38787567615509033,-0.42847201228141785,-0.5192003846168518,9.49671459197998,-0.17627352476119995,-2.195040702819824,-0.7651666402816772,0.6771549582481384,0.8824535012245178,0.3453626036643982,-0.6618949770927429,-0.41902610659599304,-0.5167561769485474
290487,9.229036331176758,-0.3790743052959442,3.317352056503296,0.5422784686088562,-0.08019336313009262,0.7014998197555542,0.6296167373657227,-0.3879077136516571,-0.4284398555755615,-0.5191817283630371,9.492705345153809,-0.1811172366142273,-2.1997640132904053,-0.5523378252983093,0.520494818687439,0.8098926544189453,0.3453402519226074,-0.6619501709938049,-0.4188554286956787,-0.516838788986206
290653,9.239696502685547,-0.38752496242523193,3.3255152702331543,0.15495042502880096,-0.14528803527355194,0.5364131331443787,0.6295560002326965,-0.3880022466182709,-0.4283636808395386,-0.5192476511001587,9.480030059814453,-0.1967443823814392,-2.1966307163238525,-0.3744064271450043,0.35740602016448975,0.8306774497032166,0.3453221619129181,-0.6620135307312012,-0.418698251247406,-0.5168971419334412
290820,9.241087913513184,-0.4024377465248108,3.3119149208068848,-0.048651326447725296,-0.09572746604681015,0.5038977861404419,0.6295247673988342,-0.38807615637779236,-0.4282991290092468,-0.5192834138870239,9.487176895141602,-0.17859937250614166,-2.199124336242676,-0.09420350193977356,0.07455216348171234,0.5266675353050232,0.345365971326828,-0.6620050668716431,-0.4187021255493164,-0.5168755650520325
290987,9.23431396484375,-0.4059460163116455,3.287307024002075,-0.07837484776973724,-0.03648529201745987,0.33384230732917786,0.6294704079627991,-0.3881478011608124,-0.4282269775867462,-0.5193554162979126,9.54804801940918,-0.1712609976530075,-2.1766014099121094,0.05568841099739075,-0.0841505229473114,0.3640140891075134,0.3453670144081116,-0.6620196104049683,-0.41869503259658813,-0.5168618559837341
291153,9.247807502746582,-0.3951101005077362,3.2756199836730957,-0.19045603275299072,-0.19081461429595947,0.3398100733757019,0.6294060945510864,-0.38823679089546204,-0.4281643331050873,-0.5194184184074402,9.486730575561523,-0.1568739116191864,-2.181121587753296,0.09136690944433212,-0.01673790067434311,0.24737387895584106,0.3453734815120697,-0.6620143055915833,-0.4187072515487671,-0.5168542861938477
291320,9.254949569702148,-0.3930108845233917,3.2863378524780273,0.14073538780212402,-0.07062701880931854,0.3608253002166748,0.6293846964836121,-0.3882754147052765,-0.4281257688999176,-0.5194472670555115,9.470044136047363,-0.1839064657688141,-2.1932663917541504,0.21242529153823853,-0.5209237933158875,0.6067071557044983,0.34537145495414734,-0.662075936794281,-0.41869786381721497,-0.5167844891548157
291487,9.231145858764648,-0.3895634114742279,3.2903215885162354,0.13884003460407257,-0.14093387126922607,0.6166064739227295,0.6293545961380005,-0.38835442066192627,-0.42806148529052734,-0.5194777250289917,9.534248352050781,-0.15106169879436493,-2.172886371612549,0.34028390049934387,-0.6115159392356873,0.769155740737915,0.3454020619392395,-0.662136435508728,-0.4187051057815552,-0.5166807770729065
291653,9.245131492614746,-0.46347618103027344,3.234891891479492,0.4922696650028229,-0.6717571020126343,0.42869892716407776,0.6293058395385742,-0.3884219825267792,-0.4280897080898285,-0.5194628834724426,9.493661880493164,-0.13743379712104797,-2.1946990489959717,0.28560078144073486,-0.7559971809387207,0.5588370561599731,0.3453998565673828,-0.6621993780136108,-0.4187321066856384,-0.5165795087814331
291820,9.268109321594238,-0.3932648003101349,3.369713544845581,-0.01563655212521553,-0.5539898872375488,0.17880865931510925,0.6291828155517578,-0.3885404169559479,-0.4280569553375244,-0.5195504426956177,9.516674995422363,-0.14171215891838074,-2.2337098121643066,0.016705883666872978,-0.9140404462814331,0.33373990654945374,0.3452974855899811,-0.6623120307922363,-0.4187074601650238,-0.5165234804153442
291987,9.24667739868164,-0.3893272876739502,3.2602388858795166,-0.03742015361785889,-0.9502310752868652,-0.032041486352682114,0.629063606262207,-0.3886397182941437,-0.4281042814254761,-0.5195815563201904,9.488443374633789,-0.15334729850292206,-2.2215254306793213,-0.06602952629327774,-0.9473369121551514,0.3154395818710327,0.34522104263305664,-0.6623995304107666,-0.41872942447662354,-0.516444742679596
292153,9.243749618530273,-0.3802342116832733,3.261061191558838,0.2978692650794983,-0.9383595585823059,0.1393907070159912,0.6289250254631042,-0.38876062631607056,-0.42812734842300415,-0.5196399688720703,9.500213623046875,-0.16092829406261444,-2.2314553260803223,-0.13395442068576813,-1.0858376026153564,0.3996221125125885,0.3451487720012665,-0.6624951958656311,-0.41876232624053955,-0.5163437128067017
292320,9.266972541809082,-0.4140631854534149,3.28737735748291,0.5183690190315247,-0.8716257214546204,0.21376998722553253,0.6288409233093262,-0.38883423805236816,-0.4281812608242035,-0.519642174243927,9.469807624816895,-0.13512326776981354,-2.2235138416290283,-0.10999374836683273,-1.1225405931472778,0.4682706296443939,0.34507864713668823,-0.6625988483428955,-0.4187883734703064,-0.5162363052368164
292487,9.26266098022461,-0.3980081379413605,3.2654058933258057,0.7949861884117126,-1.1887494325637817,0.3400405943393707,0.6287451386451721,-0.38892823457717896,-0.4282649755477905,-0.519618809223175,9.503621101379395,-0.13369017839431763,-2.2495687007904053,-0.2129823863506317,-1.2452638149261475,0.4306967258453369,0.34498751163482666,-0.6627146601676941,-0.4188165068626404,-0.5161257386207581
292653,9.257943153381348,-0.37682852149009705,3.265496015548706,0.8953879475593567,-1.07894766330719,0.1765163093805313,0.6286206841468811,-0.3890179991722107,-0.4283340573310852,-0.5196452140808105,9.477718353271484,-0.12984775006771088,-2.270909070968628,-0.4489266276359558,-1.1584625244140625,0.5038466453552246,0.34488609433174133,-0.6628381013870239,-0.4188191890716553,-0.516032874584198
292820,9.260400772094727,-0.36552146077156067,3.275468111038208,0.575933575630188,-1.099130630493164,0.04172949120402336,0.6284995675086975,-0.38910308480262756,-0.42841312289237976,-0.5196629762649536,9.502995491027832,-0.13188759982585907,-2.277202844619751,-0.5309895873069763,-1.0516188144683838,0.4632888436317444,0.34476158022880554,-0.6629697680473328,-0.41879117488861084,-0.5159696936607361
292987,9.262192726135254,-0.37703195214271545,3.2707440853118896,0.23693670332431793,-0.9674557447433472,0.002977476455271244,0.6283316612243652,-0.389233261346817,-0.4284321367740631,-0.5197523832321167,9.525074005126953,-0.13434725999832153,-2.2818150520324707,-0.5562822818756104,-0.8386110067367554,0.4128574728965759,0.34465155005455017,-0.6630764007568359,-0.41876718401908875,-0.515925407409668
293153,9.275957107543945,-0.39430302381515503,3.246825933456421,0.5613470673561096,-1.102575421333313,0.14231055974960327,0.6282644867897034,-0.3892862796783447,-0.42854100465774536,-0.519704282283783,9.514732360839844,-0.1381274312734604,-2.303048849105835,-0.4483758807182312,-0.45322948694229126,0.4313754737377167,0.3446120619773865,-0.6631211638450623,-0.41877683997154236,-0.5158864259719849
293320,9.281805038452148,-0.3756400942802429,3.244351863861084,0.7259342670440674,-0.8146247267723083,0.311059832572937,0.628216028213501,-0.3893304765224457,-0.4286104440689087,-0.5196725130081177,9.52647590637207,-0.15851181745529175,-2.298224687576294,-0.4211623966693878,-0.1358625590801239,0.46990975737571716,0.3445734679698944,-0.6631619930267334,-0.4187394678592682,-0.5158901214599609
293487,9.276089668273926,-0.3766183853149414,3.2549774646759033,0.6414123773574829,-0.8394562005996704,0.24773243069648743,0.6281723976135254,-0.38936692476272583,-0.4286918640136719,-0.5196308493614197,9.513569831848145,-0.1480979025363922,-2.2904891967773438,-0.2752852737903595,0.18627475202083588,0.5283067226409912,0.34456369280815125,-0.6631819605827332,-0.4186803102493286,-0.515919029712677
293653,9.2597017288208,-0.39341139793395996,3.26509165763855,0.31264781951904297,-0.5734811425209045,0.05289662256836891,0.6281545162200928,-0.38936564326286316,-0.4287675619125366,-0.5195909142494202,9.517342567443848,-0.14007645845413208,-2.294297933578491,-0.30909407138824463,0.5195728540420532,0.4287373423576355,0.34456315636634827,-0.6631724834442139,-0.4186120927333832,-0.5159870386123657
293820,9.259122848510742,-0.38934916257858276,3.2433087825775146,0.3882692754268646,-0.5319756865501404,0.08214632421731949,0.6280878782272339,-0.3894040584564209,-0.42879948019981384,-0.5196162462234497,9.501240730285645,-0.14061817526817322,-2.277919292449951,-0.3037410080432892,0.7151257395744324,0.3299875855445862,0.34457793831825256,-0.6631332039833069,-0.41855862736701965,-0.5160708427429199
293987,9.285990715026855,-0.3659036457538605,3.252932548522949,0.5632680058479309,-0.4974242150783539,0.18399521708488464,0.6280712485313416,-0.38940462470054626,-0.4288591742515564,-0.5195868611335754,9.501958847045898,-0.1175457313656807,-2.2614495754241943,-0.28748974204063416,0.7858680486679077,0.3372872471809387,0.34459802508354187,-0.6630886793136597,-0.4185018837451935,-0.5161606669425964
294153,9.276745796203613,-0.35842180252075195,3.2335636615753174,0.3527700901031494,-0.37833794951438904,0.13950596749782562,0.6280096173286438,-0.38944289088249207,-0.42886680364608765,-0.5196264386177063,9.483662605285645,-0.1428292691707611,-2.2726004123687744,-0.40621745586395264,0.7200690507888794,0.36437270045280457,0.3446034789085388,-0.6630571484565735,-0.4184364676475525,-0.5162506103515625
294320,9.280186653137207,-0.355485737323761,3.233484983444214,0.3245064616203308,-0.33920177817344666,0.0879732146859169,0.6279578804969788,-0.3894663453102112,-0.4288819432258606,-0.5196586847305298,9.505658149719238,-0.14065521955490112,-2.2666759490966797,-0.35746362805366516,0.7498437166213989,0.4115000069141388,0.34461256861686707,-0.6630281209945679,-0.418362021446228,-0.5163421630859375
294487,9.251161575317383,-0.36731618642807007,3.23634934425354,0.4407753348350525,-0.3101441562175751,0.1965966671705246,0.6279113292694092,-0.3894932270050049,-0.42888858914375305,-0.5196893215179443,9.535039901733398,-0.13964568078517914,-2.259709596633911,-0.21426302194595337,0.8928778767585754,0.55601966381073,0.34465739130973816,-0.6629875898361206,-0.4182812571525574,-0.5164297223091125
294653,9.2680025100708,-0.3799148201942444,3.2428295612335205,0.5361825823783875,-0.19457967579364777,0.08825495839118958,0.627856969833374,-0.38950565457344055,-0.42888927459716797,-0.5197452306747437,9.53399658203125,-0.1277695596218109,-2.267592191696167,-0.209806427359581,1.1136209964752197,0.6201667189598083,0.34472233057022095,-0.6629326343536377,-0.4181860685348511,-0.5165339708328247
294820,9.266829490661621,-0.36519870162010193,3.2450432777404785,0.5015926361083984,0.17928248643875122,0.23999737203121185,0.627869725227356,-0.38947370648384094,-0.4288708567619324,-0.519769012928009,9.542730331420898,-0.12878084182739258,-2.1981136798858643,-0.2193087637424469,1.2869164943695068,0.503231942653656,0.3447583317756653,-0.6628815531730652,-0.4180549085140228,-0.5166816711425781
294987,9.257917404174805,-0.36574944853782654,3.2896387577056885,0.29660144448280334,-0.02566392533481121,0.10718274116516113,0.6278017163276672,-0.389505535364151,-0.4288281202316284,-0.5198624730110168,9.46407699584961,-0.1314743459224701,-2.222130298614502,-0.2115609049797058,1.2893497943878174,0.5135666728019714,0.3448317050933838,-0.6628003716468811,-0.41797131299972534,-0.5168042778968811
295153,9.269572257995605,-0.3594481647014618,3.265885591506958,0.23003405332565308,-0.2514526844024658,0.10136865079402924,0.6277210116386414,-0.3895550072193146,-0.4288056790828705,-0.5199412703514099,9.447399139404297,-0.10779336839914322,-2.2173492908477783,-0.317008376121521,0.6805486083030701,0.4223213791847229,0.34485340118408203,-0.662762463092804,-0.4179230332374573,-0.5168775320053101
295320,9.26093578338623,-0.3620409071445465,3.256075859069824,0.11715887486934662,-0.33063429594039917,0.2167794555425644,0.6276515126228333,-0.3896162211894989,-0.42878589034080505,-0.5199955701828003,9.473576545715332,-0.09941856563091278,-2.20845103263855,-0.5219740271568298,0.26981058716773987,0.3877314329147339,0.3448564112186432,-0.6627399325370789,-0.41792139410972595,-0.5169056057929993
295487,9.271245956420898,-0.3625415861606598,3.2545952796936035,0.14466692507266998,-0.43140748143196106,0.20287175476551056,0.6275691986083984,-0.38968712091445923,-0.42877301573753357,-0.520052433013916,9.525635719299316,-0.11843325942754745,-2.198680877685547,-0.662306010723114,0.1764010637998581,0.32500597834587097,0.34478598833084106,-0.6627669334411621,-0.4178560972213745,-0.5169708728790283
295653,9.258296966552734,-0.3637077212333679,3.242969036102295,0.298996239900589,-0.15009041130542755,0.07031325995922089,0.6275469660758972,-0.38967764377593994,-0.42878732085227966,-0.5200745463371277,9.477679252624512,-0.11362683773040771,-2.1757001876831055,-0.6593989729881287,0.013683583587408066,0.29589712619781494,0.34471142292022705,-0.6627970933914185,-0.41781339049339294,-0.5170164704322815
295820,9.250482559204102,-0.3437557816505432,3.2763102054595947,0.14882899820804596,-0.2581888437271118,0.15413083136081696,0.6275106072425842,-0.3896993398666382,-0.4287915825843811,-0.5200987458229065,9.482990264892578,-0.1415659636259079,-2.217217445373535,-0.6352589130401611,-0.3937055766582489,0.5258479118347168,0.34464699029922485,-0.6628576517105103,-0.41779130697250366,-0.5169996023178101
295987,9.243855476379395,-0.3429940342903137,3.2202672958374023,0.0446237251162529,-0.5901805758476257,0.32701653242111206,0.627460777759552,-0.38976600766181946,-0.4288083016872406,-0.52009516954422,9.500629425048828,-0.16341018676757812,-2.207148313522339,-0.3872639834880829,-0.5967887043952942,0.7655443549156189,0.34459951519966125,-0.6629452109336853,-0.4177592396736145,-0.516944944858551
296153,9.243009567260742,-0.4332107603549957,3.197511672973633,0.7368197441101074,-0.6430964469909668,0.34812140464782715,0.6274433732032776,-0.38977840542793274,-0.42887791991233826,-0.5200493931770325,9.561971664428711,-0.13456843793392181,-2.23742938041687,-0.5341271758079529,-0.5463957786560059,0.6749265789985657,0.34453439712524414,-0.6630303263664246,-0.41772323846817017,-0.5169084668159485
296320,9.30562686920166,-0.3669434189796448,3.280573606491089,0.5727832913398743,-0.7821990847587585,0.04794057458639145,0.6273564100265503,-0.3898218870162964,-0.42894282937049866,-0.5200682878494263,9.5853910446167,-0.1409168839454651,-2.217424154281616,-0.6296882033348083,0.011762632057070732,0.27499714493751526,0.344465047121048,-0.6630529165267944,-0.4176919758319855,-0.5169509649276733
296487,9.287348747253418,-0.31233182549476624,3.3078372478485107,0.15333682298660278,-0.42438966035842896,-0.20413322746753693,0.6272344589233398,-0.3898721933364868,-0.42894670367240906,-0.5201742649078369,9.546013832092285,-0.12798857688903809,-2.218259334564209,-0.5734298825263977,0.5160894989967346,0.4404551684856415,0.34445250034332275,-0.6630370020866394,-0.41763612627983093,-0.5170247554779053
296653,9.239103317260742,-0.36033865809440613,3.2595090866088867,0.08313241600990295,-0.41846027970314026,-0.045731473714113235,0.6271647810935974,-0.38990122079849243,-0.4289693236351013,-0.520217776298523,9.514555931091309,-0.1515541672706604,-2.2105209827423096,-0.4511549174785614,0.7175717949867249,0.479745090007782,0.3444470763206482,-0.663017988204956,-0.4175494909286499,-0.5171226859092712
296820,9.257375717163086,-0.4012615382671356,3.312776565551758,0.29975181818008423,-0.3461044132709503,0.29242658615112305,0.6271096467971802,-0.3899487853050232,-0.42896145582199097,-0.5202553868293762,9.502050399780273,-0.14750108122825623,-2.210151433944702,-0.36377719044685364,0.9315019845962524,0.46451833844184875,0.34447482228279114,-0.662966787815094,-0.417477548122406,-0.5172279477119446
296987,9.254512786865234,-0.3904610276222229,3.3015260696411133,0.4544525146484375,-0.37772324681282043,0.29693442583084106,0.6270363330841064,-0.39000576734542847,-0.428947776556015,-0.5203120708465576,9.493901252746582,-0.12536567449569702,-2.1882946491241455,-0.43261122703552246,0.9951236844062805,0.46468472480773926,0.34449145197868347,-0.6629204154014587,-0.41738682985305786,-0.517349362373352
297153,9.249992370605469,-0.3462022840976715,3.273094892501831,0.5513838529586792,-0.26086536049842834,0.20739242434501648,0.6269999742507935,-0.3900139033794403,-0.4289587140083313,-0.5203407406806946,9.48823070526123,-0.12697018682956696,-2.1758103370666504,-0.43405839800834656,0.823582649230957,0.36004412174224854,0.34449484944343567,-0.6628761291503906,-0.4173218607902527,-0.5174562335014343
297320,9.235748291015625,-0.33522292971611023,3.2877039909362793,0.2590276300907135,-0.1942082643508911,0.025465423241257668,0.6269298791885376,-0.3900378942489624,-0.42894619703292847,-0.5204175710678101,9.478282928466797,-0.12178534269332886,-2.140268087387085,-0.5654003024101257,0.6799210906028748,0.35983920097351074,0.34446999430656433,-0.6628537178039551,-0.4172465205192566,-0.5175622701644897
297487,9.229606628417969,-0.3754228353500366,3.2867772579193115,-0.14471173286437988,-0.3639308512210846,-0.0057244375348091125,0.6268152594566345,-0.3901161849498749,-0.42891359329223633,-0.5205239057540894,9.509400367736816,-0.13608397543430328,-2.1707403659820557,-0.5257390141487122,0.4914500415325165,0.5235427618026733,0.34444236755371094,-0.6628590226173401,-0.417157918214798,-0.5176453590393066
297653,9.226800918579102,-0.3623627722263336,3.2542343139648438,0.4478060007095337,-0.3440297544002533,0.20397312939167023,0.6267955303192139,-0.39011526107788086,-0.42894527316093445,-0.5205221772193909,9.501275062561035,-0.12963393330574036,-2.137577772140503,-0.526725172996521,0.3248266577720642,0.5509355664253235,0.3444259762763977,-0.6628619432449341,-0.4171014428138733,-0.5176979899406433
297820,9.236849784851074,-0.3466525077819824,3.2558648586273193,0.6045557856559753,-0.19682078063488007,0.28560081124305725,0.6267281174659729,-0.3901534080505371,-0.428915798664093,-0.5205991268157959,9.508258819580078,-0.11888743191957474,-2.1663877964019775,-0.49282681941986084,0.21963530778884888,0.4445531964302063,0.34438207745552063,-0.6628769636154175,-0.4170421361923218,-0.5177556872367859
297987,9.250436782836914,-0.3700977563858032,3.2644195556640625,0.15388748049736023,-0.343107670545578,0.12548300623893738,0.6266982555389404,-0.3901633620262146,-0.4289388358592987,-0.5206086039543152,9.51012897491455,-0.12118696421384811,-2.163548469543457,-0.4738989770412445,0.032368045300245285,0.31599026918411255,0.34435003995895386,-0.6628727912902832,-0.417045921087265,-0.5177794098854065
298153,9.252574920654297,-0.34005796909332275,3.2624881267547607,0.34252500534057617,-0.5397748351097107,0.12646910548210144,0.6266241669654846,-0.3902060389518738,-0.4289616346359253,-0.5206469893455505,9.532222747802734,-0.13912877440452576,-2.173976421356201,-0.33562877774238586,-0.07115206867456436,0.1674365997314453,0.3443112373352051,-0.6628617644309998,-0.41707706451416016,-0.5177942514419556
298320,9.271484375,-0.3611437976360321,3.2688071727752686,0.32742631435394287,-0.4979749023914337,0.19106432795524597,0.6265605092048645,-0.3902477025985718,-0.42897847294807434,-0.5206785202026367,9.504644393920898,-0.15007928013801575,-2.172992467880249,-0.12907519936561584,-0.07289373874664307,0.26691633462905884,0.344274640083313,-0.6628657579421997,-0.4170822203159332,-0.5178093910217285
298487,9.278884887695312,-0.3511907160282135,3.2793140411376953,0.5519088506698608,-0.4393730163574219,0.39011338353157043,0.6265146732330322,-0.39028796553611755,-0.42898526787757874,-0.520698070526123,9.433677673339844,-0.1610269695520401,-2.192290782928467,0.09615647792816162,-0.7735676169395447,0.4775039851665497,0.3442336618900299,-0.6629234552383423,-0.4171195328235626,-0.5177327394485474
298653,9.24184513092041,-0.3607180714607239,3.2505507469177246,0.46613192558288574,-0.447172075510025,0.45765411853790283,0.6264753341674805,-0.39033445715904236,-0.4289877414703369,-0.5207086205482483,9.540115356445312,-0.1310528814792633,-2.192159414291382,0.41553401947021484,-0.9597205519676208,0.5503848791122437,0.34419918060302734,-0.6629982590675354,-0.41715893149375916,-0.5176279544830322
298820,9.253082275390625,-0.4152534008026123,3.1706368923187256,0.8340839147567749,-0.720241904258728,0.4591268301010132,0.6264938712120056,-0.3903229832649231,-0.429083913564682,-0.5206153392791748,9.519904136657715,-0.11255576461553574,-2.1935389041900635,0.43327081203460693,-0.6934766173362732,0.34137246012687683,0.3441942036151886,-0.6630165576934814,-0.41724368929862976,-0.517539381980896
298987,9.287055969238281,-0.3340817987918854,3.312523365020752,0.4874545931816101,-0.41889575123786926,0.32262399792671204,0.6264487504959106,-0.3903558850288391,-0.42909449338912964,-0.5206364393234253,9.517074584960938,-0.09495903551578522,-2.249173402786255,0.19849200546741486,-0.5528756976127625,0.24541443586349487,0.344176322221756,-0.663023054599762,-0.4173246920108795,-0.5174776315689087
299153,9.26872444152832,-0.32186222076416016,3.24674916267395,0.39035674929618835,-0.45129573345184326,-0.0034705207217484713,0.6263629198074341,-0.39038604497909546,-0.42911240458488464,-0.5207022428512573,9.502730369567871,-0.09551689773797989,-2.2161002159118652,0.06863562762737274,-0.4180760681629181,0.26039791107177734,0.34414562582969666,-0.6630337834358215,-0.4173766076564789,-0.517442524433136
299320,9.241486549377441,-0.3389122188091278,3.2135839462280273,0.6352781653404236,-0.7044644355773926,0.3577773869037628,0.626320481300354,-0.3904203772544861,-0.4291653335094452,-0.5206838846206665,9.50114917755127,-0.1038566380739212,-2.2422354221343994,-0.07197168469429016,-0.46986499428749084,0.5198801159858704,0.34410902857780457,-0.6630774736404419,-0.41738516092300415,-0.5174040794372559
299487,9.272887229919434,-0.37165531516075134,3.2488484382629395,0.7059435844421387,-0.6005281209945679,0.5530486702919006,0.6263059973716736,-0.39045000076293945,-0.4292055666446686,-0.5206460952758789,9.479921340942383,-0.10151799768209457,-2.226571798324585,-0.14231693744659424,-0.5219612121582031,0.6202818751335144,0.3440692722797394,-0.6631348133087158,-0.41738125681877136,-0.5173601508140564
299653,9.295093536376953,-0.36484140157699585,3.2210230827331543,0.5818629264831543,-0.8938063979148865,0.4985319972038269,0.6262474060058594,-0.3905216455459595,-0.42925477027893066,-0.5206221342086792,9.495079040527344,-0.09947564452886581,-2.2699649333953857,-0.32014593482017517,-0.7535256147384644,0.6230994462966919,0.34400540590286255,-0.6632123589515686,-0.41738566756248474,-0.5172994136810303
299820,9.296272277832031,-0.3128287196159363,3.2002477645874023,0.3219323754310608,-0.48584726452827454,0.3977587819099426,0.6261981129646301,-0.3905743360519409,-0.4292581081390381,-0.5206392407417297,9.49436092376709,-0.08931373059749603,-2.2536206245422363,-0.5275831818580627,-0.6068800687789917,0.4581279456615448,0.3439115285873413,-0.6632843613624573,-0.41737544536590576,-0.5172780156135559
299987,9.258700370788574,-0.32463738322257996,3.213433265686035,0.09620130807161331,-0.2539627254009247,0.42497876286506653,0.6261619329452515,-0.39062342047691345,-0.4292297661304474,-0.5206694006919861,9.506474494934082,-0.10506214201450348,-2.2707018852233887,-0.5816259384155273,-0.3608573079109192,0.3616960942745209,0.34383460879325867,-0.6633221507072449,-0.4173790216445923,-0.5172778367996216
300153,9.277887344360352,-0.3515876531600952,3.2194983959198,0.02251996472477913,-0.051699232310056686,0.3940833508968353,0.6260977983474731,-0.39068979024887085,-0.4291535019874573,-0.5207595825195312,9.525439262390137,-0.13120388984680176,-2.2680020332336426,-0.713441789150238,-0.1308680921792984,0.20695701241493225,0.34374451637268066,-0.663341760635376,-0.4173731207847595,-0.5173173546791077
300320,9.285158157348633,-0.34260427951812744,3.2105042934417725,-0.017775211483240128,0.04618610069155693,0.4413260221481323,0.6260531544685364,-0.3907449245452881,-0.4290721118450165,-0.5208386778831482,9.54372787475586,-0.1409165859222412,-2.260857105255127,-0.5735579133033752,0.35456302762031555,0.1852630376815796,0.34368884563446045,-0.6633209586143494,-0.4173486828804016,-0.5174005627632141
300487,9.293980598449707,-0.3424966335296631,3.239121198654175,0.4171347916126251,0.479155957698822,0.33016687631607056,0.626069188117981,-0.3907058835029602,-0.429004430770874,-0.5209044218063354,9.529726028442383,-0.14765876531600952,-2.254607915878296,-0.2878355383872986,0.7805918455123901,0.1122540682554245,0.34365731477737427,-0.6632680892944336,-0.4173010587692261,-0.51752769947052
300653,9.240068435668945,-0.35830020904541016,3.2651238441467285,0.14677998423576355,0.575088381767273,0.48777467012405396,0.6260989904403687,-0.3906843364238739,-0.4289074242115021,-0.5209646821022034,9.51131820678711,-0.11223690211772919,-2.252673387527466,-0.08772348612546921,0.9542202353477478,0.12418957054615021,0.3436628580093384,-0.6631880402565002,-0.41726669669151306,-0.517654299736023
300820,9.265155792236328,-0.35852909088134766,3.262305736541748,-0.39928919076919556,0.20115573704242706,0.32578712701797485,0.6260619163513184,-0.39073076844215393,-0.4288117587566376,-0.5210531949996948,9.502747535705566,-0.11316802352666855,-2.1902194023132324,-0.06508185714483261,0.9998877048492432,0.058838773518800735,0.34369537234306335,-0.6630771160125732,-0.4172751307487488,-0.5177679657936096
300987,9.296929359436035,-0.35592907667160034,3.2364063262939453,0.0051545556634664536,0.5444298982620239,0.2728072702884674,0.6260676383972168,-0.39070868492126465,-0.4287203550338745,-0.5211381912231445,9.455634117126465,-0.08950522541999817,-2.2194747924804688,-0.02319229580461979,0.953451931476593,0.07293856143951416,0.34369295835494995,-0.6629976034164429,-0.4172395169734955,-0.5179001092910767
301153,9.255967140197754,-0.35751551389694214,3.2454144954681396,0.12832602858543396,0.984174370765686,0.2539435029029846,0.6261143684387207,-0.39063340425491333,-0.4286060631275177,-0.5212324261665344,9.461085319519043,-0.10030188411474228,-2.219555139541626,-0.07636425644159317,0.8270020484924316,-0.012114806100726128,0.3436889946460724,-0.6629108190536499,-0.4172378480434418,-0.5180151462554932
301320,9.247714042663574,-0.34562426805496216,3.220494270324707,0.38127702474594116,0.6953142881393433,0.3348155915737152,0.6261710524559021,-0.3905559778213501,-0.4285380244255066,-0.5212783813476562,9.493103981018066,-0.10292671620845795,-2.2078397274017334,-0.030491916462779045,0.6368405222892761,0.1369446963071823,0.3437022566795349,-0.6628341674804688,-0.41725286841392517,-0.5180923342704773
301487,9.257591247558594,-0.3483513295650482,3.225059747695923,0.47878462076187134,0.8534472584724426,0.345765084028244,0.6261788010597229,-0.39051222801208496,-0.428413063287735,-0.5214046239852905,9.518318176269531,-0.10453745722770691,-2.211817979812622,0.14607562124729156,0.7834732532501221,0.33946430683135986,0.3437305986881256,-0.6627702116966248,-0.41722118854522705,-0.5181810259819031
301653,9.252433776855469,-0.35872840881347656,3.2251205444335938,0.6608269214630127,1.29745614528656,0.5576204657554626,0.6262759566307068,-0.3904017508029938,-0.42827653884887695,-0.5214826464653015,9.568638801574707,-0.10440114885568619,-2.1826367378234863,0.2855752110481262,1.1035808324813843,0.4312986135482788,0.34383881092071533,-0.66264808177948,-0.41722822189331055,-0.518259584903717
301820,9.24877643585205,-0.36834704875946045,3.2736074924468994,0.6441145539283752,1.4179894924163818,0.6781921982765198,0.6264028549194336,-0.39027926325798035,-0.4281320869922638,-0.521540641784668,9.573220252990723,-0.10094849765300751,-2.1842923164367676,0.5125293135643005,1.5360255241394043,0.5851413011550903,0.34396663308143616,-0.6625226140022278,-0.41716447472572327,-0.5183864831924438
301987,9.237046241760254,-0.35478508472442627,3.3161354064941406,0.3713136613368988,1.2163790464401245,0.655576229095459,0.6264786124229431,-0.3902130722999573,-0.4279700517654419,-0.5216321349143982,9.51161003112793,-0.08411905169487,-2.161771297454834,0.48411208391189575,1.5569514036178589,0.7065455913543701,0.34411558508872986,-0.6623932719230652,-0.41710370779037476,-0.518501877784729
302153,9.256338119506836,-0.3716294467449188,3.2974979877471924,-0.04912516102194786,1.0879569053649902,0.5648432970046997,0.6265219449996948,-0.3901835083961487,-0.4277975261211395,-0.5217435956001282,9.48140811920166,-0.09400264173746109,-2.1397790908813477,0.4664648473262787,1.2223724126815796,0.6846722364425659,0.3442213237285614,-0.6623033881187439,-0.4170358180999756,-0.5186010599136353
302320,9.229477882385254,-0.3724769353866577,3.2853968143463135,0.028423696756362915,0.8270276784896851,0.5455185174942017,0.6265742778778076,-0.3901466727256775,-0.4276726543903351,-0.5218107104301453,9.477866172790527,-0.11107438802719116,-2.118034601211548,0.49826300144195557,0.7834732532501221,0.617118775844574,0.3443182706832886,-0.6622246503829956,-0.4170249104499817,-0.5186460614204407
302487,9.240360260009766,-0.36239081621170044,3.265047073364258,0.49518951773643494,0.5387054681777954,0.8235442638397217,0.6266297698020935,-0.3901285231113434,-0.4275730848312378,-0.5218392014503479,9.520103454589844,-0.12662704288959503,-2.1303420066833496,0.5318796634674072,0.22582076489925385,0.7228991985321045,0.34438183903694153,-0.6622006297111511,-0.417020708322525,-0.518638014793396
302653,9.247356414794922,-0.3664112091064453,3.277549982070923,0.6113943457603455,0.5548543334007263,0.7430948615074158,0.6267300844192505,-0.3900570571422577,-0.4275188148021698,-0.5218167304992676,9.506665229797363,-0.11289231479167938,-2.1450629234313965,0.6324992179870605,0.04694167524576187,0.7043043971061707,0.34445369243621826,-0.6621745228767395,-0.41704943776130676,-0.5186004638671875
302820,9.237003326416016,-0.352843701839447,3.2864203453063965,0.6306807398796082,0.5166658163070679,0.7229376435279846,0.6268063187599182,-0.39000362157821655,-0.42745381593704224,-0.5218183398246765,9.448443412780762,-0.10639996081590652,-2.145185947418213,0.6509019136428833,-0.6290608048439026,0.8207654356956482,0.3444909155368805,-0.6622089147567749,-0.4170963764190674,-0.5184941291809082
302987,9.214892387390137,-0.35329878330230713,3.2552056312561035,0.3627590537071228,0.1680385172367096,0.8605930805206299,0.6268155574798584,-0.39004290103912354,-0.42736145853996277,-0.521853506565094,9.440616607666016,-0.13809974491596222,-2.1635115146636963,0.6746063828468323,-1.4956790208816528,1.0176756381988525,0.34448665380477905,-0.6623241901397705,-0.4171612858772278,-0.5182974934577942
303153,9.239928245544434,-0.3911532759666443,3.2356698513031006,0.6913827657699585,-0.1463765650987625,0.8902269601821899,0.6268836259841919,-0.390029639005661,-0.42736542224884033,-0.5217783451080322,9.520200729370117,-0.13699010014533997,-2.1637539863586426,0.8235571980476379,-1.8366739749908447,1.0055354833602905,0.3444714844226837,-0.662458598613739,-0.41725289821624756,-0.5180621147155762
303320,9.298460006713867,-0.37562820315361023,3.2231898307800293,0.8559444546699524,-0.22289453446865082,0.8612335324287415,0.6269655227661133,-0.3899959325790405,-0.4273993670940399,-0.5216773152351379,9.568662643432617,-0.12820720672607422,-2.1889493465423584,0.7366275191307068,-1.6393789052963257,0.7210165858268738,0.34443020820617676,-0.662571132183075,-0.41734516620635986,-0.517871081829071
303487,9.272150993347168,-0.34567975997924805,3.30454421043396,0.5789045691490173,-0.08885045349597931,0.5869213342666626,0.626995861530304,-0.3899798095226288,-0.4273981750011444,-0.5216540098190308,9.57344913482666,-0.13826075196266174,-2.2171292304992676,0.6659878492355347,-1.17961847782135,0.6923049092292786,0.3444301187992096,-0.6626330614089966,-0.4174407422542572,-0.5177147388458252
303653,9.250371932983398,-0.34984248876571655,3.2839953899383545,0.43757376074790955,-0.14293166995048523,0.6663335561752319,0.6270137429237366,-0.38999077677726746,-0.42738163471221924,-0.5216379165649414,9.524374961853027,-0.12948381900787354,-2.213487148284912,0.7745599746704102,-0.6503832936286926,0.773612380027771,0.3444760739803314,-0.6626572012901306,-0.4175059199333191,-0.5176008343696594
303820,9.235355377197266,-0.37360960245132446,3.312655210494995,0.48612260818481445,-0.14635096490383148,0.798098087310791,0.6270390748977661,-0.3900096118450165,-0.42735788226127625,-0.521612823009491,9.495205879211426,-0.12008126825094223,-2.228222370147705,0.6986568570137024,-0.34136608242988586,0.848529577255249,0.3445361256599426,-0.6626684069633484,-0.4175395369529724,-0.5175194144248962
303987,9.243509292602539,-0.4008098542690277,3.316551685333252,0.5567752718925476,-0.013497890904545784,0.9608795642852783,0.6270763278007507,-0.3900323808193207,-0.4273081123828888,-0.5215915441513062,9.55392837524414,-0.11141225695610046,-2.20595383644104,0.6081030964851379,-0.09393458068370819,0.840948224067688,0.344598650932312,-0.6626676917076111,-0.41755035519599915,-0.5174699425697327
304153,9.245561599731445,-0.3719293177127838,3.3119583129882812,0.598434329032898,-0.17101599276065826,0.6987977027893066,0.6270983815193176,-0.39003700017929077,-0.4272996187210083,-0.5215687155723572,9.529245376586914,-0.11454133689403534,-2.2218074798583984,0.4004993736743927,0.42051568627357483,0.6950325965881348,0.34466710686683655,-0.6626244783401489,-0.4175424575805664,-0.5174859762191772
304320,9.2276611328125,-0.3319362699985504,3.3264307975769043,0.40541699528694153,0.08659012615680695,0.6646559238433838,0.6271286606788635,-0.3900328576564789,-0.4272587299346924,-0.5215688347816467,9.532100677490234,-0.115260049700737,-2.219123363494873,0.13538233935832977,0.6166961789131165,0.6416558027267456,0.34471896290779114,-0.662575364112854,-0.41751188039779663,-0.5175390243530273
304487,9.218478202819824,-0.346516877412796,3.309739589691162,0.514757513999939,-0.1342233270406723,0.7005393505096436,0.6271475553512573,-0.3900424838066101,-0.4272392988204956,-0.5215548872947693,9.516945838928223,-0.13676707446575165,-2.2093935012817383,0.04751795902848244,1.0032174587249756,0.6992715001106262,0.3447956442832947,-0.6625000238418579,-0.41745802760124207,-0.5176278352737427
304653,9.256243705749512,-0.38981375098228455,3.273052215576172,0.37740954756736755,0.04185755178332329,0.7236036062240601,0.6271834969520569,-0.39004185795783997,-0.4272015392780304,-0.521543025970459,9.515000343322754,-0.1432611048221588,-2.1976065635681152,-0.007466101553291082,0.9077332019805908,0.7854325771331787,0.34488925337791443,-0.6624230742454529,-0.41742390394210815,-0.5176914930343628
304820,9.230761528015137,-0.3773042559623718,3.2849929332733154,0.4274311065673828,0.1587667018175125,0.7627397775650024,0.6272030472755432,-0.39005497097969055,-0.4271320104598999,-0.5215665102005005,9.479667663574219,-0.13024628162384033,-2.2040581703186035,-0.004149257205426693,0.7805790305137634,0.8115959763526917,0.34494122862815857,-0.6623855233192444,-0.41734734177589417,-0.517766535282135
304987,9.22586727142334,-0.3733953833580017,3.291240692138672,0.30224907398223877,0.18924583494663239,0.6719171404838562,0.6272177696228027,-0.3900655210018158,-0.4270607829093933,-0.5215994715690613,9.513876914978027,-0.13516850769519806,-2.195384979248047,-0.1663544923067093,0.5579919219017029,0.6930220723152161,0.34495335817337036,-0.6623665690422058,-0.417279988527298,-0.5178370475769043
305153,9.258296012878418,-0.3812845051288605,3.291966676712036,0.2811570167541504,0.15372101962566376,0.5652018189430237,0.6272372007369995,-0.39006057381629944,-0.42700931429862976,-0.5216220021247864,9.525163650512695,-0.1402338147163391,-2.185166358947754,-0.13430018723011017,0.28996777534484863,0.5745248198509216,0.34497684240341187,-0.6623327732086182,-0.41728249192237854,-0.5178626179695129
305320,9.277880668640137,-0.3860549032688141,3.264641523361206,0.47190752625465393,0.3132753372192383,0.48164045810699463,0.6272580027580261,-0.3900313377380371,-0.4269525706768036,-0.5216651558876038,9.497262001037598,-0.14037686586380005,-2.1733505725860596,-0.1243240237236023,0.2400486022233963,0.4007682800292969,0.3449532091617584,-0.6623163223266602,-0.41726455092430115,-0.517913818359375
305487,9.26740837097168,-0.3708813488483429,3.306415319442749,0.674708902835846,0.31097012758255005,0.4985191226005554,0.6273224949836731,-0.38995927572250366,-0.42693421244621277,-0.5216563940048218,9.461206436157227,-0.1596311628818512,-2.199070692062378,0.12348522245883942,-0.28328925371170044,0.5736411809921265,0.344931423664093,-0.6623390913009644,-0.4172719419002533,-0.5178931951522827
305654,9.261828422546387,-0.38199570775032043,3.285968780517578,0.7735739946365356,0.3125581741333008,0.7942306995391846,0.6274319291114807,-0.3898822069168091,-0.42691943049430847,-0.5215945243835449,9.545816421508789,-0.16405850648880005,-2.1844260692596436,0.3641677498817444,-0.3613055348396301,0.6179255843162537,0.34492629766464233,-0.6623626351356506,-0.4172901511192322,-0.5178519487380981
305820,9.247697830200195,-0.42665189504623413,3.215428113937378,0.7198642492294312,0.07670363038778305,0.6466758847236633,0.6274908185005188,-0.3898366093635559,-0.42691394686698914,-0.5215622782707214,9.530009269714355,-0.1349267214536667,-2.170353651046753,0.5015414357185364,-0.2175542563199997,0.43319398164749146,0.3449360132217407,-0.6623519062995911,-0.4173380434513092,-0.5178207159042358
305987,9.272980690002441,-0.37480083107948303,3.3393478393554688,0.6530534625053406,0.18787555396556854,0.42858368158340454,0.6275095343589783,-0.38979774713516235,-0.42688533663749695,-0.5215921401977539,9.557238578796387,-0.10524418205022812,-2.191499948501587,0.30427244305610657,-0.03853430226445198,0.19572584331035614,0.34492337703704834,-0.6623201370239258,-0.4173893630504608,-0.5178282856941223
306154,9.242757797241211,-0.35992735624313354,3.2562618255615234,0.7204659581184387,-0.0460004024207592,0.2513437867164612,0.6275121569633484,-0.3897523581981659,-0.42689943313598633,-0.5216115117073059,9.522163391113281,-0.11607653647661209,-2.2298331260681152,0.2652771472930908,0.2059709131717682,0.13912177085876465,0.3449203372001648,-0.6622657179832458,-0.4174354672431946,-0.5178627967834473
306320,9.25536823272705,-0.3636780083179474,3.2934582233428955,0.8379257917404175,-0.3113991916179657,0.21186183393001556,0.6274746060371399,-0.38973644375801086,-0.42692819237709045,-0.5216450095176697,9.490671157836914,-0.08669084310531616,-2.215757131576538,0.14085063338279724,0.021149683743715286,0.2139364629983902,0.34489530324935913,-0.6622396111488342,-0.41746848821640015,-0.5178861021995544
306487,9.260079383850098,-0.38591209053993225,3.294132709503174,0.8723493218421936,0.11802971363067627,0.3722101151943207,0.6275365948677063,-0.3896459639072418,-0.4269562065601349,-0.5216150879859924,9.48205280303955,-0.08307886868715286,-2.215167284011841,-0.04254268854856491,-0.03574252128601074,0.2923497259616852,0.3448718786239624,-0.6622176170349121,-0.41750669479370117,-0.5178990960121155
306654,9.256158828735352,-0.38134410977363586,3.274348020553589,1.1656917333602905,-0.3788246512413025,0.625481367111206,0.6275746822357178,-0.38960567116737366,-0.4270157516002655,-0.5215506553649902,9.494268417358398,-0.09017764031887054,-2.222662925720215,-0.2951992154121399,-0.12915204465389252,0.3620931804180145,0.3448196351528168,-0.6622223854064941,-0.41751930117607117,-0.5179176926612854
306820,9.254727363586426,-0.34364616870880127,3.283224582672119,1.0321725606918335,-0.22590400278568268,0.40808072686195374,0.6276183724403381,-0.3895360231399536,-0.4270787835121155,-0.5214985013008118,9.482885360717773,-0.0874740332365036,-2.22511625289917,-0.5208982229232788,-0.44107627868652344,0.44911232590675354,0.3447248339653015,-0.6622733473777771,-0.41751226782798767,-0.5179212093353271
306987,9.248111724853516,-0.3276735544204712,3.2578282356262207,0.7483454942703247,-0.14629973471164703,0.33514857292175293,0.6276002526283264,-0.3895187973976135,-0.42708298563957214,-0.5215297341346741,9.495867729187012,-0.10927268117666245,-2.2246181964874268,-0.7188076376914978,-0.528658926486969,0.5057035684585571,0.34459659457206726,-0.6623542308807373,-0.4174731969833374,-0.5179345011711121
307154,9.25695514678955,-0.37197208404541016,3.25091552734375,0.4699738621711731,-0.04840800166130066,0.36619120836257935,0.6275938749313354,-0.3895048499107361,-0.4270707964897156,-0.5215578675270081,9.502655029296875,-0.12513263523578644,-2.23821759223938,-0.7668442130088806,-0.4580959975719452,0.586037814617157,0.3444899916648865,-0.6624253392219543,-0.4174387753009796,-0.5179423093795776
307320,9.255160331726074,-0.35037532448768616,3.2582645416259766,0.43709996342658997,-0.14295728504657745,0.4021385908126831,0.6275954246520996,-0.3894928991794586,-0.427072674036026,-0.5215632319450378,9.538803100585938,-0.13222643733024597,-2.241461753845215,-0.5861338376998901,-0.27633538842201233,0.7157660722732544,0.3444124758243561,-0.6624875664710999,-0.41738688945770264,-0.5179560780525208
307487,9.30383586883545,-0.349914014339447,3.283247947692871,0.47273996472358704,0.10554352402687073,0.41582855582237244,0.627630889415741,-0.38944706320762634,-0.42706549167633057,-0.5215607285499573,9.535305976867676,-0.15781088173389435,-2.2354729175567627,-0.32867491245269775,0.1432582288980484,0.7530709505081177,0.3443944454193115,-0.6625024676322937,-0.41733837127685547,-0.5179881453514099
307654,9.264826774597168,-0.3793497681617737,3.308091878890991,0.2392546385526657,0.4422609210014343,0.41372835636138916,0.6276636719703674,-0.3894047439098358,-0.4270029664039612,-0.5216041803359985,9.495549201965332,-0.14712874591350555,-2.250897169113159,-0.07516046613454819,0.3305894732475281,0.7009875178337097,0.34439995884895325,-0.6624943614006042,-0.4172933101654053,-0.5180312395095825
307820,9.238533973693848,-0.3828577995300293,3.2843639850616455,0.2873680591583252,0.42134809494018555,0.4237428307533264,0.6276968717575073,-0.3893614113330841,-0.42694413661956787,-0.5216447114944458,9.485335350036621,-0.14396022260189056,-2.21995210647583,0.06443513929843903,0.1999519318342209,0.4974178075790405,0.344410240650177,-0.6624656319618225,-0.41730380058288574,-0.5180527567863464
307987,9.233817100524902,-0.3715178668498993,3.341432809829712,-0.618393063545227,-0.08794119954109192,0.18663333356380463,0.6276001334190369,-0.38944876194000244,-0.42685434222221375,-0.5217694044113159,9.52206039428711,-0.110726498067379,-2.21681547164917,0.06689397990703583,0.25848978757858276,0.37865176796913147,0.3444078266620636,-0.6624311208724976,-0.4173131287097931,-0.5180908441543579
308154,9.25704288482666,-0.36315637826919556,3.281797170639038,-0.95111483335495,-0.26475849747657776,0.06305206567049026,0.6274417638778687,-0.3895900249481201,-0.4267452359199524,-0.5219434499740601,9.536096572875977,-0.11712794005870819,-2.201885223388672,0.054676707834005356,0.44363120198249817,0.3275544345378876,0.3444163501262665,-0.6623757481575012,-0.4173244833946228,-0.5181467533111572
308320,9.295567512512207,-0.3621981739997864,3.2832553386688232,0.019139090552926064,0.41351062059402466,0.21391084790229797,0.6274212002754211,-0.3895767629146576,-0.42666158080101013,-0.5220463871955872,9.546309471130371,-0.1061418354511261,-2.1884779930114746,0.1708815097808838,0.6906656622886658,0.40062740445137024,0.34445053339004517,-0.6623048186302185,-0.41731804609298706,-0.5182199478149414
308487,9.249369621276855,-0.40257495641708374,3.30206561088562,0.49969732761383057,1.0172659158706665,0.4385470151901245,0.6274754405021667,-0.38949331641197205,-0.4265415370464325,-0.5221415162086487,9.53456974029541,-0.11567400395870209,-2.211008071899414,0.21697156131267548,1.0749585628509521,0.44594913721084595,0.3445471525192261,-0.6621803045272827,-0.41733211278915405,-0.5183035135269165
308654,9.213079452514648,-0.3764421045780182,3.3026857376098633,0.7635337114334106,0.8469542860984802,0.6043251752853394,0.6275747418403625,-0.3893859088420868,-0.4264689087867737,-0.5221616625785828,9.542887687683105,-0.1168007180094719,-2.179328441619873,0.1644783467054367,1.3613084554672241,0.6199233531951904,0.3446292281150818,-0.6620780825614929,-0.41726091504096985,-0.5184367895126343
308820,9.242785453796387,-0.3578352630138397,3.3263742923736572,0.8752179741859436,0.6266083121299744,0.5733338594436646,0.6276630759239197,-0.38928425312042236,-0.42642533779144287,-0.5221669673919678,9.520719528198242,-0.1166335940361023,-2.1794021129608154,0.21898216009140015,1.5952037572860718,0.7792087197303772,0.34475943446159363,-0.661952793598175,-0.4171868860721588,-0.5185697674751282
308987,9.250571250915527,-0.3771933317184448,3.337498664855957,0.817730188369751,1.066429615020752,0.6744399666786194,0.6277927756309509,-0.38915249705314636,-0.42633891105651855,-0.5221798419952393,9.531493186950684,-0.12397810071706772,-2.151215076446533,0.185288667678833,1.5261006355285645,0.7188908457756042,0.34487470984458923,-0.6618326306343079,-0.41711634397506714,-0.5187033414840698
309154,9.198590278625488,-0.39267030358314514,3.3479340076446533,0.5523058772087097,0.9185802936553955,0.5468759536743164,0.627856969833374,-0.3890736699104309,-0.42622920870780945,-0.5222508311271667,9.529738426208496,-0.12075141817331314,-2.1497437953948975,0.2066880613565445,1.4235090017318726,0.6251099109649658,0.34496572613716125,-0.6617231369018555,-0.41704508662223816,-0.5188397169113159
309320,9.2208251953125,-0.3627990782260895,3.345763683319092,0.016693076118826866,0.38300588726997375,0.3456113040447235,0.6278398036956787,-0.3890744149684906,-0.42613643407821655,-0.5223468542098999,9.515854835510254,-0.10843861103057861,-2.1163487434387207,0.1369318813085556,1.217685341835022,0.586332380771637,0.34503743052482605,-0.6616281270980835,-0.4169861078262329,-0.5189607739448547
309487,9.243826866149902,-0.35383710265159607,3.331526756286621,-0.03220796585083008,0.35054177045822144,0.33954113721847534,0.6278474926948547,-0.38905683159828186,-0.42606568336486816,-0.5224081873893738,9.467204093933105,-0.10671402513980865,-2.122368097305298,0.0028622192330658436,0.6921128034591675,0.46942317485809326,0.34504806995391846,-0.661577582359314,-0.4169454276561737,-0.519050657749176
309654,9.239320755004883,-0.35502439737319946,3.315737724304199,0.38709110021591187,0.3090108036994934,0.542841911315918,0.6278836727142334,-0.38902318477630615,-0.4260130524635315,-0.5224326848983765,9.483089447021484,-0.11420975625514984,-2.1164567470550537,-0.1347227841615677,0.03129231557250023,0.5328530073165894,0.34502774477005005,-0.6615738272666931,-0.4169436991214752,-0.5190703272819519
309820,9.211058616638184,-0.36692243814468384,3.289470672607422,0.5133616924285889,0.005269812885671854,0.4679887592792511,0.627876877784729,-0.3890170753002167,-0.42598286271095276,-0.5224700570106506,9.521219253540039,-0.11937379837036133,-2.1004281044006348,-0.16997869312763214,-0.36152327060699463,0.5438152551651001,0.3449709415435791,-0.6616095304489136,-0.4169456958770752,-0.5190609693527222
309987,9.242049217224121,-0.3641948103904724,3.3184220790863037,0.6648352146148682,-0.10918693244457245,0.5818372368812561,0.6279042363166809,-0.3889932930469513,-0.42598631978034973,-0.5224521160125732,9.551198959350586,-0.13139717280864716,-2.1272387504577637,-0.20537543296813965,-0.30543145537376404,0.6456385254859924,0.3449177145957947,-0.6616520881652832,-0.41692668199539185,-0.5190573334693909
310154,9.256450653076172,-0.35710394382476807,3.3241162300109863,0.9319500923156738,0.29516714811325073,0.5320205688476562,0.627974271774292,-0.3889061510562897,-0.42598074674606323,-0.5224375128746033,9.480834007263184,-0.13506628572940826,-2.1454381942749023,-0.042721979320049286,-0.27268558740615845,0.7798874974250793,0.3448972702026367,-0.6616876721382141,-0.4169121980667114,-0.5190371870994568
310320,9.212057113647461,-0.35596808791160583,3.373366594314575,0.5779826641082764,0.44940686225891113,0.5009012222290039,0.6280086636543274,-0.3888557553291321,-0.4259190559387207,-0.5224838852882385,9.502059936523438,-0.15392112731933594,-2.1534957885742188,0.12810832262039185,-0.7607483863830566,0.9213465452194214,0.3448646664619446,-0.6617671251296997,-0.416909784078598,-0.5189594030380249
310487,9.16983413696289,-0.4039761424064636,3.2886130809783936,0.5059084296226501,-0.29595473408699036,0.6558323502540588,0.6280343532562256,-0.3888540267944336,-0.4259331524372101,-0.5224428772926331,9.540960311889648,-0.14069432020187378,-2.1604506969451904,0.33700549602508545,-0.8283531069755554,0.8403206467628479,0.3448580801486969,-0.6618250012397766,-0.4169526696205139,-0.5188555717468262
310654,9.23032283782959,-0.41835522651672363,3.2705576419830322,1.1003921031951904,-0.6027052402496338,0.5853718519210815,0.6280167698860168,-0.3888593018054962,-0.42598509788513184,-0.5224176645278931,9.581582069396973,-0.11000771075487137,-2.1614060401916504,0.19367681443691254,-0.539621114730835,0.3395923376083374,0.34482541680336,-0.6618316173553467,-0.4170284569263458,-0.5188079476356506
310820,9.300516128540039,-0.3281775414943695,3.3761675357818604,0.9442824125289917,-0.5730329155921936,0.22571830451488495,0.6279831528663635,-0.3888399302959442,-0.426056444644928,-0.5224142670631409,9.564787864685059,-0.14131741225719452,-2.1662912368774414,0.11950244754552841,-0.07682529091835022,0.12144900858402252,0.3447825610637665,-0.66180419921875,-0.41707921028137207,-0.5188305974006653
310987,9.20035457611084,-0.3220946788787842,3.3532485961914062,0.7546334862709045,-0.11757510155439377,0.10435254871845245,0.6279866099357605,-0.38877204060554504,-0.42610034346580505,-0.5224248766899109,9.535120010375977,-0.12818557024002075,-2.169609785079956,0.15217144787311554,0.10154794901609421,0.26162731647491455,0.3447735607624054,-0.6617636680603027,-0.41712045669555664,-0.518855094909668
311154,9.199342727661133,-0.3724278211593628,3.3328983783721924,1.2813585996627808,-0.5461011528968811,0.5132336616516113,0.6280375719070435,-0.38870295882225037,-0.4262099862098694,-0.5223255753517151,9.524949073791504,-0.12116905301809311,-2.1957662105560303,0.22818993031978607,0.24223850667476654,0.3905872404575348,0.3447815477848053,-0.6617227792739868,-0.41713783144950867,-0.5188881158828735
311320,9.266172409057617,-0.4225969910621643,3.337998390197754,1.426403284072876,-0.5100640654563904,0.6915364265441895,0.6280863881111145,-0.38864976167678833,-0.42629775404930115,-0.5222348570823669,9.521220207214355,-0.08986654132604599,-2.1674246788024902,0.12293456494808197,0.4293520748615265,0.40370097756385803,0.3448043167591095,-0.6616641879081726,-0.41715237498283386,-0.518936038017273
311487,9.257023811340332,-0.37011685967445374,3.354755163192749,1.432370901107788,-0.3128334879875183,0.625045895576477,0.6281647086143494,-0.38855934143066406,-0.4263876974582672,-0.5221344232559204,9.52077579498291,-0.06884199380874634,-2.1635804176330566,-0.11494980752468109,0.5761256814002991,0.49125799536705017,0.3448199927806854,-0.6616111993789673,-0.41713380813598633,-0.5190080404281616
311654,9.22268009185791,-0.31667450070381165,3.3603360652923584,1.2776062488555908,0.1432582288980484,0.42868614196777344,0.6282545924186707,-0.3884306848049164,-0.4264403283596039,-0.5220790505409241,9.513019561767578,-0.08314593881368637,-2.1496901512145996,-0.50631183385849,0.7217594385147095,0.4551953077316284,0.3448096513748169,-0.66156005859375,-0.4170890152454376,-0.5191159248352051
311820,9.209457397460938,-0.3343554437160492,3.3444862365722656,0.7477691769599915,-0.312641441822052,0.29040324687957764,0.628227174282074,-0.3884151577949524,-0.42646607756614685,-0.5221025943756104,9.512853622436523,-0.09808620065450668,-2.1309919357299805,-0.6575676202774048,0.6901533603668213,0.5137843489646912,0.3447742462158203,-0.6615318655967712,-0.41701358556747437,-0.5192359685897827
311987,9.237970352172852,-0.38514444231987,3.339787483215332,0.7629190683364868,-0.3137683570384979,0.39665743708610535,0.628256618976593,-0.3883659541606903,-0.4265226423740387,-0.5220575928688049,9.494088172912598,-0.14129579067230225,-2.170790672302246,-0.5281594395637512,0.5993947386741638,0.7210679054260254,0.3447701632976532,-0.6615095734596252,-0.4169435203075409,-0.5193233489990234
312154,9.216647148132324,-0.3689019978046417,3.313304901123047,0.9222043752670288,-0.056642480194568634,0.5174084901809692,0.6283199191093445,-0.38829055428504944,-0.42656058073043823,-0.5220065116882324,9.503168106079102,-0.1427178531885147,-2.154001474380493,-0.18388637900352478,0.2991371154785156,0.765531599521637,0.34477198123931885,-0.661504864692688,-0.41689494252204895,-0.5193671584129333
312320,9.207733154296875,-0.35083502531051636,3.2877378463745117,1.029765009880066,-0.18681903183460236,0.6221004128456116,0.6283652782440186,-0.3882408142089844,-0.42659491300582886,-0.5219607353210449,9.510929107666016,-0.13685789704322815,-2.157890558242798,-0.05537465587258339,0.12771132588386536,0.7462324500083923,0.34478214383125305,-0.6614997982978821,-0.4168757498264313,-0.5193822979927063
312487,9.241864204406738,-0.36954736709594727,3.291322946548462,0.6388511657714844,-0.2141990214586258,0.4785156846046448,0.6283688545227051,-0.3882259130477905,-0.42660489678382874,-0.5219594240188599,9.559154510498047,-0.12204878777265549,-2.1702818870544434,0.14638295769691467,0.12039889395236969,0.6172468066215515,0.34479936957359314,-0.6614793539047241,-0.4168812930583954,-0.5193926095962524
312654,9.248661994934082,-0.3741714060306549,3.306511163711548,0.46652886271476746,0.1623268574476242,0.45522090792655945,0.6283869743347168,-0.38819414377212524,-0.42657122015953064,-0.5219887495040894,9.557332038879395,-0.12521731853485107,-2.1531200408935547,0.3249163031578064,0.18133150041103363,0.3774223327636719,0.3448145091533661,-0.6614336967468262,-0.4169155955314636,-0.5194130539894104
312820,9.237893104553223,-0.3582156002521515,3.3317513465881348,0.6944434642791748,0.09497828781604767,0.4684498608112335,0.6284257173538208,-0.3881385624408722,-0.42656847834587097,-0.5219855904579163,9.499307632446289,-0.13484089076519012,-2.145066261291504,0.4300564229488373,0.23542551696300507,0.4285580515861511,0.3448651134967804,-0.6613684296607971,-0.4169718027114868,-0.5194175243377686
312987,9.262056350708008,-0.34806981682777405,3.3417131900787354,0.7791063189506531,-0.028583772480487823,0.4589475691318512,0.6284597516059875,-0.38808485865592957,-0.4265832006931305,-0.5219724178314209,9.466182708740234,-0.14786577224731445,-2.1651721000671387,0.6237781047821045,-0.368003249168396,0.6192189455032349,0.34489041566848755,-0.6613667011260986,-0.4170280694961548,-0.5193576812744141
313154,9.214107513427734,-0.360202819108963,3.3154408931732178,0.07137617468833923,-0.2746577560901642,0.6515933871269226,0.628433346748352,-0.38814255595207214,-0.42654097080230713,-0.5219958424568176,9.52414321899414,-0.125105619430542,-2.1584153175354004,0.7998014688491821,-0.6481293439865112,0.8525251746177673,0.34493693709373474,-0.6613889932632446,-0.41709333658218384,-0.5192459225654602
313320,9.229385375976562,-0.4244837462902069,3.2564961910247803,0.325735867023468,-0.759698212146759,0.5235555768013,0.6283783316612244,-0.3882083296775818,-0.4265671968460083,-0.5219917297363281,9.500951766967773,-0.09539523720741272,-2.1573917865753174,0.6708926558494568,-0.8341672420501709,0.7420191168785095,0.34494003653526306,-0.6614332795143127,-0.4171556830406189,-0.5191373825073242
313487,9.28697395324707,-0.34583353996276855,3.3383822441101074,0.10118936747312546,-0.5122667551040649,0.410180926322937,0.6283172369003296,-0.3882693946361542,-0.42656010389328003,-0.5220257639884949,9.534984588623047,-0.08067122101783752,-2.2088258266448975,0.2446461170911789,-0.9609628915786743,0.555008053779602,0.34489259123802185,-0.6614880561828613,-0.4172249436378479,-0.5190436244010925
313654,9.265674591064453,-0.3430941700935364,3.2908473014831543,0.15802395343780518,-0.3809376657009125,0.18846465647220612,0.6282597780227661,-0.38829392194747925,-0.4265648126602173,-0.5220727920532227,9.51529598236084,-0.10596860945224762,-2.193284273147583,0.024197597056627274,-0.8026123642921448,0.3561125695705414,0.344820111989975,-0.6615281701087952,-0.4172915816307068,-0.5189868211746216
313820,9.24189567565918,-0.32272768020629883,3.2884836196899414,0.3374408781528473,-0.3787989914417267,0.37493786215782166,0.6282321214675903,-0.3883090317249298,-0.4265766441822052,-0.5220851302146912,9.517930030822754,-0.11470027267932892,-2.220032215118408,-0.21049796044826508,-0.7630663514137268,0.41564929485321045,0.34472429752349854,-0.6615862846374512,-0.41732391715049744,-0.518950343132019
313987,9.27645492553711,-0.36590465903282166,3.275491237640381,0.4550672173500061,-0.5626726150512695,0.5466325879096985,0.6281735897064209,-0.38836869597435,-0.4265764653682709,-0.5221112966537476,9.504096984863281,-0.12424028664827347,-2.2089672088623047,-0.23009167611598969,-0.715887725353241,0.5511916875839233,0.34463247656822205,-0.6616554260253906,-0.4173310697078705,-0.518917441368103
314154,9.27101993560791,-0.3747939467430115,3.313430070877075,0.5209559202194214,-0.38909533619880676,0.5679423809051514,0.6282027363777161,-0.38835370540618896,-0.42661693692207336,-0.5220544338226318,9.50975513458252,-0.12761226296424866,-2.2304847240448,-0.19177508354187012,-0.7429219484329224,0.6394274234771729,0.34456124901771545,-0.6617211699485779,-0.4173486530780792,-0.518866777420044
314320,9.22506332397461,-0.3364499509334564,3.2790462970733643,0.48692941665649414,-0.4429588317871094,0.5644206404685974,0.6281865239143372,-0.3883777856826782,-0.42663049697875977,-0.5220450162887573,9.520173072814941,-0.10338277369737625,-2.223588705062866,-0.27423515915870667,-0.588528573513031,0.8111221790313721,0.34451180696487427,-0.6617841124534607,-0.41734522581100464,-0.5188220739364624
314487,9.258421897888184,-0.3341357707977295,3.296626567840576,0.0454433336853981,-0.49983179569244385,0.45402994751930237,0.6281441450119019,-0.38843056559562683,-0.4266301989555359,-0.5220567584037781,9.53744888305664,-0.11398477852344513,-2.2107293605804443,-0.3836013972759247,-0.4063710868358612,0.6738637089729309,0.3444580137729645,-0.6618265509605408,-0.41734442114830017,-0.5188044905662537
314654,9.237238883972168,-0.3500676155090332,3.3201000690460205,-0.26347780227661133,-0.4104050397872925,0.31771907210350037,0.6280847191810608,-0.3884921669960022,-0.4266100525856018,-0.5220988392829895,9.555171966552734,-0.12782438099384308,-2.2273905277252197,-0.46434539556503296,-0.002881428459659219,0.5691845417022705,0.3444051444530487,-0.6618424654006958,-0.41731730103492737,-0.5188411474227905
314820,9.244656562805176,-0.36753755807876587,3.2728805541992188,-0.11507785320281982,-0.358308881521225,0.3545885980129242,0.6280312538146973,-0.38854533433914185,-0.4265882074832916,-0.5221415162086487,9.5557222366333,-0.14721080660820007,-2.205085515975952,-0.36510905623435974,0.3036705553531647,0.4977763891220093,0.34438443183898926,-0.6618181467056274,-0.4173019528388977,-0.5188981890678406
314987,9.250024795532227,-0.3700230121612549,3.3080453872680664,0.08638522773981094,-0.027392780408263206,0.4313242435455322,0.6280143857002258,-0.38856083154678345,-0.42654627561569214,-0.5221845507621765,9.521873474121094,-0.1326737105846405,-2.185338020324707,-0.150461807847023,0.5974225997924805,0.5299075841903687,0.34438425302505493,-0.6617782711982727,-0.41726019978523254,-0.5189825892448425
315154,9.251434326171875,-0.3794998526573181,3.3503732681274414,0.0447261780500412,-0.27310821413993835,0.48272889852523804,0.6280316710472107,-0.3885638117790222,-0.42655572295188904,-0.5221538543701172,9.512097358703613,-0.14187829196453094,-2.18472957611084,0.07363010942935944,0.6654370427131653,0.5069072842597961,0.3444182574748993,-0.661713182926178,-0.417246550321579,-0.5190542340278625
315320,9.264585494995117,-0.3726802170276642,3.325883150100708,-0.058256085962057114,-0.3399445414543152,0.2960251569747925,0.628003716468811,-0.388586163520813,-0.42655861377716064,-0.5221685767173767,9.508065223693848,-0.14078843593597412,-2.1936306953430176,0.17449291050434113,0.721733808517456,0.5754469037055969,0.34445902705192566,-0.6616518497467041,-0.41721630096435547,-0.5191295146942139
315487,9.249979019165039,-0.38143113255500793,3.305602550506592,0.1824328750371933,-0.028635000810027122,0.44729381799697876,0.6279918551445007,-0.38859495520591736,-0.4265219569206238,-0.5222062468528748,9.514440536499023,-0.12263716757297516,-2.184433698654175,0.27609845995903015,0.6780129075050354,0.5147832036018372,0.34450921416282654,-0.6615797877311707,-0.4172103703022003,-0.5191928148269653
315654,9.247674942016602,-0.3634571135044098,3.3018014430999756,0.29040321707725525,0.07948261499404907,0.4417998790740967,0.6280075907707214,-0.38857322931289673,-0.42649513483047485,-0.5222253799438477,9.531466484069824,-0.1333749145269394,-2.1624834537506104,0.36893171072006226,0.745169460773468,0.5754725337028503,0.34458789229393005,-0.6614937782287598,-0.41721516847610474,-0.5192463397979736
315820,9.250171661376953,-0.35290729999542236,3.305595636367798,0.10708029568195343,0.11960490047931671,0.47231733798980713,0.6279997229576111,-0.3885815143585205,-0.42643576860427856,-0.5222770571708679,9.527504920959473,-0.11330195516347885,-2.146806240081787,0.27234625816345215,0.9872863292694092,0.4805903136730194,0.3446498215198517,-0.6613996624946594,-0.41719165444374084,-0.5193439722061157
315987,9.230286598205566,-0.3622765839099884,3.3139536380767822,0.2710784077644348,0.29304131865501404,0.46249493956565857,0.6280046105384827,-0.3885660469532013,-0.4263690412044525,-0.5223371386528015,9.512126922607422,-0.11952783167362213,-2.1463284492492676,0.21147765219211578,0.919592022895813,0.6309880614280701,0.34472280740737915,-0.6613159775733948,-0.41716334223747253,-0.5194249749183655
316154,9.223349571228027,-0.3757878541946411,3.353001832962036,0.43031254410743713,0.16093099117279053,0.3751811981201172,0.6280255317687988,-0.3885236084461212,-0.4263470768928528,-0.5223615169525146,9.5069580078125,-0.11931118369102478,-2.128854990005493,0.10601737350225449,0.8168851137161255,0.7205300331115723,0.34477347135543823,-0.6612592935562134,-0.4171096086502075,-0.5195064544677734
316320,9.236520767211914,-0.37563765048980713,3.3227579593658447,0.45574596524238586,-0.05878115072846413,0.5061005353927612,0.6280766129493713,-0.388477623462677,-0.4263632595539093,-0.5223211646080017,9.510003089904785,-0.12713664770126343,-2.1293411254882812,0.06241174042224884,0.5404471755027771,0.6489681601524353,0.34482070803642273,-0.6612050533294678,-0.4170994460582733,-0.5195524096488953
316487,9.23880672454834,-0.3700625002384186,3.306793451309204,0.21334737539291382,0.12783938646316528,0.445705771446228,0.6280813217163086,-0.3884672522544861,-0.426318496465683,-0.5223597884178162,9.521535873413086,-0.11730680614709854,-2.1394588947296143,-0.020605413243174553,0.29291319847106934,0.6755540370941162,0.34485897421836853,-0.6611659526824951,-0.41710740327835083,-0.5195703506469727
316654,9.24412727355957,-0.37007665634155273,3.3097798824310303,0.08769147843122482,-0.042030442506074905,0.4102194011211395,0.6280975341796875,-0.3884536921977997,-0.42630502581596375,-0.5223613381385803,9.548343658447266,-0.10426804423332214,-2.1184096336364746,-0.17352603375911713,0.33804282546043396,0.578354001045227,0.344848096370697,-0.6611472964286804,-0.41707557439804077,-0.519627034664154
316820,9.233162879943848,-0.36453354358673096,3.3204762935638428,0.06995469331741333,-0.04927883669734001,0.2547118663787842,0.6280720233917236,-0.38845548033714294,-0.4262787997722626,-0.5224120616912842,9.554839134216309,-0.1316366195678711,-2.1250181198120117,-0.2371479868888855,0.42556142807006836,0.497904509305954,0.3448377251625061,-0.6611145734786987,-0.41705068945884705,-0.5196952223777771
316987,9.221393585205078,-0.3471388518810272,3.333289861679077,0.16073888540267944,-0.12537413835525513,0.442952424287796,0.6280543208122253,-0.3884720802307129,-0.4262506067752838,-0.522443950176239,9.491451263427734,-0.09734078496694565,-2.1329214572906494,-0.23585455119609833,0.29958537220954895,0.5539066791534424,0.34481900930404663,-0.6610982418060303,-0.4170213043689728,-0.5197521448135376
317154,9.22481918334961,-0.35296809673309326,3.376100540161133,0.33060234785079956,-0.22055093944072723,0.473508358001709,0.6280501484870911,-0.38847607374191284,-0.426247775554657,-0.5224481821060181,9.515368461608887,-0.11575110256671906,-2.1157093048095703,-0.25310468673706055,-0.16119351983070374,0.6323070526123047,0.3447827398777008,-0.6611180305480957,-0.41701266169548035,-0.5197579264640808
317320,9.228863716125488,-0.38985908031463623,3.3021466732025146,0.5171908140182495,-0.46931424736976624,0.5307142734527588,0.6280384659767151,-0.38849037885665894,-0.4262736141681671,-0.5224305391311646,9.526723861694336,-0.10020335763692856,-2.1293628215789795,-0.33081358671188354,-0.4298066794872284,0.76092129945755,0.34473916888237,-0.6611645221710205,-0.41700756549835205,-0.5197318196296692
317487,9.265820503234863,-0.3745504915714264,3.318598747253418,0.4591652452945709,-0.5915637016296387,0.32291847467422485,0.6279988288879395,-0.3885078430175781,-0.4263167381286621,-0.5224299430847168,9.533329010009766,-0.12866319715976715,-2.1517906188964844,-0.2680497169494629,-0.5049159526824951,0.7279577851295471,0.3446955680847168,-0.6612113118171692,-0.41701415181159973,-0.5196959376335144
317654,9.248279571533203,-0.35288941860198975,3.3334221839904785,0.23834539949893951,-0.2447165548801422,0.25805437564849854,0.627968966960907,-0.3885105848312378,-0.4263193607330322,-0.5224619507789612,9.476799011230469,-0.13837841153144836,-2.1391820907592773,-0.24983906745910645,-0.6033967733383179,0.7901325225830078,0.34465301036834717,-0.6612673997879028,-0.4170227348804474,-0.5196459293365479
317820,9.201824188232422,-0.3626667559146881,3.3472156524658203,0.11763273179531097,-0.5754149556159973,0.19817185401916504,0.6279051303863525,-0.3885473310947418,-0.42634472250938416,-0.5224905014038086,9.499673843383789,-0.16749006509780884,-2.1669483184814453,0.08354222774505615,-1.1655060052871704,0.9932284951210022,0.3446081876754761,-0.6613730192184448,-0.4170467257499695,-0.5195218920707703
317987,9.21638011932373,-0.40635642409324646,3.239215135574341,0.22100557386875153,-0.9014772772789001,0.6045941114425659,0.6278650760650635,-0.3886190354824066,-0.4263896942138672,-0.522448718547821,9.497169494628906,-0.16393283009529114,-2.193938732147217,0.34754514694213867,-1.2612718343734741,0.8433942198753357,0.344588965177536,-0.6614509224891663,-0.41713017225265503,-0.519368588924408
318154,9.24560832977295,-0.440676748752594,3.2511587142944336,0.910217821598053,-0.9349275231361389,0.5151546597480774,0.6278509497642517,-0.3886280655860901,-0.4264924228191376,-0.5223749279975891,9.554891586303711,-0.14951393008232117,-2.1922481060028076,0.42780250310897827,-1.2569047212600708,0.5566856265068054,0.3445434868335724,-0.6615171432495117,-0.41723108291625977,-0.5192334651947021
318320,9.298016548156738,-0.34890615940093994,3.371750593185425,0.45921647548675537,-1.280775785446167,0.163645938038826,0.6277565956115723,-0.3886883556842804,-0.4266076982021332,-0.5223494172096252,9.575582504272461,-0.13535210490226746,-2.1903021335601807,0.29252901673316956,-0.8543499708175659,0.3147224485874176,0.3444956839084625,-0.6615411043167114,-0.41733112931251526,-0.5191541314125061
318487,9.252778053283691,-0.3190763592720032,3.3211164474487305,0.4163151979446411,-0.7208821177482605,0.024940362200140953,0.6276962757110596,-0.38869181275367737,-0.4266849160194397,-0.5223563313484192,9.564452171325684,-0.125127911567688,-2.1874194145202637,0.31344181299209595,-0.3736380636692047,0.40096041560173035,0.344476580619812,-0.6615398526191711,-0.41738948225975037,-0.5191214680671692
318654,9.213826179504395,-0.38433319330215454,3.286458730697632,0.6973377466201782,-0.8649023771286011,0.4178391098976135,0.627669095993042,-0.38870716094970703,-0.42677220702171326,-0.5223063230514526,9.561902046203613,-0.1048150584101677,-2.1843795776367188,0.1871071606874466,-0.03599864989519119,0.5729113221168518,0.34448936581611633,-0.6615215539932251,-0.4174180030822754,-0.5191132426261902
318820,9.268444061279297,-0.40972062945365906,3.358686685562134,0.8605546355247498,-0.8329505920410156,0.4318877160549164,0.6276704668998718,-0.3886939585208893,-0.4268794357776642,-0.5222266912460327,9.540579795837402,-0.09323900938034058,-2.1598219871520996,-0.05155836418271065,0.5417405962944031,0.5315723419189453,0.34451308846473694,-0.6614683866500854,-0.4174048900604248,-0.5191759467124939
318987,9.253822326660156,-0.35869768261909485,3.316323757171631,0.8756917119026184,-0.8417229056358337,0.41361308097839355,0.6276451945304871,-0.38869935274124146,-0.4269707202911377,-0.5221784114837646,9.503755569458008,-0.08225110918283463,-2.176675319671631,-0.40069785714149475,0.6995916366577148,0.5447628498077393,0.3445071578025818,-0.6614260077476501,-0.4173488914966583,-0.5192787647247314
319154,9.249370574951172,-0.3186114728450775,3.3433961868286133,0.09607964009046555,-0.5702155232429504,0.037593040615320206,0.6275674700737,-0.3887292742729187,-0.4270017147064209,-0.5222242474555969,9.489168167114258,-0.08571124076843262,-2.1670076847076416,-0.7804829478263855,0.7406359910964966,0.3000463545322418,0.3444668650627136,-0.6613715291023254,-0.4173068404197693,-0.5194087624549866
319320,9.188446998596191,-0.3466489315032959,3.3059606552124023,-0.012934412807226181,-0.6896474957466125,0.01661623828113079,0.6274822354316711,-0.388770192861557,-0.42704230546951294,-0.5222629904747009,9.47460651397705,-0.1161108985543251,-2.1427063941955566,-1.0138658285140991,0.4599848687648773,0.3094974458217621,0.34436625242233276,-0.6613657474517822,-0.41723597049713135,-0.5195398330688477
319487,9.230997085571289,-0.3578788936138153,3.301375150680542,0.6098191738128662,-0.6962171792984009,0.1782451868057251,0.6274489164352417,-0.3887612223625183,-0.42712485790252686,-0.5222421884536743,9.497601509094238,-0.15073640644550323,-2.1305129528045654,-0.8552336096763611,0.19143572449684143,0.49488216638565063,0.34428268671035767,-0.6613803505897522,-0.4171775281429291,-0.5196233987808228
319654,9.252690315246582,-0.35568341612815857,3.2995312213897705,0.9332051277160645,-0.4826841354370117,0.24130365252494812,0.6274598240852356,-0.3887036442756653,-0.42721495032310486,-0.5221982002258301,9.535215377807617,-0.14258365333080292,-2.1640496253967285,-0.7297441959381104,0.1425538808107376,0.5424449443817139,0.344215989112854,-0.6613927483558655,-0.41713017225265503,-0.5196897387504578
319820,9.231610298156738,-0.3629024922847748,3.277522325515747,0.5085722208023071,-0.353506475687027,0.29557695984840393,0.6274800300598145,-0.3886615037918091,-0.42727339267730713,-0.5221574306488037,9.525253295898438,-0.1272343099117279,-2.1441221237182617,-0.49578502774238586,0.13718801736831665,0.40087074041366577,0.34414058923721313,-0.6613999605178833,-0.41709116101264954,-0.5197619199752808
319987,9.243573188781738,-0.34776827692985535,3.2980642318725586,0.5041155219078064,-0.24667589366436005,0.19678877294063568,0.6274450421333313,-0.3886483907699585,-0.42728832364082336,-0.5221971869468689,9.567354202270508,-0.1376555860042572,-2.150838613510132,-0.2778721749782562,0.24130365252494812,0.41235804557800293,0.34410303831100464,-0.6613824963569641,-0.41707268357276917,-0.5198238492012024
320154,9.270448684692383,-0.35291120409965515,3.2983286380767822,0.39800211787223816,-0.28154757618904114,0.07464180886745453,0.6274135112762451,-0.3886241912841797,-0.4273197054862976,-0.5222274661064148,9.558808326721191,-0.11380206793546677,-2.185917377471924,-0.22443126142024994,0.37005865573883057,0.33904168009757996,0.3440744876861572,-0.6613466739654541,-0.41706085205078125,-0.5198977589607239
320320,9.274060249328613,-0.35661551356315613,3.3013970851898193,0.6572666764259338,-0.3411739468574524,0.21218198537826538,0.6273812055587769,-0.38860660791397095,-0.42735278606414795,-0.5222522616386414,9.485732078552246,-0.12634025514125824,-2.1526622772216797,-0.10686898231506348,0.493127703666687,0.27958181500434875,0.34406188130378723,-0.6612910032272339,-0.41705918312072754,-0.5199783444404602
320487,9.26164722442627,-0.34747835993766785,3.3387467861175537,0.5179207921028137,-0.31789201498031616,0.26549482345581055,0.6273696422576904,-0.3885844349861145,-0.4273873269557953,-0.5222542881965637,9.453207015991211,-0.12397637963294983,-2.195648193359375,0.11904142051935196,-0.18346375226974487,0.5728088021278381,0.3440627157688141,-0.6612850427627563,-0.4170929491519928,-0.5199582576751709
320654,9.24843692779541,-0.36179059743881226,3.255589485168457,0.3590836226940155,-0.3901582360267639,0.43019726872444153,0.6273412108421326,-0.3886048495769501,-0.4273955821990967,-0.5222664475440979,9.536055564880371,-0.12517444789409637,-2.1770195960998535,0.31474804878234863,-0.2894746959209442,0.7155483365058899,0.3440878093242645,-0.6612853407859802,-0.4171343147754669,-0.5199080109596252
320820,9.252942085266113,-0.4088427722454071,3.216552495956421,0.838002622127533,-0.43925777077674866,0.4277256727218628,0.6273406744003296,-0.38858264684677124,-0.42744746804237366,-0.5222412943840027,9.545427322387695,-0.10284017026424408,-2.1761186122894287,0.42991554737091064,-0.2880275845527649,0.7121418714523315,0.34409964084625244,-0.6612972617149353,-0.4171566367149353,-0.5198670625686646
320987,9.271102905273438,-0.3427758812904358,3.3321526050567627,0.6794600486755371,-0.2416301965713501,0.4090667963027954,0.6273545026779175,-0.3885487914085388,-0.42747974395751953,-0.5222234725952148,9.557146072387695,-0.12335417419672012,-2.17315411567688,0.28679177165031433,0.03440425917506218,0.3982839286327362,0.3441261947154999,-0.6612482666969299,-0.41722115874290466,-0.5198598504066467
321154,9.242679595947266,-0.34331274032592773,3.280651569366455,0.5459154844284058,-0.4620658755302429,0.21876446902751923,0.6273108124732971,-0.3885495364665985,-0.42751672863960266,-0.5222450494766235,9.531868934631348,-0.11063358932733536,-2.1915178298950195,0.3354046940803528,0.054471805691719055,0.5798650979995728,0.3441539704799652,-0.6612204909324646,-0.41724878549575806,-0.5198548436164856
321320,9.259283065795898,-0.3339247703552246,3.2726194858551025,0.47286802530288696,-0.3190445601940155,0.4480237066745758,0.627284586429596,-0.38856399059295654,-0.4275190234184265,-0.5222640037536621,9.527399063110352,-0.10021605342626572,-2.163816452026367,0.25612056255340576,0.22233742475509644,0.7497285008430481,0.3441885709762573,-0.6612005233764648,-0.41723600029945374,-0.5198675990104675
321487,9.248833656311035,-0.3670368790626526,3.2980284690856934,0.2834237217903137,-0.2404135912656784,0.5874848365783691,0.6272851228713989,-0.3885810077190399,-0.42750778794288635,-0.5222599506378174,9.472818374633789,-0.09261304140090942,-2.1648786067962646,0.10805357247591019,0.04984871298074722,0.765300989151001,0.34421512484550476,-0.661190927028656,-0.41723644733428955,-0.5198618769645691
321654,9.256131172180176,-0.36154890060424805,3.27860164642334,0.38318517804145813,-0.6522273421287537,0.683583676815033,0.6272850036621094,-0.3886161744594574,-0.4275452196598053,-0.5222033262252808,9.496540069580078,-0.09489108622074127,-2.174359083175659,-0.04094189777970314,-0.2106388360261917,0.5970256328582764,0.3441917896270752,-0.661203145980835,-0.4172472655773163,-0.5198531746864319
321820,9.246879577636719,-0.3174903690814972,3.2880096435546875,0.6565366983413696,-0.5100896954536438,0.6514654159545898,0.6272796392440796,-0.38863545656204224,-0.42757248878479004,-0.5221729278564453,9.505215644836426,-0.0973479375243187,-2.1684188842773438,-0.11610236018896103,-0.31899333000183105,0.7547742128372192,0.34417712688446045,-0.6612289547920227,-0.4172551929950714,-0.5198236107826233
321987,9.253107070922852,-0.32076790928840637,3.2726945877075195,0.12965787947177887,-0.46586939692497253,0.4610605537891388,0.6272528767585754,-0.388671338558197,-0.4275813400745392,-0.522171139717102,9.525764465332031,-0.1222347617149353,-2.1746487617492676,-0.11970096081495285,-0.3123852610588074,0.6201410889625549,0.34415966272354126,-0.6612410545349121,-0.4172837436199188,-0.5197967290878296
322154,9.264379501342773,-0.3550923466682434,3.288222551345825,0.21488413214683533,-0.17174595594406128,0.3913940489292145,0.6272417902946472,-0.3886743187904358,-0.42757242918014526,-0.5221894979476929,9.530227661132812,-0.13073183596134186,-2.1874337196350098,0.02458178997039795,-0.2908962666988373,0.6102033853530884,0.34414663910865784,-0.6612510085105896,-0.4173116981983185,-0.5197702646255493
322321,9.24502182006836,-0.3617977499961853,3.269533157348633,0.33334290981292725,-0.14692723751068115,0.465453177690506,0.6272578239440918,-0.38865914940834045,-0.42757534980773926,-0.5221790671348572,9.535945892333984,-0.12518155574798584,-2.169034004211426,0.10777182877063751,-0.20354411005973816,0.6184506416320801,0.34414127469062805,-0.6612557172775269,-0.41733285784721375,-0.5197508931159973
322487,9.236943244934082,-0.35166990756988525,3.2976601123809814,0.16216039657592773,-0.33827975392341614,0.5466325879096985,0.6272410750389099,-0.3886930048465729,-0.42756572365760803,-0.5221818685531616,9.548391342163086,-0.1155293732881546,-2.1472299098968506,0.058774739503860474,0.1645679771900177,0.629912257194519,0.3441565930843353,-0.6612338423728943,-0.4173339903354645,-0.5197677612304688
322654,9.260870933532715,-0.33593103289604187,3.296891212463379,-0.2855047583580017,-0.24892984330654144,0.32080546021461487,0.6271906495094299,-0.3887441158294678,-0.42752909660339355,-0.5222344398498535,9.531457901000977,-0.1032164916396141,-2.1595499515533447,0.012313304468989372,0.2185339480638504,0.5437639951705933,0.3441632091999054,-0.6612058877944946,-0.4173353612422943,-0.5197977423667908
322821,9.244417190551758,-0.33646395802497864,3.3083748817443848,-0.2786789536476135,-0.0020618222188204527,0.27271759510040283,0.6271564364433289,-0.38876938819885254,-0.42747631669044495,-0.5222999453544617,9.519359588623047,-0.09867113828659058,-2.160876750946045,-0.35245633125305176,0.22135134041309357,0.4270341098308563,0.34413957595825195,-0.6611788272857666,-0.41733601689338684,-0.5198472738265991
322987,9.2490873336792,-0.34493592381477356,3.324571132659912,0.14711293578147888,-0.20391550660133362,0.3245192766189575,0.6271217465400696,-0.3887871205806732,-0.42745962738990784,-0.5223419070243835,9.531442642211914,-0.10722215473651886,-2.171802520751953,-0.4112246632575989,0.231686070561409,0.4213353097438812,0.3441029191017151,-0.6611592173576355,-0.41732338070869446,-0.519906759262085
323154,9.266745567321777,-0.3476075530052185,3.304666042327881,0.40350884199142456,-0.281803697347641,0.623714029788971,0.6271383762359619,-0.38879114389419556,-0.42746594548225403,-0.5223137736320496,9.539847373962402,-0.12371531873941422,-2.1769983768463135,-0.30849212408065796,0.3293857276439667,0.43417999148368835,0.3440908193588257,-0.6611216068267822,-0.4173220694065094,-0.5199634432792664
323321,9.269438743591309,-0.34526893496513367,3.2728888988494873,0.6784356236457825,-0.05573322996497154,0.6340999603271484,0.6271446943283081,-0.3887859582901001,-0.4274426996707916,-0.5223292708396912,9.494022369384766,-0.12582527101039886,-2.181150197982788,-0.09632936120033264,0.3005458116531372,0.5419710874557495,0.3440926969051361,-0.6610918641090393,-0.41731294989585876,-0.5200074911117554
323487,9.260756492614746,-0.3564620316028595,3.2991156578063965,0.5707597732543945,0.12675084173679352,0.43309152126312256,0.6271863579750061,-0.3887278735637665,-0.4274389147758484,-0.5223256349563599,9.515826225280762,-0.13725125789642334,-2.1708829402923584,0.06721413135528564,0.10563318431377411,0.6037874221801758,0.34410184621810913,-0.6610734462738037,-0.4173184633255005,-0.5200204253196716
323654,9.251169204711914,-0.3580603003501892,3.332685947418213,0.4128318727016449,0.34221765398979187,0.49193668365478516,0.6272055506706238,-0.3886966109275818,-0.42737728357315063,-0.5223760604858398,9.515121459960938,-0.13287755846977234,-2.143986225128174,0.19590513408184052,0.10824566334486008,0.5897643566131592,0.3441240191459656,-0.6610463261604309,-0.4173367917537689,-0.5200254321098328
323821,9.239206314086914,-0.3694722652435303,3.2740821838378906,0.3772174119949341,0.27395978569984436,0.533582866191864,0.6272133588790894,-0.38868284225463867,-0.42731091380119324,-0.5224311351776123,9.537018775939941,-0.1409919708967209,-2.121624231338501,0.4205925166606903,0.18959158658981323,0.533173143863678,0.34417226910591125,-0.6609960198402405,-0.4173770248889923,-0.5200252532958984
323987,9.248175621032715,-0.3857225775718689,3.3059496879577637,0.17422398924827576,0.2952183485031128,0.5161022543907166,0.6272246837615967,-0.38867273926734924,-0.4272392988204956,-0.5224838256835938,9.550837516784668,-0.11822599172592163,-2.1230692863464355,0.43332210183143616,0.3418463170528412,0.3967086970806122,0.3442198634147644,-0.6609256267547607,-0.41742298007011414,-0.5200461745262146
324154,9.261354446411133,-0.35659077763557434,3.313420534133911,0.04749235138297081,0.3640012741088867,0.5046534538269043,0.6272398829460144,-0.388662189245224,-0.4271577298641205,-0.5225400924682617,9.557328224182129,-0.11013288050889969,-2.119525194168091,0.42644503712654114,0.432528018951416,0.4696408808231354,0.3442703187465668,-0.6608588099479675,-0.4174477756023407,-0.5200777649879456
324321,9.24097728729248,-0.36042091250419617,3.32212495803833,0.10911649465560913,0.27857011556625366,0.474827378988266,0.6272315382957458,-0.3886663317680359,-0.4270760715007782,-0.5226138234138489,9.504196166992188,-0.10534791648387909,-2.121309518814087,0.24925638735294342,0.3058091998100281,0.5456337332725525,0.3443076014518738,-0.6608102321624756,-0.4174655079841614,-0.5201005339622498
