// Start Time: Unknown
// Update Rate: 60.0Hz
//Filter Profile: human (46.1)
// Option Flags: AHS Disabled ICC Disabled
// Firmware Version: 4.0.2
0	sampleTimeFine	Year	Month	Day	Second	UTC_Nano	UTC_Year	UTC_Month	UTC_Day	UTC_Hour	UTC_Minute	UTC_Second	UTC_Valid	Acc_X	Acc_Y	Acc_Z	Mat[1][1]	Mat[2][1]	Mat[3][1]	Mat[1][2]	Mat[2][2]	Mat[3][2]	Mat[1][3]	Mat[2][3]	Mat[3][3]
0	319658													0.000000	0.000000	0.000000	0.433523	-0.879643	-0.195670	0.019125	-0.208105	0.977919	-0.900940	-0.427693	-0.073395
1	319825													8.843797	0.288534	4.246719	0.433507	-0.879438	-0.196623	0.019376	-0.209044	0.977714	-0.900942	-0.427656	-0.073583
2	319991													8.888806	0.298320	4.199244	0.433193	-0.879450	-0.197261	0.021248	-0.208836	0.977720	-0.901050	-0.427733	-0.071780
3	320158													8.866229	0.245293	4.205131	0.432363	-0.879582	-0.198487	0.023077	-0.209260	0.977588	-0.901404	-0.427253	-0.070178
4	320325													8.819139	0.201695	4.231172	0.431654	-0.879682	-0.199585	0.024047	-0.209959	0.977414	-0.901719	-0.426704	-0.069475
5	320491													8.863981	0.211483	4.197433	0.431257	-0.879560	-0.200978	0.024261	-0.211372	0.977105	-0.901903	-0.426259	-0.069817
6	320658													8.892630	0.234642	4.236235	0.430893	-0.879627	-0.201465	0.024197	-0.211911	0.976989	-0.902079	-0.425853	-0.070027
7	320825													8.845052	0.214590	4.262406	0.430688	-0.879681	-0.201668	0.024116	-0.212157	0.976938	-0.902179	-0.425619	-0.070159
8	320991													8.835258	0.216769	4.122468	0.430524	-0.879520	-0.202717	0.024010	-0.213357	0.976679	-0.902260	-0.425351	-0.070738
9	321158													8.883047	0.237263	4.218510	0.430186	-0.879602	-0.203078	0.023815	-0.213821	0.976583	-0.902426	-0.424949	-0.071035
10	321325													8.934435	0.291636	4.166854	0.429926	-0.879745	-0.203008	0.023697	-0.213777	0.976595	-0.902553	-0.424674	-0.071061
11	321491													8.889488	0.287277	4.199207	0.429791	-0.879742	-0.203305	0.023754	-0.214068	0.976530	-0.902616	-0.424533	-0.071107
12	321658													8.842186	0.265798	4.238589	0.429656	-0.879768	-0.203482	0.023807	-0.214227	0.976494	-0.902679	-0.424400	-0.071099
13	321825													8.851202	0.218227	4.241021	0.429419	-0.879821	-0.203752	0.023822	-0.214499	0.976434	-0.902791	-0.424153	-0.071151
14	321991													8.865915	0.264648	4.241977	0.429210	-0.879944	-0.203660	0.023862	-0.214360	0.976463	-0.902889	-0.423968	-0.071008
15	322158													8.845224	0.289399	4.193356	0.429005	-0.880006	-0.203823	0.023912	-0.214500	0.976431	-0.902986	-0.423768	-0.070979
16	322325													8.840045	0.284663	4.190235	0.428835	-0.879995	-0.204231	0.024005	-0.214893	0.976342	-0.903064	-0.423592	-0.071029
17	322491													8.858252	0.263334	4.191261	0.428722	-0.880015	-0.204380	0.024118	-0.214996	0.976317	-0.903115	-0.423498	-0.070949
18	322658													8.900161	0.248893	4.214561	0.428645	-0.880005	-0.204584	0.024241	-0.215158	0.976278	-0.903148	-0.423436	-0.070894
19	322825													8.881353	0.232529	4.217790	0.428592	-0.879988	-0.204769	0.024368	-0.215298	0.976244	-0.903169	-0.423400	-0.070832
20	322991													8.885878	0.264832	4.195778	0.428518	-0.879950	-0.205085	0.024469	-0.215595	0.976176	-0.903202	-0.423327	-0.070855
21	323158													8.878574	0.264772	4.218097	0.428492	-0.879878	-0.205451	0.024578	-0.215948	0.976095	-0.903211	-0.423298	-0.070906
22	323325													8.858166	0.256693	4.248917	0.428471	-0.879854	-0.205595	0.024664	-0.216066	0.976067	-0.903219	-0.423287	-0.070877
23	323491													8.846471	0.251057	4.225271	0.428466	-0.879788	-0.205886	0.024711	-0.216367	0.975999	-0.903220	-0.423270	-0.070965
24	323658													8.850224	0.243700	4.269839	0.428469	-0.879762	-0.205995	0.024696	-0.216495	0.975971	-0.903219	-0.423261	-0.071034
25	323825													8.852794	0.262333	4.226462	0.428443	-0.879741	-0.206137	0.024658	-0.216669	0.975934	-0.903232	-0.423215	-0.071138
26	323991													8.895308	0.280772	4.224942	0.428463	-0.879670	-0.206397	0.024612	-0.216979	0.975866	-0.903224	-0.423202	-0.071317
27	324158													8.842387	0.265183	4.255111	0.428532	-0.879620	-0.206469	0.024541	-0.217099	0.975841	-0.903193	-0.423247	-0.071447
28	324325													8.811972	0.261163	4.207508	0.428517	-0.879640	-0.206413	0.024505	-0.217053	0.975852	-0.903201	-0.423227	-0.071455
29	324491													8.864799	0.274978	4.212332	0.428396	-0.879682	-0.206484	0.024447	-0.217148	0.975833	-0.903260	-0.423091	-0.071520
30	324658													8.936066	0.233154	4.198868	0.428279	-0.879769	-0.206359	0.024363	-0.217038	0.975859	-0.903318	-0.422967	-0.071519
31	324825													8.874855	0.226543	4.115234	0.428318	-0.879732	-0.206434	0.024190	-0.217206	0.975826	-0.903304	-0.422958	-0.071752
32	324991													8.803207	0.287868	4.188106	0.428444	-0.879663	-0.206467	0.024139	-0.217277	0.975811	-0.903246	-0.423064	-0.071856
33	325158													8.963660	0.369047	4.241986	0.428452	-0.879639	-0.206553	0.024308	-0.217294	0.975803	-0.903237	-0.423106	-0.071718
34	325325													8.924411	0.243597	4.267942	0.428657	-0.879543	-0.206534	0.024336	-0.217278	0.975806	-0.903139	-0.423313	-0.071733
35	325491													8.769094	0.183683	4.217863	0.428708	-0.879515	-0.206551	0.024176	-0.217376	0.975788	-0.903120	-0.423322	-0.071928
36	325658													8.790954	0.230792	4.248569	0.428527	-0.879572	-0.206684	0.024122	-0.217533	0.975755	-0.903207	-0.423123	-0.072002
37	325825													8.866972	0.311893	4.227985	0.428301	-0.879597	-0.207045	0.024153	-0.217900	0.975672	-0.903313	-0.422882	-0.072082
38	325991													8.857690	0.292516	4.206285	0.428193	-0.879667	-0.206972	0.024024	-0.217869	0.975682	-0.903368	-0.422752	-0.072157
39	326158													8.822740	0.210807	4.229480	0.428206	-0.879685	-0.206866	0.023857	-0.217831	0.975695	-0.903366	-0.422733	-0.072290
40	326325													8.838140	0.210993	4.181334	0.428205	-0.879717	-0.206735	0.023777	-0.217723	0.975721	-0.903369	-0.422724	-0.072312
41	326491													8.895462	0.239184	4.207125	0.428237	-0.879675	-0.206847	0.023798	-0.217840	0.975694	-0.903353	-0.422750	-0.072353
42	326658													8.872865	0.240318	4.258329	0.428427	-0.879564	-0.206925	0.023757	-0.217963	0.975668	-0.903264	-0.422918	-0.072486
43	326825													8.837439	0.222621	4.249621	0.428531	-0.879484	-0.207049	0.023690	-0.218140	0.975630	-0.903217	-0.422992	-0.072645
44	326991													8.861448	0.205438	4.167460	0.428418	-0.879477	-0.207310	0.023627	-0.218450	0.975562	-0.903272	-0.422847	-0.072809
45	327158													8.875052	0.271144	4.231838	0.428372	-0.879445	-0.207542	0.023560	-0.218734	0.975500	-0.903295	-0.422767	-0.072979
46	327325													8.917301	0.317564	4.202036	0.428288	-0.879477	-0.207578	0.023612	-0.218743	0.975497	-0.903334	-0.422695	-0.072919
47	327491													8.887702	0.291643	4.223344	0.428441	-0.879398	-0.207599	0.023647	-0.218763	0.975491	-0.903260	-0.422850	-0.072932
48	327658													8.832289	0.239785	4.232943	0.428463	-0.879367	-0.207686	0.023605	-0.218882	0.975466	-0.903251	-0.422853	-0.073026
49	327825													8.852208	0.245622	4.272880	0.428382	-0.879370	-0.207841	0.023603	-0.219046	0.975429	-0.903290	-0.422762	-0.073079
50	327991													8.825599	0.293675	4.233397	0.428183	-0.879421	-0.208032	0.023628	-0.219228	0.975387	-0.903383	-0.422560	-0.073091
51	328158													8.857761	0.303873	4.196994	0.427978	-0.879506	-0.208094	0.023666	-0.219262	0.975379	-0.903479	-0.422366	-0.073025
52	328325													8.862625	0.285811	4.194823	0.427891	-0.879529	-0.208177	0.023667	-0.219346	0.975360	-0.903520	-0.422275	-0.073041
53	328491													8.882949	0.252520	4.197377	0.427859	-0.879581	-0.208023	0.023698	-0.219157	0.975402	-0.903535	-0.422265	-0.072924
54	328658													8.892898	0.245496	4.207654	0.427925	-0.879531	-0.208100	0.023738	-0.219229	0.975385	-0.903503	-0.422331	-0.072936
55	328825													8.856581	0.255831	4.224642	0.427973	-0.879494	-0.208156	0.023804	-0.219266	0.975375	-0.903478	-0.422389	-0.072904
56	328992													8.849150	0.246451	4.228475	0.427941	-0.879521	-0.208108	0.023843	-0.219190	0.975391	-0.903492	-0.422372	-0.072830
57	329158													8.878278	0.265212	4.214936	0.427906	-0.879557	-0.208031	0.023849	-0.219099	0.975411	-0.903509	-0.422345	-0.072777
58	329325													8.865071	0.249444	4.239151	0.427892	-0.879537	-0.208143	0.023824	-0.219234	0.975381	-0.903516	-0.422317	-0.072854
59	329492													8.849994	0.262315	4.266257	0.427882	-0.879544	-0.208134	0.023806	-0.219232	0.975382	-0.903521	-0.422304	-0.072867
60	329658													8.819997	0.267354	4.276893	0.427818	-0.879579	-0.208116	0.023762	-0.219227	0.975385	-0.903553	-0.422232	-0.072889
61	329825													8.821404	0.263866	4.199845	0.427681	-0.879695	-0.207906	0.023702	-0.219010	0.975435	-0.903619	-0.422103	-0.072816
62	329992													8.874420	0.268698	4.179041	0.427617	-0.879788	-0.207647	0.023637	-0.218747	0.975495	-0.903651	-0.422046	-0.072744
63	330158													8.905622	0.261013	4.251142	0.427594	-0.879815	-0.207579	0.023588	-0.218692	0.975509	-0.903663	-0.422018	-0.072758
64	330325													8.887303	0.193808	4.176589	0.427502	-0.879822	-0.207741	0.023530	-0.218891	0.975466	-0.903708	-0.421901	-0.072874
65	330492													8.797849	0.240384	4.188368	0.427518	-0.879783	-0.207871	0.023414	-0.219091	0.975423	-0.903703	-0.421879	-0.073066
66	330658													8.893321	0.347348	4.203611	0.427413	-0.879757	-0.208196	0.023550	-0.219378	0.975356	-0.903750	-0.421782	-0.073047
67	330825													8.985757	0.338252	4.290161	0.427443	-0.879796	-0.207968	0.023662	-0.219076	0.975421	-0.903733	-0.421858	-0.072825
68	330992													8.832513	0.185044	4.277251	0.427528	-0.879730	-0.208075	0.023564	-0.219248	0.975385	-0.903695	-0.421908	-0.073005
69	331158													8.762733	0.203176	4.277079	0.427335	-0.879802	-0.208168	0.023428	-0.219398	0.975354	-0.903790	-0.421680	-0.073145
70	331325													8.838233	0.296453	4.246356	0.427028	-0.879869	-0.208514	0.023465	-0.219735	0.975277	-0.903934	-0.421363	-0.073187
71	331492													8.882627	0.334686	4.180604	0.426777	-0.880008	-0.208442	0.023425	-0.219652	0.975297	-0.904053	-0.421117	-0.073129
72	331658													8.851933	0.243222	4.157821	0.426760	-0.880073	-0.208203	0.023239	-0.219472	0.975342	-0.904066	-0.421075	-0.073210
73	331825													8.817089	0.183703	4.229652	0.426801	-0.880120	-0.207916	0.023113	-0.219216	0.975402	-0.904050	-0.421108	-0.073219
74	331992													8.861393	0.210232	4.199537	0.426700	-0.880160	-0.207957	0.023112	-0.219254	0.975394	-0.904098	-0.421007	-0.073214
75	332158													8.911073	0.252755	4.243351	0.426684	-0.880196	-0.207833	0.023115	-0.219114	0.975425	-0.904105	-0.421003	-0.073147
76	332325													8.844458	0.239241	4.224113	0.426668	-0.880204	-0.207834	0.023072	-0.219133	0.975422	-0.904114	-0.420976	-0.073189
77	332492													8.844470	0.196855	4.162677	0.426470	-0.880293	-0.207866	0.022998	-0.219185	0.975412	-0.904209	-0.420764	-0.073231
78	332658													8.880957	0.251231	4.217249	0.426311	-0.880294	-0.208184	0.022955	-0.219543	0.975333	-0.904285	-0.420574	-0.073386
79	332825													8.946197	0.329610	4.184789	0.426113	-0.880405	-0.208124	0.023030	-0.219424	0.975358	-0.904377	-0.420406	-0.073224
80	332992													8.905121	0.301392	4.246696	0.426192	-0.880329	-0.208282	0.023131	-0.219559	0.975325	-0.904337	-0.420493	-0.073211
81	333158													8.842437	0.256901	4.250963	0.426151	-0.880401	-0.208062	0.023116	-0.219319	0.975379	-0.904357	-0.420469	-0.073112
82	333325													8.835903	0.250720	4.274114	0.425983	-0.880544	-0.207800	0.023103	-0.219019	0.975447	-0.904436	-0.420325	-0.072955
83	333492													8.844041	0.271681	4.223669	0.425663	-0.880678	-0.207887	0.023152	-0.219064	0.975436	-0.904586	-0.420020	-0.072858
84	333825													8.846482	0.302215	4.191737	0.425238	-0.880884	-0.207883	0.023306	-0.218950	0.975458	-0.904781	-0.419647	-0.072576
85	333992													8.885268	0.253936	4.193278	0.425103	-0.881042	-0.207492	0.023379	-0.218471	0.975563	-0.904843	-0.419565	-0.072275
86	334158													8.889114	0.234245	4.174299	0.425053	-0.881125	-0.207243	0.023454	-0.218157	0.975632	-0.904865	-0.419556	-0.072063
87	334325													8.881693	0.256275	4.207976	0.425030	-0.881110	-0.207353	0.023569	-0.218224	0.975614	-0.904872	-0.419553	-0.071984
88	334492													8.873482	0.271481	4.217303	0.424996	-0.881137	-0.207307	0.023697	-0.218111	0.975636	-0.904885	-0.419554	-0.071816
89	334658													8.889168	0.256600	4.205492	0.424901	-0.881193	-0.207261	0.023825	-0.217992	0.975660	-0.904926	-0.419497	-0.071631
90	334825													8.873894	0.259568	4.214010	0.424906	-0.881230	-0.207094	0.023912	-0.217767	0.975708	-0.904922	-0.419536	-0.071458
91	335158													8.849086	0.261621	4.223269	0.424849	-0.881296	-0.206934	0.024007	-0.217541	0.975756	-0.904946	-0.419517	-0.071265
92	335325													8.852112	0.268634	4.193371	0.424820	-0.881325	-0.206867	0.024040	-0.217449	0.975776	-0.904958	-0.419502	-0.071190
93	335492													8.872520	0.290041	4.220833	0.424768	-0.881384	-0.206722	0.024064	-0.217273	0.975814	-0.904983	-0.419469	-0.071081
94	335658													8.891557	0.229281	4.198825	0.424610	-0.881491	-0.206591	0.024066	-0.217113	0.975850	-0.905056	-0.419328	-0.070974
95	335825													8.856341	0.260208	4.133870	0.424544	-0.881537	-0.206532	0.023989	-0.217077	0.975860	-0.905089	-0.419250	-0.071012
96	335992													8.839590	0.283268	4.199061	0.424554	-0.881533	-0.206528	0.023986	-0.217075	0.975860	-0.905085	-0.419259	-0.071016
97	336158													8.991047	0.353147	4.225253	0.424524	-0.881578	-0.206399	0.024193	-0.216834	0.975909	-0.905093	-0.419290	-0.070723
98	336325													8.932146	0.228205	4.273332	0.424768	-0.881472	-0.206347	0.024215	-0.216788	0.975918	-0.904979	-0.419535	-0.070740
99	336492													8.757146	0.194003	4.257074	0.424817	-0.881457	-0.206310	0.024037	-0.216834	0.975913	-0.904960	-0.419543	-0.070927
100	336658													8.763641	0.259608	4.238652	0.424542	-0.881567	-0.206405	0.023991	-0.216936	0.975891	-0.905090	-0.419258	-0.070949
101	336825													8.887226	0.323281	4.190058	0.424161	-0.881762	-0.206355	0.023999	-0.216844	0.975911	-0.905269	-0.418896	-0.070816
102	336992													8.887347	0.302762	4.174196	0.424056	-0.881892	-0.206016	0.023855	-0.216526	0.975985	-0.905322	-0.418787	-0.070782
103	337158													8.832198	0.234917	4.197838	0.424221	-0.881921	-0.205550	0.023731	-0.216082	0.976087	-0.905248	-0.418955	-0.070737
104	337325													8.823419	0.224904	4.218071	0.424271	-0.881884	-0.205609	0.023734	-0.216150	0.976072	-0.905224	-0.418999	-0.070776
105	337492													8.895378	0.259141	4.252577	0.424215	-0.881972	-0.205345	0.023757	-0.215843	0.976139	-0.905250	-0.418971	-0.070611
106	337658													8.893523	0.272682	4.224105	0.424227	-0.882040	-0.205030	0.023726	-0.215510	0.976213	-0.905245	-0.419000	-0.070498
107	337825													8.863701	0.241119	4.147946	0.424179	-0.882054	-0.205070	0.023715	-0.215554	0.976204	-0.905268	-0.418948	-0.070516
108	337992													8.852531	0.253506	4.238302	0.424059	-0.882094	-0.205144	0.023756	-0.215607	0.976191	-0.905323	-0.418836	-0.070475
109	338158													8.920989	0.352915	4.162502	0.423853	-0.882150	-0.205328	0.023892	-0.215730	0.976161	-0.905416	-0.418654	-0.070361
110	338325													8.917384	0.320321	4.198514	0.423975	-0.882072	-0.205411	0.024002	-0.215782	0.976147	-0.905356	-0.418792	-0.070315
111	338492													8.841611	0.256875	4.221133	0.424099	-0.882017	-0.205394	0.024002	-0.215773	0.976149	-0.905298	-0.418913	-0.070338
112	338658													8.842168	0.257861	4.245985	0.424111	-0.881990	-0.205483	0.024050	-0.215851	0.976130	-0.905291	-0.418929	-0.070333
113	338825													8.839860	0.305632	4.228100	0.424104	-0.881975	-0.205563	0.024205	-0.215867	0.976123	-0.905290	-0.418953	-0.070202
114	338992													8.800838	0.327055	4.239140	0.424074	-0.882010	-0.205473	0.024313	-0.215715	0.976154	-0.905301	-0.418958	-0.070035
115	339158													8.846499	0.271770	4.210372	0.423998	-0.882099	-0.205246	0.024399	-0.215418	0.976217	-0.905334	-0.418922	-0.069814
116	339325													8.885969	0.244040	4.172024	0.423963	-0.882138	-0.205153	0.024522	-0.215255	0.976250	-0.905347	-0.418925	-0.069628
117	339492													8.883364	0.270933	4.182206	0.424021	-0.882097	-0.205208	0.024671	-0.215251	0.976247	-0.905316	-0.419012	-0.069509
118	339658													8.861978	0.284326	4.202891	0.424104	-0.882054	-0.205223	0.024840	-0.215197	0.976255	-0.905273	-0.419131	-0.069356
119	339825													8.852697	0.301063	4.220865	0.424156	-0.882048	-0.205144	0.024969	-0.215054	0.976283	-0.905245	-0.419218	-0.069193
120	339992													8.882977	0.294114	4.231901	0.424210	-0.882042	-0.205054	0.025065	-0.214914	0.976311	-0.905217	-0.419301	-0.069060
121	340158													8.894147	0.280086	4.220824	0.424244	-0.882001	-0.205162	0.025116	-0.215013	0.976288	-0.905200	-0.419337	-0.069066
122	340325													8.857024	0.287502	4.202255	0.424266	-0.881991	-0.205160	0.025169	-0.214988	0.976292	-0.905188	-0.419371	-0.069013
123	340492													8.835543	0.318139	4.199733	0.424180	-0.882054	-0.205066	0.025187	-0.214868	0.976318	-0.905227	-0.419300	-0.068926
124	340658													8.879297	0.334855	4.232606	0.424107	-0.882092	-0.205052	0.025177	-0.214852	0.976322	-0.905262	-0.419228	-0.068911
125	340825													8.917008	0.284949	4.188933	0.424015	-0.882156	-0.204969	0.025159	-0.214761	0.976343	-0.905306	-0.419141	-0.068867
126	340992													8.899374	0.264596	4.098763	0.424038	-0.882202	-0.204724	0.025008	-0.214561	0.976390	-0.905299	-0.419146	-0.068920
127	341158													8.809489	0.279960	4.173069	0.424200	-0.882179	-0.204486	0.024923	-0.214351	0.976439	-0.905225	-0.419302	-0.068941
128	341325													8.942897	0.365524	4.232728	0.424269	-0.882161	-0.204420	0.025043	-0.214228	0.976463	-0.905190	-0.419402	-0.068798
129	341492													8.953235	0.274941	4.303208	0.424623	-0.882014	-0.204318	0.025041	-0.214146	0.976481	-0.905024	-0.419753	-0.068844
130	341658													8.784702	0.221468	4.249438	0.424738	-0.881973	-0.204257	0.024834	-0.214184	0.976478	-0.904975	-0.419820	-0.069069
131	341825													8.787381	0.261145	4.261585	0.424645	-0.881991	-0.204375	0.024750	-0.214346	0.976444	-0.905022	-0.419700	-0.069192
132	341992													8.848280	0.320095	4.254035	0.424419	-0.882044	-0.204612	0.024708	-0.214609	0.976388	-0.905129	-0.419453	-0.069291
133	342158													8.884896	0.318352	4.182087	0.424248	-0.882137	-0.204568	0.024517	-0.214634	0.976387	-0.905214	-0.419246	-0.069430
134	342325													8.846616	0.257044	4.213942	0.424374	-0.882135	-0.204318	0.024293	-0.214471	0.976428	-0.905161	-0.419334	-0.069586
135	342492													8.818526	0.261678	4.204375	0.424425	-0.882157	-0.204115	0.024186	-0.214301	0.976468	-0.905140	-0.419374	-0.069618
136	342658													8.871480	0.291343	4.218534	0.424453	-0.882122	-0.204207	0.024098	-0.214445	0.976439	-0.905129	-0.419373	-0.069765
137	342825													8.895506	0.268582	4.226008	0.424590	-0.882108	-0.203982	0.023942	-0.214281	0.976479	-0.905069	-0.419487	-0.069862
138	342992													8.887274	0.216767	4.147512	0.424654	-0.882104	-0.203865	0.023763	-0.214239	0.976492	-0.905044	-0.419516	-0.070016
139	343158													8.831361	0.268076	4.256091	0.424772	-0.882034	-0.203922	0.023603	-0.214387	0.976464	-0.904993	-0.419587	-0.070247
140	343325													8.890044	0.367753	4.201951	0.424682	-0.882074	-0.203938	0.023607	-0.214395	0.976462	-0.905035	-0.419500	-0.070227
141	343492													8.930241	0.301245	4.250000	0.424813	-0.882049	-0.203774	0.023607	-0.214225	0.976499	-0.904973	-0.419640	-0.070183
142	343658													8.859651	0.223865	4.225747	0.424946	-0.881958	-0.203887	0.023499	-0.214412	0.976461	-0.904914	-0.419734	-0.070388
143	343825													8.837549	0.254835	4.215176	0.424904	-0.881950	-0.204015	0.023414	-0.214588	0.976424	-0.904936	-0.419663	-0.070530
144	343992													8.850253	0.343192	4.176821	0.424799	-0.882025	-0.203904	0.023385	-0.214471	0.976450	-0.904985	-0.419564	-0.070481
145	344158													8.860322	0.324877	4.194137	0.424765	-0.882064	-0.203810	0.023376	-0.214367	0.976473	-0.905002	-0.419536	-0.070437
146	344325													8.845881	0.281136	4.201039	0.424838	-0.882095	-0.203519	0.023328	-0.214074	0.976539	-0.904969	-0.419619	-0.070370
147	344492													8.883184	0.237868	4.223161	0.424880	-0.882123	-0.203313	0.023265	-0.213879	0.976583	-0.904951	-0.419661	-0.070351
148	344658													8.897768	0.222358	4.199326	0.424926	-0.882100	-0.203314	0.023252	-0.213889	0.976581	-0.904929	-0.419703	-0.070376
149	344825													8.881733	0.273873	4.205072	0.424983	-0.882078	-0.203292	0.023289	-0.213853	0.976588	-0.904902	-0.419768	-0.070341
150	344992													8.869434	0.288328	4.224784	0.425074	-0.882025	-0.203332	0.023363	-0.213871	0.976582	-0.904857	-0.419870	-0.070304
151	345158													8.858567	0.266487	4.255997	0.425153	-0.881984	-0.203346	0.023394	-0.213879	0.976580	-0.904819	-0.419953	-0.070298
152	345325													8.875034	0.256804	4.278585	0.425217	-0.881956	-0.203332	0.023411	-0.213861	0.976584	-0.904789	-0.420020	-0.070290
153	345492													8.843547	0.269613	4.234023	0.425267	-0.881925	-0.203363	0.023409	-0.213900	0.976575	-0.904765	-0.420066	-0.070319
154	345659													8.847112	0.282195	4.219517	0.425376	-0.881856	-0.203434	0.023398	-0.213994	0.976555	-0.904714	-0.420163	-0.070394
155	345825													8.882194	0.284448	4.258626	0.425510	-0.881792	-0.203431	0.023368	-0.214015	0.976551	-0.904652	-0.420286	-0.070460
156	345992													8.911325	0.227121	4.215544	0.425522	-0.881819	-0.203290	0.023311	-0.213887	0.976580	-0.904648	-0.420296	-0.070458
157	346159													8.789788	0.234917	4.220629	0.425596	-0.881846	-0.203016	0.023166	-0.213658	0.976634	-0.904617	-0.420355	-0.070503
158	346325													8.822797	0.308687	4.200828	0.425514	-0.881896	-0.202970	0.023237	-0.213567	0.976652	-0.904654	-0.420295	-0.070383
159	346492													8.982922	0.327037	4.254038	0.425489	-0.881945	-0.202812	0.023353	-0.213336	0.976700	-0.904662	-0.420311	-0.070176
160	346659													8.902478	0.189204	4.238328	0.425725	-0.881827	-0.202828	0.023295	-0.213401	0.976687	-0.904553	-0.420525	-0.070308
161	346825													8.766542	0.214193	4.218990	0.425835	-0.881775	-0.202824	0.023138	-0.213479	0.976674	-0.904505	-0.420595	-0.070504
162	346992													8.826221	0.303382	4.247216	0.425762	-0.881729	-0.203177	0.023184	-0.213841	0.976593	-0.904538	-0.420506	-0.070603
163	347159													8.883732	0.323665	4.222383	0.425715	-0.881749	-0.203186	0.023118	-0.213879	0.976587	-0.904562	-0.420445	-0.070668
164	347325													8.871625	0.260634	4.200037	0.425828	-0.881771	-0.202856	0.022920	-0.213615	0.976649	-0.904514	-0.420534	-0.070753
165	347492													8.805674	0.212713	4.244114	0.425996	-0.881750	-0.202596	0.022815	-0.213389	0.976701	-0.904437	-0.420693	-0.070786
166	347659													8.860097	0.249008	4.216809	0.426016	-0.881762	-0.202500	0.022809	-0.213289	0.976723	-0.904428	-0.420719	-0.070753
167	347825													8.896981	0.274309	4.267631	0.426128	-0.881729	-0.202406	0.022807	-0.213195	0.976743	-0.904375	-0.420834	-0.070739
168	347992													8.851643	0.248136	4.221138	0.426380	-0.881624	-0.202334	0.022782	-0.213149	0.976754	-0.904257	-0.421078	-0.070797
169	348159													8.845470	0.211811	4.187113	0.426489	-0.881550	-0.202427	0.022745	-0.213278	0.976727	-0.904207	-0.421168	-0.070910
170	348325													8.838181	0.249834	4.265650	0.426541	-0.881490	-0.202580	0.022782	-0.213435	0.976692	-0.904181	-0.421214	-0.070957
171	348492													8.908841	0.322878	4.245696	0.426418	-0.881520	-0.202709	0.022894	-0.213515	0.976671	-0.904237	-0.421111	-0.070865
172	348659													8.906498	0.308140	4.254410	0.426500	-0.881485	-0.202687	0.023017	-0.213440	0.976685	-0.904195	-0.421221	-0.070743
173	348825													8.853309	0.246075	4.238825	0.426518	-0.881470	-0.202713	0.023065	-0.213449	0.976682	-0.904185	-0.421248	-0.070709
174	348992													8.849946	0.272195	4.251917	0.426559	-0.881433	-0.202790	0.023130	-0.213507	0.976668	-0.904164	-0.421297	-0.070686
175	349159													8.812204	0.307525	4.256899	0.426616	-0.881405	-0.202792	0.023214	-0.213474	0.976673	-0.904135	-0.421372	-0.070610
176	349325													8.816946	0.294272	4.246582	0.426534	-0.881460	-0.202723	0.023322	-0.213341	0.976699	-0.904171	-0.421323	-0.070439
177	349492													8.855508	0.264343	4.237141	0.426439	-0.881556	-0.202506	0.023455	-0.213031	0.976764	-0.904212	-0.421280	-0.070168
178	349659													8.872739	0.281487	4.212136	0.426392	-0.881574	-0.202529	0.023576	-0.212995	0.976769	-0.904231	-0.421261	-0.070035
179	349825													8.878968	0.263692	4.205637	0.426415	-0.881572	-0.202485	0.023727	-0.212878	0.976791	-0.904216	-0.421323	-0.069858
180	349992													8.868540	0.271817	4.225921	0.426483	-0.881523	-0.202557	0.023867	-0.212898	0.976783	-0.904181	-0.421415	-0.069758
181	350159													8.866802	0.281962	4.258126	0.426536	-0.881503	-0.202531	0.023971	-0.212827	0.976796	-0.904153	-0.421494	-0.069648
182	350325													8.865601	0.280203	4.255977	0.426506	-0.881540	-0.202435	0.024073	-0.212670	0.976828	-0.904165	-0.421496	-0.069484
183	350492													8.853838	0.271471	4.229080	0.426471	-0.881519	-0.202601	0.024129	-0.212824	0.976793	-0.904180	-0.421462	-0.069493
184	350659													8.835210	0.275590	4.199862	0.426515	-0.881449	-0.202810	0.024157	-0.213047	0.976743	-0.904158	-0.421495	-0.069574
185	350825													8.845005	0.288096	4.250223	0.426584	-0.881402	-0.202869	0.024168	-0.213112	0.976729	-0.904125	-0.421560	-0.069609
186	350992													8.886631	0.278926	4.242333	0.426555	-0.881427	-0.202823	0.024150	-0.213068	0.976739	-0.904139	-0.421531	-0.069599
187	351159													8.872749	0.251475	4.162319	0.426531	-0.881480	-0.202642	0.024083	-0.212897	0.976778	-0.904152	-0.421506	-0.069578
188	351325													8.809536	0.266957	4.206274	0.426638	-0.881421	-0.202673	0.024111	-0.212927	0.976771	-0.904101	-0.421614	-0.069591
189	351492													8.898580	0.373660	4.289296	0.426605	-0.881442	-0.202654	0.024321	-0.212805	0.976792	-0.904111	-0.421633	-0.069346
190	351659													8.896018	0.260616	4.300807	0.426598	-0.881457	-0.202603	0.024363	-0.212729	0.976808	-0.904113	-0.421640	-0.069275
191	351825													8.814028	0.205246	4.233159	0.426543	-0.881444	-0.202773	0.024254	-0.212963	0.976759	-0.904142	-0.421548	-0.069460
192	351992													8.815258	0.271623	4.234545	0.426420	-0.881434	-0.203076	0.024285	-0.213273	0.976691	-0.904199	-0.421412	-0.069539
193	352159													8.873100	0.376209	4.232159	0.426293	-0.881427	-0.203374	0.024386	-0.213546	0.976629	-0.904256	-0.421289	-0.069539
194	352325													8.868746	0.323704	4.200291	0.426277	-0.881508	-0.203054	0.024303	-0.213229	0.976700	-0.904266	-0.421279	-0.069471
195	352492													8.835485	0.223649	4.244676	0.426404	-0.881531	-0.202691	0.024192	-0.212890	0.976777	-0.904209	-0.421405	-0.069451
196	352659													8.832913	0.226156	4.233360	0.426372	-0.881530	-0.202761	0.024231	-0.212945	0.976764	-0.904223	-0.421378	-0.069433
197	352825													8.889304	0.274456	4.231941	0.426306	-0.881535	-0.202876	0.024330	-0.213022	0.976744	-0.904252	-0.421328	-0.069364
198	352992													8.865879	0.270526	4.257897	0.426367	-0.881499	-0.202906	0.024369	-0.213042	0.976739	-0.904222	-0.421394	-0.069353
199	353159													8.856419	0.242246	4.146155	0.426356	-0.881492	-0.202959	0.024402	-0.213084	0.976729	-0.904226	-0.421387	-0.069340
200	353325													8.839064	0.265915	4.270156	0.426350	-0.881430	-0.203242	0.024422	-0.213388	0.976662	-0.904229	-0.421363	-0.069452
201	353492													8.898717	0.342494	4.221402	0.426203	-0.881501	-0.203243	0.024534	-0.213324	0.976673	-0.904295	-0.421247	-0.069293
202	353659													8.915510	0.321191	4.201847	0.426235	-0.881460	-0.203350	0.024710	-0.213364	0.976660	-0.904275	-0.421311	-0.069162
203	353825													8.853946	0.299426	4.220944	0.426292	-0.881408	-0.203460	0.024759	-0.213467	0.976636	-0.904247	-0.421370	-0.069176
204	353992													8.854270	0.282628	4.242030	0.426333	-0.881368	-0.203543	0.024826	-0.213532	0.976621	-0.904226	-0.421419	-0.069154
205	354159													8.830285	0.305243	4.221845	0.426352	-0.881316	-0.203731	0.024937	-0.213690	0.976583	-0.904214	-0.421449	-0.069130
206	354325													8.816528	0.313722	4.210787	0.426276	-0.881324	-0.203853	0.025070	-0.213757	0.976565	-0.904246	-0.421397	-0.069025
207	354492													8.853288	0.300684	4.213162	0.426270	-0.881340	-0.203797	0.025158	-0.213653	0.976586	-0.904246	-0.421416	-0.068901
208	354659													8.871272	0.274277	4.186955	0.426275	-0.881359	-0.203707	0.025236	-0.213517	0.976613	-0.904241	-0.421447	-0.068775
209	354825													8.888416	0.278933	4.193414	0.426344	-0.881339	-0.203648	0.025360	-0.213400	0.976636	-0.904206	-0.421547	-0.068631
210	354992													8.880704	0.280517	4.237888	0.426496	-0.881192	-0.203964	0.025545	-0.213677	0.976570	-0.904129	-0.421714	-0.068623
211	355159													8.866066	0.295794	4.238109	0.426587	-0.881089	-0.204221	0.025735	-0.213881	0.976521	-0.904080	-0.421826	-0.068564
212	355325													8.888552	0.301394	4.230020	0.426684	-0.881026	-0.204290	0.025841	-0.213916	0.976510	-0.904032	-0.421940	-0.068508
213	355492													8.871426	0.297679	4.242607	0.426810	-0.880928	-0.204448	0.025898	-0.214075	0.976474	-0.903970	-0.422064	-0.068555
214	355659													8.848724	0.309891	4.271649	0.426885	-0.880866	-0.204557	0.025933	-0.214185	0.976449	-0.903934	-0.422136	-0.068589
215	355825													8.811628	0.308198	4.245512	0.426971	-0.880847	-0.204462	0.025913	-0.214097	0.976469	-0.903894	-0.422222	-0.068587
216	355992													8.854911	0.304922	4.217071	0.427015	-0.880834	-0.204423	0.025918	-0.214055	0.976478	-0.903873	-0.422269	-0.068575
217	356159													8.907406	0.290295	4.232220	0.427010	-0.880837	-0.204423	0.025892	-0.214067	0.976476	-0.903876	-0.422258	-0.068602
218	356325													8.874519	0.257001	4.150228	0.427059	-0.880841	-0.204302	0.025786	-0.213987	0.976496	-0.903856	-0.422290	-0.068672
219	356492													8.779911	0.300898	4.215215	0.427215	-0.880794	-0.204181	0.025764	-0.213875	0.976521	-0.903783	-0.422445	-0.068678
220	356659													8.922495	0.391405	4.290702	0.427225	-0.880813	-0.204077	0.025965	-0.213667	0.976561	-0.903772	-0.422511	-0.068414
221	356825													8.955031	0.278565	4.334631	0.427395	-0.880746	-0.204011	0.026047	-0.213570	0.976580	-0.903690	-0.422700	-0.068338
222	356992													8.795032	0.220445	4.259875	0.427454	-0.880650	-0.204301	0.025940	-0.213946	0.976501	-0.903665	-0.422709	-0.068608
223	357159													8.774798	0.298500	4.265008	0.427274	-0.880641	-0.204716	0.025984	-0.214371	0.976407	-0.903748	-0.422513	-0.068713
224	357325													8.844958	0.354236	4.240847	0.427015	-0.880667	-0.205144	0.026159	-0.214741	0.976321	-0.903866	-0.422269	-0.068660
225	357492													8.875854	0.340193	4.196112	0.426868	-0.880741	-0.205133	0.026101	-0.214744	0.976321	-0.903937	-0.422114	-0.068679
226	357659													8.811895	0.256689	4.208591	0.426972	-0.880730	-0.204963	0.026043	-0.214591	0.976357	-0.903890	-0.422215	-0.068688
227	357825													8.809238	0.245045	4.222329	0.427041	-0.880672	-0.205067	0.026112	-0.214680	0.976335	-0.903855	-0.422290	-0.068681
228	357992													8.901894	0.278758	4.255256	0.427116	-0.880597	-0.205233	0.026161	-0.214848	0.976297	-0.903818	-0.422361	-0.068728
229	358159													8.852583	0.276125	4.275318	0.427227	-0.880537	-0.205260	0.026146	-0.214894	0.976287	-0.903766	-0.422463	-0.068786
230	358325													8.833512	0.250913	4.191231	0.427177	-0.880568	-0.205229	0.026128	-0.214865	0.976294	-0.903790	-0.422413	-0.068778
231	358492													8.843287	0.272934	4.238468	0.427142	-0.880563	-0.205325	0.026189	-0.214939	0.976276	-0.903805	-0.422386	-0.068749
232	358659													8.928956	0.354164	4.220375	0.427043	-0.880608	-0.205338	0.026338	-0.214876	0.976286	-0.903847	-0.422325	-0.068568
233	358825													8.924194	0.322110	4.215521	0.427261	-0.880481	-0.205429	0.026442	-0.214946	0.976268	-0.903742	-0.422553	-0.068556
234	358992													8.848243	0.249902	4.216262	0.427437	-0.880375	-0.205520	0.026414	-0.215075	0.976240	-0.903659	-0.422709	-0.068676
235	359159													8.876639	0.281120	4.269159	0.427605	-0.880248	-0.205712	0.026402	-0.215308	0.976189	-0.903580	-0.422854	-0.068826
236	359325													8.845709	0.353884	4.232335	0.427740	-0.880162	-0.205801	0.026508	-0.215368	0.976173	-0.903513	-0.423004	-0.068790
237	359492													8.829077	0.347833	4.234444	0.427933	-0.880060	-0.205835	0.026618	-0.215370	0.976170	-0.903419	-0.423214	-0.068739
238	359659													8.814405	0.301217	4.318763	0.428128	-0.880016	-0.205617	0.026657	-0.215127	0.976222	-0.903325	-0.423429	-0.068643
239	359825													8.845774	0.258832	4.355471	0.428136	-0.880004	-0.205651	0.026767	-0.215114	0.976222	-0.903318	-0.423460	-0.068543
240	359992													8.885238	0.258849	4.283618	0.428134	-0.879893	-0.206127	0.026989	-0.215538	0.976122	-0.903312	-0.423475	-0.068532
241	360159													8.904742	0.302064	4.185869	0.428383	-0.879541	-0.207111	0.027334	-0.216489	0.975902	-0.903184	-0.423721	-0.068699
242	360325													8.915558	0.318580	4.207272	0.428932	-0.878944	-0.208505	0.027683	-0.217918	0.975574	-0.902912	-0.424227	-0.069140
243	360492													8.921908	0.326423	4.240213	0.429696	-0.878240	-0.209894	0.027977	-0.219388	0.975237	-0.902540	-0.424928	-0.069700
244	360659													8.931788	0.325182	4.197522	0.430674	-0.877469	-0.211110	0.028234	-0.220701	0.974933	-0.902066	-0.425838	-0.070276
245	360825													8.951580	0.356194	4.158253	0.431993	-0.876618	-0.211951	0.028417	-0.221664	0.974709	-0.901429	-0.427090	-0.070846
246	360992													8.935989	0.391205	4.201519	0.433708	-0.875687	-0.212295	0.028537	-0.222140	0.974597	-0.900601	-0.428749	-0.071354
247	361159													8.876895	0.362242	4.238451	0.435672	-0.874654	-0.212533	0.028563	-0.222567	0.974499	-0.899652	-0.430633	-0.071983
248	361325													8.861418	0.280168	4.159465	0.437667	-0.873592	-0.212802	0.028417	-0.223116	0.974378	-0.898688	-0.432500	-0.072826
249	361492													8.819823	0.338448	4.285689	0.439792	-0.872539	-0.212740	0.028157	-0.223366	0.974328	-0.897658	-0.434491	-0.073667
250	361659													8.936631	0.401812	4.311455	0.441933	-0.871510	-0.212524	0.028026	-0.223385	0.974327	-0.896610	-0.436543	-0.074296
251	361825													9.000100	0.324350	4.380484	0.444505	-0.870292	-0.212150	0.027804	-0.223314	0.974350	-0.895345	-0.439002	-0.075066
252	361992													8.800118	0.305272	4.421115	0.447199	-0.869063	-0.211524	0.027163	-0.223184	0.974398	-0.894022	-0.441496	-0.076201
253	362159													8.560493	0.345336	4.360315	0.449159	-0.868317	-0.210433	0.026289	-0.222581	0.974560	-0.893065	-0.443264	-0.077147
254	362326													8.747816	0.327794	4.305968	0.450307	-0.868010	-0.209243	0.025616	-0.221692	0.974780	-0.892506	-0.444310	-0.077594
255	362492													8.981723	0.310886	4.311761	0.451869	-0.867349	-0.208613	0.025092	-0.221399	0.974860	-0.891731	-0.445744	-0.078280
256	362659													8.899446	0.304685	4.302062	0.454402	-0.866252	-0.207667	0.024504	-0.220881	0.974993	-0.890460	-0.448127	-0.079142
257	362826													8.723556	0.271161	4.448274	0.457386	-0.864903	-0.206736	0.024095	-0.220340	0.975125	-0.888942	-0.450990	-0.079940
258	362992													8.648579	0.227880	4.612878	0.460151	-0.863517	-0.206393	0.023869	-0.220351	0.975129	-0.887520	-0.453633	-0.080784
259	363159													8.614734	0.267927	4.638938	0.462666	-0.862202	-0.206272	0.023529	-0.220648	0.975070	-0.886220	-0.455985	-0.081800
260	363326													8.638375	0.256115	4.490684	0.464996	-0.860979	-0.206142	0.023302	-0.220863	0.975026	-0.885006	-0.458187	-0.082637
261	363492													8.785938	0.289401	4.586486	0.467324	-0.859789	-0.205843	0.023043	-0.220906	0.975023	-0.883786	-0.460395	-0.083423
262	363659													8.754257	0.278349	4.699234	0.470297	-0.858258	-0.205458	0.022863	-0.220885	0.975032	-0.882212	-0.463252	-0.084260
263	363826													8.615856	0.221324	4.680175	0.473340	-0.856729	-0.204851	0.022606	-0.220661	0.975089	-0.880590	-0.466179	-0.085080
264	363992													8.558376	0.224258	4.611824	0.476556	-0.855118	-0.204124	0.022105	-0.220456	0.975146	-0.878866	-0.469224	-0.086158
265	364159													8.464355	0.265026	4.601338	0.479892	-0.853500	-0.203080	0.021384	-0.220028	0.975259	-0.877067	-0.472362	-0.087339
266	364326													8.532124	0.236844	4.708796	0.483244	-0.851936	-0.201695	0.020798	-0.219145	0.975471	-0.875239	-0.475585	-0.088182
267	364492													8.224319	0.155492	4.733249	0.487794	-0.849862	-0.199478	0.020454	-0.217319	0.975886	-0.872719	-0.480112	-0.088623
268	364659													8.308417	0.144328	4.958713	0.493324	-0.847987	-0.193775	0.019256	-0.212069	0.977065	-0.869632	-0.485741	-0.088290
269	364826													8.997590	0.299739	5.131974	0.497546	-0.845807	-0.192509	0.018972	-0.211265	0.977245	-0.867230	-0.489876	-0.089068
270	364992													8.334033	0.125363	4.921333	0.501628	-0.843732	-0.191013	0.018671	-0.210192	0.977482	-0.864882	-0.493898	-0.089685
271	365159													8.497408	0.184334	4.905557	0.505265	-0.841886	-0.189565	0.018408	-0.209102	0.977720	-0.862768	-0.497497	-0.090155
272	365326													8.546589	0.269493	4.980103	0.509320	-0.839749	-0.188189	0.018117	-0.208166	0.977926	-0.860387	-0.501486	-0.090809
273	365492													8.413210	0.235134	5.222685	0.513001	-0.837744	-0.187126	0.017911	-0.207502	0.978071	-0.858201	-0.505102	-0.091444
274	365659													8.343604	0.206886	5.233692	0.516332	-0.835911	-0.186154	0.017699	-0.206909	0.978200	-0.856205	-0.508371	-0.092038
275	365826													8.334541	0.183739	5.145343	0.519764	-0.834001	-0.185172	0.017452	-0.206339	0.978325	-0.854132	-0.511730	-0.092692
276	365992													8.353663	0.206325	5.130242	0.523395	-0.831947	-0.184177	0.017172	-0.205805	0.978442	-0.851917	-0.515275	-0.093432
277	366159													8.414299	0.208656	5.057861	0.526932	-0.829858	-0.183516	0.016723	-0.205759	0.978460	-0.849743	-0.518651	-0.094543
278	366326													8.552249	0.159263	5.148456	0.530794	-0.827471	-0.183165	0.016241	-0.206152	0.978385	-0.847345	-0.522296	-0.095985
279	366492													8.208413	0.109211	5.433327	0.534944	-0.824859	-0.182876	0.015980	-0.206533	0.978309	-0.844737	-0.526263	-0.097303
280	366659													8.057199	0.201011	5.325325	0.539092	-0.822284	-0.182285	0.015843	-0.206489	0.978321	-0.842098	-0.530293	-0.098289
281	366826													8.175170	0.249702	5.252078	0.543252	-0.819857	-0.180864	0.015594	-0.205534	0.978526	-0.839425	-0.534407	-0.098872
282	366992													8.346234	0.228219	4.985641	0.547307	-0.817532	-0.179156	0.015064	-0.204406	0.978770	-0.836797	-0.538386	-0.099557
283	367159													8.716500	0.265941	5.164279	0.551569	-0.814997	-0.177628	0.014487	-0.203558	0.978956	-0.834003	-0.542535	-0.100470
284	367326													8.460280	0.304297	5.497958	0.556433	-0.811746	-0.177344	0.014369	-0.204005	0.978864	-0.830768	-0.547221	-0.101851
285	367492													7.542919	0.011545	5.628645	0.560580	-0.809206	-0.175885	0.013387	-0.203513	0.978981	-0.827992	-0.551151	-0.103253
286	367659													7.942012	0.042221	5.534755	0.563985	-0.807119	-0.174585	0.012477	-0.203064	0.979086	-0.825691	-0.554368	-0.104455
287	367826													8.126555	0.261165	5.556509	0.567498	-0.804926	-0.173320	0.011848	-0.202494	0.979212	-0.823290	-0.557754	-0.105378
288	367992													8.049452	0.223449	5.593739	0.570758	-0.802948	-0.171787	0.011200	-0.201578	0.979408	-0.821042	-0.560929	-0.106059
289	368159													8.071329	0.144443	5.478234	0.573562	-0.801243	-0.170401	0.010421	-0.200865	0.979563	-0.819096	-0.563616	-0.106859
290	368326													8.099544	0.017399	5.678927	0.576609	-0.799172	-0.169840	0.009850	-0.201062	0.979529	-0.816961	-0.566478	-0.108062
291	368492													7.817573	0.086485	5.791650	0.579212	-0.797347	-0.169565	0.009478	-0.201408	0.979462	-0.815122	-0.568923	-0.109101
292	368659													7.951391	0.212779	5.801722	0.581546	-0.795773	-0.168969	0.009191	-0.201262	0.979494	-0.813462	-0.571174	-0.109729
293	368826													7.878691	0.173832	5.804328	0.583963	-0.794173	-0.168158	0.008913	-0.200862	0.979579	-0.811732	-0.573536	-0.110217
294	368992													7.719841	0.030131	5.957194	0.586046	-0.792813	-0.167326	0.008388	-0.200557	0.979646	-0.810234	-0.575521	-0.110886
295	369159													7.806676	0.033703	5.923117	0.587831	-0.791661	-0.166515	0.007928	-0.200185	0.979726	-0.808945	-0.577234	-0.111399
296	369326													7.810819	0.101171	5.885899	0.589581	-0.790498	-0.165853	0.007591	-0.199905	0.979786	-0.807673	-0.578922	-0.111860
297	369492													7.785461	0.127775	5.956224	0.591458	-0.789220	-0.165254	0.007277	-0.199711	0.979828	-0.806303	-0.580730	-0.112377
298	369659													7.772069	0.121408	6.037983	0.593370	-0.787934	-0.164537	0.006936	-0.199399	0.979894	-0.804900	-0.582581	-0.112853
299	369826													7.712879	0.080104	6.014096	0.595175	-0.786694	-0.163949	0.006732	-0.199130	0.979950	-0.803568	-0.584345	-0.113221
300	369992													7.747157	0.057346	5.884811	0.596808	-0.785525	-0.163619	0.006726	-0.199011	0.979974	-0.802356	-0.585957	-0.113488
301	370159													7.831556	0.081707	5.931805	0.598599	-0.784198	-0.163442	0.006766	-0.199078	0.979960	-0.801020	-0.587709	-0.113862
302	370326													7.857156	0.089210	5.970467	0.600510	-0.782778	-0.163237	0.006767	-0.199161	0.979943	-0.799589	-0.589571	-0.114301
303	370492													7.827890	0.149045	6.010172	0.602524	-0.781315	-0.162822	0.006832	-0.198955	0.979985	-0.798071	-0.591577	-0.114537
304	370659													7.516875	0.053783	6.104219	0.604339	-0.780012	-0.162347	0.006728	-0.198763	0.980024	-0.796699	-0.593359	-0.114872
305	370826													7.710991	0.082290	5.837391	0.605641	-0.779175	-0.161511	0.006358	-0.198225	0.980136	-0.795712	-0.594638	-0.115099
306	370992													7.926697	0.111823	5.881395	0.607320	-0.778042	-0.160665	0.005916	-0.197797	0.980225	-0.794436	-0.596260	-0.115523
307	371159													7.810401	0.027032	5.901089	0.608909	-0.776950	-0.159934	0.005527	-0.197461	0.980295	-0.793221	-0.597794	-0.115942
308	371326													7.735601	0.068192	6.064860	0.610373	-0.775946	-0.159225	0.005233	-0.197058	0.980378	-0.792097	-0.599229	-0.116218
309	371492													7.732601	0.124183	6.056763	0.611555	-0.775118	-0.158721	0.005117	-0.196729	0.980445	-0.791185	-0.600408	-0.116344
310	371659													7.739944	0.072767	6.124600	0.612695	-0.774389	-0.157883	0.004894	-0.196050	0.980582	-0.790305	-0.601570	-0.116329
311	371826													7.756539	-0.037536	6.167314	0.613741	-0.773678	-0.157304	0.004649	-0.195698	0.980653	-0.789494	-0.602599	-0.116511
312	371992													7.720741	0.044207	6.154129	0.614855	-0.772847	-0.157038	0.004399	-0.195760	0.980642	-0.788628	-0.603644	-0.116964
313	372159													7.649281	0.115072	6.228639	0.616302	-0.771744	-0.156793	0.004130	-0.195930	0.980609	-0.787499	-0.604999	-0.117565
314	372326													7.624813	0.061419	6.198271	0.617907	-0.770502	-0.156579	0.003768	-0.196242	0.980548	-0.786242	-0.606478	-0.118356
315	372492													7.600151	-0.039959	6.193838	0.619388	-0.769307	-0.156607	0.003510	-0.196762	0.980445	-0.785077	-0.607826	-0.119172
316	372659													7.587810	-0.017034	6.067415	0.620316	-0.768496	-0.156915	0.003422	-0.197404	0.980316	-0.784345	-0.608643	-0.119823
317	372826													7.767274	0.093313	5.932029	0.621532	-0.767396	-0.157487	0.003524	-0.198292	0.980137	-0.783381	-0.609741	-0.120540
318	372992													7.795686	0.160163	6.018388	0.623131	-0.766055	-0.157698	0.003556	-0.198852	0.980023	-0.782110	-0.611243	-0.121186
319	373159													7.861016	0.127485	5.901499	0.625031	-0.764616	-0.157161	0.003433	-0.198639	0.980067	-0.780593	-0.613111	-0.121531
320	373326													7.509285	0.008073	6.196490	0.627135	-0.762920	-0.157019	0.003278	-0.199001	0.979994	-0.778904	-0.615103	-0.122300
321	373492													7.700188	0.020872	6.136580	0.628749	-0.761582	-0.157061	0.003122	-0.199506	0.979892	-0.777602	-0.616596	-0.123062
322	373659													7.684866	0.075166	6.228830	0.630676	-0.759988	-0.157055	0.003034	-0.199961	0.979799	-0.776040	-0.618412	-0.123805
323	373826													7.601630	0.034945	6.287501	0.632610	-0.758379	-0.157054	0.002953	-0.200426	0.979704	-0.774465	-0.620234	-0.124552
324	373992													7.566792	0.043448	6.383575	0.634581	-0.756732	-0.157048	0.002875	-0.200892	0.979609	-0.772851	-0.622093	-0.125306
325	374159													7.558934	0.077933	6.380418	0.636552	-0.755045	-0.157193	0.002908	-0.201469	0.979491	-0.771229	-0.623954	-0.126050
326	374326													7.546545	0.090154	6.340076	0.638564	-0.753320	-0.157303	0.002888	-0.202057	0.979370	-0.769563	-0.625845	-0.126851
327	374492													7.671055	0.119220	6.240854	0.640576	-0.751611	-0.157301	0.002708	-0.202635	0.979251	-0.767890	-0.627711	-0.127768
328	374659													7.787788	0.080267	6.175895	0.642729	-0.749793	-0.157192	0.002455	-0.203169	0.979141	-0.766090	-0.629708	-0.128742
329	374826													7.436083	0.040859	6.371309	0.644950	-0.747854	-0.157336	0.002203	-0.204057	0.978957	-0.764222	-0.631725	-0.129959
330	374992													7.470141	0.076609	6.327135	0.647226	-0.745926	-0.157139	0.001783	-0.204656	0.978832	-0.762296	-0.633806	-0.131129
331	375159													7.517977	0.086908	6.307008	0.649887	-0.743721	-0.156609	0.001280	-0.204985	0.978764	-0.760030	-0.636287	-0.132265
332	375326													7.461298	0.045756	6.353170	0.652642	-0.741417	-0.156072	0.000811	-0.205307	0.978697	-0.757666	-0.638866	-0.133391
333	375492													7.479158	0.070731	6.318921	0.655294	-0.739192	-0.155516	0.000330	-0.205599	0.978636	-0.755374	-0.641346	-0.134484
334	375659													7.529567	0.016688	6.402024	0.658018	-0.736845	-0.155154	-0.000100	-0.206133	0.978524	-0.753002	-0.643871	-0.135713
335	375826													7.400931	-0.028783	6.518445	0.660948	-0.734209	-0.155192	-0.000343	-0.207098	0.978320	-0.750431	-0.646566	-0.137133
336	375992													7.227223	-0.087753	6.567824	0.664040	-0.731366	-0.155416	-0.000397	-0.208204	0.978085	-0.747697	-0.649426	-0.138546
337	376159													7.220859	0.017409	6.592821	0.667309	-0.728382	-0.155432	-0.000515	-0.209146	0.977884	-0.744781	-0.652471	-0.139940
338	376326													7.229107	0.102139	6.555319	0.670566	-0.725479	-0.154986	-0.000730	-0.209564	0.977795	-0.741849	-0.655563	-0.141057
339	376492													7.385748	0.099141	6.629685	0.673541	-0.722929	-0.154001	-0.001232	-0.209447	0.977819	-0.739149	-0.658411	-0.141962
340	376659													7.190189	-0.033554	6.742393	0.676412	-0.720473	-0.152921	-0.001894	-0.209326	0.977844	-0.736521	-0.661136	-0.142955
341	376826													7.092246	-0.054932	6.793907	0.679336	-0.717952	-0.151815	-0.002563	-0.209201	0.977869	-0.733823	-0.663913	-0.143958
342	376992													7.070125	-0.003829	6.814669	0.682651	-0.715049	-0.150638	-0.003168	-0.209037	0.977903	-0.730738	-0.667089	-0.144965
343	377159													7.009953	-0.006396	6.781521	0.686144	-0.711938	-0.149501	-0.003697	-0.208920	0.977926	-0.727457	-0.670445	-0.145981
344	377326													7.173937	-0.055574	6.674737	0.689297	-0.709117	-0.148401	-0.004270	-0.208812	0.977946	-0.724466	-0.673462	-0.146962
345	377492													7.154950	-0.050197	6.738008	0.692183	-0.706495	-0.147469	-0.004836	-0.208866	0.977932	-0.721706	-0.676195	-0.147990
346	377659													7.137669	-0.004796	6.852160	0.695023	-0.703895	-0.146542	-0.005443	-0.208962	0.977909	-0.718967	-0.678872	-0.149065
347	377826													6.866626	-0.041964	6.987294	0.698136	-0.701012	-0.145564	-0.006036	-0.209067	0.977883	-0.715940	-0.681816	-0.150189
348	377992													6.873791	-0.079359	6.882560	0.701570	-0.697824	-0.144369	-0.006743	-0.209086	0.977874	-0.712569	-0.685073	-0.151393
349	378159													6.957399	-0.055504	6.897465	0.705203	-0.694433	-0.143010	-0.007554	-0.209052	0.977875	-0.708966	-0.688520	-0.152670
350	378326													6.974713	-0.029036	6.915523	0.708502	-0.691370	-0.141535	-0.008431	-0.208835	0.977915	-0.705658	-0.691661	-0.153789
351	378492													6.938591	-0.042845	7.022775	0.711541	-0.688597	-0.139803	-0.009488	-0.208364	0.978005	-0.702581	-0.694564	-0.154793
352	378659													6.868292	-0.134350	7.019802	0.714479	-0.685891	-0.138106	-0.010629	-0.208009	0.978069	-0.699576	-0.697342	-0.155908
353	378826													6.729042	-0.134893	7.039675	0.717592	-0.682926	-0.136649	-0.011613	-0.207910	0.978079	-0.696366	-0.700275	-0.157125
354	378993													6.649086	-0.091749	7.060945	0.720822	-0.679781	-0.135324	-0.012465	-0.207921	0.978066	-0.693008	-0.703325	-0.158348
355	379159													6.655979	-0.125766	7.108724	0.724209	-0.676421	-0.134076	-0.013177	-0.207970	0.978046	-0.689454	-0.706543	-0.159527
356	379326													6.705513	-0.106554	7.148160	0.727586	-0.673041	-0.132792	-0.013852	-0.207944	0.978043	-0.685876	-0.709771	-0.160620
357	379493													6.703764	-0.092247	7.170362	0.730656	-0.669910	-0.131765	-0.014338	-0.208006	0.978022	-0.682595	-0.712709	-0.161586
358	379659													6.748924	-0.048663	7.256183	0.733406	-0.667089	-0.130794	-0.014842	-0.208071	0.978001	-0.679628	-0.715331	-0.162502
359	379826													6.582310	-0.087446	7.283455	0.736188	-0.664197	-0.129884	-0.015282	-0.208181	0.977971	-0.676605	-0.717985	-0.163411
360	379993													6.511402	-0.105228	7.287274	0.739240	-0.660974	-0.128985	-0.015633	-0.208322	0.977935	-0.673260	-0.720913	-0.164333
361	380159													6.503894	-0.079711	7.277634	0.742543	-0.657504	-0.127742	-0.016128	-0.208213	0.977951	-0.669604	-0.724110	-0.165211
362	380326													6.581697	-0.124574	7.337077	0.745779	-0.654124	-0.126232	-0.016855	-0.207949	0.977994	-0.665980	-0.727241	-0.166109
363	380493													6.578464	-0.163595	7.304367	0.748167	-0.651764	-0.124297	-0.018000	-0.207200	0.978133	-0.663266	-0.729570	-0.166752
364	380659													6.533673	-0.227756	7.398860	0.750097	-0.649867	-0.122590	-0.019079	-0.206557	0.978248	-0.661053	-0.731442	-0.167337
365	380826													6.272717	-0.352510	7.341727	0.751988	-0.647915	-0.121328	-0.019954	-0.206349	0.978275	-0.658875	-0.733230	-0.168101
366	380993													6.222223	-0.281313	7.297335	0.753956	-0.645728	-0.120773	-0.020381	-0.206749	0.978182	-0.656609	-0.735045	-0.169040
367	381159													6.326042	-0.098531	7.328184	0.756046	-0.643374	-0.120271	-0.020693	-0.207158	0.978089	-0.654192	-0.736991	-0.169934
368	381326													6.319869	-0.151878	7.498956	0.758145	-0.641113	-0.119121	-0.021396	-0.207035	0.978100	-0.651735	-0.738993	-0.170680
369	381493													6.186922	-0.280649	7.596754	0.760156	-0.638943	-0.117957	-0.022184	-0.206961	0.978098	-0.649361	-0.740891	-0.171497
370	381659													6.182734	-0.208466	7.637565	0.761928	-0.636988	-0.117099	-0.022838	-0.207116	0.978050	-0.647259	-0.742529	-0.172355
371	381826													6.236653	-0.115774	7.572370	0.763435	-0.635289	-0.116512	-0.023321	-0.207387	0.977981	-0.645463	-0.743908	-0.173142
372	381993													6.225338	-0.161618	7.543213	0.764759	-0.633838	-0.115724	-0.023954	-0.207453	0.977952	-0.643871	-0.745126	-0.173834
373	382159													6.164773	-0.259316	7.563839	0.765899	-0.632651	-0.114681	-0.024776	-0.207271	0.977970	-0.642484	-0.746184	-0.174423
374	382326													6.160319	-0.281291	7.528640	0.766804	-0.631731	-0.113698	-0.025576	-0.207061	0.977994	-0.641372	-0.747022	-0.174932
375	382493													6.161955	-0.248079	7.537662	0.767631	-0.630827	-0.113138	-0.026064	-0.207115	0.977969	-0.640362	-0.747770	-0.175430
376	382659													6.194720	-0.183490	7.602626	0.768296	-0.630073	-0.112828	-0.026328	-0.207225	0.977939	-0.639553	-0.748376	-0.175799
377	382826													6.191130	-0.242754	7.584383	0.768740	-0.629572	-0.112594	-0.026487	-0.207238	0.977932	-0.639013	-0.748793	-0.175988
378	382993													6.132203	-0.286520	7.503646	0.769027	-0.629217	-0.112623	-0.026421	-0.207328	0.977915	-0.638670	-0.749067	-0.176065
379	383159													6.162850	-0.239562	7.569445	0.769144	-0.629035	-0.112839	-0.026223	-0.207481	0.977888	-0.638537	-0.749177	-0.176078
380	383326													6.127470	-0.234925	7.593304	0.769109	-0.629057	-0.112952	-0.026067	-0.207459	0.977896	-0.638586	-0.749165	-0.175956
381	383493													6.147309	-0.204649	7.586238	0.768919	-0.629263	-0.113098	-0.025904	-0.207413	0.977910	-0.638821	-0.749004	-0.175785
382	383659													6.267218	-0.197917	7.414380	0.768558	-0.629687	-0.113197	-0.025801	-0.207292	0.977939	-0.639260	-0.748682	-0.175562
383	383826													6.200115	-0.215214	7.543412	0.767914	-0.630460	-0.113260	-0.025712	-0.207012	0.978000	-0.640036	-0.748108	-0.175178
384	383993													6.056250	-0.286546	7.674425	0.766900	-0.631666	-0.113418	-0.025571	-0.206663	0.978078	-0.641257	-0.747188	-0.174642
385	384159													5.980037	-0.320076	7.593587	0.765651	-0.633094	-0.113885	-0.025156	-0.206378	0.978149	-0.642764	-0.746056	-0.173940
386	384326													6.093851	-0.273008	7.526620	0.764201	-0.634710	-0.114629	-0.024525	-0.206193	0.978204	-0.644512	-0.744733	-0.173139
387	384493													6.206384	-0.198636	7.518182	0.762434	-0.636720	-0.115248	-0.024062	-0.205884	0.978280	-0.646619	-0.743101	-0.172294
388	384659													6.233122	-0.138052	7.506539	0.760301	-0.639306	-0.115019	-0.024266	-0.204899	0.978482	-0.649117	-0.741150	-0.171298
389	384826													6.192729	-0.257550	7.497214	0.758089	-0.641937	-0.114969	-0.024371	-0.204055	0.978656	-0.651696	-0.739106	-0.170336
390	384993													6.110505	-0.302932	7.529557	0.755748	-0.644575	-0.115625	-0.023895	-0.203588	0.978765	-0.654427	-0.736937	-0.169263
391	385159													6.178945	-0.235774	7.515549	0.753194	-0.647396	-0.116516	-0.023121	-0.203076	0.978890	-0.657391	-0.734601	-0.167924
392	385326													6.297052	-0.186341	7.455748	0.750397	-0.650427	-0.117684	-0.022109	-0.202641	0.979004	-0.660618	-0.732039	-0.166441
393	385493													6.480062	-0.168571	7.339198	0.747178	-0.653912	-0.118844	-0.021184	-0.202156	0.979124	-0.664286	-0.729063	-0.164899
394	385659													6.517448	-0.252870	7.327672	0.743688	-0.657647	-0.120120	-0.020290	-0.201799	0.979217	-0.668219	-0.725795	-0.163419
395	385826													6.452900	-0.165609	7.422902	0.740136	-0.661315	-0.121910	-0.019022	-0.201807	0.979241	-0.672188	-0.722452	-0.161944
396	385993													6.427568	-0.093588	7.463277	0.736574	-0.664976	-0.123555	-0.017739	-0.201608	0.979306	-0.676125	-0.719139	-0.160296
397	386159													6.501417	-0.172175	7.331871	0.732886	-0.668839	-0.124627	-0.016864	-0.200983	0.979450	-0.680142	-0.715724	-0.158577
398	386326													6.607071	-0.196312	7.147549	0.729033	-0.672775	-0.126035	-0.015898	-0.200726	0.979518	-0.684294	-0.712098	-0.157032
399	386493													6.664948	-0.145502	7.189028	0.725048	-0.676722	-0.127876	-0.014724	-0.200868	0.979508	-0.688541	-0.708307	-0.155603
400	386659													6.682021	-0.122897	7.218562	0.720916	-0.680822	-0.129467	-0.013704	-0.200783	0.979540	-0.692887	-0.704392	-0.154078
401	386826													6.754056	-0.134102	7.032378	0.716650	-0.685069	-0.130737	-0.012927	-0.200470	0.979615	-0.697313	-0.700351	-0.152523
402	386993													6.845010	-0.155748	6.936228	0.712423	-0.689184	-0.132205	-0.012019	-0.200350	0.979651	-0.701647	-0.696337	-0.151018
403	387159													6.854055	-0.143436	6.957036	0.708281	-0.693117	-0.133893	-0.010867	-0.200351	0.979664	-0.705847	-0.692422	-0.149436
404	387326													6.874126	-0.119280	7.003680	0.704102	-0.697071	-0.135396	-0.009727	-0.200122	0.979723	-0.710032	-0.688508	-0.147687
405	387493													6.962347	-0.103870	6.949242	0.699593	-0.701377	-0.136530	-0.008817	-0.199533	0.979851	-0.714487	-0.684293	-0.145776
406	387659													7.080510	-0.064855	6.872727	0.694753	-0.705970	-0.137567	-0.008024	-0.198861	0.979995	-0.719204	-0.679751	-0.143824
407	387826													7.091599	-0.002356	6.660478	0.689814	-0.710574	-0.138716	-0.007086	-0.198218	0.980132	-0.723952	-0.675126	-0.141768
408	387993													7.098505	0.028771	6.689515	0.684873	-0.715030	-0.140289	-0.005717	-0.197796	0.980226	-0.728640	-0.670528	-0.139553
409	388159													7.101664	0.015079	6.836843	0.679704	-0.719675	-0.141666	-0.004418	-0.197154	0.980363	-0.733473	-0.665731	-0.137186
410	388326													7.179139	0.026616	6.801501	0.674080	-0.724747	-0.142680	-0.003275	-0.196092	0.980580	-0.738651	-0.660522	-0.134555
411	388493													7.238688	0.038908	6.639316	0.668082	-0.730126	-0.143470	-0.002145	-0.194702	0.980860	-0.744085	-0.654987	-0.131643
412	388659													7.345235	0.062767	6.321506	0.661968	-0.735472	-0.144496	-0.000829	-0.193499	0.981100	-0.749531	-0.649337	-0.128700
413	388826													7.382123	0.042257	6.373996	0.655884	-0.740734	-0.145361	0.000246	-0.192357	0.981325	-0.754862	-0.643671	-0.125982
414	388993													7.410181	0.068092	6.488822	0.649528	-0.746097	-0.146465	0.001366	-0.191486	0.981494	-0.760336	-0.637709	-0.123357
415	389159													7.425611	0.078956	6.551130	0.642894	-0.751650	-0.147340	0.002351	-0.190424	0.981699	-0.765951	-0.631475	-0.120655
416	389326													7.397638	0.023670	6.515586	0.636008	-0.757322	-0.148181	0.003394	-0.189276	0.981918	-0.771675	-0.625010	-0.117811
417	389493													7.433640	-0.031364	6.245896	0.629146	-0.762819	-0.149274	0.004492	-0.188473	0.982068	-0.777274	-0.618535	-0.115150
418	389659													7.460047	0.062710	5.986651	0.622589	-0.768025	-0.150067	0.005301	-0.187624	0.982227	-0.782531	-0.612319	-0.112741
419	389826													7.723493	0.114581	6.059376	0.616148	-0.773098	-0.150605	0.005844	-0.186720	0.982396	-0.787609	-0.606181	-0.110529
420	389993													7.815736	0.134139	6.185153	0.609583	-0.778065	-0.151735	0.006460	-0.186528	0.982428	-0.792696	-0.599852	-0.108678
421	390159													7.889855	0.025391	6.141907	0.603294	-0.782757	-0.152735	0.007038	-0.186280	0.982472	-0.797488	-0.593794	-0.106873
422	390326													7.821619	0.036074	5.896700	0.597358	-0.786981	-0.154355	0.007864	-0.186711	0.982383	-0.801936	-0.588048	-0.105344
423	390493													7.772562	0.061727	5.687782	0.591573	-0.791093	-0.155609	0.008451	-0.186908	0.982341	-0.806207	-0.582441	-0.103884
424	390659													7.914466	0.128961	5.674115	0.585915	-0.795274	-0.155702	0.008703	-0.185950	0.982521	-0.810326	-0.577029	-0.102030
425	390826													8.127498	0.238707	5.767377	0.580425	-0.799188	-0.156219	0.009233	-0.185370	0.982625	-0.814261	-0.571783	-0.100214
426	390993													8.140720	0.114058	5.903433	0.575007	-0.802979	-0.156819	0.009756	-0.184932	0.982703	-0.818090	-0.566591	-0.098503
427	391159													8.011712	-0.069662	5.674667	0.569531	-0.806557	-0.158431	0.010579	-0.185537	0.982580	-0.821902	-0.561286	-0.097136
428	391326													8.049966	0.031112	5.379957	0.564126	-0.809933	-0.160532	0.011481	-0.186709	0.982348	-0.825609	-0.556011	-0.096029
429	391493													8.132261	0.171533	5.315389	0.558804	-0.813347	-0.161878	0.012001	-0.187247	0.982239	-0.829213	-0.550822	-0.094874
430	391659													8.314969	0.269551	5.339246	0.553607	-0.816727	-0.162714	0.012439	-0.187256	0.982232	-0.832685	-0.545795	-0.093507
431	391826													8.394923	0.235649	5.418383	0.548651	-0.819952	-0.163281	0.012809	-0.187033	0.982270	-0.835953	-0.541015	-0.092113
432	391993													8.295644	0.119317	5.371767	0.543805	-0.822986	-0.164228	0.013372	-0.187171	0.982236	-0.839105	-0.536341	-0.090780
433	392159													8.163636	0.039440	5.167168	0.539033	-0.825825	-0.165699	0.014213	-0.187779	0.982108	-0.842165	-0.531744	-0.089482
434	392326													8.242488	0.141724	5.048569	0.534044	-0.828662	-0.167677	0.015130	-0.188928	0.981874	-0.845321	-0.526901	-0.088358
435	392493													8.515311	0.205975	5.046339	0.529442	-0.831381	-0.168808	0.015806	-0.189283	0.981795	-0.848199	-0.522472	-0.087073
436	392659													8.595713	0.209648	5.240932	0.525396	-0.833809	-0.169474	0.016396	-0.189222	0.981797	-0.850700	-0.518611	-0.085745
437	392826													8.449619	0.177655	5.256567	0.521424	-0.836187	-0.170022	0.017043	-0.189008	0.981828	-0.853127	-0.514846	-0.084302
438	392993													8.288817	0.152448	5.158372	0.517455	-0.838600	-0.170265	0.017645	-0.188475	0.981919	-0.855528	-0.511104	-0.082730
439	393159													8.342586	0.183633	4.931072	0.513579	-0.840874	-0.170783	0.018233	-0.188298	0.981943	-0.857849	-0.507419	-0.081374
440	393326													8.453832	0.243268	4.936880	0.509705	-0.842939	-0.172205	0.018909	-0.189133	0.981769	-0.860141	-0.503669	-0.080463
441	393493													8.571658	0.257726	5.009443	0.506017	-0.844932	-0.173310	0.019396	-0.189736	0.981643	-0.862305	-0.500090	-0.079622
442	393659													8.570488	0.208281	5.039468	0.502755	-0.846766	-0.173851	0.019842	-0.189760	0.981630	-0.864201	-0.496969	-0.078601
443	393826													8.454044	0.181562	5.017208	0.499754	-0.848434	-0.174370	0.020358	-0.189751	0.981621	-0.865928	-0.494119	-0.077557
444	393993													8.451208	0.198288	4.870770	0.496902	-0.850011	-0.174842	0.020920	-0.189684	0.981622	-0.867554	-0.491428	-0.076473
445	394159													8.570866	0.293547	4.737934	0.494295	-0.851460	-0.175182	0.021383	-0.189552	0.981638	-0.869031	-0.488964	-0.075487
446	394326													8.669803	0.319427	4.733812	0.491890	-0.852786	-0.175500	0.021722	-0.189489	0.981643	-0.870386	-0.486672	-0.074683
447	394493													8.642494	0.235366	4.827554	0.489482	-0.854071	-0.175982	0.022059	-0.189619	0.981610	-0.871734	-0.484362	-0.073975
448	394659													8.583122	0.180071	4.879743	0.487110	-0.855208	-0.177039	0.022525	-0.190345	0.981459	-0.873050	-0.482066	-0.073456
449	394826													8.569611	0.187335	4.822018	0.484828	-0.856232	-0.178351	0.023053	-0.191340	0.981253	-0.874306	-0.479851	-0.073028
450	394993													8.615669	0.278187	4.766595	0.483017	-0.857250	-0.178377	0.023351	-0.191033	0.981306	-0.875300	-0.478152	-0.072254
451	395159													8.634524	0.303353	4.567383	0.481077	-0.858353	-0.178312	0.023588	-0.190648	0.981375	-0.876361	-0.476323	-0.071470
452	395326													8.699289	0.312391	4.558952	0.479195	-0.859243	-0.179094	0.023861	-0.191219	0.981257	-0.877384	-0.474487	-0.071129
453	395493													8.646511	0.221251	4.722979	0.477086	-0.860291	-0.179690	0.023950	-0.191657	0.981170	-0.878530	-0.472406	-0.070833
454	395660													8.612202	0.183924	4.686815	0.474622	-0.861550	-0.180182	0.024094	-0.191914	0.981116	-0.879860	-0.470000	-0.070329
455	395826													8.721650	0.255347	4.504590	0.472488	-0.862549	-0.181011	0.024577	-0.192408	0.981007	-0.880995	-0.467962	-0.069712
456	395993													8.877079	0.338112	4.501059	0.471530	-0.862909	-0.181789	0.025272	-0.192838	0.980905	-0.881488	-0.467120	-0.069121
457	396160													8.777287	0.265220	4.684244	0.471245	-0.862989	-0.182147	0.025840	-0.192919	0.980874	-0.881624	-0.466939	-0.068613
458	396326													8.573077	0.219201	4.747431	0.470574	-0.863317	-0.182329	0.026156	-0.192899	0.980870	-0.881973	-0.466341	-0.068192
459	396493													8.454157	0.210340	4.744185	0.469214	-0.864074	-0.182250	0.026371	-0.192576	0.980928	-0.882691	-0.465071	-0.067572
460	396660													8.588634	0.234504	4.643333	0.467352	-0.865157	-0.181896	0.026661	-0.191861	0.981060	-0.883669	-0.463350	-0.066601
461	396826													8.821983	0.276166	4.396192	0.466100	-0.865876	-0.181685	0.026899	-0.191392	0.981145	-0.884323	-0.462199	-0.065917
462	396993													8.881122	0.299859	4.446119	0.465872	-0.866015	-0.181605	0.027049	-0.191204	0.981178	-0.884439	-0.462016	-0.065652
463	397160													8.710816	0.286301	4.591289	0.466140	-0.865887	-0.181529	0.027216	-0.191052	0.981202	-0.884292	-0.462319	-0.065491
464	397326													8.630461	0.232071	4.648208	0.466214	-0.865856	-0.181485	0.027482	-0.190870	0.981231	-0.884245	-0.462451	-0.065191
465	397493													8.644070	0.240782	4.632215	0.466135	-0.865840	-0.181769	0.027761	-0.191040	0.981190	-0.884278	-0.462413	-0.065014
466	397660													8.673310	0.260152	4.608137	0.465796	-0.866001	-0.181870	0.027913	-0.191046	0.981184	-0.884452	-0.462108	-0.064816
467	397826													8.654232	0.302326	4.602412	0.465391	-0.866282	-0.181567	0.028086	-0.190579	0.981270	-0.884659	-0.461774	-0.064363
468	397993													8.687608	0.345449	4.550823	0.464752	-0.866616	-0.181612	0.028428	-0.190399	0.981295	-0.884985	-0.461221	-0.063852
469	398160													8.693793	0.311210	4.553775	0.463808	-0.866981	-0.182279	0.028799	-0.190885	0.981190	-0.885467	-0.460333	-0.063566
470	398326													8.806386	0.265087	4.500510	0.462899	-0.867288	-0.183132	0.029044	-0.191648	0.981034	-0.885935	-0.459438	-0.063524
471	398493													8.847959	0.285183	4.473998	0.462683	-0.867304	-0.183597	0.029190	-0.192081	0.980945	-0.886043	-0.459226	-0.063556
472	398660													8.752307	0.310412	4.498891	0.462988	-0.867059	-0.183984	0.029436	-0.192416	0.980872	-0.885875	-0.459548	-0.063564
473	398826													8.602642	0.304723	4.576794	0.463276	-0.866820	-0.184387	0.029759	-0.192728	0.980801	-0.885714	-0.459868	-0.063491
474	398993													8.561577	0.349821	4.603197	0.462962	-0.867093	-0.183891	0.030002	-0.192015	0.980933	-0.885870	-0.459652	-0.062881
475	399160													8.797227	0.332728	4.345715	0.462711	-0.867356	-0.183279	0.030306	-0.191146	0.981094	-0.885991	-0.459517	-0.062159
476	399326													8.938780	0.399171	4.318739	0.463481	-0.866989	-0.183073	0.030572	-0.190835	0.981146	-0.885579	-0.460340	-0.061942
477	399493													8.841169	0.337124	4.478146	0.465053	-0.866170	-0.182962	0.030693	-0.190771	0.981155	-0.884751	-0.461905	-0.062134
478	399660													8.670908	0.285436	4.592176	0.466750	-0.865226	-0.183109	0.030832	-0.191001	0.981106	-0.883852	-0.463576	-0.062473
479	399826													8.630811	0.296366	4.673557	0.468397	-0.864264	-0.183444	0.031011	-0.191419	0.981018	-0.882974	-0.465195	-0.062859
480	399993													8.669865	0.326805	4.655909	0.470057	-0.863304	-0.183721	0.031140	-0.191801	0.980940	-0.882087	-0.466818	-0.063274
481	400160													8.675162	0.334853	4.631227	0.471713	-0.862368	-0.183867	0.031215	-0.192062	0.980886	-0.881199	-0.468437	-0.063679
482	400326													8.634718	0.341341	4.671545	0.473337	-0.861456	-0.183973	0.031290	-0.192277	0.980842	-0.880326	-0.470025	-0.064057
483	400493													8.586345	0.291517	4.736806	0.474897	-0.860591	-0.184000	0.031411	-0.192372	0.980819	-0.879481	-0.471568	-0.064325
484	400660													8.567713	0.278684	4.767220	0.476325	-0.859772	-0.184138	0.031559	-0.192570	0.980776	-0.878703	-0.472979	-0.064592
485	400826													8.593032	0.293655	4.832538	0.477722	-0.858917	-0.184508	0.031777	-0.192992	0.980686	-0.877936	-0.474358	-0.064903
486	400993													8.602840	0.310447	4.783344	0.478993	-0.858167	-0.184702	0.031870	-0.193271	0.980628	-0.877240	-0.475600	-0.065226
487	401160													8.523373	0.317148	4.796189	0.479765	-0.857708	-0.184833	0.031931	-0.193453	0.980590	-0.876816	-0.476354	-0.065424
488	401326													8.465801	0.305153	4.762306	0.480166	-0.857449	-0.184990	0.032207	-0.193516	0.980568	-0.876586	-0.476794	-0.065305
489	401493													8.582334	0.358443	4.810289	0.480239	-0.857343	-0.185292	0.032654	-0.193625	0.980532	-0.876530	-0.476940	-0.064991
490	401660													8.681176	0.293387	4.782284	0.480314	-0.857230	-0.185621	0.033034	-0.193801	0.980485	-0.876475	-0.477072	-0.064768
491	401826													8.640865	0.347486	4.800487	0.480293	-0.857134	-0.186118	0.033169	-0.194294	0.980382	-0.876480	-0.477045	-0.064888
492	401993													8.533562	0.387981	4.809692	0.480300	-0.857061	-0.186434	0.033203	-0.194638	0.980313	-0.876475	-0.477035	-0.065028
493	402160													8.494973	0.355629	4.809704	0.479927	-0.857178	-0.186859	0.033368	-0.195002	0.980235	-0.876674	-0.476677	-0.064984
494	402326													8.529235	0.340237	4.694337	0.479156	-0.857559	-0.187087	0.033412	-0.195173	0.980199	-0.877093	-0.475920	-0.064866
495	402493													8.599050	0.360505	4.674741	0.478332	-0.858048	-0.186954	0.033382	-0.194969	0.980241	-0.877544	-0.475121	-0.064617
496	402660													8.671638	0.354673	4.668179	0.477527	-0.858506	-0.186909	0.033468	-0.194803	0.980271	-0.877979	-0.474362	-0.064291
497	402826													8.713616	0.330781	4.673943	0.476807	-0.858896	-0.186954	0.033583	-0.194733	0.980281	-0.878366	-0.473684	-0.064006
498	402993													8.683568	0.317946	4.666257	0.476392	-0.859087	-0.187138	0.033645	-0.194874	0.980251	-0.878589	-0.473280	-0.063932
499	403160													8.661048	0.313256	4.600139	0.476018	-0.859251	-0.187336	0.033594	-0.195097	0.980208	-0.878794	-0.472890	-0.064004
500	403326													8.690914	0.364065	4.605834	0.475828	-0.859312	-0.187539	0.033521	-0.195351	0.980160	-0.878899	-0.472674	-0.064148
501	403493													8.713591	0.400934	4.592453	0.475672	-0.859347	-0.187772	0.033544	-0.195592	0.980111	-0.878983	-0.472510	-0.064212
502	403660													8.693160	0.349475	4.670618	0.475738	-0.859266	-0.187978	0.033649	-0.195776	0.980071	-0.878943	-0.472582	-0.064225
503	403826													8.605420	0.333117	4.683975	0.475646	-0.859283	-0.188131	0.033698	-0.195917	0.980041	-0.878991	-0.472493	-0.064231
504	403993													8.634855	0.317865	4.690816	0.475382	-0.859418	-0.188182	0.033718	-0.195942	0.980036	-0.879133	-0.472237	-0.064170
505	404160													8.644305	0.342767	4.667257	0.475086	-0.859544	-0.188355	0.033805	-0.196068	0.980007	-0.879290	-0.471955	-0.064092
506	404326													8.656325	0.353710	4.614267	0.474805	-0.859651	-0.188576	0.033946	-0.196221	0.979972	-0.879436	-0.471697	-0.063985
507	404493													8.633565	0.378660	4.620852	0.474735	-0.859643	-0.188788	0.034134	-0.196356	0.979938	-0.879467	-0.471655	-0.063874
508	404660													8.616699	0.360354	4.680845	0.474704	-0.859636	-0.188895	0.034256	-0.196410	0.979923	-0.879479	-0.471644	-0.063789
509	404826													8.653972	0.327477	4.667512	0.474597	-0.859691	-0.188915	0.034330	-0.196384	0.979926	-0.879533	-0.471555	-0.063690
510	404993													8.640124	0.324555	4.637526	0.474521	-0.859728	-0.188940	0.034392	-0.196374	0.979926	-0.879572	-0.471493	-0.063616
511	405160													8.633558	0.364415	4.622519	0.474394	-0.859768	-0.189077	0.034521	-0.196450	0.979906	-0.879636	-0.471388	-0.063515
512	405326													8.661187	0.373124	4.651856	0.474258	-0.859798	-0.189280	0.034674	-0.196588	0.979873	-0.879703	-0.471276	-0.063420
513	405493													8.657997	0.363821	4.652185	0.474132	-0.859836	-0.189422	0.034817	-0.196663	0.979853	-0.879765	-0.471175	-0.063307
514	405660													8.659483	0.344706	4.689962	0.474093	-0.859816	-0.189611	0.034919	-0.196820	0.979818	-0.879782	-0.471146	-0.063287
515	405826													8.658411	0.341000	4.701141	0.474114	-0.859773	-0.189753	0.034941	-0.196972	0.979786	-0.879770	-0.471160	-0.063346
516	405993													8.639853	0.362258	4.696130	0.474178	-0.859725	-0.189812	0.034938	-0.197047	0.979771	-0.879735	-0.471218	-0.063398
517	406160													8.596777	0.365528	4.682346	0.474204	-0.859705	-0.189837	0.035011	-0.197038	0.979771	-0.879719	-0.471257	-0.063337
518	406326													8.589566	0.379942	4.667740	0.474051	-0.859801	-0.189785	0.035062	-0.196939	0.979789	-0.879799	-0.471124	-0.063212
519	406493													8.669933	0.300963	4.603039	0.473530	-0.860126	-0.189610	0.035011	-0.196725	0.979833	-0.880082	-0.470619	-0.063042
520	406660													8.648122	0.329396	4.643610	0.473015	-0.860427	-0.189530	0.034916	-0.196642	0.979853	-0.880362	-0.470103	-0.062972
521	406826													8.668683	0.390898	4.590080	0.472810	-0.860516	-0.189637	0.035093	-0.196653	0.979845	-0.880465	-0.469936	-0.062781
522	406993													8.779973	0.414197	4.690718	0.472783	-0.860494	-0.189805	0.035394	-0.196681	0.979829	-0.880468	-0.469965	-0.062531
523	407160													8.706729	0.303566	4.682993	0.472886	-0.860415	-0.189906	0.035409	-0.196796	0.979805	-0.880412	-0.470061	-0.062596
524	407326													8.596215	0.315851	4.700739	0.472764	-0.860487	-0.189884	0.035161	-0.196893	0.979794	-0.880487	-0.469888	-0.062828
525	407493													8.577525	0.352508	4.673655	0.472594	-0.860558	-0.189985	0.035059	-0.197049	0.979767	-0.880582	-0.469693	-0.062954
526	407660													8.624610	0.357091	4.621047	0.472142	-0.860720	-0.190374	0.035155	-0.197404	0.979692	-0.880821	-0.469246	-0.062944
527	407826													8.673534	0.366547	4.563313	0.471775	-0.860918	-0.190389	0.035065	-0.197439	0.979688	-0.881021	-0.468868	-0.062959
528	407993													8.670605	0.368582	4.555649	0.471782	-0.860971	-0.190132	0.034900	-0.197235	0.979735	-0.881024	-0.468856	-0.063004
529	408160													8.668169	0.337153	4.604943	0.472134	-0.860816	-0.189961	0.034820	-0.197112	0.979762	-0.880839	-0.469193	-0.063089
530	408326													8.687203	0.314509	4.662926	0.472625	-0.860568	-0.189864	0.034804	-0.197050	0.979775	-0.880576	-0.469674	-0.063180
531	408493													8.646151	0.278815	4.629547	0.473109	-0.860300	-0.189872	0.034848	-0.197075	0.979769	-0.880315	-0.470154	-0.063258
532	408660													8.620801	0.333355	4.692188	0.473328	-0.860141	-0.190046	0.034864	-0.197283	0.979727	-0.880196	-0.470358	-0.063392
533	408826													8.696315	0.394884	4.645164	0.473469	-0.860022	-0.190236	0.034922	-0.197480	0.979685	-0.880118	-0.470493	-0.063467
534	408993													8.740902	0.371543	4.656083	0.473707	-0.859865	-0.190353	0.035009	-0.197586	0.979660	-0.879987	-0.470736	-0.063494
535	409160													8.689176	0.333259	4.644978	0.474224	-0.859566	-0.190413	0.035036	-0.197683	0.979640	-0.879707	-0.471240	-0.063630
536	409326													8.627298	0.363983	4.696374	0.474719	-0.859325	-0.190271	0.034950	-0.197607	0.979658	-0.879443	-0.471712	-0.063774
537	409493													8.612870	0.362626	4.691014	0.475110	-0.859137	-0.190142	0.034916	-0.197511	0.979679	-0.879234	-0.472094	-0.063841
538	409660													8.623399	0.371711	4.640090	0.475322	-0.859022	-0.190133	0.035013	-0.197466	0.979684	-0.879115	-0.472322	-0.063783
539	409826													8.650090	0.371022	4.651061	0.475754	-0.858813	-0.189997	0.035103	-0.197299	0.979715	-0.878878	-0.472773	-0.063719
540	409993													8.639418	0.370821	4.666266	0.476466	-0.858464	-0.189788	0.035187	-0.197073	0.979757	-0.878488	-0.473500	-0.063692
541	410160													8.616439	0.369416	4.677386	0.477198	-0.858113	-0.189538	0.035249	-0.196815	0.979807	-0.878089	-0.474243	-0.063672
542	410326													8.607263	0.339530	4.697030	0.477772	-0.857797	-0.189519	0.035322	-0.196802	0.979807	-0.877773	-0.474819	-0.063727
543	410493													8.603021	0.348878	4.695706	0.478163	-0.857547	-0.189666	0.035396	-0.196962	0.979772	-0.877558	-0.475204	-0.063826
544	410660													8.613757	0.350917	4.709359	0.478423	-0.857375	-0.189787	0.035502	-0.197065	0.979747	-0.877412	-0.475471	-0.063842
545	410826													8.644325	0.344991	4.716125	0.478623	-0.857232	-0.189932	0.035647	-0.197168	0.979721	-0.877297	-0.475687	-0.063812
546	410993													8.665520	0.376120	4.726283	0.478988	-0.857012	-0.190002	0.035725	-0.197236	0.979705	-0.877094	-0.476055	-0.063857
547	411160													8.662959	0.385296	4.703774	0.479641	-0.856653	-0.189974	0.035750	-0.197246	0.979702	-0.876736	-0.476696	-0.063982
548	411326													8.639662	0.395129	4.702614	0.480479	-0.856238	-0.189727	0.035676	-0.197073	0.979739	-0.876281	-0.477513	-0.064142
549	411493													8.563306	0.372113	4.710758	0.481168	-0.855937	-0.189341	0.035452	-0.196811	0.979800	-0.875911	-0.478161	-0.064354
550	411660													8.568008	0.370671	4.734898	0.481443	-0.855803	-0.189245	0.035303	-0.196806	0.979807	-0.875766	-0.478402	-0.064539
551	411826													8.630698	0.376014	4.713587	0.481418	-0.855768	-0.189465	0.035183	-0.197121	0.979748	-0.875785	-0.478334	-0.064790
552	411993													8.667021	0.341676	4.654304	0.481234	-0.855825	-0.189676	0.034966	-0.197465	0.979686	-0.875894	-0.478091	-0.065102
553	412160													8.668249	0.396101	4.719660	0.481458	-0.855725	-0.189559	0.034706	-0.197493	0.979690	-0.875782	-0.478258	-0.065386
554	412327													8.691172	0.438440	4.680437	0.482050	-0.855408	-0.189486	0.034643	-0.197494	0.979692	-0.875458	-0.478825	-0.065569
555	412493													8.602552	0.338557	4.744560	0.482634	-0.855008	-0.189803	0.034629	-0.197916	0.979607	-0.875137	-0.479364	-0.065913
556	412660													8.409814	0.280367	4.764978	0.481974	-0.855030	-0.191374	0.034503	-0.199726	0.979244	-0.875506	-0.478573	-0.066762
557	412827													8.482896	0.323708	4.688369	0.480008	-0.855713	-0.193255	0.034205	-0.201870	0.978815	-0.876597	-0.476450	-0.067629
558	412993													8.791372	0.354534	4.575544	0.478317	-0.856404	-0.194381	0.033982	-0.203128	0.978562	-0.877529	-0.474669	-0.068057
559	413160													8.900078	0.378601	4.515926	0.477700	-0.856604	-0.195021	0.033805	-0.203900	0.978408	-0.877872	-0.473978	-0.068445
560	413327													8.787267	0.375311	4.556270	0.478251	-0.856339	-0.194832	0.033387	-0.203959	0.978410	-0.877589	-0.474430	-0.068953
561	413493													8.611127	0.339415	4.643003	0.479573	-0.855688	-0.194442	0.032992	-0.203847	0.978447	-0.876881	-0.475652	-0.069529
562	413660													8.529302	0.332672	4.759211	0.481007	-0.854963	-0.194091	0.032662	-0.203755	0.978477	-0.876108	-0.476993	-0.070083
563	413827													8.527515	0.295606	4.749674	0.482212	-0.854389	-0.193629	0.032278	-0.203546	0.978533	-0.875460	-0.478110	-0.070574
564	413993													8.611217	0.289747	4.792931	0.483271	-0.853862	-0.193307	0.031911	-0.203476	0.978560	-0.874889	-0.479079	-0.071087
565	414160													8.633199	0.315838	4.866894	0.484489	-0.853226	-0.193071	0.031551	-0.203517	0.978563	-0.874228	-0.480195	-0.071681
566	414327													8.573768	0.311542	4.855139	0.485761	-0.852496	-0.193097	0.031395	-0.203753	0.978519	-0.873528	-0.481389	-0.072211
567	414493													8.511250	0.250014	4.891454	0.487021	-0.851780	-0.193083	0.031222	-0.203953	0.978483	-0.872832	-0.482570	-0.072735
568	414660													8.489793	0.298002	4.762002	0.487840	-0.851281	-0.193216	0.030947	-0.204336	0.978411	-0.872384	-0.483287	-0.073339
569	414827													8.617623	0.370042	4.685213	0.488747	-0.850764	-0.193200	0.030571	-0.204615	0.978365	-0.871890	-0.484080	-0.073997
570	414993													8.645134	0.356343	4.806812	0.490083	-0.850056	-0.192935	0.030191	-0.204652	0.978369	-0.871153	-0.485307	-0.074633
571	415160													8.573047	0.316423	4.848214	0.491659	-0.849251	-0.192469	0.029856	-0.204459	0.978420	-0.870276	-0.486795	-0.075169
572	415327													8.496907	0.281401	4.852921	0.493398	-0.848325	-0.192104	0.029658	-0.204322	0.978454	-0.869298	-0.488465	-0.075652
573	415493													8.474707	0.277960	4.878390	0.495124	-0.847360	-0.191921	0.029538	-0.204353	0.978451	-0.868320	-0.490123	-0.076151
574	415660													8.515928	0.334209	4.899667	0.496701	-0.846447	-0.191873	0.029437	-0.204515	0.978421	-0.867422	-0.491631	-0.076666
575	415827													8.572719	0.326989	4.931238	0.498456	-0.845499	-0.191504	0.029268	-0.204365	0.978457	-0.866421	-0.493322	-0.077121
576	415993													8.537336	0.322500	4.968569	0.500426	-0.844432	-0.191071	0.029136	-0.204141	0.978508	-0.865289	-0.495238	-0.077554
577	416160													8.449255	0.274238	4.939091	0.502101	-0.843432	-0.191092	0.029011	-0.204413	0.978455	-0.864322	-0.496827	-0.078168
578	416327													8.481450	0.272690	4.866012	0.503539	-0.842511	-0.191372	0.028842	-0.204987	0.978340	-0.863491	-0.498152	-0.078919
579	416493													8.579575	0.319540	4.869624	0.505102	-0.841554	-0.191465	0.028572	-0.205417	0.978257	-0.862587	-0.499590	-0.079712
580	416660													8.614746	0.358289	4.947232	0.507058	-0.840471	-0.191051	0.028238	-0.205341	0.978283	-0.861449	-0.501442	-0.080387
581	416827													8.509250	0.298503	4.948427	0.509264	-0.839288	-0.190381	0.027930	-0.204982	0.978367	-0.860157	-0.503565	-0.080948
582	416993													8.435024	0.233895	5.013317	0.511566	-0.838006	-0.189857	0.027714	-0.204751	0.978422	-0.858797	-0.505789	-0.081519
583	417160													8.356526	0.191543	4.948771	0.513555	-0.836712	-0.190197	0.027684	-0.205388	0.978289	-0.857610	-0.507670	-0.082314
584	417327													8.409663	0.241018	4.864695	0.515143	-0.835592	-0.190824	0.027618	-0.206341	0.978090	-0.856659	-0.509127	-0.083218
585	417493													8.528467	0.316283	4.900749	0.516987	-0.834439	-0.190880	0.027428	-0.206729	0.978014	-0.855554	-0.510856	-0.083989
586	417660													8.557162	0.370165	5.055756	0.519289	-0.833054	-0.190683	0.027269	-0.206860	0.977991	-0.854164	-0.513059	-0.084704
587	417827													8.474717	0.242829	5.175122	0.521808	-0.831659	-0.189891	0.026891	-0.206452	0.978087	-0.852639	-0.515480	-0.085365
588	417993													8.386722	0.209143	5.186729	0.524307	-0.830223	-0.189292	0.026458	-0.206306	0.978130	-0.851118	-0.517848	-0.086201
589	418160													8.279621	0.219509	5.217839	0.526852	-0.828746	-0.188700	0.026064	-0.206155	0.978172	-0.849557	-0.520270	-0.087013
590	418327													8.240746	0.277382	5.203384	0.529371	-0.827263	-0.188157	0.025776	-0.205996	0.978213	-0.847999	-0.522688	-0.087724
591	418493													8.256619	0.296365	5.168676	0.531668	-0.825927	-0.187548	0.025379	-0.205803	0.978264	-0.846573	-0.524871	-0.088458
592	418660													8.332761	0.253284	5.226713	0.534123	-0.824555	-0.186603	0.024843	-0.205322	0.978379	-0.845041	-0.527211	-0.089183
593	418827													8.299058	0.200893	5.333080	0.536879	-0.823020	-0.185469	0.024318	-0.204651	0.978533	-0.843309	-0.529864	-0.089859
594	418993													8.226350	0.210063	5.374921	0.539841	-0.821356	-0.184245	0.023877	-0.203849	0.978711	-0.841429	-0.532747	-0.090434
595	419160													8.152687	0.176105	5.158984	0.542555	-0.819739	-0.183475	0.023657	-0.203420	0.978806	-0.839687	-0.535396	-0.090974
596	419327													8.226047	0.256606	5.199514	0.544774	-0.818235	-0.183612	0.023509	-0.203967	0.978695	-0.838253	-0.537484	-0.091880
597	419493													8.331189	0.243822	5.322618	0.546804	-0.816841	-0.183785	0.023199	-0.204641	0.978562	-0.836939	-0.539345	-0.092949
598	419660													8.291723	0.263926	5.450119	0.549088	-0.815340	-0.183639	0.022921	-0.204952	0.978504	-0.835450	-0.541494	-0.093848
599	419827													8.165071	0.225325	5.448004	0.551504	-0.813842	-0.183042	0.022575	-0.204788	0.978546	-0.833867	-0.543804	-0.094569
600	419993													8.141767	0.238489	5.485675	0.553932	-0.812344	-0.182366	0.022213	-0.204544	0.978605	-0.832266	-0.546131	-0.095259
601	420160													8.150299	0.211584	5.544637	0.556335	-0.810844	-0.181723	0.021842	-0.204346	0.978655	-0.830671	-0.548430	-0.095975
602	420327													8.078686	0.213337	5.508976	0.558599	-0.809444	-0.181018	0.021599	-0.203972	0.978738	-0.829157	-0.550632	-0.096455
603	420493													8.068215	0.207016	5.559040	0.560911	-0.808020	-0.180230	0.021352	-0.203509	0.978840	-0.827601	-0.552890	-0.096898
604	420660													8.060875	0.214980	5.556407	0.563344	-0.806508	-0.179413	0.021069	-0.203055	0.978941	-0.825954	-0.555260	-0.097398
605	420827													8.071956	0.219887	5.549442	0.565839	-0.804882	-0.178861	0.020862	-0.202883	0.978981	-0.824252	-0.557676	-0.098008
606	420993													8.128284	0.231102	5.632798	0.568375	-0.803221	-0.178288	0.020586	-0.202741	0.979016	-0.822512	-0.560118	-0.098698
607	421160													8.106967	0.248122	5.640766	0.571093	-0.801460	-0.177525	0.020263	-0.202431	0.979087	-0.820635	-0.562747	-0.099367
608	421327													8.056659	0.235801	5.607805	0.573990	-0.799555	-0.176768	0.019921	-0.202172	0.979147	-0.818620	-0.565542	-0.100117
609	421493													7.992485	0.223953	5.627067	0.576969	-0.797566	-0.176054	0.019646	-0.201936	0.979202	-0.816530	-0.568428	-0.100842
610	421660													8.047884	0.229243	5.578936	0.579791	-0.795647	-0.175465	0.019332	-0.201863	0.979223	-0.814536	-0.571137	-0.101657
611	421827													8.141035	0.222014	5.641949	0.582715	-0.793586	-0.175115	0.018941	-0.202158	0.979170	-0.812456	-0.573894	-0.102769
612	421993													8.062590	0.184255	5.796998	0.585725	-0.791452	-0.174729	0.018464	-0.202494	0.979110	-0.810300	-0.576715	-0.103992
613	422160													7.915340	0.157702	5.778571	0.588851	-0.789296	-0.173972	0.017993	-0.202392	0.979139	-0.808041	-0.579698	-0.104977
614	422327													7.931024	0.160082	5.765860	0.592105	-0.787066	-0.173030	0.017526	-0.202086	0.979211	-0.805670	-0.582828	-0.105862
615	422493													7.995821	0.117246	5.522921	0.595411	-0.784680	-0.172522	0.017128	-0.202288	0.979176	-0.803239	-0.585967	-0.107005
616	422660													8.014461	0.163074	5.620427	0.598744	-0.782167	-0.172396	0.016656	-0.203036	0.979030	-0.800768	-0.589059	-0.108538
617	422827													8.029909	0.230823	5.814450	0.602029	-0.779593	-0.172613	0.016323	-0.204117	0.978810	-0.798307	-0.592090	-0.110159
618	422993													7.835020	0.236048	6.047562	0.605386	-0.777039	-0.172390	0.015862	-0.204767	0.978682	-0.795774	-0.595215	-0.111638
619	423160													7.728308	0.136729	5.997153	0.608566	-0.774755	-0.171470	0.015222	-0.204654	0.978716	-0.793358	-0.598223	-0.112752
620	423327													7.807386	0.121667	5.994397	0.611896	-0.772369	-0.170380	0.014435	-0.204474	0.978766	-0.790807	-0.601362	-0.113968
621	423493													7.734976	0.172047	6.055941	0.615376	-0.769833	-0.169320	0.013727	-0.204311	0.978810	-0.788114	-0.604661	-0.115161
622	423660													7.646721	0.191276	5.866172	0.618428	-0.767598	-0.168346	0.012971	-0.204224	0.978838	-0.785735	-0.607524	-0.116341
623	423827													7.825644	0.134197	5.998176	0.621523	-0.765279	-0.167502	0.012074	-0.204432	0.978806	-0.783303	-0.610373	-0.117819
624	423993													7.674903	0.071143	6.147647	0.624721	-0.762782	-0.166994	0.011310	-0.205000	0.978697	-0.780766	-0.613302	-0.119441
625	424160													7.555352	0.107729	6.271738	0.627945	-0.760324	-0.166111	0.010543	-0.205109	0.978682	-0.778187	-0.616310	-0.120781
626	424327													7.548581	0.173503	6.338995	0.631312	-0.757833	-0.164728	0.009762	-0.204625	0.978792	-0.775468	-0.619531	-0.121784
627	424493													7.501018	0.109530	6.221197	0.634691	-0.755382	-0.162993	0.008874	-0.203783	0.978976	-0.772715	-0.622793	-0.122636
628	424660													7.529027	0.046646	5.986376	0.637902	-0.752890	-0.161978	0.008217	-0.203663	0.979007	-0.770074	-0.625841	-0.123731
629	424827													7.738692	0.078482	6.193885	0.641253	-0.750103	-0.161682	0.007695	-0.204410	0.978855	-0.767291	-0.628938	-0.125306
630	424993													7.494852	0.121823	6.430417	0.644631	-0.747281	-0.161316	0.007112	-0.205139	0.978707	-0.764461	-0.632052	-0.126924
631	425160													7.358211	0.098621	6.475393	0.647911	-0.744631	-0.160422	0.006410	-0.205268	0.978685	-0.761689	-0.635129	-0.128222
632	425327													7.420632	0.068242	6.501307	0.651377	-0.741893	-0.159069	0.005557	-0.204975	0.978751	-0.758734	-0.638420	-0.129393
633	425493													7.333893	0.017871	6.589948	0.654998	-0.739065	-0.157352	0.004647	-0.204296	0.978898	-0.755616	-0.641908	-0.130379
634	425660													7.202658	0.034663	6.423257	0.658177	-0.736579	-0.155736	0.003886	-0.203532	0.979061	-0.752853	-0.645000	-0.131098
635	425827													7.455340	0.078301	6.313336	0.661097	-0.734228	-0.154468	0.003207	-0.203108	0.979151	-0.750294	-0.647809	-0.131920
636	425993													7.484032	0.006604	6.545074	0.664095	-0.731647	-0.153852	0.002700	-0.203434	0.979085	-0.747643	-0.650621	-0.133124
637	426160													7.242485	-0.027746	6.705525	0.667017	-0.729067	-0.153461	0.002276	-0.203982	0.978972	-0.745039	-0.653340	-0.134400
638	426327													7.170660	0.006468	6.715560	0.669973	-0.726479	-0.152855	0.001875	-0.204240	0.978919	-0.742383	-0.656136	-0.135473
639	426493													7.186569	0.044381	6.685319	0.673092	-0.723777	-0.151970	0.001464	-0.204183	0.978932	-0.739558	-0.659133	-0.136374
640	426660													7.184414	0.025993	6.519637	0.675996	-0.721232	-0.151173	0.001094	-0.204163	0.978936	-0.736904	-0.661923	-0.137224
641	426827													7.402238	0.048359	6.489497	0.678727	-0.718765	-0.150687	0.000675	-0.204575	0.978851	-0.734390	-0.664474	-0.138365
642	426993													7.349758	0.013156	6.686409	0.681446	-0.716224	-0.150514	0.000227	-0.205451	0.978667	-0.731868	-0.666944	-0.139841
643	427160													7.056099	-0.025828	6.790994	0.684196	-0.713662	-0.150206	-0.000276	-0.206212	0.978507	-0.729298	-0.669450	-0.141286
644	427327													7.024817	0.018257	6.787670	0.687072	-0.711061	-0.149413	-0.000932	-0.206498	0.978446	-0.726589	-0.672124	-0.142542
645	427493													7.074347	0.005462	6.825396	0.690233	-0.708263	-0.148127	-0.001776	-0.206370	0.978472	-0.723585	-0.675111	-0.143701
646	427660													7.056511	-0.035537	6.788575	0.693304	-0.705624	-0.146370	-0.002971	-0.205907	0.978567	-0.720639	-0.678010	-0.144852
647	427827													7.186415	-0.102986	6.639012	0.696262	-0.703002	-0.144940	-0.004069	-0.205788	0.978588	-0.717776	-0.680764	-0.146143
648	427993													7.223676	-0.064840	6.793369	0.699182	-0.700264	-0.144135	-0.004886	-0.206278	0.978481	-0.714927	-0.683432	-0.147648
649	428160													7.119020	-0.010864	6.954153	0.702046	-0.697420	-0.144005	-0.005291	-0.207319	0.978259	-0.712112	-0.686021	-0.149237
650	428327													6.925279	-0.088182	7.038861	0.704969	-0.694537	-0.143654	-0.005745	-0.208132	0.978084	-0.709215	-0.688694	-0.150717
651	428493													6.865611	-0.160951	7.073812	0.708109	-0.691397	-0.143361	-0.006107	-0.209021	0.977892	-0.706077	-0.691579	-0.152232
652	428660													6.873546	-0.100170	6.900889	0.711452	-0.687904	-0.143611	-0.005980	-0.210280	0.977623	-0.702709	-0.694673	-0.153718
653	428827													6.958531	-0.050314	6.912624	0.714712	-0.684401	-0.144162	-0.005668	-0.211777	0.977301	-0.699396	-0.697672	-0.155239
654	428994													6.995367	-0.015338	7.000162	0.717853	-0.681008	-0.144622	-0.005494	-0.213268	0.976978	-0.696173	-0.700532	-0.156836
655	429160													6.857262	-0.081045	7.147064	0.720992	-0.677652	-0.144768	-0.005549	-0.214556	0.976696	-0.692921	-0.703387	-0.158453
656	429327													6.690233	-0.106005	7.123668	0.724323	-0.674137	-0.144551	-0.005765	-0.215572	0.976471	-0.689436	-0.706447	-0.160030
657	429494													6.649652	-0.032886	7.136333	0.727927	-0.670396	-0.143844	-0.006186	-0.216203	0.976329	-0.685626	-0.709807	-0.161527
658	429660													6.625047	-0.032245	6.978393	0.731583	-0.666668	-0.142615	-0.006889	-0.216408	0.976279	-0.681717	-0.713247	-0.162914
659	429827													6.844722	-0.101270	6.971221	0.734880	-0.663321	-0.141269	-0.007786	-0.216539	0.976243	-0.678153	-0.716321	-0.164295
660	429994													6.721154	-0.086272	7.137877	0.737887	-0.660217	-0.140129	-0.008621	-0.216825	0.976173	-0.674870	-0.719097	-0.165684
661	430160													6.506365	-0.049471	7.266047	0.740886	-0.657085	-0.139024	-0.009340	-0.217055	0.976115	-0.671566	-0.721891	-0.166950
662	430327													6.395735	-0.105387	7.302674	0.743951	-0.653909	-0.137621	-0.010185	-0.217019	0.976114	-0.668157	-0.724779	-0.168112
663	430494													6.453938	-0.146425	7.336712	0.747133	-0.650529	-0.136399	-0.010813	-0.217080	0.976094	-0.664587	-0.727797	-0.169222
664	430660													6.425694	-0.086313	7.403213	0.750205	-0.647222	-0.135262	-0.011301	-0.217089	0.976086	-0.661109	-0.730737	-0.170175
665	430827													6.507167	-0.073657	7.409963	0.752919	-0.644274	-0.134254	-0.011714	-0.217085	0.976082	-0.658009	-0.733338	-0.170995
666	430994													6.554933	-0.099637	7.369884	0.755321	-0.641613	-0.133500	-0.011990	-0.217201	0.976053	-0.655245	-0.735633	-0.171750
667	431160													6.416333	-0.119891	7.424245	0.757564	-0.639070	-0.132988	-0.012118	-0.217465	0.975993	-0.652648	-0.737766	-0.172488
668	431327													6.321963	-0.118323	7.438266	0.759810	-0.636475	-0.132623	-0.012163	-0.217870	0.975902	-0.650032	-0.739887	-0.173281
669	431494													6.233713	-0.102475	7.534897	0.762135	-0.633780	-0.132183	-0.012207	-0.218201	0.975828	-0.647303	-0.742099	-0.174035
670	431660													6.176680	-0.095374	7.529180	0.764375	-0.631144	-0.131865	-0.012106	-0.218527	0.975756	-0.644659	-0.744247	-0.174677
671	431827													6.267259	-0.128190	7.474393	0.766279	-0.628892	-0.131574	-0.012075	-0.218841	0.975686	-0.642395	-0.746059	-0.175288
672	431994													6.248399	-0.131940	7.520998	0.768029	-0.626776	-0.131463	-0.012017	-0.219346	0.975573	-0.640302	-0.747689	-0.175996
673	432160													6.154212	-0.071024	7.598915	0.769656	-0.624849	-0.131124	-0.012167	-0.219693	0.975493	-0.638343	-0.749198	-0.176691
674	432327													6.105089	-0.101779	7.599902	0.771240	-0.623025	-0.130496	-0.012497	-0.219787	0.975468	-0.636422	-0.750689	-0.177295
675	432494													6.067811	-0.125961	7.637466	0.772807	-0.621241	-0.129726	-0.012934	-0.219783	0.975463	-0.634509	-0.752167	-0.177885
676	432660													6.077940	-0.138681	7.663446	0.774309	-0.619567	-0.128773	-0.013506	-0.219630	0.975490	-0.632663	-0.753591	-0.178429
677	432827													6.122736	-0.167413	7.670056	0.775723	-0.617992	-0.127827	-0.014079	-0.219452	0.975522	-0.630916	-0.754935	-0.178934
678	432994													6.150403	-0.164197	7.664977	0.777088	-0.616417	-0.127134	-0.014511	-0.219489	0.975507	-0.629224	-0.756210	-0.179507
679	433160													6.117151	-0.213807	7.676782	0.778421	-0.614867	-0.126485	-0.014931	-0.219570	0.975483	-0.627564	-0.757448	-0.180098
680	433327													6.094886	-0.146708	7.703237	0.779722	-0.613302	-0.126072	-0.015163	-0.219789	0.975430	-0.625942	-0.758653	-0.180673
681	433494													6.141596	-0.060112	7.703011	0.780898	-0.611875	-0.125725	-0.015356	-0.220013	0.975376	-0.624469	-0.759739	-0.181204
682	433660													6.064595	-0.124384	7.739818	0.782049	-0.610539	-0.125064	-0.015779	-0.220008	0.975370	-0.623017	-0.760815	-0.181691
683	433827													6.060819	-0.171144	7.750715	0.783193	-0.609206	-0.124404	-0.016221	-0.220029	0.975359	-0.621567	-0.761876	-0.182207
684	433994													6.037942	-0.131718	7.693911	0.784269	-0.607952	-0.123758	-0.016642	-0.220017	0.975354	-0.620197	-0.762881	-0.182670
685	434160													6.059161	-0.124862	7.695697	0.785323	-0.606721	-0.123115	-0.017052	-0.219990	0.975353	-0.618851	-0.763868	-0.183109
686	434327													6.023447	-0.162069	7.703426	0.786263	-0.605653	-0.122374	-0.017573	-0.219889	0.975367	-0.617642	-0.764744	-0.183533
687	434494													5.970253	-0.233057	7.696905	0.787108	-0.604725	-0.121529	-0.018144	-0.219641	0.975412	-0.616549	-0.765549	-0.183854
688	434660													5.962472	-0.230447	7.682259	0.787926	-0.603793	-0.120857	-0.018599	-0.219517	0.975431	-0.615489	-0.766320	-0.184193
689	434827													5.982996	-0.176709	7.668574	0.788672	-0.602916	-0.120369	-0.018897	-0.219461	0.975438	-0.614524	-0.767026	-0.184476
690	434994													6.041340	-0.188693	7.657404	0.789236	-0.602232	-0.120094	-0.019082	-0.219521	0.975421	-0.613793	-0.767546	-0.184746
691	435160													6.030599	-0.263798	7.755255	0.789655	-0.601708	-0.119966	-0.019201	-0.219667	0.975386	-0.613250	-0.767915	-0.185015
692	435327													5.922754	-0.223977	7.812132	0.789944	-0.601339	-0.119911	-0.019271	-0.219806	0.975353	-0.612875	-0.768164	-0.185223
693	435494													5.921794	-0.190433	7.773511	0.790230	-0.600974	-0.119861	-0.019340	-0.219952	0.975319	-0.612504	-0.768409	-0.185436
694	435660													5.992354	-0.159270	7.715324	0.790441	-0.600696	-0.119863	-0.019377	-0.220107	0.975283	-0.612231	-0.768582	-0.185621
695	435827													6.061588	-0.127023	7.711369	0.790464	-0.600693	-0.119724	-0.019548	-0.220107	0.975280	-0.612196	-0.768584	-0.185729
696	435994													5.958889	-0.195803	7.842253	0.790245	-0.601003	-0.119620	-0.019679	-0.219994	0.975303	-0.612475	-0.768374	-0.185676
697	436160													5.904951	-0.253945	7.785740	0.789936	-0.601387	-0.119730	-0.019619	-0.219945	0.975315	-0.612875	-0.768087	-0.185541
698	436327													5.847864	-0.241346	7.781638	0.789581	-0.601758	-0.120200	-0.019280	-0.220109	0.975285	-0.613343	-0.767749	-0.185396
699	436494													5.962782	-0.163193	7.649786	0.789147	-0.602236	-0.120660	-0.018923	-0.220194	0.975273	-0.613913	-0.767350	-0.185161
700	436660													6.052820	-0.145753	7.635487	0.788619	-0.602820	-0.121199	-0.018535	-0.220325	0.975250	-0.614603	-0.766854	-0.184926
701	436827													6.002796	-0.148817	7.791728	0.787864	-0.603701	-0.121718	-0.018245	-0.220436	0.975231	-0.615578	-0.766129	-0.184688
702	436994													5.874717	-0.197791	7.824230	0.786897	-0.604844	-0.122299	-0.017934	-0.220521	0.975217	-0.616824	-0.765202	-0.184374
703	437160													5.809873	-0.242686	7.736390	0.785964	-0.605948	-0.122833	-0.017659	-0.220591	0.975207	-0.618020	-0.764308	-0.184077
704	437327													5.907641	-0.210849	7.608020	0.785114	-0.607002	-0.123064	-0.017586	-0.220467	0.975236	-0.619102	-0.763507	-0.183767
705	437494													5.968943	-0.143954	7.658905	0.784035	-0.608391	-0.123085	-0.017742	-0.220180	0.975298	-0.620463	-0.762484	-0.183422
706	437660													5.971202	-0.147061	7.712879	0.782584	-0.610270	-0.123016	-0.018036	-0.219745	0.975391	-0.622284	-0.761106	-0.182976
707	437827													5.952289	-0.174565	7.770321	0.780813	-0.612506	-0.123158	-0.018182	-0.219320	0.975483	-0.624500	-0.759431	-0.182385
708	437994													5.957645	-0.176415	7.781552	0.778799	-0.614980	-0.123576	-0.018078	-0.218929	0.975573	-0.627012	-0.757542	-0.181619
709	438160													5.993436	-0.206564	7.675050	0.776436	-0.617850	-0.124133	-0.017870	-0.218482	0.975677	-0.629943	-0.755332	-0.180679
710	438327													6.110542	-0.222912	7.592499	0.773974	-0.620794	-0.124815	-0.017597	-0.218123	0.975763	-0.632973	-0.753019	-0.179746
711	438494													6.105058	-0.072862	7.640470	0.771318	-0.623936	-0.125591	-0.017200	-0.217694	0.975866	-0.636218	-0.750542	-0.178643
712	438660													6.134040	-0.055814	7.713443	0.768412	-0.627387	-0.126208	-0.016882	-0.217018	0.976022	-0.639733	-0.747856	-0.177351
713	438827													6.158619	-0.211220	7.743483	0.765165	-0.631194	-0.126953	-0.016473	-0.216311	0.976186	-0.643624	-0.744852	-0.175911
714	438994													6.195917	-0.231775	7.611129	0.761618	-0.635190	-0.128341	-0.015646	-0.216015	0.976265	-0.647837	-0.741533	-0.174459
715	439160													6.317104	-0.156440	7.413110	0.757800	-0.639435	-0.129859	-0.014756	-0.215765	0.976334	-0.652321	-0.737949	-0.172942
716	439327													6.410204	-0.090193	7.464143	0.753995	-0.643622	-0.131308	-0.013993	-0.215589	0.976384	-0.656731	-0.734351	-0.171559
717	439494													6.319386	-0.102672	7.452998	0.749967	-0.648072	-0.132481	-0.013462	-0.215193	0.976479	-0.661338	-0.730544	-0.170113
718	439660													6.354005	-0.145337	7.416429	0.745791	-0.652640	-0.133629	-0.012828	-0.214621	0.976613	-0.666057	-0.726635	-0.168435
719	439827													6.481751	-0.133139	7.387363	0.741547	-0.657223	-0.134783	-0.012066	-0.213930	0.976774	-0.670792	-0.722698	-0.166570
720	439994													6.569858	-0.163298	7.229426	0.737161	-0.661857	-0.136160	-0.011162	-0.213404	0.976900	-0.675625	-0.718613	-0.164701
721	440160													6.681491	-0.182499	7.138456	0.732769	-0.666404	-0.137680	-0.010235	-0.213099	0.976977	-0.680401	-0.714489	-0.162973
722	440327													6.695795	-0.092254	7.245805	0.728371	-0.670909	-0.139129	-0.009373	-0.212791	0.977053	-0.685118	-0.710353	-0.161280
723	440494													6.666768	-0.052695	7.208264	0.723789	-0.675517	-0.140737	-0.008287	-0.212455	0.977136	-0.689972	-0.706073	-0.159371
724	440660													6.726456	-0.033847	7.180438	0.718995	-0.680329	-0.142123	-0.007271	-0.211841	0.977277	-0.694977	-0.701624	-0.157259
725	440827													6.841819	-0.088819	6.989594	0.714086	-0.685197	-0.143480	-0.006294	-0.211230	0.977416	-0.700029	-0.697056	-0.155149
726	440994													6.905968	-0.102646	6.935133	0.709292	-0.689902	-0.144709	-0.005457	-0.210654	0.977545	-0.704894	-0.692575	-0.153180
727	441160													6.883344	-0.024155	6.990470	0.704247	-0.694794	-0.145939	-0.004514	-0.209939	0.977704	-0.709941	-0.687886	-0.150985
728	441327													6.945946	-0.000077	6.950811	0.699006	-0.699849	-0.146977	-0.003552	-0.208924	0.977925	-0.715107	-0.683054	-0.148525
729	441494													7.009193	0.002149	6.898116	0.693555	-0.705039	-0.147994	-0.002545	-0.207829	0.978162	-0.720400	-0.678032	-0.145935
730	441660													7.076933	-0.054148	6.644893	0.687974	-0.710229	-0.149218	-0.001427	-0.206933	0.978354	-0.725734	-0.672870	-0.143379
731	441827													7.200138	-0.029257	6.488568	0.682582	-0.715148	-0.150483	-0.000390	-0.206268	0.978495	-0.730809	-0.667845	-0.141074
732	441994													7.227530	-0.013757	6.601759	0.677165	-0.720010	-0.151769	0.000653	-0.205667	0.978622	-0.735831	-0.662787	-0.138801
733	442160													7.291498	0.050135	6.713893	0.671458	-0.725038	-0.153179	0.001755	-0.205152	0.978729	-0.741041	-0.657444	-0.136479
734	442327													7.317219	0.060825	6.709897	0.665446	-0.730306	-0.154385	0.002774	-0.204406	0.978882	-0.746441	-0.651822	-0.133995
735	442494													7.292432	-0.001102	6.499768	0.659149	-0.735691	-0.155824	0.003893	-0.203868	0.978991	-0.752002	-0.645907	-0.131516
736	442660													7.305244	0.014718	6.317224	0.652996	-0.740861	-0.157232	0.004864	-0.203499	0.979063	-0.757346	-0.640089	-0.129280
737	442827													7.407710	0.080117	6.349418	0.646820	-0.746096	-0.158000	0.005545	-0.202568	0.979253	-0.762622	-0.634277	-0.126888
738	442994													7.591408	0.154551	6.392057	0.640718	-0.751097	-0.159166	0.006386	-0.202087	0.979347	-0.767750	-0.628501	-0.124684
739	443160													7.638758	0.116754	6.425777	0.634402	-0.756204	-0.160282	0.007124	-0.201622	0.979438	-0.772971	-0.622499	-0.122522
740	443327													7.695962	0.009976	6.064834	0.628137	-0.761140	-0.161588	0.007835	-0.201471	0.979463	-0.778063	-0.616503	-0.120588
741	443494													7.512516	0.068353	5.995000	0.621874	-0.765815	-0.163708	0.008860	-0.202153	0.979314	-0.783067	-0.610460	-0.118928
742	443660													7.671526	0.138401	5.990292	0.615470	-0.770530	-0.165768	0.009850	-0.202786	0.979173	-0.788098	-0.604285	-0.117219
743	443827													7.906351	0.151580	6.126011	0.609351	-0.775060	-0.167252	0.010547	-0.202995	0.979123	-0.792831	-0.598393	-0.115520
744	443994													7.940569	0.065598	6.136221	0.603298	-0.779515	-0.168486	0.011149	-0.202999	0.979116	-0.797438	-0.592577	-0.113778
745	444160													7.765457	0.064753	5.903392	0.597350	-0.783789	-0.169843	0.011810	-0.203159	0.979074	-0.801893	-0.586856	-0.112101
746	444327													7.719643	0.124558	5.649244	0.591275	-0.788117	-0.171069	0.012433	-0.203187	0.979061	-0.806374	-0.581021	-0.110341
747	444494													7.958991	0.179282	5.613803	0.585293	-0.792431	-0.171715	0.012833	-0.202699	0.979157	-0.810720	-0.575297	-0.108469
748	444660													8.194225	0.236626	5.741146	0.579726	-0.796334	-0.172539	0.013227	-0.202528	0.979187	-0.814704	-0.569942	-0.106878
749	444827													8.138911	0.122561	5.796627	0.574532	-0.799959	-0.173143	0.013663	-0.202139	0.979262	-0.818368	-0.564983	-0.105205
750	444994													7.891669	0.040697	5.666176	0.569470	-0.803343	-0.174195	0.014460	-0.202090	0.979260	-0.821885	-0.560178	-0.103468
751	445160													7.867662	0.090936	5.423290	0.564162	-0.806768	-0.175631	0.015467	-0.202350	0.979191	-0.825519	-0.555139	-0.101680
752	445327													8.208788	0.187306	5.289321	0.559063	-0.810041	-0.176870	0.016350	-0.202509	0.979144	-0.828964	-0.550295	-0.099971
753	445494													8.462859	0.243637	5.439886	0.554753	-0.812769	-0.177921	0.017136	-0.202636	0.979104	-0.831839	-0.546210	-0.098485
754	445661													8.421874	0.227801	5.511659	0.550936	-0.815146	-0.178903	0.017993	-0.202719	0.979072	-0.834353	-0.542625	-0.097019
755	445827													8.182080	0.113959	5.528644	0.547256	-0.817341	-0.180178	0.018947	-0.203122	0.978970	-0.836751	-0.539161	-0.095674
756	445994													7.991215	0.115879	5.307897	0.543106	-0.819681	-0.182095	0.019920	-0.204228	0.978721	-0.839428	-0.535177	-0.094590
757	446161													8.193943	0.192451	5.140544	0.538317	-0.822450	-0.183822	0.020793	-0.205095	0.978521	-0.842486	-0.530577	-0.093305
758	446327													8.605527	0.287504	5.008119	0.534372	-0.824949	-0.184135	0.021341	-0.204610	0.978611	-0.844980	-0.526872	-0.091732
759	446494													8.685654	0.297762	5.117874	0.531556	-0.826745	-0.184231	0.021951	-0.203985	0.978728	-0.846739	-0.524293	-0.090282
760	446661													8.449889	0.207769	5.277225	0.529044	-0.828326	-0.184358	0.022563	-0.203443	0.978827	-0.848294	-0.522002	-0.088941
761	446827													8.182523	0.149306	5.205187	0.526289	-0.830025	-0.184601	0.023168	-0.203021	0.978900	-0.849990	-0.519461	-0.087618
762	446994													8.205297	0.155375	5.002997	0.523068	-0.831761	-0.185940	0.024030	-0.203686	0.978741	-0.851952	-0.516417	-0.086554
763	447161													8.423077	0.274879	4.959296	0.519790	-0.833500	-0.187338	0.024819	-0.204464	0.978559	-0.853933	-0.513295	-0.085592
764	447327													8.690681	0.308360	4.952720	0.516949	-0.835056	-0.188272	0.025495	-0.204822	0.978467	-0.855637	-0.510617	-0.084593
765	447494													8.667129	0.290152	5.041962	0.514886	-0.836286	-0.188465	0.025968	-0.204530	0.978516	-0.856865	-0.508718	-0.083593
766	447661													8.413630	0.219103	5.129014	0.512940	-0.837487	-0.188436	0.026393	-0.204023	0.978610	-0.858019	-0.506942	-0.082548
767	447827													8.236900	0.206032	5.036716	0.510225	-0.839065	-0.188789	0.026899	-0.203835	0.978636	-0.859620	-0.504403	-0.081432
768	447994													8.403097	0.276179	4.803858	0.506896	-0.840873	-0.189707	0.027476	-0.204203	0.978543	-0.861569	-0.501232	-0.080406
769	448161													8.701449	0.359406	4.736603	0.504201	-0.842305	-0.190535	0.027952	-0.204600	0.978447	-0.863134	-0.498659	-0.079615
770	448327													8.742408	0.305677	4.873457	0.502486	-0.843251	-0.190882	0.028243	-0.204651	0.978427	-0.864124	-0.497037	-0.079019
771	448494													8.514119	0.227479	5.060009	0.500980	-0.844070	-0.191220	0.028715	-0.204614	0.978421	-0.864982	-0.495661	-0.078270
772	448661													8.286276	0.246488	4.998322	0.498991	-0.845076	-0.191975	0.029416	-0.204880	0.978345	-0.866108	-0.493832	-0.077375
773	448827													8.383481	0.349082	4.904402	0.496242	-0.846477	-0.192927	0.030155	-0.205280	0.978239	-0.867660	-0.491261	-0.076343
774	448994													8.740192	0.331485	4.667193	0.494085	-0.847707	-0.193061	0.030552	-0.204993	0.978286	-0.868876	-0.489256	-0.075385
775	449161													8.789598	0.362689	4.722358	0.493071	-0.848244	-0.193295	0.030786	-0.205029	0.978272	-0.869444	-0.488308	-0.074980
776	449327													8.497565	0.324755	4.979564	0.492327	-0.848703	-0.193175	0.030887	-0.204761	0.978325	-0.869862	-0.487623	-0.074596
777	449494													8.231989	0.236091	5.047703	0.490511	-0.849750	-0.193194	0.031162	-0.204451	0.978381	-0.870878	-0.485926	-0.073806
778	449661													8.411037	0.257198	4.782612	0.487893	-0.851075	-0.193992	0.031633	-0.204853	0.978281	-0.872330	-0.483433	-0.073025
779	449827													8.793329	0.352694	4.550489	0.486312	-0.851903	-0.194323	0.031933	-0.204916	0.978259	-0.873202	-0.481944	-0.072449
780	449994													8.808564	0.417380	4.626965	0.486083	-0.852046	-0.194272	0.032143	-0.204720	0.978293	-0.873321	-0.481776	-0.072123
781	450161													8.541430	0.348493	4.864254	0.486030	-0.852195	-0.193750	0.032367	-0.203992	0.978437	-0.873342	-0.481821	-0.071563
782	450327													8.351783	0.237049	4.869039	0.484872	-0.852966	-0.193259	0.032659	-0.203159	0.978601	-0.873975	-0.480807	-0.070650
783	450494													8.523808	0.243006	4.743091	0.482792	-0.854047	-0.193690	0.033072	-0.203235	0.978571	-0.875111	-0.478852	-0.069876
784	450661													8.823692	0.328003	4.513138	0.481330	-0.854778	-0.194102	0.033375	-0.203409	0.978525	-0.875904	-0.477471	-0.069378
785	450827													8.884063	0.399605	4.553864	0.481055	-0.854842	-0.194501	0.033727	-0.203649	0.978463	-0.876041	-0.477254	-0.069135
786	450994													8.749718	0.352131	4.673016	0.481449	-0.854552	-0.194803	0.034069	-0.203844	0.978410	-0.875812	-0.477691	-0.069027
787	451161													8.599819	0.330989	4.767276	0.482013	-0.854185	-0.195018	0.034398	-0.203961	0.978374	-0.875488	-0.478298	-0.068930
788	451327													8.477775	0.319152	4.853472	0.482524	-0.853895	-0.195022	0.034744	-0.203823	0.978391	-0.875194	-0.478873	-0.068681
789	451494													8.538218	0.361962	4.787961	0.482649	-0.853818	-0.195052	0.035132	-0.203656	0.978412	-0.875109	-0.479082	-0.068298
790	451661													8.696564	0.411347	4.646196	0.483136	-0.853566	-0.194948	0.035536	-0.203358	0.978459	-0.874824	-0.479657	-0.067917
791	451827													8.718987	0.440097	4.647019	0.484318	-0.852964	-0.194650	0.035889	-0.202927	0.978536	-0.874156	-0.480908	-0.067669
792	451994													8.618287	0.376372	4.737444	0.485914	-0.852129	-0.194327	0.036165	-0.202547	0.978605	-0.873258	-0.482546	-0.067603
793	452161													8.550130	0.333879	4.836216	0.487552	-0.851266	-0.194008	0.036338	-0.202230	0.978664	-0.872337	-0.484199	-0.067664
794	452327													8.540586	0.352525	4.842042	0.489037	-0.850443	-0.193881	0.036549	-0.202099	0.978683	-0.871497	-0.485699	-0.067751
795	452494													8.566299	0.390328	4.814763	0.490421	-0.849673	-0.193759	0.036756	-0.201967	0.978702	-0.870710	-0.487098	-0.067818
796	452661													8.557530	0.402180	4.811799	0.491747	-0.848943	-0.193599	0.036923	-0.201809	0.978729	-0.869955	-0.488435	-0.067893
797	452827													8.462011	0.386292	4.917448	0.492746	-0.848359	-0.193618	0.037052	-0.201848	0.978716	-0.869384	-0.489433	-0.068026
798	452994													8.362072	0.345606	4.965045	0.492811	-0.848214	-0.194086	0.037264	-0.202275	0.978620	-0.869338	-0.489507	-0.068075
799	453161													8.458171	0.351449	4.879555	0.492112	-0.848521	-0.194521	0.037433	-0.202619	0.978542	-0.869727	-0.488834	-0.067948
800	453327													8.643082	0.396282	4.781751	0.491379	-0.848922	-0.194621	0.037528	-0.202615	0.978539	-0.870137	-0.488137	-0.067703
801	453494													8.702900	0.366345	4.697452	0.490933	-0.849181	-0.194620	0.037567	-0.202551	0.978551	-0.870387	-0.487714	-0.067538
802	453661													8.599405	0.365563	4.753570	0.490813	-0.849269	-0.194536	0.037588	-0.202433	0.978575	-0.870454	-0.487610	-0.067434
803	453827													8.549206	0.413869	4.719473	0.491088	-0.849120	-0.194494	0.037787	-0.202296	0.978595	-0.870290	-0.487926	-0.067259
804	453994													8.621873	0.391191	4.770514	0.491501	-0.848895	-0.194434	0.038068	-0.202107	0.978623	-0.870044	-0.488396	-0.067020
805	454161													8.650737	0.312072	4.811080	0.492114	-0.848549	-0.194394	0.038252	-0.202011	0.978636	-0.869690	-0.489036	-0.066953
806	454327													8.552401	0.364994	4.851309	0.492591	-0.848252	-0.194480	0.038212	-0.202175	0.978604	-0.869422	-0.489483	-0.067176
807	454494													8.497494	0.401629	4.851810	0.492811	-0.848104	-0.194567	0.038234	-0.202283	0.978580	-0.869296	-0.489694	-0.067261
808	454661													8.519658	0.407446	4.878747	0.492750	-0.848057	-0.194927	0.038470	-0.202561	0.978514	-0.869320	-0.489661	-0.067187
809	454827													8.539987	0.402392	4.844225	0.492736	-0.848031	-0.195077	0.038570	-0.202676	0.978486	-0.869324	-0.489659	-0.067157
810	454994													8.537992	0.403418	4.807224	0.492850	-0.847986	-0.194982	0.038554	-0.202586	0.978505	-0.869260	-0.489774	-0.067151
811	455161													8.498871	0.383613	4.867157	0.492945	-0.847928	-0.194997	0.038682	-0.202538	0.978510	-0.869200	-0.489895	-0.067041
812	455327													8.533525	0.349666	4.859714	0.492922	-0.847915	-0.195111	0.038885	-0.202554	0.978499	-0.869204	-0.489910	-0.066872
813	455494													8.510723	0.322130	4.823086	0.492783	-0.847940	-0.195351	0.039054	-0.202724	0.978457	-0.869275	-0.489796	-0.066784
814	455661													8.506158	0.348282	4.811910	0.492325	-0.848148	-0.195604	0.039131	-0.202932	0.978411	-0.869531	-0.489351	-0.066719
815	455827													8.538260	0.400367	4.816475	0.491816	-0.848402	-0.195784	0.039199	-0.203056	0.978382	-0.869816	-0.488859	-0.066610
816	455994													8.633368	0.390438	4.808053	0.491243	-0.848725	-0.195821	0.039301	-0.202990	0.978392	-0.870136	-0.488324	-0.066362
817	456161													8.643348	0.378219	4.751432	0.491025	-0.848837	-0.195884	0.039379	-0.203001	0.978386	-0.870255	-0.488126	-0.066252
818	456327													8.612916	0.388619	4.755887	0.491045	-0.848840	-0.195822	0.039351	-0.202946	0.978399	-0.870245	-0.488144	-0.066252
819	456494													8.594628	0.390283	4.775990	0.491310	-0.848710	-0.195716	0.039326	-0.202861	0.978418	-0.870096	-0.488403	-0.066291
820	456661													8.537761	0.408727	4.766251	0.491647	-0.848499	-0.195789	0.039413	-0.202926	0.978400	-0.869902	-0.488744	-0.066326
821	456827													8.511212	0.418048	4.815367	0.491832	-0.848397	-0.195764	0.039524	-0.202851	0.978412	-0.869792	-0.488952	-0.066237
822	456994													8.566916	0.416585	4.799925	0.491876	-0.848395	-0.195664	0.039618	-0.202688	0.978442	-0.869764	-0.489023	-0.066086
823	457161													8.603707	0.403124	4.775220	0.491915	-0.848381	-0.195627	0.039703	-0.202599	0.978457	-0.869738	-0.489084	-0.065978
824	457327													8.603711	0.393258	4.791621	0.492022	-0.848321	-0.195618	0.039734	-0.202581	0.978459	-0.869676	-0.489196	-0.065967
825	457494													8.573870	0.386599	4.780861	0.492252	-0.848153	-0.195767	0.039804	-0.202734	0.978424	-0.869542	-0.489424	-0.066037
826	457661													8.494796	0.395286	4.839791	0.492446	-0.847978	-0.196038	0.039913	-0.203002	0.978364	-0.869428	-0.489616	-0.066123
827	457827													8.472901	0.392707	4.827973	0.492315	-0.848015	-0.196207	0.039959	-0.203160	0.978330	-0.869499	-0.489487	-0.066133
828	457994													8.572837	0.433056	4.814899	0.492006	-0.848187	-0.196238	0.040019	-0.203135	0.978333	-0.869671	-0.489199	-0.066000
829	458161													8.628472	0.412483	4.779873	0.491857	-0.848300	-0.196123	0.040054	-0.202970	0.978365	-0.869754	-0.489071	-0.065855
830	458327													8.606622	0.378892	4.819758	0.492012	-0.848264	-0.195887	0.040030	-0.202725	0.978417	-0.869667	-0.489235	-0.065787
831	458494													8.524457	0.366114	4.862069	0.492428	-0.848073	-0.195669	0.039919	-0.202572	0.978453	-0.869437	-0.489629	-0.065898
832	458661													8.454619	0.359488	4.862719	0.492569	-0.848027	-0.195517	0.039791	-0.202481	0.978477	-0.869363	-0.489747	-0.065992
833	458827													8.547936	0.375105	4.842371	0.492572	-0.848063	-0.195350	0.039729	-0.202323	0.978513	-0.869365	-0.489749	-0.065966
834	458994													8.600582	0.372823	4.822723	0.492563	-0.848084	-0.195285	0.039671	-0.202280	0.978524	-0.869372	-0.489732	-0.065992
835	459161													8.566529	0.361318	4.821756	0.492393	-0.848195	-0.195228	0.039533	-0.202278	0.978530	-0.869475	-0.489539	-0.066069
836	459327													8.492310	0.417103	4.831137	0.492507	-0.848154	-0.195118	0.039498	-0.202180	0.978551	-0.869412	-0.489650	-0.066075
837	459494													8.533997	0.475736	4.875590	0.492505	-0.848184	-0.194994	0.039677	-0.201937	0.978595	-0.869405	-0.489699	-0.065801
838	459661													8.590887	0.364416	4.909217	0.492528	-0.848212	-0.194812	0.039745	-0.201689	0.978643	-0.869388	-0.489752	-0.065625
839	459827													8.551534	0.384024	4.815824	0.492494	-0.848262	-0.194685	0.039498	-0.201679	0.978655	-0.869419	-0.489671	-0.065821
840	459994													8.528935	0.412217	4.817545	0.492522	-0.848275	-0.194556	0.039312	-0.201637	0.978671	-0.869412	-0.489666	-0.065963
841	460161													8.512579	0.434745	4.809183	0.492537	-0.848242	-0.194661	0.039352	-0.201738	0.978649	-0.869401	-0.489681	-0.065983
842	460327													8.508645	0.410502	4.807706	0.492549	-0.848266	-0.194524	0.039238	-0.201646	0.978672	-0.869400	-0.489677	-0.066036
843	460494													8.550182	0.381645	4.799371	0.492812	-0.848231	-0.194012	0.038987	-0.201218	0.978770	-0.869262	-0.489914	-0.066093
844	460661													8.530725	0.363188	4.819863	0.493147	-0.848094	-0.193761	0.038869	-0.201025	0.978815	-0.869077	-0.490231	-0.066170
845	460827													8.596242	0.346814	4.825706	0.493540	-0.847899	-0.193611	0.038859	-0.200892	0.978842	-0.868854	-0.490622	-0.066200
846	460994													8.590432	0.374926	4.856078	0.494213	-0.847544	-0.193451	0.038838	-0.200779	0.978866	-0.868473	-0.491282	-0.066311
847	461161													8.525364	0.346714	4.807250	0.494796	-0.847212	-0.193414	0.038796	-0.200811	0.978861	-0.868143	-0.491840	-0.066492
848	461327													8.485067	0.377807	4.860503	0.495187	-0.846979	-0.193434	0.038716	-0.200914	0.978843	-0.867923	-0.492200	-0.066698
849	461494													8.536066	0.402688	4.863413	0.495311	-0.846925	-0.193351	0.038631	-0.200877	0.978854	-0.867856	-0.492307	-0.066779
850	461661													8.569411	0.377190	4.905248	0.495385	-0.846911	-0.193223	0.038594	-0.200757	0.978881	-0.867816	-0.492380	-0.066766
851	461827													8.552338	0.379300	4.859854	0.495445	-0.846916	-0.193051	0.038557	-0.200584	0.978917	-0.867783	-0.492443	-0.066724
852	461994													8.551605	0.394799	4.839306	0.495681	-0.846833	-0.192806	0.038475	-0.200368	0.978965	-0.867652	-0.492672	-0.066737
853	462161													8.545332	0.380771	4.840350	0.495987	-0.846651	-0.192821	0.038506	-0.200396	0.978958	-0.867476	-0.492975	-0.066793
854	462328													8.534657	0.398508	4.817563	0.496366	-0.846439	-0.192773	0.038528	-0.200362	0.978964	-0.867258	-0.493352	-0.066842
855	462494													8.527472	0.416930	4.861544	0.496798	-0.846221	-0.192617	0.038556	-0.200204	0.978995	-0.867010	-0.493789	-0.066834
856	462661													8.538192	0.391412	4.887331	0.497246	-0.845968	-0.192576	0.038589	-0.200177	0.979000	-0.866751	-0.494235	-0.066891
857	462828													8.575009	0.383482	4.854834	0.497720	-0.845676	-0.192632	0.038607	-0.200275	0.978979	-0.866478	-0.494695	-0.067032
858	462994													8.588929	0.392604	4.802459	0.498392	-0.845262	-0.192712	0.038593	-0.200436	0.978946	-0.866092	-0.495336	-0.067275
859	463161													8.548515	0.405681	4.828593	0.499228	-0.844729	-0.192882	0.038540	-0.200738	0.978886	-0.865613	-0.496122	-0.067658
860	463328													8.505028	0.417633	4.913096	0.500152	-0.844157	-0.192994	0.038449	-0.201004	0.978836	-0.865083	-0.496987	-0.068075
861	463494													8.472072	0.377747	4.972789	0.501023	-0.843627	-0.193054	0.038328	-0.201224	0.978795	-0.864585	-0.497798	-0.068483
862	463661													8.468742	0.375533	4.945056	0.501567	-0.843267	-0.193213	0.038244	-0.201506	0.978740	-0.864273	-0.498293	-0.068819
863	463828													8.506483	0.380491	4.951812	0.501822	-0.843092	-0.193317	0.038119	-0.201723	0.978701	-0.864131	-0.498502	-0.069091
864	463994													8.530475	0.390470	4.937266	0.502078	-0.842941	-0.193309	0.037968	-0.201824	0.978686	-0.863988	-0.498716	-0.069327
865	464161													8.529537	0.392170	4.894529	0.502433	-0.842715	-0.193371	0.037808	-0.202021	0.978651	-0.863789	-0.499018	-0.069641
866	464328													8.487747	0.396934	4.903173	0.502883	-0.842421	-0.193483	0.037603	-0.202313	0.978599	-0.863536	-0.499396	-0.070062
867	464494													8.532176	0.412297	4.853568	0.503425	-0.842107	-0.193439	0.037338	-0.202466	0.978577	-0.863232	-0.499863	-0.070484
868	464661													8.568894	0.378682	4.883811	0.504009	-0.841697	-0.193704	0.037144	-0.202942	0.978486	-0.862899	-0.500361	-0.071020
869	464828													8.601049	0.335555	4.809716	0.504682	-0.841204	-0.194093	0.036898	-0.203602	0.978358	-0.862517	-0.500921	-0.071716
870	464994													8.529325	0.367691	4.937888	0.505758	-0.840520	-0.194257	0.036589	-0.204077	0.978271	-0.861899	-0.501876	-0.072460
