// Start Time: Unknown
// Update Rate: 60.0Hz
//Filter Profile: human (46.1)
// Option Flags: AHS Disabled ICC Disabled
// Firmware Version: 4.0.2
0	sampleTimeFine	Year	Month	Day	Second	UTC_Nano	UTC_Year	UTC_Month	UTC_Day	UTC_Hour	UTC_Minute	UTC_Second	UTC_Valid	Acc_X	Acc_Y	Acc_Z	Mat[1][1]	Mat[2][1]	Mat[3][1]	Mat[1][2]	Mat[2][2]	Mat[3][2]	Mat[1][3]	Mat[2][3]	Mat[3][3]
0	461092													0.000000	0.000000	0.000000	-0.380461	-0.858938	0.342746	-0.034540	0.383557	0.922871	-0.924152	0.339278	-0.175596
1	461259													8.985926	-0.318283	-3.687803	-0.380394	-0.858778	0.343220	-0.034487	0.384033	0.922675	-0.924181	0.339143	-0.175700
2	461426													8.960699	-0.271726	-3.684874	-0.380223	-0.859051	0.342728	-0.034271	0.383390	0.922951	-0.924260	0.339182	-0.175214
3	461592													8.896760	-0.270730	-3.684370	-0.380249	-0.859087	0.342609	-0.033309	0.382914	0.923183	-0.924284	0.339627	-0.174218
4	462092													8.905406	-0.276489	-3.654560	-0.380749	-0.858958	0.342376	-0.032372	0.382420	0.923422	-0.924112	0.340508	-0.173412
5	462259													9.079950	-0.299427	-3.648395	-0.380984	-0.858825	0.342448	-0.031690	0.382294	0.923497	-0.924038	0.340985	-0.172864
6	462426													9.053662	-0.288024	-3.667290	-0.380591	-0.859000	0.342447	-0.031226	0.382042	0.923617	-0.924216	0.340827	-0.172225
7	462592													8.991043	-0.306584	-3.666277	-0.380063	-0.859076	0.342843	-0.030874	0.382233	0.923550	-0.924445	0.340422	-0.171795
8	462759													8.804858	-0.305122	-3.682882	-0.379746	-0.859205	0.342868	-0.030732	0.382144	0.923592	-0.924580	0.340194	-0.171523
9	462926													8.727545	-0.284166	-3.639706	-0.380193	-0.859166	0.342473	-0.030752	0.381816	0.923727	-0.924396	0.340662	-0.171584
10	463092													8.934818	-0.302066	-3.638955	-0.381175	-0.858778	0.342354	-0.030819	0.381909	0.923686	-0.923989	0.341535	-0.172041
11	463259													9.170002	-0.324364	-3.647248	-0.381830	-0.858567	0.342154	-0.030986	0.381887	0.923689	-0.923713	0.342090	-0.172419
12	463426													9.181304	-0.333537	-3.685196	-0.381877	-0.858503	0.342261	-0.031226	0.382101	0.923593	-0.923685	0.342012	-0.172723
13	463592													9.017692	-0.336952	-3.718204	-0.381587	-0.858639	0.342243	-0.031513	0.382129	0.923571	-0.923796	0.341637	-0.172874
14	463759													8.826273	-0.347953	-3.728379	-0.381420	-0.858872	0.341843	-0.031900	0.381809	0.923691	-0.923851	0.341410	-0.173027
15	463926													8.759710	-0.358935	-3.718293	-0.381713	-0.858953	0.341315	-0.032444	0.381500	0.923799	-0.923711	0.341553	-0.173492
16	464092													8.870434	-0.374134	-3.695835	-0.382392	-0.859001	0.340431	-0.033176	0.380958	0.923997	-0.923404	0.342035	-0.174174
17	464259													9.028898	-0.379677	-3.741622	-0.383029	-0.859228	0.339140	-0.034060	0.380026	0.924348	-0.923108	0.342501	-0.174827
18	464426													9.137264	-0.372955	-3.736771	-0.383310	-0.859583	0.337921	-0.035065	0.379145	0.924673	-0.922954	0.342587	-0.175471
19	464592													9.065895	-0.400319	-3.761021	-0.383187	-0.860170	0.336563	-0.036131	0.378055	0.925078	-0.922964	0.342317	-0.175945
20	464759													8.997088	-0.399705	-3.786783	-0.382832	-0.860861	0.335199	-0.037273	0.376939	0.925488	-0.923066	0.341812	-0.176392
21	464926													8.945949	-0.401257	-3.786679	-0.382391	-0.861742	0.333434	-0.038407	0.375371	0.926078	-0.923202	0.341318	-0.176636
22	465092													8.883651	-0.400976	-3.792794	-0.381976	-0.862526	0.331879	-0.039568	0.374043	0.926567	-0.923325	0.340794	-0.177004
23	465259													8.907429	-0.358262	-3.801353	-0.381687	-0.863360	0.330037	-0.040613	0.372390	0.927187	-0.923399	0.340492	-0.177200
24	465426													9.010570	-0.343778	-3.792315	-0.381352	-0.864135	0.328392	-0.041602	0.370920	0.927732	-0.923493	0.340131	-0.177401
25	465592													9.018211	-0.420459	-3.751785	-0.380818	-0.864942	0.326885	-0.042700	0.369596	0.928211	-0.923664	0.339521	-0.177682
26	465759													8.956705	-0.443857	-3.761643	-0.380098	-0.865907	0.325164	-0.044137	0.368128	0.928727	-0.923893	0.338655	-0.178143
27	465926													8.899021	-0.475203	-3.748323	-0.379350	-0.867002	0.323111	-0.045840	0.366396	0.929329	-0.924117	0.337729	-0.178736
28	466092													8.949271	-0.504869	-3.761102	-0.378595	-0.868165	0.320868	-0.047885	0.364581	0.929940	-0.924323	0.336706	-0.179600
29	466259													9.120086	-0.591911	-3.732252	-0.377668	-0.869610	0.318034	-0.050334	0.362244	0.930723	-0.924572	0.335496	-0.180579
30	466426													9.148005	-0.542954	-3.672758	-0.376336	-0.871313	0.314937	-0.053167	0.359678	0.931561	-0.924957	0.333835	-0.181685
31	466592													9.079947	-0.515701	-3.625203	-0.374707	-0.873230	0.311550	-0.056028	0.356745	0.932520	-0.925449	0.331966	-0.182600
32	466759													9.017325	-0.514399	-3.594187	-0.372933	-0.875161	0.308245	-0.058753	0.353817	0.933467	-0.925996	0.330010	-0.183368
33	466926													8.983474	-0.547639	-3.574453	-0.371139	-0.877049	0.305025	-0.061345	0.350927	0.934391	-0.926549	0.328078	-0.184045
34	467092													8.975693	-0.571766	-3.527184	-0.369405	-0.878862	0.301897	-0.063868	0.348119	0.935272	-0.927071	0.326212	-0.184728
35	467259													8.899347	-0.541285	-3.515115	-0.367759	-0.880576	0.298896	-0.066336	0.345444	0.936092	-0.927552	0.324429	-0.185454
36	467426													8.895124	-0.464525	-3.489317	-0.366394	-0.882103	0.296059	-0.068903	0.343034	0.936792	-0.927905	0.322835	-0.186465
37	467592													8.837000	-0.397934	-3.478258	-0.365397	-0.883231	0.293917	-0.071146	0.341326	0.937249	-0.928129	0.321557	-0.187558
38	467759													8.857133	-0.446787	-3.478250	-0.364943	-0.883933	0.292367	-0.072891	0.340188	0.937528	-0.928172	0.320833	-0.188580
39	467926													8.903573	-0.536145	-3.500806	-0.364949	-0.884245	0.291415	-0.074120	0.339604	0.937643	-0.928072	0.320593	-0.189478
40	468092													8.929537	-0.640948	-3.492277	-0.365307	-0.884274	0.290879	-0.074903	0.339384	0.937661	-0.927869	0.320746	-0.190214
41	468259													8.958768	-0.702341	-3.477311	-0.365980	-0.884087	0.290599	-0.075402	0.339407	0.937613	-0.927563	0.321236	-0.190878
42	468426													8.941281	-0.675135	-3.493449	-0.366853	-0.883693	0.290699	-0.075576	0.339764	0.937469	-0.927204	0.321944	-0.191429
43	468592													8.934853	-0.677623	-3.522862	-0.367927	-0.883115	0.291097	-0.075357	0.340345	0.937276	-0.926796	0.322913	-0.191771
44	468759													8.986516	-0.698403	-3.524294	-0.369185	-0.882350	0.291824	-0.074801	0.341199	0.937010	-0.926341	0.324101	-0.191966
45	468926													9.012747	-0.705486	-3.564642	-0.370484	-0.881480	0.292803	-0.074011	0.342249	0.936690	-0.925885	0.325358	-0.192037
46	469092													8.999528	-0.711266	-3.565026	-0.371781	-0.880455	0.294242	-0.073091	0.343741	0.936216	-0.925438	0.326561	-0.192150
47	469259													8.969651	-0.712565	-3.605641	-0.373085	-0.879489	0.295478	-0.072105	0.344994	0.935831	-0.924991	0.327839	-0.192128
48	469426													8.933761	-0.714654	-3.604347	-0.374460	-0.878441	0.296852	-0.071068	0.346393	0.935394	-0.924516	0.329171	-0.192139
49	469592													8.921385	-0.722594	-3.639679	-0.375936	-0.877343	0.298229	-0.070003	0.347806	0.934949	-0.923998	0.330605	-0.192169
50	469759													8.940926	-0.728325	-3.673610	-0.377501	-0.876222	0.299546	-0.068934	0.349174	0.934519	-0.923440	0.332132	-0.192215
51	469926													8.914189	-0.696921	-3.729840	-0.379113	-0.875121	0.300727	-0.067970	0.350444	0.934114	-0.922851	0.333694	-0.192340
52	470092													8.842763	-0.694008	-3.722410	-0.380987	-0.874007	0.301596	-0.067168	0.351499	0.933776	-0.922137	0.335499	-0.192622
53	470259													8.772244	-0.662830	-3.718183	-0.383264	-0.872827	0.302129	-0.066763	0.352431	0.933453	-0.921223	0.337588	-0.193347
54	470592													8.643793	-0.603954	-3.728742	-0.386035	-0.871545	0.302301	-0.066696	0.353215	0.933162	-0.920070	0.340071	-0.194482
55	470759													8.579937	-0.608825	-3.713433	-0.389655	-0.869976	0.302177	-0.066981	0.354012	0.932839	-0.918522	0.343246	-0.196214
56	470926													8.795395	-0.636687	-3.689156	-0.393782	-0.868262	0.301756	-0.067592	0.354743	0.932518	-0.916715	0.346812	-0.198379
57	471092													8.897315	-0.662155	-3.715682	-0.398075	-0.866591	0.300925	-0.068547	0.355218	0.932267	-0.914788	0.350485	-0.200806
58	471259													8.984713	-0.648759	-3.773960	-0.402248	-0.864990	0.299982	-0.069702	0.355642	0.932020	-0.912874	0.353993	-0.203347
59	471426													8.970117	-0.635944	-3.810724	-0.406297	-0.863467	0.298912	-0.070843	0.355913	0.931830	-0.910991	0.357424	-0.205777
60	471592													8.974892	-0.644874	-3.833989	-0.410163	-0.862035	0.297762	-0.071897	0.356036	0.931702	-0.909174	0.360742	-0.208011
61	471759													8.952044	-0.658999	-3.904118	-0.413785	-0.860682	0.296660	-0.072705	0.356068	0.931627	-0.907467	0.363925	-0.209911
62	471926													8.911773	-0.688808	-3.933352	-0.417186	-0.859403	0.295606	-0.073249	0.356001	0.931610	-0.905865	0.367002	-0.211469
63	472092													8.912601	-0.698441	-3.995710	-0.420290	-0.858234	0.294602	-0.073616	0.355850	0.931639	-0.904399	0.369872	-0.212740
64	472259													8.902323	-0.702920	-4.022812	-0.423047	-0.857238	0.293553	-0.073779	0.355484	0.931766	-0.903099	0.372523	-0.213633
65	472426													8.876407	-0.705693	-4.064105	-0.425444	-0.856460	0.292358	-0.073820	0.354819	0.932016	-0.901969	0.374939	-0.214180
66	472592													8.884762	-0.695326	-4.111417	-0.427478	-0.855770	0.291409	-0.073786	0.354299	0.932217	-0.901009	0.377001	-0.214599
67	472759													8.845476	-0.669414	-4.176107	-0.429145	-0.855283	0.290389	-0.073653	0.353565	0.932506	-0.900227	0.378793	-0.214725
68	472926													8.790896	-0.649754	-4.199052	-0.430530	-0.854905	0.289451	-0.073352	0.352774	0.932829	-0.899591	0.380379	-0.214589
69	473092													8.794353	-0.681305	-4.216639	-0.431652	-0.854597	0.288687	-0.073036	0.352099	0.933109	-0.899078	0.381694	-0.214400
70	473259													8.808058	-0.665175	-4.282837	-0.432521	-0.854461	0.287786	-0.072748	0.351219	0.933463	-0.898684	0.382807	-0.214070
71	473426													8.801527	-0.660757	-4.292362	-0.433089	-0.854455	0.286949	-0.072570	0.350375	0.933794	-0.898425	0.383592	-0.213752
72	473592													8.723747	-0.649353	-4.301583	-0.433397	-0.854489	0.286384	-0.072460	0.349791	0.934021	-0.898286	0.384050	-0.213515
73	473759													8.702805	-0.685559	-4.315449	-0.433506	-0.854632	0.285791	-0.072514	0.349195	0.934240	-0.898228	0.384275	-0.213351
74	473926													8.674070	-0.623270	-4.327304	-0.433492	-0.854877	0.285081	-0.072581	0.348443	0.934516	-0.898230	0.384414	-0.213094
75	474092													8.669285	-0.626956	-4.332968	-0.433403	-0.855108	0.284522	-0.072615	0.347824	0.934744	-0.898270	0.384460	-0.212842
76	474259													8.694679	-0.630906	-4.331186	-0.433269	-0.855334	0.284046	-0.072602	0.347264	0.934953	-0.898336	0.384463	-0.212557
77	474426													8.744768	-0.672634	-4.336686	-0.433036	-0.855568	0.283694	-0.072620	0.346826	0.935114	-0.898447	0.384336	-0.212319
78	474592													8.751658	-0.626031	-4.303800	-0.432567	-0.855890	0.283441	-0.072555	0.346400	0.935277	-0.898678	0.384005	-0.211940
79	474759													8.732429	-0.615272	-4.297769	-0.431921	-0.856153	0.283632	-0.072342	0.346352	0.935311	-0.899006	0.383461	-0.211533
80	474926													8.677561	-0.642674	-4.285734	-0.431172	-0.856455	0.283859	-0.071914	0.346225	0.935391	-0.899399	0.382901	-0.210873
81	475092													8.658575	-0.661977	-4.261364	-0.430402	-0.856737	0.284174	-0.071356	0.346136	0.935467	-0.899812	0.382350	-0.210111
82	475259													8.640031	-0.661331	-4.265525	-0.429632	-0.857039	0.284430	-0.070676	0.345930	0.935595	-0.900234	0.381859	-0.209194
83	475426													8.656548	-0.638517	-4.263316	-0.428954	-0.857270	0.284757	-0.069865	0.345772	0.935714	-0.900620	0.381484	-0.208213
84	475593													8.693114	-0.597907	-4.235351	-0.428299	-0.857488	0.285088	-0.068950	0.345581	0.935852	-0.901003	0.381168	-0.207136
85	475759													8.724951	-0.545642	-4.214332	-0.427598	-0.857630	0.285711	-0.067918	0.345649	0.935903	-0.901414	0.380785	-0.206048
86	475926													8.740534	-0.515487	-4.194084	-0.426811	-0.857674	0.286753	-0.066865	0.346146	0.935795	-0.901866	0.380233	-0.205087
87	476093													8.760188	-0.479469	-4.160990	-0.425955	-0.857706	0.287931	-0.065752	0.346750	0.935650	-0.902352	0.379612	-0.204096
88	476259													8.758029	-0.474967	-4.135614	-0.425028	-0.857679	0.289375	-0.064623	0.347623	0.935405	-0.902871	0.378873	-0.203175
89	476426													8.751583	-0.455233	-4.136099	-0.424035	-0.857609	0.291036	-0.063487	0.348715	0.935076	-0.903418	0.378028	-0.202314
90	476593													8.747499	-0.438787	-4.141091	-0.422987	-0.857438	0.293058	-0.062355	0.350191	0.934600	-0.903988	0.377050	-0.201592
91	476759													8.753768	-0.433998	-4.093962	-0.421932	-0.857243	0.295139	-0.061266	0.351750	0.934087	-0.904555	0.376039	-0.200934
92	476926													8.779358	-0.452860	-4.072591	-0.420861	-0.856979	0.297429	-0.060245	0.353563	0.933469	-0.905122	0.374942	-0.200430
93	477093													8.787467	-0.450635	-4.063397	-0.419803	-0.856583	0.300053	-0.059223	0.355742	0.932706	-0.905681	0.373782	-0.200071
94	477259													8.786913	-0.453109	-4.058662	-0.418736	-0.856124	0.302839	-0.058158	0.358081	0.931877	-0.906244	0.372598	-0.199732
95	477426													8.756289	-0.439852	-4.044726	-0.417750	-0.855652	0.305525	-0.057012	0.360297	0.931094	-0.906772	0.371546	-0.199297
96	477593													8.767014	-0.434163	-4.034797	-0.416888	-0.855012	0.308477	-0.055663	0.362752	0.930222	-0.907252	0.370627	-0.198820
97	477759													8.771181	-0.452281	-4.010636	-0.416115	-0.854259	0.311592	-0.054274	0.365389	0.929271	-0.907691	0.369772	-0.198408
98	477926													8.787406	-0.465068	-3.962190	-0.415411	-0.853451	0.314731	-0.052886	0.368072	0.928292	-0.908095	0.368978	-0.198036
99	478093													8.778405	-0.454087	-3.960333	-0.414771	-0.852644	0.317746	-0.051552	0.370659	0.927337	-0.908464	0.368252	-0.197694
100	478259													8.798677	-0.448260	-3.978127	-0.414154	-0.851870	0.320615	-0.050306	0.373128	0.926415	-0.908816	0.367550	-0.197387
101	478426													8.824914	-0.466600	-3.951847	-0.413561	-0.851080	0.323465	-0.049184	0.375635	0.925462	-0.909147	0.366826	-0.197208
102	478593													8.848300	-0.497078	-3.961028	-0.412928	-0.850444	0.325937	-0.048181	0.377769	0.924645	-0.909488	0.366108	-0.196967
103	478759													8.862469	-0.522420	-3.950008	-0.412263	-0.849955	0.328048	-0.047348	0.379572	0.923950	-0.909834	0.365378	-0.196727
104	478926													8.870945	-0.501536	-3.941145	-0.411564	-0.849588	0.329871	-0.046705	0.381131	0.923340	-0.910183	0.364607	-0.196540
105	479093													8.865438	-0.519432	-3.932489	-0.410807	-0.849426	0.331229	-0.046171	0.382217	0.922918	-0.910553	0.363848	-0.196236
106	479259													8.860591	-0.514531	-3.926290	-0.410062	-0.849418	0.332172	-0.045719	0.382886	0.922663	-0.910911	0.363162	-0.195841
107	479426													8.867235	-0.489681	-3.892750	-0.409323	-0.849518	0.332827	-0.045352	0.383279	0.922518	-0.911262	0.362514	-0.195412
108	479593													8.830089	-0.494803	-3.896521	-0.408627	-0.849700	0.333217	-0.045083	0.383434	0.922467	-0.911587	0.361923	-0.194988
109	479759													8.821304	-0.435967	-3.880489	-0.408006	-0.850015	0.333176	-0.044994	0.383210	0.922565	-0.911870	0.361421	-0.194598
110	479926													8.829295	-0.367541	-3.874697	-0.407475	-0.850411	0.332814	-0.044882	0.382651	0.922802	-0.912113	0.361082	-0.194089
111	480093													8.799686	-0.318383	-3.878495	-0.407076	-0.850718	0.332517	-0.044758	0.382187	0.923000	-0.912297	0.360849	-0.193656
112	480259													8.820957	-0.321649	-3.870343	-0.406806	-0.851032	0.332044	-0.044644	0.381566	0.923263	-0.912423	0.360765	-0.193217
113	480426													8.837712	-0.327724	-3.902108	-0.406624	-0.851364	0.331416	-0.044622	0.380835	0.923566	-0.912505	0.360756	-0.192846
114	480593													8.836925	-0.316444	-3.878878	-0.406521	-0.851657	0.330788	-0.044670	0.380149	0.923846	-0.912549	0.360786	-0.192582
115	480759													8.840756	-0.291350	-3.868817	-0.406504	-0.851870	0.330260	-0.044732	0.379596	0.924070	-0.912553	0.360865	-0.192413
116	480926													8.829692	-0.272165	-3.892073	-0.406545	-0.852045	0.329758	-0.044740	0.379065	0.924288	-0.912534	0.361012	-0.192228
117	481093													8.831436	-0.259482	-3.912542	-0.406662	-0.852194	0.329230	-0.044722	0.378512	0.924515	-0.912484	0.361241	-0.192038
118	481259													8.835561	-0.273066	-3.921134	-0.406838	-0.852251	0.328863	-0.044722	0.378154	0.924662	-0.912405	0.361480	-0.191962
119	481426													8.844740	-0.283033	-3.922853	-0.407105	-0.852197	0.328674	-0.044756	0.378023	0.924714	-0.912284	0.361745	-0.192035
120	481593													8.849542	-0.265182	-3.947436	-0.407419	-0.852173	0.328346	-0.044792	0.377753	0.924822	-0.912142	0.362083	-0.192074
121	481759													8.838855	-0.268773	-3.939990	-0.407743	-0.852083	0.328176	-0.044845	0.377664	0.924856	-0.911995	0.362386	-0.192201
122	481926													8.811058	-0.270632	-3.967021	-0.408084	-0.851973	0.328039	-0.044862	0.377600	0.924881	-0.911842	0.362712	-0.192314
123	482093													8.814384	-0.278726	-3.947205	-0.408439	-0.851821	0.327993	-0.044841	0.377622	0.924873	-0.911683	0.363047	-0.192432
124	482259													8.844256	-0.271076	-3.942606	-0.408775	-0.851689	0.327916	-0.044817	0.377607	0.924881	-0.911534	0.363372	-0.192527
125	482426													8.868990	-0.282322	-3.972267	-0.409072	-0.851520	0.327985	-0.044796	0.377741	0.924827	-0.911402	0.363628	-0.192668
126	482593													8.870769	-0.279867	-3.961751	-0.409264	-0.851404	0.328045	-0.044792	0.377849	0.924783	-0.911316	0.363787	-0.192776
127	482759													8.846762	-0.288296	-3.979274	-0.409396	-0.851339	0.328049	-0.044841	0.377903	0.924759	-0.911254	0.363882	-0.192887
128	482926													8.816235	-0.279448	-3.991177	-0.409537	-0.851282	0.328022	-0.044919	0.377938	0.924741	-0.911187	0.363981	-0.193019
129	483093													8.838125	-0.315158	-3.973276	-0.409692	-0.851213	0.328008	-0.045038	0.378006	0.924707	-0.911112	0.364072	-0.193202
130	483259													8.834270	-0.330597	-4.010739	-0.409843	-0.851123	0.328053	-0.045275	0.378184	0.924623	-0.911032	0.364098	-0.193531
131	483426													8.814419	-0.339570	-3.981192	-0.410027	-0.851027	0.328071	-0.045540	0.378352	0.924541	-0.910936	0.364147	-0.193890
132	483593													8.838798	-0.363099	-4.000897	-0.410220	-0.850993	0.327919	-0.045831	0.378348	0.924528	-0.910834	0.364231	-0.194207
133	483759													8.815015	-0.348789	-3.999281	-0.410401	-0.850990	0.327700	-0.046070	0.378248	0.924557	-0.910741	0.364342	-0.194439
134	483926													8.846042	-0.342497	-3.969244	-0.410564	-0.850954	0.327590	-0.046162	0.378202	0.924571	-0.910663	0.364473	-0.194558
135	484093													8.875521	-0.357177	-3.979722	-0.410660	-0.850908	0.327588	-0.046180	0.378230	0.924559	-0.910618	0.364551	-0.194619
136	484259													8.855594	-0.346120	-3.948465	-0.410636	-0.850941	0.327533	-0.046165	0.378158	0.924589	-0.910630	0.364549	-0.194569
137	484426													8.850970	-0.309635	-3.950634	-0.410470	-0.850979	0.327642	-0.046142	0.378230	0.924561	-0.910706	0.364387	-0.194518
138	484593													8.833771	-0.305655	-3.952713	-0.410250	-0.850986	0.327899	-0.046062	0.378425	0.924485	-0.910809	0.364167	-0.194447
139	484759													8.853304	-0.311405	-3.981461	-0.410020	-0.851019	0.328100	-0.045954	0.378548	0.924440	-0.910918	0.363962	-0.194319
140	484926													8.865006	-0.321359	-3.949701	-0.409705	-0.851054	0.328403	-0.045864	0.378768	0.924355	-0.911064	0.363651	-0.194216
141	485093													8.854646	-0.319913	-3.970559	-0.409372	-0.851062	0.328798	-0.045802	0.379095	0.924224	-0.911217	0.363291	-0.194171
142	485259													8.838640	-0.302873	-3.954445	-0.409043	-0.851070	0.329185	-0.045774	0.379428	0.924088	-0.911366	0.362924	-0.194159
143	485426													8.812776	-0.328202	-3.968006	-0.408776	-0.851001	0.329695	-0.045691	0.379886	0.923904	-0.911490	0.362606	-0.194171
144	485593													8.816908	-0.357017	-3.951374	-0.408581	-0.850934	0.330111	-0.045574	0.380246	0.923762	-0.911584	0.362387	-0.194141
145	485759													8.836629	-0.360802	-3.919300	-0.408461	-0.850866	0.330435	-0.045398	0.380500	0.923666	-0.911646	0.362280	-0.194047
146	485926													8.834593	-0.360380	-3.948251	-0.408360	-0.850771	0.330804	-0.045167	0.380786	0.923559	-0.911703	0.362203	-0.193924
147	486093													8.849078	-0.393905	-3.925674	-0.408277	-0.850698	0.331093	-0.045047	0.381033	0.923463	-0.911746	0.362114	-0.193888
148	486259													8.812405	-0.335749	-3.954313	-0.408212	-0.850692	0.331188	-0.044938	0.381077	0.923450	-0.911780	0.362081	-0.193789
149	486426													8.823559	-0.327795	-3.948494	-0.408179	-0.850687	0.331242	-0.044729	0.381046	0.923474	-0.911805	0.362127	-0.193585
150	486593													8.848453	-0.323218	-3.939332	-0.408185	-0.850619	0.331411	-0.044502	0.381140	0.923445	-0.911814	0.362188	-0.193430
151	486759													8.864992	-0.324387	-3.941496	-0.408152	-0.850577	0.331558	-0.044356	0.381235	0.923414	-0.911836	0.362187	-0.193330
152	486926													8.860894	-0.332680	-3.945590	-0.408101	-0.850563	0.331657	-0.044294	0.381306	0.923387	-0.911862	0.362144	-0.193286
153	487093													8.832024	-0.296267	-3.939983	-0.408066	-0.850515	0.331824	-0.044267	0.381468	0.923322	-0.911879	0.362087	-0.193313
154	487259													8.819976	-0.284097	-3.937640	-0.408064	-0.850478	0.331919	-0.044246	0.381563	0.923283	-0.911880	0.362073	-0.193332
155	487426													8.837710	-0.313962	-3.924645	-0.408082	-0.850412	0.332066	-0.044171	0.381697	0.923232	-0.911876	0.362087	-0.193327
156	487593													8.851124	-0.322238	-3.935491	-0.408106	-0.850351	0.332193	-0.044081	0.381804	0.923191	-0.911870	0.362117	-0.193301
157	487759													8.857919	-0.322527	-3.934990	-0.408104	-0.850301	0.332325	-0.043934	0.381888	0.923164	-0.911878	0.362146	-0.193207
158	487926													8.866956	-0.305977	-3.933835	-0.408114	-0.850193	0.332587	-0.043755	0.382104	0.923083	-0.911882	0.362170	-0.193142
159	488093													8.850842	-0.289827	-3.910079	-0.408106	-0.850100	0.332836	-0.043539	0.382287	0.923017	-0.911896	0.362198	-0.193026
160	488259													8.835038	-0.277267	-3.935921	-0.408133	-0.849951	0.333182	-0.043254	0.382556	0.922919	-0.911897	0.362262	-0.192897
161	488426													8.840858	-0.288214	-3.923212	-0.408234	-0.849800	0.333445	-0.042939	0.382739	0.922858	-0.911867	0.362425	-0.192737
162	488593													8.834379	-0.291781	-3.928958	-0.408400	-0.849542	0.333897	-0.042670	0.383161	0.922695	-0.911805	0.362581	-0.192733
163	488759													8.827635	-0.283782	-3.920562	-0.408588	-0.849333	0.334200	-0.042439	0.383441	0.922590	-0.911732	0.362776	-0.192715
164	488926													8.849469	-0.294212	-3.899905	-0.408859	-0.849101	0.334456	-0.042199	0.383687	0.922499	-0.911621	0.363059	-0.192705
165	489093													8.838424	-0.311077	-3.932087	-0.409164	-0.848801	0.334845	-0.042054	0.384122	0.922324	-0.911491	0.363300	-0.192864
166	489259													8.862638	-0.310890	-3.910248	-0.409507	-0.848568	0.335015	-0.041973	0.384353	0.922232	-0.911341	0.363599	-0.193012
167	489426													8.833855	-0.302696	-3.917910	-0.409854	-0.848388	0.335050	-0.041939	0.384457	0.922190	-0.911187	0.363911	-0.193152
168	489593													8.835763	-0.309666	-3.929031	-0.410250	-0.848224	0.334979	-0.041944	0.384473	0.922183	-0.911008	0.364275	-0.193308
169	489759													8.820696	-0.318097	-3.935590	-0.410663	-0.848099	0.334789	-0.041996	0.384383	0.922218	-0.910820	0.364661	-0.193469
170	489926													8.836848	-0.292074	-3.914492	-0.411067	-0.847966	0.334631	-0.042084	0.384339	0.922232	-0.910633	0.365017	-0.193675
171	490093													8.821028	-0.284939	-3.954284	-0.411495	-0.847845	0.334410	-0.042182	0.384238	0.922270	-0.910435	0.365404	-0.193875
172	490259													8.810828	-0.289995	-3.969310	-0.411935	-0.847701	0.334236	-0.042294	0.384195	0.922283	-0.910231	0.365784	-0.194116
173	490426													8.835602	-0.293743	-3.944634	-0.412421	-0.847560	0.333992	-0.042403	0.384086	0.922323	-0.910006	0.366223	-0.194344
174	490593													8.811102	-0.286472	-3.970510	-0.412879	-0.847456	0.333690	-0.042502	0.383904	0.922394	-0.909794	0.366655	-0.194525
175	490759													8.811913	-0.303116	-3.978822	-0.413365	-0.847345	0.333372	-0.042634	0.383724	0.922463	-0.909567	0.367101	-0.194744
176	490926													8.865018	-0.288850	-4.001068	-0.413842	-0.847189	0.333175	-0.042750	0.383668	0.922481	-0.909344	0.367518	-0.194995
177	491093													8.828399	-0.283313	-4.030191	-0.414298	-0.847020	0.333039	-0.042720	0.383614	0.922505	-0.909138	0.367964	-0.195115
178	491259													8.856836	-0.274496	-4.012796	-0.414705	-0.846858	0.332943	-0.042569	0.383543	0.922541	-0.908960	0.368410	-0.195107
179	491426													8.837440	-0.295075	-4.012091	-0.415001	-0.846699	0.332978	-0.042359	0.383567	0.922541	-0.908834	0.368751	-0.195046
180	491593													8.811782	-0.284318	-4.011727	-0.415224	-0.846583	0.332995	-0.042187	0.383567	0.922549	-0.908740	0.369017	-0.194981
181	491759													8.775382	-0.249361	-4.045105	-0.415403	-0.846498	0.332989	-0.042027	0.383537	0.922569	-0.908666	0.369243	-0.194898
182	491926													8.795574	-0.256017	-4.036683	-0.415569	-0.846392	0.333052	-0.041897	0.383592	0.922552	-0.908596	0.369430	-0.194870
183	492093													8.818563	-0.261285	-4.026963	-0.415685	-0.846237	0.333300	-0.041821	0.383859	0.922444	-0.908547	0.369507	-0.194955
184	492260													8.821991	-0.291836	-4.014133	-0.415747	-0.846179	0.333371	-0.041797	0.383941	0.922411	-0.908519	0.369556	-0.194990
185	492426													8.805427	-0.306352	-4.036788	-0.415804	-0.846133	0.333416	-0.041860	0.384029	0.922372	-0.908491	0.369569	-0.195100
186	492593													8.796574	-0.307380	-4.038210	-0.415873	-0.846128	0.333342	-0.042012	0.384026	0.922366	-0.908452	0.369583	-0.195253
187	492760													8.771851	-0.332149	-4.057694	-0.416016	-0.846086	0.333270	-0.042138	0.384032	0.922358	-0.908380	0.369672	-0.195416
188	492926													8.776821	-0.330222	-4.016856	-0.416221	-0.846115	0.332940	-0.042333	0.383800	0.922446	-0.908278	0.369846	-0.195564
189	493093													8.799636	-0.320858	-4.034650	-0.416422	-0.846098	0.332733	-0.042489	0.383684	0.922486	-0.908178	0.370007	-0.195724
190	493260													8.785877	-0.335126	-4.026054	-0.416594	-0.846112	0.332480	-0.042648	0.383515	0.922550	-0.908092	0.370149	-0.195855
191	493426													8.787894	-0.332212	-4.024213	-0.416749	-0.846158	0.332170	-0.042882	0.383308	0.922624	-0.908010	0.370258	-0.196029
192	493593													8.774347	-0.304324	-4.029501	-0.416912	-0.846205	0.331847	-0.043075	0.383072	0.922713	-0.907926	0.370396	-0.196158
193	493760													8.810624	-0.295316	-4.050492	-0.417085	-0.846184	0.331682	-0.043146	0.382962	0.922756	-0.907843	0.370557	-0.196237
194	493926													8.828526	-0.297292	-4.023608	-0.417207	-0.846213	0.331454	-0.043177	0.382755	0.922840	-0.907785	0.370704	-0.196226
195	494093													8.820043	-0.306520	-4.064563	-0.417224	-0.846282	0.331258	-0.043197	0.382554	0.922923	-0.907777	0.370756	-0.196167
196	494260													8.820765	-0.284097	-4.049837	-0.417183	-0.846348	0.331140	-0.043234	0.382431	0.922972	-0.907793	0.370732	-0.196135
197	494426													8.819771	-0.271245	-4.058473	-0.417106	-0.846387	0.331137	-0.043245	0.382414	0.922979	-0.907828	0.370660	-0.196109
198	494593													8.815533	-0.290200	-4.014344	-0.416976	-0.846424	0.331207	-0.043135	0.382415	0.922983	-0.907893	0.370575	-0.195968
199	494760													8.801439	-0.294970	-4.048537	-0.416788	-0.846416	0.331462	-0.042965	0.382579	0.922923	-0.907988	0.370422	-0.195821
200	494926													8.828040	-0.287664	-4.045492	-0.416570	-0.846391	0.331802	-0.042738	0.382806	0.922840	-0.908098	0.370247	-0.195638
201	495093													8.837089	-0.287617	-4.034027	-0.416255	-0.846364	0.332264	-0.042469	0.383127	0.922719	-0.908255	0.369976	-0.195423
202	495260													8.820133	-0.289411	-4.025267	-0.415898	-0.846424	0.332559	-0.042238	0.383270	0.922670	-0.908430	0.369689	-0.195153
203	495426													8.806237	-0.287617	-4.004141	-0.415505	-0.846441	0.333007	-0.041958	0.383553	0.922565	-0.908623	0.369358	-0.194884
204	495593													8.807270	-0.293317	-4.002509	-0.415150	-0.846434	0.333467	-0.041701	0.383867	0.922446	-0.908797	0.369048	-0.194660
205	495760													8.792675	-0.288342	-4.003991	-0.414805	-0.846488	0.333759	-0.041432	0.383995	0.922405	-0.908967	0.368790	-0.194354
206	495926													8.806248	-0.275894	-4.015091	-0.414509	-0.846518	0.334051	-0.041224	0.384160	0.922346	-0.909111	0.368550	-0.194134
207	496093													8.801074	-0.276572	-3.993728	-0.414225	-0.846562	0.334290	-0.041084	0.384298	0.922295	-0.909247	0.368304	-0.193966
208	496260													8.815585	-0.287281	-3.990608	-0.413981	-0.846616	0.334455	-0.041002	0.384388	0.922261	-0.909362	0.368085	-0.193843
209	496426													8.807533	-0.291325	-3.976170	-0.413755	-0.846669	0.334603	-0.040991	0.384492	0.922218	-0.909465	0.367856	-0.193791
210	496593													8.794228	-0.285582	-4.009809	-0.413564	-0.846765	0.334595	-0.041013	0.384447	0.922235	-0.909551	0.367680	-0.193722
211	496760													8.794800	-0.299760	-3.996054	-0.413432	-0.846832	0.334589	-0.041082	0.384439	0.922236	-0.909608	0.367536	-0.193729
212	496926													8.791173	-0.298395	-3.975230	-0.413379	-0.846876	0.334544	-0.041197	0.384423	0.922237	-0.909627	0.367451	-0.193801
213	497093													8.809972	-0.299995	-3.997714	-0.413360	-0.846938	0.334410	-0.041329	0.384327	0.922272	-0.909629	0.367409	-0.193868
214	497260													8.834053	-0.303206	-3.980152	-0.413354	-0.847019	0.334211	-0.041449	0.384157	0.922337	-0.909627	0.367399	-0.193901
215	497426													8.828182	-0.298280	-3.983367	-0.413317	-0.847093	0.334070	-0.041536	0.384029	0.922386	-0.909640	0.367362	-0.193911
216	497593													8.842698	-0.291243	-3.980787	-0.413230	-0.847156	0.334017	-0.041567	0.383965	0.922412	-0.909677	0.367284	-0.193879
217	497760													8.842580	-0.281719	-3.987292	-0.413095	-0.847258	0.333925	-0.041557	0.383829	0.922469	-0.909739	0.367190	-0.193767
218	497926													8.857694	-0.278630	-3.981135	-0.412925	-0.847367	0.333858	-0.041473	0.383683	0.922533	-0.909820	0.367091	-0.193575
219	498093													8.836191	-0.261063	-3.973458	-0.412693	-0.847468	0.333891	-0.041390	0.383631	0.922559	-0.909929	0.366914	-0.193398
220	498260													8.811254	-0.260774	-3.982322	-0.412468	-0.847564	0.333924	-0.041296	0.383577	0.922585	-0.910036	0.366747	-0.193214
221	498426													8.796769	-0.263289	-3.971523	-0.412291	-0.847605	0.334038	-0.041194	0.383620	0.922572	-0.910121	0.366608	-0.193079
222	498593													8.831420	-0.272572	-3.991824	-0.412131	-0.847617	0.334205	-0.041126	0.383737	0.922526	-0.910196	0.366457	-0.193010
223	498760													8.796436	-0.289426	-3.968877	-0.412011	-0.847616	0.334357	-0.041066	0.383850	0.922482	-0.910253	0.366342	-0.192959
224	498926													8.818680	-0.285390	-3.994321	-0.411913	-0.847576	0.334577	-0.041039	0.384056	0.922397	-0.910299	0.366217	-0.192981
225	499093													8.810150	-0.275449	-3.988363	-0.411881	-0.847525	0.334748	-0.040985	0.384213	0.922334	-0.910316	0.366172	-0.192986
226	499260													8.819170	-0.294644	-3.979092	-0.411895	-0.847457	0.334900	-0.040792	0.384305	0.922305	-0.910318	0.366232	-0.192863
227	499426													8.835188	-0.300773	-3.988072	-0.411880	-0.847400	0.335065	-0.040577	0.384394	0.922277	-0.910334	0.366271	-0.192709
228	499593													8.837981	-0.299375	-3.987532	-0.411790	-0.847394	0.335192	-0.040393	0.384437	0.922267	-0.910383	0.366241	-0.192536
229	499760													8.818377	-0.280951	-3.975698	-0.411644	-0.847420	0.335305	-0.040285	0.384483	0.922253	-0.910454	0.366132	-0.192408
230	499926													8.824892	-0.265719	-3.983716	-0.411495	-0.847479	0.335338	-0.040183	0.384445	0.922273	-0.910526	0.366036	-0.192252
231	500093													8.848785	-0.274760	-3.995128	-0.411342	-0.847505	0.335460	-0.040096	0.384507	0.922251	-0.910599	0.365910	-0.192146
232	500260													8.864925	-0.304766	-3.987317	-0.411161	-0.847544	0.335584	-0.040037	0.384577	0.922224	-0.910683	0.365747	-0.192056
233	500426													8.829836	-0.312133	-3.965468	-0.410923	-0.847631	0.335655	-0.040094	0.384622	0.922203	-0.910788	0.365497	-0.192035
234	500593													8.821137	-0.326279	-3.965659	-0.410701	-0.847753	0.335618	-0.040200	0.384573	0.922219	-0.910883	0.365265	-0.192024
235	500760													8.841410	-0.321612	-3.979371	-0.410483	-0.847886	0.335548	-0.040286	0.384482	0.922253	-0.910978	0.365051	-0.191982
236	500926													8.849336	-0.320260	-3.976579	-0.410269	-0.848022	0.335466	-0.040390	0.384386	0.922289	-0.911070	0.364837	-0.191953
237	501093													8.845385	-0.308377	-3.951305	-0.410038	-0.848187	0.335332	-0.040426	0.384202	0.922364	-0.911172	0.364648	-0.191826
238	501260													8.842726	-0.288806	-3.935998	-0.409754	-0.848368	0.335220	-0.040466	0.384031	0.922433	-0.911298	0.364406	-0.191688
239	501426													8.800794	-0.307318	-3.952816	-0.409501	-0.848564	0.335034	-0.040530	0.383796	0.922528	-0.911409	0.364197	-0.191557
240	501593													8.795915	-0.295028	-3.943128	-0.409326	-0.848697	0.334913	-0.040644	0.383669	0.922576	-0.911483	0.364022	-0.191540
241	501760													8.794470	-0.260352	-3.954724	-0.409222	-0.848769	0.334855	-0.040609	0.383569	0.922619	-0.911531	0.363958	-0.191432
242	501926													8.854284	-0.263577	-3.960932	-0.409182	-0.848807	0.334810	-0.040475	0.383457	0.922671	-0.911555	0.363989	-0.191259
243	502093													8.871569	-0.292920	-3.971414	-0.409118	-0.848838	0.334807	-0.040337	0.383385	0.922707	-0.911589	0.363991	-0.191089
244	502260													8.841704	-0.273122	-3.952853	-0.409050	-0.848839	0.334890	-0.040239	0.383420	0.922697	-0.911624	0.363953	-0.190994
245	502426													8.844504	-0.271362	-3.955156	-0.408955	-0.848819	0.335056	-0.040159	0.383548	0.922648	-0.911670	0.363866	-0.190942
246	502593													8.836557	-0.285815	-3.950621	-0.408847	-0.848782	0.335280	-0.039982	0.383695	0.922594	-0.911727	0.363795	-0.190809
247	502760													8.849094	-0.283905	-3.963208	-0.408715	-0.848757	0.335505	-0.039764	0.383823	0.922550	-0.911796	0.363719	-0.190624
248	502926													8.852850	-0.310350	-3.980342	-0.408571	-0.848726	0.335757	-0.039499	0.383959	0.922505	-0.911871	0.363647	-0.190398
249	503093													8.863731	-0.293970	-3.970607	-0.408375	-0.848701	0.336061	-0.039234	0.384139	0.922441	-0.911971	0.363517	-0.190170
250	503260													8.854747	-0.290099	-3.953289	-0.408096	-0.848736	0.336312	-0.038986	0.384250	0.922406	-0.912106	0.363318	-0.189900
251	503426													8.859172	-0.281475	-3.932291	-0.407762	-0.848819	0.336508	-0.038733	0.384286	0.922401	-0.912267	0.363086	-0.189574
252	503593													8.854082	-0.277147	-3.947172	-0.407417	-0.848890	0.336745	-0.038497	0.384372	0.922375	-0.912431	0.362828	-0.189279
253	503760													8.850346	-0.267807	-3.950092	-0.407040	-0.848976	0.336985	-0.038308	0.384472	0.922341	-0.912607	0.362521	-0.189018
254	503926													8.851338	-0.254909	-3.948588	-0.406639	-0.849074	0.337220	-0.038145	0.384574	0.922306	-0.912792	0.362182	-0.188771
255	504093													8.845657	-0.247084	-3.929081	-0.406253	-0.849191	0.337391	-0.037991	0.384612	0.922296	-0.912970	0.361868	-0.188512
256	504260													8.847568	-0.246572	-3.923754	-0.405905	-0.849292	0.337557	-0.037849	0.384657	0.922283	-0.913131	0.361583	-0.188279
257	504426													8.839723	-0.248880	-3.927361	-0.405576	-0.849389	0.337708	-0.037759	0.384712	0.922264	-0.913281	0.361297	-0.188102
258	504593													8.844704	-0.248242	-3.927362	-0.405252	-0.849491	0.337839	-0.037702	0.384760	0.922247	-0.913427	0.361005	-0.187952
259	504760													8.826934	-0.267899	-3.902330	-0.404982	-0.849589	0.337918	-0.037711	0.384788	0.922234	-0.913547	0.360745	-0.187871
260	504926													8.846438	-0.267322	-3.899981	-0.404765	-0.849643	0.338042	-0.037710	0.384874	0.922198	-0.913643	0.360527	-0.187823
261	505093													8.837751	-0.283830	-3.892590	-0.404628	-0.849667	0.338146	-0.037709	0.384956	0.922164	-0.913704	0.360382	-0.187803
262	505260													8.844017	-0.278821	-3.908176	-0.404530	-0.849702	0.338174	-0.037737	0.384976	0.922155	-0.913746	0.360278	-0.187800
263	505426													8.846885	-0.276226	-3.901851	-0.404479	-0.849733	0.338158	-0.037762	0.384956	0.922162	-0.913768	0.360225	-0.187794
264	505593													8.869927	-0.277188	-3.924659	-0.404435	-0.849736	0.338202	-0.037748	0.384989	0.922149	-0.913788	0.360183	-0.187779
265	505760													8.835320	-0.276423	-3.930878	-0.404462	-0.849712	0.338230	-0.037676	0.384997	0.922148	-0.913779	0.360231	-0.187730
266	505926													8.866554	-0.279065	-3.909614	-0.404486	-0.849686	0.338267	-0.037540	0.384989	0.922157	-0.913773	0.360301	-0.187620
267	506093													8.916786	-0.292913	-3.920678	-0.404412	-0.849703	0.338313	-0.037386	0.384961	0.922175	-0.913813	0.360290	-0.187449
268	506260													8.916940	-0.268562	-3.890121	-0.404187	-0.849782	0.338383	-0.037250	0.384934	0.922192	-0.913917	0.360133	-0.187240
269	506426													8.884738	-0.262218	-3.895370	-0.403815	-0.849942	0.338427	-0.037161	0.384864	0.922225	-0.914086	0.359832	-0.186999
270	506593													8.870223	-0.253843	-3.879925	-0.403375	-0.850113	0.338520	-0.037055	0.384825	0.922245	-0.914284	0.359467	-0.186730
271	506760													8.882268	-0.273397	-3.898487	-0.402876	-0.850252	0.338765	-0.036949	0.384939	0.922202	-0.914509	0.359016	-0.186498
272	506926													8.888047	-0.264723	-3.878724	-0.402327	-0.850457	0.338905	-0.036902	0.384951	0.922199	-0.914752	0.358519	-0.186260
273	507093													8.886522	-0.280221	-3.883163	-0.401770	-0.850665	0.339043	-0.036899	0.384977	0.922188	-0.914997	0.357997	-0.186061
274	507260													8.883230	-0.291511	-3.882578	-0.401218	-0.850882	0.339153	-0.036934	0.384989	0.922182	-0.915238	0.357469	-0.185891
275	507426													8.885801	-0.277735	-3.876228	-0.400694	-0.851102	0.339219	-0.036997	0.384969	0.922188	-0.915464	0.356965	-0.185743
276	507593													8.893461	-0.276759	-3.863137	-0.400233	-0.851348	0.339146	-0.037077	0.384819	0.922247	-0.915663	0.356539	-0.185583
277	507760													8.886077	-0.278951	-3.843864	-0.399768	-0.851579	0.339115	-0.037153	0.384714	0.922288	-0.915863	0.356102	-0.185435
278	507926													8.851573	-0.294747	-3.855284	-0.399386	-0.851761	0.339109	-0.037268	0.384668	0.922302	-0.916025	0.355717	-0.185374
279	508093													8.810616	-0.278019	-3.851514	-0.399144	-0.851928	0.338973	-0.037455	0.384540	0.922348	-0.916123	0.355453	-0.185396
280	508260													8.839387	-0.265903	-3.853526	-0.399025	-0.851987	0.338964	-0.037521	0.384531	0.922349	-0.916172	0.355322	-0.185405
281	508426													8.864628	-0.269868	-3.837203	-0.398966	-0.852032	0.338922	-0.037548	0.384482	0.922368	-0.916197	0.355268	-0.185387
282	508593													8.912642	-0.298978	-3.856376	-0.398938	-0.852096	0.338795	-0.037619	0.384366	0.922414	-0.916206	0.355241	-0.185393
283	508760													8.911133	-0.294358	-3.848972	-0.398892	-0.852149	0.338713	-0.037739	0.384314	0.922431	-0.916221	0.355167	-0.185459
284	508927													8.876779	-0.282138	-3.851530	-0.398819	-0.852190	0.338698	-0.037861	0.384329	0.922419	-0.916248	0.355055	-0.185543
285	509093													8.889271	-0.288918	-3.837778	-0.398752	-0.852256	0.338609	-0.037902	0.384234	0.922457	-0.916275	0.354998	-0.185516
286	509260													8.884093	-0.292201	-3.863363	-0.398675	-0.852303	0.338582	-0.037881	0.384180	0.922481	-0.916310	0.354944	-0.185449
287	509427													8.893734	-0.295091	-3.856246	-0.398577	-0.852368	0.338533	-0.037866	0.384099	0.922515	-0.916353	0.354874	-0.185369
288	509593													8.898456	-0.292151	-3.864611	-0.398457	-0.852452	0.338462	-0.037828	0.383982	0.922565	-0.916407	0.354799	-0.185247
289	509760													8.914713	-0.274481	-3.840404	-0.398309	-0.852520	0.338468	-0.037754	0.383927	0.922591	-0.916474	0.354698	-0.185107
290	509927													8.915155	-0.259643	-3.840628	-0.398085	-0.852627	0.338460	-0.037659	0.383832	0.922635	-0.916575	0.354542	-0.184907
291	510093													8.905787	-0.249294	-3.836459	-0.397818	-0.852728	0.338520	-0.037546	0.383796	0.922654	-0.916696	0.354338	-0.184698
292	510260													8.899550	-0.256361	-3.835764	-0.397500	-0.852856	0.338572	-0.037396	0.383725	0.922690	-0.916840	0.354108	-0.184424
293	510427													8.901675	-0.235673	-3.843686	-0.397171	-0.852964	0.338685	-0.037267	0.383726	0.922695	-0.916988	0.353846	-0.184192
294	510593													8.892914	-0.246237	-3.829967	-0.396850	-0.853020	0.338920	-0.037164	0.383870	0.922639	-0.917131	0.353554	-0.184040
295	510760													8.884854	-0.261170	-3.836163	-0.396589	-0.853056	0.339135	-0.037115	0.384028	0.922575	-0.917246	0.353296	-0.183963
296	510927													8.900761	-0.258264	-3.798668	-0.396337	-0.853086	0.339353	-0.037141	0.384218	0.922495	-0.917353	0.353015	-0.183965
297	511093													8.875858	-0.284848	-3.827399	-0.396116	-0.853120	0.339527	-0.037261	0.384405	0.922412	-0.917444	0.352731	-0.184057
298	511260													8.865335	-0.306382	-3.832178	-0.395947	-0.853171	0.339595	-0.037400	0.384495	0.922369	-0.917511	0.352509	-0.184148
299	511427													8.872687	-0.309625	-3.812210	-0.395865	-0.853204	0.339608	-0.037570	0.384556	0.922337	-0.917540	0.352362	-0.184287
300	511593													8.868802	-0.295583	-3.831006	-0.395862	-0.853253	0.339488	-0.037811	0.384519	0.922342	-0.917531	0.352284	-0.184479
301	511760													8.876146	-0.330049	-3.830862	-0.395938	-0.853284	0.339321	-0.038050	0.384447	0.922363	-0.917489	0.352287	-0.184685
302	511927													8.886693	-0.323367	-3.863240	-0.396083	-0.853288	0.339144	-0.038257	0.384366	0.922388	-0.917417	0.352367	-0.184885
303	512093													8.883391	-0.302256	-3.863184	-0.396256	-0.853308	0.338890	-0.038414	0.384190	0.922455	-0.917336	0.352510	-0.185017
304	512260													8.934639	-0.279488	-3.833949	-0.396439	-0.853321	0.338643	-0.038467	0.383983	0.922538	-0.917255	0.352703	-0.185051
305	512427													8.965134	-0.290266	-3.853767	-0.396467	-0.853365	0.338499	-0.038498	0.383846	0.922594	-0.917241	0.352747	-0.185036
306	512593													8.947903	-0.282524	-3.832085	-0.396321	-0.853482	0.338375	-0.038509	0.383684	0.922661	-0.917304	0.352639	-0.184928
307	512760													8.897408	-0.260835	-3.832272	-0.396048	-0.853634	0.338312	-0.038529	0.383564	0.922710	-0.917421	0.352403	-0.184799
308	512927													8.895726	-0.268140	-3.838787	-0.395704	-0.853769	0.338375	-0.038510	0.383550	0.922717	-0.917570	0.352091	-0.184651
309	513093													8.907651	-0.282474	-3.834097	-0.395305	-0.853908	0.338489	-0.038509	0.383586	0.922702	-0.917742	0.351714	-0.184516
310	513260													8.934746	-0.296156	-3.842908	-0.394822	-0.854084	0.338610	-0.038520	0.383616	0.922689	-0.917950	0.351254	-0.184360
311	513427													8.930961	-0.304966	-3.830671	-0.394267	-0.854279	0.338763	-0.038547	0.383672	0.922665	-0.918187	0.350718	-0.184198
312	513593													8.907926	-0.312857	-3.813283	-0.393694	-0.854482	0.338917	-0.038596	0.383733	0.922637	-0.918431	0.350156	-0.184054
313	513760													8.902736	-0.314770	-3.823298	-0.393165	-0.854665	0.339069	-0.038628	0.383795	0.922610	-0.918656	0.349641	-0.183909
314	513927													8.888910	-0.318197	-3.805611	-0.392746	-0.854823	0.339158	-0.038644	0.383806	0.922605	-0.918835	0.349243	-0.183772
315	514093													8.906810	-0.294726	-3.788304	-0.392403	-0.854983	0.339153	-0.038671	0.383737	0.922632	-0.918980	0.348928	-0.183643
316	514260													8.857365	-0.312384	-3.774334	-0.392150	-0.855116	0.339110	-0.038707	0.383649	0.922667	-0.919087	0.348698	-0.183547
317	514427													8.852213	-0.328432	-3.775522	-0.392005	-0.855224	0.339004	-0.038862	0.383563	0.922697	-0.919142	0.348527	-0.183594
318	514593													8.882022	-0.295544	-3.775268	-0.391997	-0.855247	0.338955	-0.038981	0.383553	0.922696	-0.919140	0.348481	-0.183690
319	514760													8.902945	-0.296079	-3.771009	-0.392059	-0.855265	0.338839	-0.039067	0.383474	0.922725	-0.919110	0.348525	-0.183757
320	514927													8.899176	-0.317384	-3.771711	-0.392151	-0.855278	0.338699	-0.039146	0.383373	0.922764	-0.919067	0.348604	-0.183821
321	515093													8.926594	-0.336014	-3.775065	-0.392269	-0.855277	0.338565	-0.039273	0.383301	0.922788	-0.919012	0.348684	-0.183947
322	515260													8.934308	-0.320648	-3.757248	-0.392377	-0.855308	0.338361	-0.039443	0.383170	0.922835	-0.918958	0.348753	-0.184083
323	515427													8.935738	-0.292421	-3.779710	-0.392453	-0.855307	0.338277	-0.039527	0.383128	0.922849	-0.918922	0.348804	-0.184168
324	515593													8.904277	-0.314706	-3.799581	-0.392532	-0.855319	0.338154	-0.039536	0.383015	0.922896	-0.918888	0.348897	-0.184162
325	515760													8.904871	-0.308680	-3.789857	-0.392622	-0.855315	0.338058	-0.039514	0.382923	0.922935	-0.918851	0.349007	-0.184141
326	515927													8.923188	-0.302272	-3.778220	-0.392663	-0.855315	0.338011	-0.039485	0.382870	0.922958	-0.918835	0.349065	-0.184110
327	516093													8.923459	-0.302154	-3.801884	-0.392685	-0.855323	0.337965	-0.039438	0.382807	0.922986	-0.918827	0.349114	-0.184055
328	516260													8.923632	-0.293160	-3.783645	-0.392655	-0.855303	0.338051	-0.039325	0.382850	0.922973	-0.918845	0.349116	-0.183963
329	516427													8.931535	-0.296821	-3.795160	-0.392578	-0.855286	0.338183	-0.039204	0.382930	0.922945	-0.918883	0.349070	-0.183861
330	516593													8.915596	-0.302883	-3.832721	-0.392465	-0.855306	0.338264	-0.039129	0.382965	0.922934	-0.918934	0.348983	-0.183768
331	516760													8.901023	-0.294293	-3.804709	-0.392340	-0.855320	0.338374	-0.039030	0.383020	0.922915	-0.918992	0.348890	-0.183658
332	516927													8.899638	-0.295173	-3.809676	-0.392236	-0.855357	0.338401	-0.038981	0.383007	0.922923	-0.919038	0.348812	-0.183572
333	517093													8.911501	-0.300763	-3.783295	-0.392153	-0.855376	0.338449	-0.038993	0.383045	0.922906	-0.919073	0.348723	-0.183566
334	517260													8.927592	-0.295950	-3.802223	-0.392042	-0.855413	0.338484	-0.039041	0.383077	0.922891	-0.919119	0.348597	-0.183578
335	517427													8.909601	-0.301734	-3.794431	-0.391905	-0.855452	0.338545	-0.039125	0.383146	0.922859	-0.919173	0.348428	-0.183626
336	517593													8.896193	-0.309722	-3.828801	-0.391808	-0.855500	0.338535	-0.039233	0.383155	0.922850	-0.919210	0.348298	-0.183687
337	517760													8.884464	-0.356939	-3.817738	-0.391775	-0.855527	0.338505	-0.039388	0.383174	0.922836	-0.919218	0.348211	-0.183815
338	517927													8.860178	-0.342437	-3.840770	-0.391805	-0.855562	0.338383	-0.039652	0.383149	0.922835	-0.919193	0.348154	-0.184044
339	518093													8.895262	-0.346618	-3.843281	-0.391883	-0.855614	0.338160	-0.039889	0.383015	0.922880	-0.919150	0.348172	-0.184227
340	518260													8.885718	-0.354737	-3.844204	-0.391969	-0.855687	0.337876	-0.040101	0.382807	0.922958	-0.919104	0.348222	-0.184362
341	518427													8.919182	-0.323396	-3.846997	-0.392095	-0.855745	0.337582	-0.040224	0.382564	0.923053	-0.919045	0.348345	-0.184422
342	518593													8.945475	-0.327770	-3.834803	-0.392139	-0.855820	0.337342	-0.040218	0.382313	0.923157	-0.919026	0.348439	-0.184339
343	518760													8.960416	-0.324684	-3.826742	-0.392062	-0.855914	0.337193	-0.040162	0.382114	0.923242	-0.919062	0.348426	-0.184187
344	518927													8.972627	-0.276346	-3.823480	-0.391811	-0.856045	0.337151	-0.040122	0.382000	0.923291	-0.919170	0.348229	-0.184018
345	519093													8.938865	-0.264030	-3.794408	-0.391393	-0.856219	0.337195	-0.040080	0.381941	0.923317	-0.919350	0.347865	-0.183806
346	519260													8.945580	-0.267624	-3.818699	-0.390830	-0.856402	0.337382	-0.040040	0.382006	0.923292	-0.919592	0.347342	-0.183589
347	519427													8.943583	-0.280571	-3.825085	-0.390134	-0.856593	0.337705	-0.040005	0.382191	0.923217	-0.919889	0.346668	-0.183374
348	519593													8.946901	-0.317746	-3.774952	-0.389316	-0.856816	0.338082	-0.039992	0.382417	0.923124	-0.920236	0.345866	-0.183147
349	519760													8.951264	-0.345876	-3.796885	-0.388424	-0.857104	0.338379	-0.040086	0.382581	0.923052	-0.920608	0.344971	-0.182962
350	519927													8.948561	-0.353857	-3.766256	-0.387467	-0.857478	0.338528	-0.040191	0.382576	0.923049	-0.921007	0.344045	-0.182699
351	520093													8.961978	-0.373035	-3.764641	-0.386477	-0.857852	0.338712	-0.040257	0.382588	0.923042	-0.921420	0.343099	-0.182395
352	520260													8.960336	-0.371867	-3.761908	-0.385457	-0.858293	0.338756	-0.040344	0.382451	0.923095	-0.921844	0.342146	-0.182045
353	520427													8.983540	-0.335341	-3.747379	-0.384397	-0.858747	0.338811	-0.040409	0.382309	0.923151	-0.922283	0.341166	-0.181659
354	520593													8.946907	-0.360038	-3.717321	-0.383280	-0.859268	0.338755	-0.040488	0.382042	0.923258	-0.922744	0.340151	-0.181219
355	520760													8.920856	-0.332656	-3.708787	-0.382165	-0.859811	0.338636	-0.040717	0.381763	0.923363	-0.923197	0.339089	-0.180906
356	520927													8.920969	-0.306971	-3.708329	-0.381090	-0.860333	0.338522	-0.040896	0.381481	0.923472	-0.923633	0.338081	-0.180563
357	521093													8.963338	-0.310602	-3.714214	-0.379999	-0.860854	0.338424	-0.041046	0.381202	0.923580	-0.924076	0.337069	-0.180192
358	521260													8.995372	-0.340856	-3.696950	-0.378850	-0.861391	0.338346	-0.041182	0.380927	0.923688	-0.924541	0.336006	-0.179788
359	521427													8.999896	-0.371910	-3.685368	-0.377614	-0.861971	0.338251	-0.041429	0.380658	0.923787	-0.925036	0.334821	-0.179453
360	521593													8.995346	-0.330911	-3.677489	-0.376302	-0.862598	0.338115	-0.041721	0.380346	0.923903	-0.925557	0.333560	-0.179113
361	521760													8.970313	-0.326379	-3.632348	-0.374962	-0.863216	0.338027	-0.041956	0.380058	0.924010	-0.926090	0.332286	-0.178725
362	521927													8.960026	-0.334362	-3.669312	-0.373589	-0.863844	0.337941	-0.042143	0.379751	0.924128	-0.926636	0.331003	-0.178276
363	522093													8.997478	-0.344632	-3.630987	-0.372209	-0.864467	0.337872	-0.042249	0.379430	0.924255	-0.927187	0.329741	-0.177750
364	522260													9.016873	-0.357106	-3.625377	-0.370805	-0.865063	0.337890	-0.042302	0.379182	0.924355	-0.927747	0.328462	-0.177197
365	522427													9.036210	-0.349108	-3.592086	-0.369316	-0.865690	0.337914	-0.042340	0.378918	0.924461	-0.928339	0.327111	-0.176594
366	522593													9.021190	-0.341491	-3.605747	-0.367751	-0.866333	0.337974	-0.042363	0.378672	0.924561	-0.928959	0.325690	-0.175958
367	522760													9.042560	-0.316096	-3.574268	-0.366102	-0.866973	0.338124	-0.042321	0.378486	0.924639	-0.929612	0.324203	-0.175255
368	522927													9.058035	-0.316367	-3.572760	-0.364376	-0.867626	0.338311	-0.042262	0.378319	0.924710	-0.930292	0.322645	-0.174518
369	523093													9.061347	-0.311703	-3.518782	-0.362566	-0.868248	0.338661	-0.042217	0.378314	0.924714	-0.931001	0.320973	-0.173819
370	523260													9.062738	-0.313874	-3.527456	-0.360701	-0.868848	0.339113	-0.042163	0.378407	0.924678	-0.931728	0.319234	-0.173125
371	523427													9.048112	-0.307803	-3.526381	-0.358797	-0.869459	0.339568	-0.042127	0.378504	0.924641	-0.932465	0.317453	-0.172433
372	523593													9.077291	-0.328575	-3.506089	-0.356815	-0.870078	0.340069	-0.042155	0.378657	0.924576	-0.933223	0.315567	-0.171789
373	523760													9.081448	-0.337291	-3.482282	-0.354766	-0.870708	0.340599	-0.042204	0.378837	0.924501	-0.934002	0.313607	-0.171146
374	523927													9.090440	-0.359816	-3.464694	-0.352622	-0.871396	0.341066	-0.042356	0.378968	0.924440	-0.934807	0.311531	-0.170541
375	524093													9.093373	-0.359632	-3.452750	-0.350392	-0.872129	0.341492	-0.042527	0.379045	0.924400	-0.935637	0.309380	-0.169903
376	524260													9.126153	-0.408147	-3.430897	-0.348034	-0.872911	0.341905	-0.042734	0.379098	0.924369	-0.936507	0.307101	-0.169242
377	524427													9.154162	-0.394403	-3.431971	-0.345461	-0.873804	0.342232	-0.043030	0.379051	0.924375	-0.937446	0.304609	-0.168547
378	524593													9.192924	-0.407184	-3.400768	-0.342621	-0.874846	0.342427	-0.043394	0.378836	0.924446	-0.938471	0.301875	-0.167760
379	524760													9.270400	-0.414266	-3.408658	-0.339394	-0.876033	0.342605	-0.043785	0.378542	0.924548	-0.939625	0.298785	-0.166832
380	524927													9.257778	-0.386597	-3.373421	-0.335738	-0.877354	0.342825	-0.044136	0.378203	0.924670	-0.940921	0.295316	-0.165700
381	525093													9.294072	-0.363553	-3.341715	-0.331626	-0.878811	0.343096	-0.044401	0.377813	0.924817	-0.942365	0.291460	-0.164313
382	525260													9.283360	-0.344130	-3.318903	-0.326998	-0.880399	0.343468	-0.044580	0.377415	0.924971	-0.943973	0.287152	-0.162662
383	525427													9.242245	-0.330371	-3.273877	-0.322014	-0.882028	0.343997	-0.044664	0.377100	0.925095	-0.945681	0.282529	-0.160826
384	525594													9.259792	-0.336334	-3.197844	-0.316671	-0.883700	0.344665	-0.044763	0.376883	0.925179	-0.947479	0.277549	-0.158905
385	525760													9.287090	-0.334818	-3.134129	-0.311002	-0.885386	0.345500	-0.044831	0.376789	0.925214	-0.949351	0.272254	-0.156874
386	525927													9.379107	-0.346293	-3.099685	-0.304940	-0.887101	0.346501	-0.044918	0.376822	0.925196	-0.951312	0.266565	-0.154754
387	526094													9.437595	-0.344994	-3.050753	-0.298330	-0.888907	0.347625	-0.045057	0.376920	0.925149	-0.953399	0.260337	-0.152498
388	526260													9.364316	-0.370410	-3.006066	-0.291296	-0.890763	0.348839	-0.045183	0.377057	0.925087	-0.955565	0.253713	-0.150082
389	526427													9.346138	-0.396383	-2.951129	-0.283976	-0.892624	0.350113	-0.045267	0.377220	0.925017	-0.957762	0.246834	-0.147528
390	526594													9.344143	-0.384388	-2.872738	-0.276415	-0.894500	0.351376	-0.045356	0.377356	0.924957	-0.959967	0.239735	-0.144878
391	526760													9.395335	-0.435362	-2.770437	-0.268704	-0.896374	0.352579	-0.045487	0.377441	0.924916	-0.962148	0.232490	-0.142194
392	526927													9.449760	-0.410509	-2.729341	-0.260743	-0.898272	0.353724	-0.045647	0.377460	0.924900	-0.964328	0.225015	-0.139423
393	527094													9.457300	-0.408111	-2.614683	-0.252449	-0.900196	0.354846	-0.045775	0.377425	0.924908	-0.966527	0.217249	-0.136487
394	527260													9.446624	-0.430713	-2.560899	-0.243925	-0.902126	0.355905	-0.045946	0.377328	0.924939	-0.968705	0.209264	-0.133488
395	527427													9.509056	-0.412819	-2.420719	-0.235173	-0.904046	0.356922	-0.046082	0.377180	0.924993	-0.970860	0.201086	-0.130363
396	527594													9.631408	-0.421451	-2.359027	-0.226003	-0.905991	0.357914	-0.046200	0.376976	0.925070	-0.973030	0.192533	-0.127055
397	527760													9.671979	-0.404681	-2.259055	-0.216271	-0.907970	0.358912	-0.046324	0.376741	0.925159	-0.975234	0.183458	-0.123539
398	527927													9.640879	-0.417662	-2.165354	-0.205991	-0.909965	0.359906	-0.046485	0.376478	0.925259	-0.977449	0.173864	-0.119851
399	528094													9.618494	-0.418954	-2.074522	-0.195278	-0.911955	0.360838	-0.046734	0.376156	0.925377	-0.979634	0.163842	-0.116074
400	528260													9.671395	-0.392024	-1.945299	-0.184130	-0.913902	0.361773	-0.047053	0.375840	0.925489	-0.981775	0.153388	-0.112205
401	528427													9.619342	-0.356723	-1.855037	-0.172515	-0.915778	0.362751	-0.047388	0.375563	0.925585	-0.983866	0.142488	-0.108187
402	528594													9.381191	-0.310954	-1.751215	-0.160949	-0.917434	0.363882	-0.047800	0.375502	0.925588	-0.985805	0.131579	-0.104290
403	528760													9.352448	-0.325539	-1.598882	-0.149911	-0.918812	0.365117	-0.048185	0.375641	0.925512	-0.987525	0.121151	-0.100586
404	528927													9.441220	-0.329452	-1.455146	-0.139487	-0.919916	0.366468	-0.048646	0.376005	0.925340	-0.989028	0.111246	-0.097198
405	529094													9.557001	-0.349770	-1.334876	-0.129490	-0.920799	0.367916	-0.049123	0.376541	0.925097	-0.990363	0.101718	-0.093991
406	529260													9.611396	-0.361177	-1.229140	-0.119733	-0.921511	0.369434	-0.049593	0.377198	0.924804	-0.991567	0.092408	-0.090864
407	529427													9.630028	-0.371675	-1.132584	-0.110185	-0.922066	0.371018	-0.050060	0.377965	0.924465	-0.992650	0.083289	-0.087804
408	529594													9.638691	-0.393408	-1.050500	-0.100832	-0.922478	0.372649	-0.050430	0.378816	0.924097	-0.993625	0.074386	-0.084717
409	529760													9.609581	-0.412863	-0.947488	-0.091696	-0.922776	0.374267	-0.050783	0.379695	0.923717	-0.994491	0.065695	-0.081678
410	529927													9.633034	-0.455034	-0.863730	-0.082836	-0.922993	0.375795	-0.051137	0.380532	0.923353	-0.995250	0.057270	-0.078721
411	530094													9.691364	-0.475867	-0.767894	-0.074151	-0.923167	0.377178	-0.051556	0.381262	0.923028	-0.995913	0.048998	-0.075866
412	530260													9.767115	-0.456963	-0.711881	-0.065458	-0.923309	0.378438	-0.052015	0.381893	0.922742	-0.996499	0.040717	-0.073024
413	530427													9.767780	-0.467603	-0.612906	-0.056692	-0.923429	0.379560	-0.052443	0.382401	0.922507	-0.997013	0.032394	-0.070106
414	530594													9.736042	-0.459437	-0.569672	-0.047849	-0.923514	0.380567	-0.052895	0.382812	0.922311	-0.997453	0.024001	-0.067166
415	530760													9.765391	-0.462814	-0.475116	-0.038973	-0.923566	0.381454	-0.053332	0.383123	0.922157	-0.997816	0.015595	-0.064187
416	530927													9.842055	-0.459324	-0.373004	-0.029926	-0.923566	0.382270	-0.053787	0.383375	0.922025	-0.998104	0.007031	-0.061148
417	531094													9.868076	-0.482400	-0.279779	-0.020604	-0.923535	0.382960	-0.054286	0.383510	0.921940	-0.998313	-0.001793	-0.058037
418	531260													9.908126	-0.454832	-0.158320	-0.010921	-0.923443	0.383581	-0.054793	0.383580	0.921881	-0.998438	-0.010950	-0.054788
419	531427													9.886694	-0.434727	-0.056918	-0.000843	-0.923247	0.384206	-0.055327	0.383661	0.921815	-0.998468	-0.020480	-0.051404
420	531594													9.824764	-0.443595	0.023362	0.009524	-0.922939	0.384829	-0.055770	0.383757	0.921749	-0.998398	-0.030241	-0.047817
421	531760													9.747075	-0.428501	0.129346	0.020020	-0.922492	0.385496	-0.056200	0.383926	0.921652	-0.998219	-0.040117	-0.044158
422	531927													9.704266	-0.434803	0.222248	0.030540	-0.921898	0.386228	-0.056648	0.384191	0.921514	-0.997927	-0.050022	-0.040490
423	532094													9.729185	-0.464294	0.334216	0.040973	-0.921173	0.386990	-0.057103	0.384523	0.921347	-0.997527	-0.059848	-0.036846
424	532260													9.815556	-0.472632	0.469709	0.051447	-0.920317	0.387774	-0.057606	0.384907	0.921156	-0.997013	-0.069728	-0.033213
425	532427													9.765241	-0.485901	0.580883	0.061900	-0.919351	0.388538	-0.058171	0.385300	0.920956	-0.996386	-0.079609	-0.029629
426	532594													9.652053	-0.475807	0.656079	0.072134	-0.918258	0.389357	-0.058759	0.385783	0.920716	-0.995663	-0.089293	-0.026128
427	532760													9.608932	-0.529572	0.737241	0.081762	-0.917093	0.390200	-0.059347	0.386336	0.920447	-0.994883	-0.098415	-0.022839
428	532927													9.641115	-0.546305	0.847385	0.090764	-0.915910	0.390986	-0.059853	0.386880	0.920186	-0.994072	-0.106921	-0.019706
429	533094													9.685388	-0.565470	0.959005	0.099294	-0.914735	0.391663	-0.060272	0.387357	0.919958	-0.993231	-0.114953	-0.016671
430	533260													9.719540	-0.563262	1.061645	0.107499	-0.913535	0.392299	-0.060536	0.387839	0.919737	-0.992360	-0.122619	-0.013610
431	533427													9.776565	-0.577225	1.131141	0.115594	-0.912308	0.392850	-0.060704	0.388274	0.919542	-0.991440	-0.130141	-0.010498
432	533594													9.758533	-0.596488	1.215688	0.123721	-0.911061	0.393270	-0.060796	0.388611	0.919394	-0.990453	-0.137658	-0.007309
433	533760													9.875077	-0.530820	1.320889	0.132004	-0.909759	0.393591	-0.060854	0.388879	0.919277	-0.989379	-0.145300	-0.004029
434	533927													9.817910	-0.500496	1.420076	0.140624	-0.908342	0.393879	-0.060895	0.389143	0.919162	-0.988189	-0.153242	-0.000591
435	534094													9.693202	-0.490188	1.490592	0.149218	-0.906834	0.394191	-0.061027	0.389449	0.919024	-0.986919	-0.161191	0.002771
436	534260													9.614077	-0.512551	1.585314	0.157573	-0.905271	0.394531	-0.061268	0.389791	0.918863	-0.985605	-0.168960	0.005956
437	534427													9.576295	-0.521303	1.644463	0.165575	-0.903680	0.394901	-0.061653	0.390160	0.918681	-0.984268	-0.176457	0.008886
438	534594													9.609648	-0.542139	1.709894	0.173195	-0.902086	0.395277	-0.062171	0.390528	0.918489	-0.982923	-0.183653	0.011554
439	534760													9.636998	-0.536770	1.795375	0.180578	-0.900471	0.395655	-0.062733	0.390904	0.918291	-0.981558	-0.190644	0.014099
440	534927													9.693306	-0.561218	1.862642	0.187856	-0.898843	0.395969	-0.063345	0.391220	0.918114	-0.980152	-0.197555	0.016556
441	535094													9.682986	-0.575906	1.913585	0.195233	-0.897180	0.396172	-0.063992	0.391432	0.917979	-0.978667	-0.204572	0.019008
442	535260													9.628081	-0.588038	1.983748	0.202640	-0.895485	0.396287	-0.064719	0.391551	0.917878	-0.977112	-0.211646	0.021389
443	535427													9.607883	-0.592642	2.020608	0.210025	-0.893779	0.396292	-0.065528	0.391553	0.917819	-0.975498	-0.218733	0.023669
444	535594													9.557293	-0.569945	2.077214	0.217390	-0.892056	0.396203	-0.066296	0.391479	0.917796	-0.973831	-0.225786	0.025964
445	535760													9.548173	-0.568182	2.114299	0.224621	-0.890289	0.396145	-0.066991	0.391463	0.917752	-0.972141	-0.232685	0.028290
446	535927													9.549332	-0.597229	2.146650	0.231753	-0.888487	0.396082	-0.067590	0.391476	0.917703	-0.970424	-0.239451	0.030672
447	536094													9.572276	-0.610015	2.199001	0.238843	-0.886669	0.395945	-0.068134	0.391440	0.917678	-0.968665	-0.246158	0.033081
448	536260													9.577604	-0.640359	2.246341	0.245975	-0.884832	0.395687	-0.068653	0.391300	0.917699	-0.966842	-0.252896	0.035504
449	536427													9.601380	-0.640927	2.330160	0.253271	-0.882952	0.395283	-0.069100	0.391050	0.917772	-0.964924	-0.259759	0.038030
450	536594													9.668288	-0.620255	2.406841	0.260766	-0.881000	0.394766	-0.069469	0.390730	0.917880	-0.962899	-0.266776	0.040686
451	536760													9.644134	-0.618798	2.508773	0.268675	-0.878877	0.394195	-0.069743	0.390419	0.917992	-0.960703	-0.274134	0.043601
452	536927													9.521502	-0.623596	2.567071	0.276782	-0.876643	0.393560	-0.069926	0.390100	0.918113	-0.958385	-0.281637	0.046673
453	537094													9.448005	-0.616993	2.618809	0.284935	-0.874358	0.392824	-0.070117	0.389701	0.918268	-0.955979	-0.289191	0.049732
454	537260													9.458518	-0.594949	2.742835	0.293111	-0.872010	0.392026	-0.070291	0.389271	0.918437	-0.953491	-0.296760	0.052805
455	537427													9.498723	-0.567965	2.827701	0.301530	-0.869512	0.391189	-0.070382	0.388867	0.918602	-0.950855	-0.304519	0.056057
456	537594													9.395035	-0.555666	2.903067	0.310044	-0.866856	0.390427	-0.070482	0.388576	0.918717	-0.948106	-0.312361	0.059377
457	537760													9.451392	-0.537409	3.046711	0.318558	-0.864082	0.389723	-0.070607	0.388369	0.918795	-0.945270	-0.320207	0.062707
458	537927													9.364602	-0.521965	3.122623	0.327118	-0.861155	0.389109	-0.070799	0.388271	0.918821	-0.942328	-0.328112	0.066042
459	538094													9.335587	-0.531536	3.238028	0.335481	-0.858137	0.388656	-0.071075	0.388333	0.918774	-0.939362	-0.335855	0.069286
460	538260													9.237277	-0.544415	3.357620	0.343576	-0.855074	0.388335	-0.071451	0.388509	0.918671	-0.936403	-0.343380	0.072387
461	538427													9.139504	-0.594964	3.435313	0.351228	-0.852053	0.388131	-0.071896	0.388773	0.918524	-0.933526	-0.350516	0.075289
462	538594													9.101374	-0.619854	3.502599	0.358381	-0.849146	0.387961	-0.072345	0.389055	0.918370	-0.930768	-0.357193	0.077998
463	538760													9.201487	-0.678446	3.591275	0.365128	-0.846356	0.387767	-0.072829	0.389281	0.918236	-0.928104	-0.363514	0.080498
464	538927													9.345714	-0.682611	3.695560	0.371986	-0.843536	0.387393	-0.073296	0.389347	0.918170	-0.925340	-0.369942	0.083003
465	539094													9.199630	-0.668844	3.771906	0.378996	-0.840629	0.386917	-0.073677	0.389371	0.918129	-0.922461	-0.376474	0.085635
466	539260													9.040869	-0.685108	3.819847	0.385799	-0.837794	0.386343	-0.073978	0.389322	0.918126	-0.919612	-0.382793	0.088221
467	539427													8.990326	-0.704517	3.883662	0.392215	-0.835107	0.385700	-0.074109	0.389247	0.918147	-0.916884	-0.388695	0.090779
468	539594													9.044788	-0.699898	3.965285	0.398366	-0.832537	0.384951	-0.074145	0.389088	0.918212	-0.914225	-0.394326	0.093271
469	539760													9.004937	-0.699985	4.016827	0.404410	-0.830025	0.384071	-0.074108	0.388823	0.918327	-0.911570	-0.399844	0.095733
470	539927													8.952709	-0.681500	4.005292	0.410343	-0.827558	0.383101	-0.073985	0.388503	0.918472	-0.908925	-0.405232	0.098192
471	540094													8.947453	-0.610808	4.040413	0.416143	-0.825124	0.382093	-0.073809	0.388168	0.918628	-0.906298	-0.410483	0.100632
472	540260													9.016949	-0.613545	4.059234	0.422004	-0.822568	0.381174	-0.073592	0.387978	0.918726	-0.903602	-0.415758	0.103194
473	540427													9.025777	-0.591326	4.105932	0.428171	-0.819774	0.380315	-0.073443	0.387885	0.918777	-0.900708	-0.421325	0.105875
474	540594													9.080140	-0.635561	4.156542	0.434694	-0.816718	0.379490	-0.073347	0.387878	0.918788	-0.897586	-0.427226	0.108705
475	540760													9.126078	-0.627926	4.186834	0.441892	-0.813258	0.378608	-0.073349	0.387881	0.918786	-0.894065	-0.433775	0.111749
476	540927													8.966944	-0.560978	4.252733	0.449661	-0.809390	0.377747	-0.073525	0.387937	0.918748	-0.890168	-0.440899	0.114930
477	541094													8.985515	-0.544048	4.382277	0.457762	-0.805181	0.377013	-0.073855	0.388147	0.918633	-0.886002	-0.448359	0.118212
478	541260													9.034163	-0.576770	4.492740	0.466372	-0.800523	0.376377	-0.074389	0.388483	0.918448	-0.881455	-0.456337	0.121628
479	541427													8.959447	-0.597214	4.712207	0.475462	-0.795454	0.375750	-0.075196	0.388807	0.918245	-0.876516	-0.464846	0.125048
480	541594													8.987349	-0.571349	4.914631	0.484946	-0.790007	0.375122	-0.076200	0.389134	0.918024	-0.871218	-0.473776	0.128510
481	541760													8.693225	-0.572488	5.113985	0.494542	-0.784276	0.374620	-0.077384	0.389574	0.917738	-0.865702	-0.482850	0.131971
482	541927													8.343986	-0.639392	5.254147	0.503448	-0.778740	0.374305	-0.078734	0.390060	0.917417	-0.860431	-0.491342	0.135062
483	542094													8.199369	-0.686042	5.370796	0.511125	-0.773831	0.374082	-0.080241	0.390367	0.917156	-0.855753	-0.498798	0.137434
484	542261													8.106001	-0.761373	5.496400	0.517416	-0.769709	0.373936	-0.081785	0.390498	0.916964	-0.851817	-0.505034	0.139099
485	542427													8.189208	-0.838379	5.495857	0.522389	-0.766454	0.373708	-0.083290	0.390301	0.916912	-0.848630	-0.510111	0.140051
486	542594													8.293856	-0.865774	5.481018	0.526617	-0.763834	0.373138	-0.084622	0.389651	0.917067	-0.845881	-0.514518	0.140559
487	542761													8.367393	-0.859971	5.438815	0.530489	-0.761647	0.372124	-0.085693	0.388552	0.917433	-0.843349	-0.518577	0.140855
488	542927													8.419681	-0.835101	5.361093	0.534385	-0.759637	0.370653	-0.086386	0.387137	0.917966	-0.840815	-0.522567	0.141258
489	543094													8.420384	-0.799843	5.302455	0.538571	-0.757591	0.368778	-0.086753	0.385493	0.918624	-0.838102	-0.526737	0.141892
490	543261													8.409161	-0.811161	5.247001	0.543125	-0.755398	0.366591	-0.086990	0.383627	0.919382	-0.835134	-0.531228	0.142646
491	543427													8.550186	-0.784455	5.219236	0.548313	-0.752866	0.364070	-0.087334	0.381417	0.920269	-0.831701	-0.536390	0.143385
492	543594													8.495606	-0.733055	5.235342	0.554398	-0.749746	0.361282	-0.087846	0.378960	0.921234	-0.827602	-0.542468	0.144232
493	543761													8.384537	-0.630971	5.271880	0.561111	-0.746076	0.358504	-0.088581	0.376501	0.922172	-0.822987	-0.549197	0.145170
494	543927													8.355087	-0.644275	5.380197	0.568272	-0.741827	0.356034	-0.089615	0.374318	0.922960	-0.817946	-0.556398	0.146236
495	544094													8.315245	-0.694499	5.573229	0.575871	-0.737057	0.353722	-0.091068	0.372141	0.923698	-0.812453	-0.564143	0.147183
496	544261													8.168880	-0.619251	5.794599	0.583727	-0.731773	0.351811	-0.092831	0.370303	0.924261	-0.806626	-0.572175	0.148225
497	544427													7.929168	-0.679224	6.052011	0.591093	-0.726353	0.350743	-0.094790	0.369273	0.924474	-0.801014	-0.579697	0.149424
498	544594													7.770195	-0.791000	6.208792	0.597350	-0.721328	0.350512	-0.096938	0.368911	0.924396	-0.796101	-0.586166	0.150445
499	544761													7.706365	-0.856709	6.359493	0.602285	-0.716930	0.351089	-0.099082	0.369268	0.924026	-0.792108	-0.591313	0.151370
500	544927													7.665226	-0.934195	6.434608	0.605946	-0.713205	0.352375	-0.101001	0.370399	0.923365	-0.789068	-0.595100	0.152407
501	545094													7.685626	-1.062863	6.436788	0.608391	-0.710244	0.354138	-0.102631	0.372066	0.922515	-0.786973	-0.597595	0.153469
502	545261													7.719718	-1.104275	6.417978	0.609897	-0.708018	0.356000	-0.103762	0.374010	0.921602	-0.785659	-0.599021	0.154642
503	545427													7.748116	-1.189813	6.329707	0.610725	-0.706395	0.357801	-0.104291	0.376165	0.920665	-0.784945	-0.599588	0.156062
504	545594													7.798717	-1.284481	6.256197	0.611058	-0.705381	0.359229	-0.104075	0.378279	0.919822	-0.784714	-0.599452	0.157738
505	545761													7.832478	-1.299720	6.162971	0.611165	-0.704914	0.359962	-0.103026	0.380065	0.919204	-0.784769	-0.598871	0.159658
506	545927													7.881041	-1.300937	6.084764	0.611145	-0.705023	0.359785	-0.100968	0.381397	0.918881	-0.785052	-0.597896	0.161904
507	546094													7.958506	-1.184720	6.019434	0.611229	-0.705521	0.358663	-0.097871	0.382314	0.918835	-0.785379	-0.596722	0.164631
508	546261													7.963983	-1.077745	5.949330	0.611599	-0.706166	0.356757	-0.094021	0.382857	0.919011	-0.785561	-0.595609	0.167761
509	546427													7.982582	-1.012669	5.913337	0.612285	-0.706888	0.354141	-0.089726	0.382900	0.919422	-0.785529	-0.594724	0.171017
510	546594													7.993604	-0.855808	5.915161	0.613424	-0.707501	0.350932	-0.085139	0.382524	0.920014	-0.785151	-0.594237	0.174414
511	546761													7.935344	-0.789487	5.998899	0.614793	-0.708041	0.347431	-0.080233	0.382085	0.920638	-0.784597	-0.593877	0.178095
512	546927													7.991215	-0.777875	6.027960	0.616268	-0.708573	0.343713	-0.074913	0.381718	0.921238	-0.783965	-0.593478	0.182159
513	547094													7.922490	-0.759707	6.097348	0.617905	-0.709052	0.339763	-0.069334	0.381308	0.921844	-0.783190	-0.593169	0.186451
514	547261													7.974912	-0.664198	6.191225	0.619545	-0.709652	0.335498	-0.063696	0.380547	0.922565	-0.782372	-0.592941	0.190564
515	547427													7.923391	-0.359741	6.221089	0.621258	-0.710144	0.331261	-0.058339	0.379649	0.923289	-0.781432	-0.592926	0.194431
516	547594													7.881589	-0.114197	6.254460	0.622869	-0.710446	0.327567	-0.053613	0.378962	0.923858	-0.780487	-0.593005	0.197955
517	547761													7.779888	0.053862	6.277192	0.624223	-0.710498	0.324866	-0.049893	0.378727	0.924163	-0.779651	-0.593092	0.200962
518	547927													7.908926	-0.006678	6.266645	0.625212	-0.710369	0.323242	-0.047245	0.378964	0.924205	-0.779024	-0.593095	0.203372
519	548094													7.866881	0.056322	6.232108	0.626108	-0.709936	0.322460	-0.045718	0.379414	0.924097	-0.778395	-0.593326	0.205098
520	548261													7.844664	0.057096	6.238070	0.626723	-0.709294	0.322675	-0.045223	0.380283	0.923764	-0.777928	-0.593537	0.206256
521	548427													7.901705	-0.061496	6.270823	0.627229	-0.708414	0.323625	-0.045591	0.381415	0.923279	-0.777500	-0.593861	0.206937
522	548594													7.910048	-0.234143	6.284992	0.627806	-0.707273	0.324999	-0.046550	0.382675	0.922710	-0.776977	-0.594411	0.207322
523	548761													7.836835	-0.371165	6.323280	0.628427	-0.706102	0.326342	-0.047692	0.383769	0.922197	-0.776405	-0.595097	0.207495
524	548927													7.775395	-0.395748	6.318310	0.629000	-0.705066	0.327478	-0.048791	0.384610	0.921789	-0.775873	-0.595783	0.207519
525	549094													7.759391	-0.396898	6.317839	0.629457	-0.704182	0.328499	-0.049764	0.385359	0.921424	-0.775440	-0.596344	0.207524
526	549261													7.738781	-0.510895	6.244465	0.629860	-0.703443	0.329309	-0.050632	0.385892	0.921153	-0.775057	-0.596871	0.207441
527	549427													7.749773	-0.450816	6.273945	0.630172	-0.702961	0.329742	-0.051300	0.386053	0.921049	-0.774759	-0.597335	0.207218
528	549594													7.830478	-0.441241	6.287906	0.630519	-0.702553	0.329948	-0.051752	0.386096	0.921006	-0.774447	-0.597787	0.207082
529	549761													7.811612	-0.444927	6.316389	0.630974	-0.702145	0.329945	-0.052208	0.385900	0.921062	-0.774045	-0.598392	0.206835
530	549927													7.742449	-0.426073	6.356319	0.631348	-0.701861	0.329834	-0.052684	0.385518	0.921195	-0.773708	-0.598972	0.206419
531	550094													7.788906	-0.436447	6.391392	0.631519	-0.701778	0.329684	-0.053243	0.384947	0.921402	-0.773530	-0.599436	0.205737
532	550261													7.763615	-0.446332	6.367973	0.631652	-0.701754	0.329482	-0.053838	0.384266	0.921651	-0.773381	-0.599901	0.204941
533	550427													7.645861	-0.429506	6.332449	0.631552	-0.701937	0.329283	-0.054503	0.383455	0.921950	-0.773416	-0.600206	0.203914
534	550594													7.733341	-0.457706	6.312326	0.631044	-0.702470	0.329119	-0.055254	0.382482	0.922309	-0.773777	-0.600203	0.202549
535	550761													7.831194	-0.402020	6.250371	0.630481	-0.703029	0.329006	-0.055996	0.381564	0.922645	-0.774182	-0.600133	0.201202
536	550927													7.761313	-0.449882	6.192208	0.629845	-0.703571	0.329064	-0.056686	0.380891	0.922881	-0.774649	-0.599925	0.200020
537	551094													7.925301	-0.510617	6.161680	0.629187	-0.704152	0.329081	-0.057390	0.380146	0.923144	-0.775132	-0.599716	0.198772
538	551261													7.893211	-0.500615	6.198067	0.628852	-0.704486	0.329007	-0.058150	0.379348	0.923425	-0.775348	-0.599829	0.197588
539	551427													7.879616	-0.485395	6.204116	0.628666	-0.704739	0.328820	-0.058947	0.378425	0.923753	-0.775438	-0.600115	0.196361
540	551594													7.921464	-0.445670	6.227680	0.628645	-0.704806	0.328715	-0.059717	0.377684	0.924007	-0.775396	-0.600502	0.195340
541	551761													7.814209	-0.525577	6.225109	0.628694	-0.704781	0.328675	-0.060415	0.377107	0.924197	-0.775302	-0.600894	0.194506
542	551927													7.845422	-0.559907	6.232913	0.628675	-0.704834	0.328599	-0.061011	0.376539	0.924390	-0.775272	-0.601188	0.193718
543	552094													7.832113	-0.599019	6.249669	0.628708	-0.704899	0.328395	-0.061473	0.375924	0.924609	-0.775208	-0.601497	0.193014
544	552261													7.842046	-0.618077	6.282291	0.628772	-0.705066	0.327914	-0.061697	0.375140	0.924913	-0.775138	-0.601790	0.192377
545	552427													7.822034	-0.574355	6.279786	0.628824	-0.705312	0.327286	-0.061735	0.374304	0.925249	-0.775093	-0.602023	0.191829
546	552594													7.825886	-0.539392	6.243931	0.628851	-0.705625	0.326558	-0.061690	0.373392	0.925620	-0.775074	-0.602223	0.191278
547	552761													7.786786	-0.471212	6.223880	0.628812	-0.705982	0.325859	-0.061698	0.372457	0.925996	-0.775105	-0.602383	0.190648
548	552927													7.734561	-0.467835	6.189333	0.628580	-0.706426	0.325345	-0.061818	0.371615	0.926327	-0.775285	-0.602382	0.189920
549	553094													7.805440	-0.475438	6.147279	0.628146	-0.706974	0.324994	-0.062040	0.370843	0.926621	-0.775618	-0.602216	0.189083
550	553261													7.869973	-0.477606	6.158867	0.627755	-0.707409	0.324801	-0.062308	0.370257	0.926837	-0.775913	-0.602065	0.188353
551	553427													7.929430	-0.538205	6.182376	0.627546	-0.707617	0.324753	-0.062641	0.369869	0.926970	-0.776055	-0.602059	0.187784
552	553594													7.880854	-0.555378	6.199204	0.627627	-0.707545	0.324752	-0.063051	0.369576	0.927059	-0.775957	-0.602323	0.187344
553	553761													7.875054	-0.566859	6.199852	0.627768	-0.707383	0.324834	-0.063431	0.369433	0.927090	-0.775812	-0.602602	0.187048
554	553927													7.821726	-0.601091	6.217514	0.627957	-0.707163	0.324946	-0.063786	0.369363	0.927093	-0.775630	-0.602902	0.186837
555	554094													7.749049	-0.599719	6.234839	0.627964	-0.707085	0.325103	-0.064091	0.369335	0.927084	-0.775599	-0.603011	0.186612
556	554261													7.808001	-0.621251	6.286283	0.627707	-0.707222	0.325302	-0.064390	0.369282	0.927084	-0.775782	-0.602883	0.186263
557	554427													7.960285	-0.648558	6.330871	0.627398	-0.707408	0.325493	-0.064627	0.369251	0.927080	-0.776012	-0.602684	0.185949
558	554594													7.885700	-0.695060	6.328174	0.627228	-0.707552	0.325508	-0.064737	0.369133	0.927119	-0.776141	-0.602587	0.185726
559	554761													7.820632	-0.663304	6.315813	0.626881	-0.707934	0.325345	-0.064631	0.368892	0.927223	-0.776430	-0.602286	0.185496
560	554927													7.776143	-0.603772	6.370468	0.626398	-0.708488	0.325070	-0.064299	0.368638	0.927347	-0.776847	-0.601790	0.185359
561	555094													7.761600	-0.552274	6.437205	0.625601	-0.709294	0.324847	-0.063996	0.368332	0.927489	-0.777514	-0.601027	0.185037
562	555261													7.798264	-0.509093	6.493121	0.624464	-0.710293	0.324850	-0.063856	0.368092	0.927594	-0.778439	-0.599993	0.184504
563	555427													7.691693	-0.427968	6.538905	0.622844	-0.711515	0.325289	-0.063929	0.368108	0.927583	-0.779730	-0.598534	0.183787
564	555594													7.604209	-0.429218	6.625237	0.620388	-0.713176	0.326343	-0.064314	0.368435	0.927426	-0.781654	-0.596352	0.182706
565	555761													7.651672	-0.434871	6.711766	0.616791	-0.715550	0.327959	-0.064983	0.368941	0.927179	-0.784440	-0.593187	0.181061
566	555927													7.712821	-0.460359	6.784233	0.612253	-0.718509	0.329987	-0.065893	0.369535	0.926878	-0.787912	-0.589227	0.178904
567	556094													7.502305	-0.481497	6.811288	0.606658	-0.722083	0.332508	-0.067058	0.370295	0.926490	-0.792130	-0.584360	0.176221
568	556261													7.332165	-0.605562	6.769826	0.599128	-0.726923	0.335602	-0.068245	0.371270	0.926013	-0.797739	-0.577704	0.172830
569	556427													7.541337	-0.877958	6.666050	0.589702	-0.733104	0.338837	-0.069321	0.372055	0.925619	-0.804640	-0.569328	0.168582
570	556594													7.808581	-0.830416	6.446571	0.579272	-0.740185	0.341422	-0.070144	0.372036	0.925564	-0.812111	-0.560102	0.163590
571	556761													7.766708	-0.742796	6.407968	0.568149	-0.747697	0.343738	-0.070708	0.371803	0.925615	-0.819882	-0.550193	0.158371
572	556927													7.398551	-0.656909	6.274649	0.555158	-0.756231	0.346286	-0.070875	0.371811	0.925599	-0.828720	-0.538397	0.152816
573	557094													7.425040	-0.673279	6.088570	0.539621	-0.765985	0.349394	-0.070687	0.372316	0.925410	-0.838935	-0.524068	0.146764
574	557261													7.978024	-0.689291	5.808808	0.522179	-0.776529	0.352606	-0.070447	0.372764	0.925248	-0.849921	-0.507986	0.139945
575	557427													8.351995	-0.558977	5.440505	0.504244	-0.786909	0.355685	-0.070320	0.373097	0.925124	-0.860693	-0.491500	0.132796
576	557594													8.491816	-0.596221	5.095910	0.486376	-0.796748	0.358653	-0.070361	0.373427	0.924987	-0.870912	-0.475127	0.125566
577	557761													8.614559	-0.580731	4.743943	0.468891	-0.805972	0.361318	-0.070581	0.373576	0.924910	-0.880432	-0.459184	0.118280
578	557927													8.748386	-0.567058	4.455046	0.451959	-0.814512	0.363735	-0.070803	0.373715	0.924837	-0.889224	-0.443743	0.111234
579	558094													8.846597	-0.581234	4.259652	0.435635	-0.822366	0.365973	-0.070974	0.373933	0.924736	-0.897321	-0.428822	0.104531
580	558261													8.823630	-0.639395	4.064442	0.419580	-0.829691	0.368193	-0.071018	0.374376	0.924553	-0.904936	-0.414072	0.098158
581	558427													8.994043	-0.670466	3.861125	0.403747	-0.836590	0.370277	-0.070964	0.374874	0.924356	-0.912114	-0.399483	0.091986
582	558594													9.133153	-0.664354	3.741522	0.388234	-0.842994	0.372338	-0.070715	0.375588	0.924085	-0.918844	-0.385092	0.086203
583	558761													9.227764	-0.655503	3.607871	0.373078	-0.848904	0.374398	-0.070286	0.376514	0.923741	-0.925134	-0.370942	0.080803
584	558928													9.134155	-0.638029	3.482480	0.358003	-0.854422	0.376560	-0.069635	0.377735	0.923292	-0.931120	-0.356763	0.075733
585	559094													9.097463	-0.613205	3.252167	0.342656	-0.859733	0.378742	-0.068790	0.379106	0.922793	-0.936939	-0.342254	0.070762
586	559261													9.258118	-0.590333	3.128326	0.326864	-0.864894	0.380944	-0.067813	0.380581	0.922258	-0.942635	-0.327285	0.065747
587	559428													9.216675	-0.577324	3.056784	0.310713	-0.869808	0.383263	-0.066668	0.382285	0.921636	-0.948163	-0.311916	0.060793
588	559594													8.990850	-0.635631	2.869181	0.293414	-0.874748	0.385647	-0.065344	0.384108	0.920973	-0.953750	-0.295426	0.055543
589	559761													8.974499	-0.590889	2.625050	0.274566	-0.879854	0.387904	-0.063941	0.385809	0.920360	-0.959440	-0.277503	0.049672
590	559928													9.252600	-0.554192	2.423938	0.254568	-0.884968	0.389905	-0.062700	0.387236	0.919846	-0.965020	-0.258611	0.043091
591	560094													9.387593	-0.544654	2.230081	0.234073	-0.889847	0.391640	-0.061561	0.388457	0.919408	-0.970268	-0.239319	0.036148
592	560261													9.292115	-0.515022	2.037392	0.212937	-0.894456	0.393199	-0.060413	0.389606	0.918998	-0.975196	-0.219443	0.028925
593	560428													9.133449	-0.525687	1.666598	0.190794	-0.898848	0.394551	-0.059148	0.390678	0.918625	-0.979847	-0.198605	0.021374
594	560594													9.350389	-0.508759	1.397179	0.167963	-0.902941	0.395583	-0.057990	0.391539	0.918332	-0.984086	-0.177186	0.013403
595	560761													9.640512	-0.480785	1.116322	0.145167	-0.906576	0.396291	-0.056977	0.392209	0.918110	-0.987765	-0.155859	0.005282
596	560928													9.521710	-0.410737	0.894690	0.122719	-0.909650	0.396834	-0.056040	0.392867	0.917886	-0.990858	-0.134881	-0.002765
597	561094													9.533188	-0.408761	0.659743	0.100178	-0.912176	0.397365	-0.055005	0.393686	0.917598	-0.993448	-0.113780	-0.010736
598	561261													9.565474	-0.461331	0.443003	0.077539	-0.914166	0.397855	-0.053858	0.394633	0.917259	-0.995534	-0.092551	-0.018635
599	561428													9.982818	-0.580908	0.178913	0.055554	-0.915696	0.398013	-0.053085	0.395356	0.916993	-0.997043	-0.072071	-0.026647
600	561594													10.319237	-0.537735	-0.007767	0.035518	-0.916842	0.397666	-0.052805	0.395640	0.916886	-0.997973	-0.053565	-0.034362
601	561761													10.280245	-0.430119	-0.160692	0.017734	-0.917626	0.397048	-0.052679	0.395702	0.916867	-0.998454	-0.037176	-0.041322
602	561928													10.104862	-0.363307	-0.271144	0.001563	-0.918054	0.396451	-0.052411	0.395832	0.916826	-0.998624	-0.022211	-0.047497
603	562094													9.863762	-0.343461	-0.396640	-0.013636	-0.918177	0.395935	-0.051929	0.396088	0.916743	-0.998558	-0.008060	-0.053081
604	562261													9.802449	-0.347959	-0.559486	-0.028317	-0.917989	0.395594	-0.051281	0.396565	0.916573	-0.998283	0.005668	-0.058305
605	562428													9.931203	-0.448975	-0.658646	-0.042279	-0.917569	0.395322	-0.050748	0.397137	0.916355	-0.997816	0.018681	-0.063356
606	562594													9.950333	-0.473214	-0.716208	-0.055230	-0.917006	0.395030	-0.050428	0.397691	0.916132	-0.997199	0.030677	-0.068207
607	562761													9.788501	-0.433573	-0.831813	-0.067729	-0.916276	0.394780	-0.050070	0.398311	0.915883	-0.996447	0.042265	-0.072855
608	562928													9.643771	-0.392351	-0.924153	-0.080375	-0.915343	0.394572	-0.049706	0.399041	0.915585	-0.995525	0.053977	-0.077571
609	563094													9.586946	-0.345031	-1.101567	-0.093279	-0.914147	0.394506	-0.049336	0.399991	0.915190	-0.994417	0.065904	-0.082411
610	563261													9.602556	-0.314626	-1.214509	-0.106475	-0.912673	0.394576	-0.049131	0.401177	0.914682	-0.993101	0.078005	-0.087556
611	563428													9.680941	-0.330414	-1.330938	-0.119599	-0.910958	0.394779	-0.049099	0.402574	0.914070	-0.991607	0.089938	-0.092875
612	563594													9.708235	-0.411631	-1.439802	-0.132503	-0.909069	0.395014	-0.049305	0.404079	0.913394	-0.989956	0.101551	-0.098364
613	563761													9.660048	-0.432040	-1.544737	-0.145172	-0.907111	0.395063	-0.049874	0.405494	0.912736	-0.988149	0.112800	-0.104108
614	563928													9.613573	-0.414758	-1.681198	-0.157527	-0.905090	0.394965	-0.050719	0.406847	0.912087	-0.986211	0.123646	-0.109994
615	564094													9.613716	-0.466261	-1.789904	-0.169766	-0.902993	0.394693	-0.051655	0.408109	0.911470	-0.984130	0.134348	-0.115928
616	564261													9.628634	-0.532870	-1.871792	-0.181753	-0.900885	0.394173	-0.052781	0.409209	0.910913	-0.981927	0.144756	-0.121924
617	564428													9.540605	-0.591222	-1.982560	-0.193419	-0.898880	0.393197	-0.054287	0.409956	0.910488	-0.979613	0.154760	-0.128090
618	564594													9.357616	-0.538279	-2.081445	-0.205030	-0.896906	0.391819	-0.056189	0.410449	0.910151	-0.977142	0.164592	-0.134551
619	564761													9.337463	-0.586035	-2.126662	-0.216971	-0.894812	0.390174	-0.058217	0.410845	0.909844	-0.974441	0.174695	-0.141235
620	564928													9.499156	-0.631124	-2.282845	-0.228880	-0.892687	0.388231	-0.060303	0.411054	0.909614	-0.971585	0.184781	-0.147914
621	565094													9.571362	-0.641973	-2.398743	-0.240401	-0.890646	0.385950	-0.062519	0.410992	0.909493	-0.968658	0.194514	-0.154485
622	565261													9.522412	-0.635868	-2.515633	-0.251455	-0.888677	0.383436	-0.064795	0.410733	0.909450	-0.965698	0.203841	-0.160863
623	565428													9.618484	-0.639289	-2.613796	-0.261918	-0.886791	0.380790	-0.067090	0.410341	0.909461	-0.962755	0.212657	-0.166970
624	565594													9.588459	-0.667134	-2.677732	-0.271560	-0.885062	0.378048	-0.069466	0.409810	0.909522	-0.959911	0.220729	-0.172769
625	565928													9.418461	-0.608702	-2.788255	-0.280554	-0.883415	0.375323	-0.071846	0.409258	0.909586	-0.957146	0.228223	-0.178288
626	566094													9.344913	-0.629986	-2.864003	-0.289448	-0.881655	0.372699	-0.073995	0.408810	0.909615	-0.954329	0.235708	-0.183568
627	566261													9.354849	-0.662790	-2.908729	-0.298118	-0.879803	0.370233	-0.075778	0.408459	0.909626	-0.951516	0.243120	-0.188439
628	566428													9.350182	-0.723230	-2.969895	-0.306531	-0.877940	0.367777	-0.077319	0.408066	0.909673	-0.948715	0.250407	-0.192966
629	566594													9.335278	-0.721446	-3.056911	-0.314554	-0.876104	0.365373	-0.078687	0.407652	0.909741	-0.945973	0.257412	-0.197166
630	566761													9.069023	-0.718046	-3.155444	-0.322476	-0.874211	0.362995	-0.079782	0.407219	0.909839	-0.943210	0.264440	-0.201065
631	566928													8.986481	-0.718074	-3.175022	-0.330814	-0.872047	0.360688	-0.080455	0.406879	0.909932	-0.940260	0.271999	-0.204762
632	567094													9.171346	-0.755275	-3.271108	-0.339244	-0.869750	0.358397	-0.080828	0.406532	0.910054	-0.937220	0.279762	-0.208214
633	567261													9.170271	-0.739987	-3.354216	-0.347448	-0.867409	0.356204	-0.080996	0.406212	0.910182	-0.934195	0.287390	-0.211394
634	567428													9.206574	-0.760709	-3.455257	-0.355347	-0.865074	0.354084	-0.081015	0.405885	0.910326	-0.931217	0.294795	-0.214314
635	567594													8.962172	-0.741171	-3.504777	-0.363074	-0.862682	0.352075	-0.080826	0.405596	0.910472	-0.928248	0.302112	-0.216989
636	567761													8.980485	-0.754875	-3.555597	-0.370935	-0.860112	0.350164	-0.080357	0.405378	0.910611	-0.925176	0.309639	-0.219485
637	567928													9.046065	-0.770485	-3.619681	-0.378678	-0.857510	0.348252	-0.079765	0.405111	0.910781	-0.922085	0.317114	-0.221806
638	568094													8.973705	-0.757309	-3.698272	-0.386263	-0.854870	0.346407	-0.079056	0.404854	0.910957	-0.918995	0.324484	-0.223962
639	568261													8.986348	-0.777424	-3.783566	-0.393679	-0.852188	0.344664	-0.078171	0.404619	0.911138	-0.915918	0.331753	-0.225906
640	568428													8.934829	-0.768018	-3.858939	-0.400832	-0.849534	0.342967	-0.077148	0.404326	0.911355	-0.912898	0.338841	-0.227607
641	568594													8.767111	-0.750532	-3.919908	-0.407881	-0.846827	0.341346	-0.075868	0.404001	0.911607	-0.909877	0.345930	-0.229031
642	568761													8.831917	-0.772113	-3.966045	-0.414960	-0.844050	0.339688	-0.074450	0.403597	0.911903	-0.906789	0.353113	-0.230316
643	568928													8.918941	-0.788304	-4.067173	-0.421729	-0.841337	0.338077	-0.073001	0.403151	0.912217	-0.903778	0.360029	-0.231439
644	569094													8.865347	-0.779406	-4.132731	-0.428164	-0.838729	0.336466	-0.071560	0.402617	0.912567	-0.900863	0.366651	-0.232406
645	569261													8.847967	-0.734404	-4.218500	-0.434331	-0.836193	0.334869	-0.070003	0.401976	0.912970	-0.898029	0.373090	-0.233127
646	569428													8.806653	-0.678583	-4.227876	-0.440132	-0.833769	0.333335	-0.068333	0.401249	0.913416	-0.895329	0.379246	-0.233576
647	569594													8.691216	-0.681912	-4.277248	-0.445780	-0.831339	0.331896	-0.066457	0.400487	0.913889	-0.892672	0.385337	-0.233778
648	569761													8.608262	-0.669334	-4.338521	-0.451320	-0.828922	0.330452	-0.064550	0.399668	0.914384	-0.890025	0.391349	-0.233885
649	569928													8.501665	-0.646518	-4.394250	-0.456853	-0.826482	0.328958	-0.062654	0.398785	0.914902	-0.887333	0.397365	-0.233969
650	570094													8.560442	-0.616629	-4.408146	-0.462489	-0.823971	0.327378	-0.060898	0.397889	0.915410	-0.884531	0.403430	-0.234197
651	570261													8.621895	-0.588755	-4.495093	-0.468001	-0.821466	0.325834	-0.059292	0.397061	0.915875	-0.881737	0.409311	-0.234531
652	570428													8.545910	-0.540143	-4.530523	-0.473370	-0.818984	0.324324	-0.057862	0.396304	0.916294	-0.878961	0.414981	-0.234987
653	570594													8.436751	-0.521583	-4.597380	-0.478754	-0.816424	0.322873	-0.056476	0.395635	0.916670	-0.876131	0.420624	-0.235520
654	570761													8.368350	-0.531961	-4.630204	-0.484293	-0.813725	0.321422	-0.055153	0.395043	0.917005	-0.873166	0.426372	-0.236196
655	570928													8.361341	-0.553116	-4.672567	-0.490069	-0.810814	0.320020	-0.053802	0.394565	0.917292	-0.870022	0.432318	-0.236988
656	571094													8.438236	-0.525761	-4.703710	-0.495891	-0.807851	0.318540	-0.052540	0.394059	0.917582	-0.866794	0.438285	-0.237855
657	571261													8.389282	-0.487876	-4.772863	-0.501709	-0.804862	0.316992	-0.051363	0.393521	0.917880	-0.863510	0.444227	-0.238774
658	571428													8.404185	-0.459264	-4.827941	-0.507459	-0.801863	0.315437	-0.050276	0.393004	0.918161	-0.860208	0.450071	-0.239748
659	571594													8.374010	-0.482055	-4.891678	-0.513047	-0.798914	0.313877	-0.049335	0.392511	0.918423	-0.856941	0.455709	-0.240791
660	571761													8.318108	-0.464987	-4.930887	-0.518495	-0.796017	0.312282	-0.048605	0.392054	0.918657	-0.853698	0.461141	-0.241968
661	571928													8.317698	-0.433333	-4.988864	-0.523792	-0.793185	0.310645	-0.048049	0.391602	0.918879	-0.850490	0.466375	-0.243230
662	572094													8.321692	-0.383759	-5.066506	-0.528861	-0.790434	0.309063	-0.047635	0.391228	0.919060	-0.847371	0.471333	-0.244557
663	572261													8.272530	-0.378168	-5.108370	-0.533681	-0.787745	0.307640	-0.047235	0.390974	0.919189	-0.844366	0.476022	-0.245865
664	572428													8.196138	-0.355983	-5.171605	-0.538294	-0.785098	0.306367	-0.046852	0.390846	0.919263	-0.841454	0.480480	-0.247173
665	572594													8.136179	-0.350644	-5.223190	-0.542771	-0.782439	0.305269	-0.046454	0.390878	0.919270	-0.838595	0.484772	-0.248504
666	572761													8.068344	-0.361536	-5.273924	-0.547184	-0.779750	0.304270	-0.046077	0.391029	0.919224	-0.835743	0.488965	-0.249893
667	572928													8.113864	-0.376446	-5.329234	-0.551456	-0.777089	0.303363	-0.045756	0.391284	0.919132	-0.832948	0.492980	-0.251333
668	573094													8.120245	-0.349421	-5.376125	-0.555471	-0.774516	0.302618	-0.045427	0.391647	0.918993	-0.830294	0.496727	-0.252732
669	573261													8.083136	-0.349805	-5.410428	-0.559175	-0.772040	0.302120	-0.044977	0.392131	0.918809	-0.827829	0.500187	-0.253994
670	573428													8.082418	-0.378087	-5.454783	-0.562547	-0.769700	0.301832	-0.044488	0.392728	0.918578	-0.825567	0.503316	-0.255170
671	573594													8.042242	-0.386529	-5.502315	-0.565595	-0.767513	0.301707	-0.043940	0.393372	0.918329	-0.823512	0.506145	-0.256213
672	573761													8.070942	-0.395510	-5.573092	-0.568264	-0.765506	0.301788	-0.043298	0.394072	0.918059	-0.821706	0.508633	-0.257082
673	573928													8.072742	-0.387976	-5.609209	-0.570464	-0.763769	0.302039	-0.042595	0.394763	0.917795	-0.820218	0.510703	-0.257731
674	574094													8.036684	-0.381091	-5.607160	-0.572203	-0.762313	0.302428	-0.041843	0.395420	0.917547	-0.819044	0.512369	-0.258158
675	574261													7.991076	-0.373466	-5.661138	-0.573551	-0.761116	0.302891	-0.041112	0.396032	0.917316	-0.818138	0.513675	-0.258435
676	574428													7.943015	-0.355095	-5.665682	-0.574588	-0.760142	0.303368	-0.040489	0.396611	0.917093	-0.817440	0.514668	-0.258665
677	574594													7.842412	-0.350669	-5.665281	-0.575451	-0.759316	0.303801	-0.039998	0.397155	0.916880	-0.816858	0.515468	-0.258914
678	574761													7.797773	-0.372688	-5.674053	-0.576285	-0.758537	0.304166	-0.039719	0.397739	0.916638	-0.816283	0.516164	-0.259339
679	574928													7.806012	-0.382819	-5.651279	-0.577029	-0.757873	0.304411	-0.039711	0.398316	0.916388	-0.815758	0.516694	-0.259936
680	575094													7.776248	-0.371912	-5.645938	-0.577785	-0.757227	0.304584	-0.039879	0.398923	0.916117	-0.815214	0.517172	-0.260689
681	575261													7.823973	-0.385467	-5.657406	-0.578533	-0.756604	0.304712	-0.040146	0.399538	0.915837	-0.814670	0.517609	-0.261521
682	575428													7.871500	-0.369219	-5.657091	-0.579142	-0.756066	0.304892	-0.040417	0.400165	0.915551	-0.814224	0.517911	-0.262311
683	575595													7.820160	-0.355412	-5.665794	-0.579621	-0.755576	0.305197	-0.040622	0.400852	0.915242	-0.813873	0.518095	-0.263035
684	575761													7.829652	-0.360758	-5.674030	-0.580013	-0.755109	0.305607	-0.040680	0.401539	0.914938	-0.813591	0.518244	-0.263616
685	575928													7.859099	-0.354945	-5.681633	-0.580281	-0.754707	0.306090	-0.040682	0.402231	0.914634	-0.813400	0.518292	-0.264110
686	576095													7.888159	-0.406645	-5.683961	-0.580351	-0.754442	0.306611	-0.040726	0.402919	0.914329	-0.813348	0.518145	-0.264560
687	576261													7.917050	-0.445886	-5.688921	-0.580133	-0.754397	0.307134	-0.040889	0.403570	0.914035	-0.813495	0.517703	-0.264970
688	576428													7.871026	-0.387350	-5.697982	-0.579619	-0.754580	0.307655	-0.041098	0.404131	0.913777	-0.813851	0.516999	-0.265253
689	576595													7.757065	-0.394232	-5.676295	-0.578968	-0.754835	0.308252	-0.041254	0.404697	0.913520	-0.814306	0.516182	-0.265447
690	576761													7.717933	-0.414554	-5.678860	-0.578437	-0.754996	0.308856	-0.041330	0.405266	0.913264	-0.814679	0.515501	-0.265625
691	576928													7.774554	-0.418355	-5.641587	-0.577924	-0.755155	0.309425	-0.041406	0.405800	0.913023	-0.815039	0.514846	-0.265790
692	577095													7.882072	-0.438526	-5.653552	-0.577264	-0.755428	0.309993	-0.041432	0.406243	0.912825	-0.815506	0.514097	-0.265808
693	577261													7.863739	-0.413736	-5.625511	-0.576401	-0.755848	0.310572	-0.041444	0.406610	0.912661	-0.816115	0.513188	-0.265696
694	577428													7.838651	-0.382400	-5.593976	-0.575461	-0.756283	0.311257	-0.041268	0.406957	0.912515	-0.816787	0.512272	-0.265398
695	577595													7.873018	-0.422818	-5.603135	-0.574505	-0.756698	0.312013	-0.040907	0.407269	0.912392	-0.817478	0.511411	-0.264932
696	577761													7.931751	-0.484343	-5.551173	-0.573468	-0.757219	0.312656	-0.040574	0.407431	0.912334	-0.818223	0.510509	-0.264372
697	577928													7.977142	-0.494570	-5.524738	-0.572208	-0.757958	0.313173	-0.040349	0.407425	0.912347	-0.819115	0.509416	-0.263715
698	578095													7.952583	-0.427304	-5.525557	-0.570767	-0.758886	0.313555	-0.040212	0.407242	0.912435	-0.820127	0.508179	-0.262956
699	578261													7.860871	-0.332889	-5.546485	-0.569298	-0.759810	0.313988	-0.039956	0.407039	0.912536	-0.821160	0.506959	-0.262085
700	578428													7.847267	-0.358341	-5.529069	-0.567975	-0.760605	0.314459	-0.039564	0.406857	0.912635	-0.822094	0.505913	-0.261177
701	578595													7.989629	-0.423287	-5.495958	-0.566576	-0.761494	0.314831	-0.039298	0.406608	0.912757	-0.823072	0.504775	-0.260299
702	578761													8.062486	-0.412601	-5.509579	-0.564895	-0.762637	0.315085	-0.039334	0.406299	0.912893	-0.824225	0.503295	-0.259514
703	578928													8.073194	-0.367283	-5.501235	-0.562953	-0.763989	0.315285	-0.039515	0.405919	0.913055	-0.825544	0.501548	-0.258702
704	579095													8.059937	-0.336751	-5.503675	-0.560751	-0.765498	0.315548	-0.039716	0.405533	0.913217	-0.827031	0.499555	-0.257806
705	579261													8.046763	-0.349940	-5.464000	-0.558361	-0.767089	0.315923	-0.039856	0.405179	0.913368	-0.828640	0.497398	-0.256809
706	579428													8.052405	-0.354015	-5.423555	-0.555782	-0.768792	0.316331	-0.040036	0.404825	0.913517	-0.830363	0.495052	-0.255774
707	579595													8.015386	-0.370782	-5.399429	-0.553041	-0.770569	0.316810	-0.040200	0.404491	0.913658	-0.832183	0.492555	-0.254677
708	579761													8.002165	-0.346614	-5.374136	-0.550182	-0.772395	0.317342	-0.040404	0.404208	0.913774	-0.834067	0.489920	-0.253596
709	579928													8.021015	-0.310214	-5.363636	-0.547249	-0.774203	0.318005	-0.040463	0.403976	0.913874	-0.835991	0.487250	-0.252402
710	580095													8.075244	-0.330766	-5.323448	-0.544265	-0.775958	0.318849	-0.040404	0.403878	0.913920	-0.837940	0.484532	-0.251168
711	580261													8.166052	-0.339243	-5.293869	-0.541131	-0.777738	0.319846	-0.040303	0.403892	0.913918	-0.839972	0.481659	-0.249904
712	580428													8.188117	-0.339456	-5.257560	-0.537786	-0.779568	0.321031	-0.040122	0.404016	0.913871	-0.842126	0.478586	-0.248552
713	580595													8.213152	-0.329405	-5.217173	-0.534286	-0.781411	0.322391	-0.039856	0.404253	0.913778	-0.844364	0.475370	-0.247131
714	580761													8.266080	-0.344344	-5.140125	-0.530565	-0.783310	0.323922	-0.039506	0.404580	0.913649	-0.846723	0.471953	-0.245602
715	580928													8.275160	-0.361699	-5.108064	-0.526622	-0.785316	0.325497	-0.039176	0.404905	0.913519	-0.849196	0.468328	-0.243997
716	581095													8.318233	-0.373181	-5.057590	-0.522465	-0.787440	0.327060	-0.038905	0.405192	0.913403	-0.851772	0.464497	-0.242335
717	581261													8.339902	-0.390326	-5.015930	-0.518061	-0.789713	0.328581	-0.038783	0.405443	0.913297	-0.854464	0.460400	-0.240672
718	581428													8.328437	-0.377385	-4.965090	-0.513489	-0.792112	0.329982	-0.038792	0.405586	0.913233	-0.857219	0.456134	-0.238992
719	581595													8.264244	-0.343002	-4.911322	-0.508873	-0.794533	0.331308	-0.038908	0.405700	0.913178	-0.859962	0.451802	-0.237363
720	581761													8.243320	-0.357613	-4.848570	-0.504382	-0.796864	0.332575	-0.039026	0.405800	0.913128	-0.862598	0.447587	-0.235777
721	581928													8.239227	-0.355511	-4.808498	-0.500064	-0.799111	0.333702	-0.039233	0.405853	0.913096	-0.865099	0.443515	-0.234304
722	582095													8.267447	-0.359476	-4.762774	-0.495964	-0.801254	0.334683	-0.039495	0.405843	0.913089	-0.867445	0.439641	-0.232929
723	582261													8.276655	-0.364858	-4.712945	-0.492092	-0.803272	0.335559	-0.039808	0.405820	0.913086	-0.869632	0.435964	-0.231678
724	582428													8.376136	-0.376235	-4.661676	-0.488399	-0.805193	0.336349	-0.040157	0.405778	0.913089	-0.871696	0.432445	-0.230516
725	582595													8.460246	-0.408093	-4.622995	-0.484775	-0.807107	0.337003	-0.040662	0.405686	0.913108	-0.873693	0.428949	-0.229485
726	582761													8.547871	-0.409862	-4.592814	-0.481097	-0.809075	0.337555	-0.041289	0.405528	0.913150	-0.875694	0.425376	-0.228504
727	582928													8.550735	-0.401396	-4.546056	-0.477311	-0.811125	0.338009	-0.042045	0.405295	0.913219	-0.877728	0.421677	-0.227556
728	583095													8.524014	-0.407901	-4.517265	-0.473490	-0.813245	0.338289	-0.042858	0.404888	0.913361	-0.879756	0.417969	-0.226565
729	583261													8.590900	-0.473591	-4.464877	-0.469657	-0.815339	0.338591	-0.043701	0.404521	0.913484	-0.881767	0.414227	-0.225618
730	583428													8.704539	-0.499387	-4.455031	-0.465642	-0.817640	0.338589	-0.044755	0.403866	0.913723	-0.883841	0.410314	-0.224650
731	583595													8.615264	-0.455653	-4.436516	-0.461359	-0.820086	0.338537	-0.045835	0.403095	0.914010	-0.886029	0.406169	-0.223560
732	583761													8.531796	-0.507158	-4.426826	-0.457152	-0.822491	0.338409	-0.046877	0.402251	0.914329	-0.888152	0.402124	-0.222446
733	583928													8.631890	-0.527416	-4.403123	-0.452952	-0.824922	0.338138	-0.048019	0.401299	0.914687	-0.890241	0.398073	-0.221381
734	584095													8.694406	-0.499937	-4.400798	-0.448605	-0.827448	0.337763	-0.049244	0.400236	0.915088	-0.892373	0.393880	-0.220295
735	584261													8.793258	-0.442538	-4.402273	-0.443952	-0.830059	0.337505	-0.050421	0.399203	0.915475	-0.894631	0.389409	-0.219079
736	584428													8.875177	-0.391996	-4.399026	-0.438845	-0.832740	0.337580	-0.051475	0.398369	0.915780	-0.897087	0.384508	-0.217687
737	584595													9.053738	-0.424502	-4.357121	-0.432970	-0.835595	0.338108	-0.052285	0.397738	0.916008	-0.899891	0.378926	-0.215897
738	584761													9.054412	-0.431699	-4.339334	-0.426040	-0.838786	0.339010	-0.052950	0.397195	0.916205	-0.903153	0.372390	-0.213635
739	584928													8.958939	-0.481518	-4.287364	-0.418284	-0.842175	0.340264	-0.053499	0.396802	0.916344	-0.906740	0.365088	-0.211031
740	585095													8.852736	-0.473002	-4.233385	-0.409896	-0.845704	0.341717	-0.053917	0.396445	0.916474	-0.910537	0.357235	-0.208098
741	585261													8.807320	-0.456218	-4.161630	-0.401190	-0.849166	0.343457	-0.054018	0.396235	0.916559	-0.914401	0.349162	-0.204836
742	585428													8.825885	-0.461045	-4.069300	-0.392270	-0.852528	0.345428	-0.053881	0.396177	0.916592	-0.918271	0.340939	-0.201344
743	585595													8.866641	-0.462818	-3.975849	-0.383242	-0.855743	0.347606	-0.053541	0.396289	0.916563	-0.922095	0.332654	-0.197692
744	585761													8.881269	-0.459794	-3.880627	-0.374131	-0.858835	0.349897	-0.053137	0.396531	0.916482	-0.925852	0.324292	-0.193990
745	585928													8.922080	-0.488221	-3.773435	-0.365000	-0.861778	0.352297	-0.052720	0.396929	0.916334	-0.929514	0.315889	-0.190312
746	586095													8.965197	-0.500356	-3.684185	-0.355815	-0.864629	0.354700	-0.052379	0.397392	0.916153	-0.933087	0.307402	-0.186686
747	586261													8.956841	-0.450537	-3.599721	-0.346623	-0.867356	0.357137	-0.052060	0.397943	0.915932	-0.936559	0.298891	-0.183090
748	586428													9.021959	-0.481194	-3.503371	-0.337520	-0.869915	0.359623	-0.051752	0.398612	0.915658	-0.939895	0.290442	-0.179559
749	586595													9.076557	-0.513623	-3.395606	-0.328360	-0.872390	0.362099	-0.051474	0.399312	0.915369	-0.943149	0.281932	-0.176024
750	586761													9.151545	-0.533190	-3.306129	-0.319087	-0.874821	0.364516	-0.051304	0.400003	0.915077	-0.946336	0.273288	-0.172518
751	586928													9.165390	-0.512706	-3.238412	-0.309618	-0.877253	0.366829	-0.051196	0.400606	0.914819	-0.949482	0.264464	-0.168946
752	587095													9.242179	-0.496870	-3.111223	-0.299939	-0.879657	0.369107	-0.051022	0.401161	0.914586	-0.952593	0.255487	-0.165206
753	587261													9.456017	-0.462700	-2.934285	-0.289929	-0.882038	0.371418	-0.050665	0.401688	0.914374	-0.955706	0.246285	-0.161149
754	587428													9.446211	-0.483432	-2.797611	-0.279318	-0.884461	0.373778	-0.050238	0.402200	0.914172	-0.958884	0.236566	-0.156775
755	587595													9.343138	-0.460022	-2.700435	-0.268500	-0.886832	0.376081	-0.049826	0.402681	0.913983	-0.961990	0.226666	-0.152307
756	587761													9.307835	-0.476332	-2.564134	-0.257676	-0.889077	0.378345	-0.049475	0.403195	0.913776	-0.964964	0.216740	-0.147881
757	587928													9.325699	-0.462063	-2.414299	-0.246940	-0.891187	0.380534	-0.049200	0.403719	0.913559	-0.967781	0.206872	-0.143541
758	588095													9.348223	-0.466566	-2.343074	-0.236250	-0.893178	0.382648	-0.049017	0.404249	0.913334	-0.970455	0.197019	-0.139285
759	588261													9.386294	-0.470638	-2.249998	-0.225602	-0.895053	0.384687	-0.048958	0.404784	0.913101	-0.972989	0.187164	-0.135140
760	588428													9.419966	-0.476115	-2.156342	-0.214959	-0.896854	0.386582	-0.049008	0.405242	0.912895	-0.975393	0.177289	-0.131064
761	588595													9.478548	-0.490350	-2.078977	-0.204241	-0.898611	0.388308	-0.049157	0.405584	0.912735	-0.977686	0.167330	-0.127010
762	588761													9.569758	-0.486928	-1.999940	-0.193290	-0.900346	0.389893	-0.049338	0.405804	0.912628	-0.979900	0.157165	-0.122859
763	588928													9.702468	-0.473923	-1.884312	-0.181814	-0.902114	0.391324	-0.049517	0.405851	0.912597	-0.982085	0.146545	-0.118460
764	589095													9.813774	-0.439960	-1.782403	-0.169605	-0.903875	0.392740	-0.049561	0.405832	0.912603	-0.984265	0.135318	-0.113628
765	589261													9.800866	-0.445175	-1.625156	-0.156673	-0.905609	0.394114	-0.049567	0.405749	0.912639	-0.986406	0.123451	-0.108458
766	589428													9.695498	-0.430376	-1.530767	-0.143240	-0.907251	0.395445	-0.049693	0.405655	0.912675	-0.988440	0.111081	-0.103190
767	589595													9.633271	-0.422517	-1.398542	-0.129571	-0.908746	0.396726	-0.049979	0.405576	0.912694	-0.990310	0.098431	-0.097969
768	589761													9.629461	-0.435307	-1.267000	-0.115807	-0.910058	0.397973	-0.050392	0.405536	0.912689	-0.991993	0.085641	-0.092823
769	589928													9.626819	-0.424571	-1.132815	-0.102031	-0.911177	0.399182	-0.050910	0.405533	0.912661	-0.993478	0.072798	-0.087765
770	590095													9.753739	-0.402892	-0.919508	-0.088256	-0.912099	0.400358	-0.051475	0.405566	0.912615	-0.994767	0.059935	-0.082744
771	590261													9.802230	-0.427202	-0.756428	-0.074361	-0.912817	0.401541	-0.052150	0.405664	0.912533	-0.995867	0.046917	-0.077769
772	590428													9.625278	-0.446984	-0.606099	-0.060659	-0.913322	0.402695	-0.052923	0.405814	0.912422	-0.996755	0.034035	-0.072952
773	590595													9.437581	-0.446714	-0.417681	-0.047730	-0.913590	0.403826	-0.053749	0.406050	0.912269	-0.997413	0.021838	-0.068486
774	590761													9.479071	-0.499498	-0.272995	-0.035887	-0.913642	0.404933	-0.054630	0.406382	0.912069	-0.997862	0.010609	-0.064496
775	590928													9.533400	-0.511055	-0.098333	-0.024922	-0.913551	0.405959	-0.055548	0.406723	0.911861	-0.998145	0.000175	-0.060882
776	591095													9.561371	-0.547279	-0.012660	-0.014697	-0.913338	0.406936	-0.056464	0.407089	0.911642	-0.998296	-0.009579	-0.057554
777	591261													9.574276	-0.560907	0.047331	-0.005062	-0.913039	0.407840	-0.057387	0.407438	0.911428	-0.998339	-0.018791	-0.054459
778	591428													9.658376	-0.605265	0.101357	0.004165	-0.912683	0.408648	-0.058311	0.407735	0.911237	-0.998290	-0.027624	-0.051521
779	591595													9.704951	-0.623019	0.127941	0.013292	-0.912304	0.409297	-0.059167	0.407898	0.911108	-0.998160	-0.036327	-0.048556
780	591761													9.809154	-0.567230	0.216071	0.022566	-0.911865	0.409870	-0.059799	0.408009	0.911017	-0.997955	-0.045068	-0.045321
781	591928													9.900514	-0.579490	0.280834	0.032279	-0.911314	0.410445	-0.060174	0.408142	0.910933	-0.997666	-0.054103	-0.041663
782	592095													9.875630	-0.598239	0.359711	0.042533	-0.910662	0.410957	-0.060432	0.408231	0.910876	-0.997266	-0.063577	-0.037670
783	592262													9.828999	-0.597051	0.395010	0.053337	-0.909913	0.411357	-0.060642	0.408231	0.910862	-0.996733	-0.073529	-0.033405
784	592428													9.830336	-0.598033	0.429889	0.064704	-0.909051	0.411631	-0.060906	0.408129	0.910890	-0.996044	-0.084009	-0.028959
785	592595													10.017259	-0.565361	0.589682	0.076696	-0.908035	0.411814	-0.061158	0.407968	0.910945	-0.995177	-0.095052	-0.024244
786	592762													10.069000	-0.543073	0.783627	0.089639	-0.906784	0.411955	-0.061479	0.407794	0.911002	-0.994075	-0.106988	-0.019194
787	592928													9.852940	-0.541752	0.913383	0.103071	-0.905302	0.412075	-0.061976	0.407631	0.911041	-0.992741	-0.119441	-0.014092
788	593095													9.654408	-0.531514	1.066370	0.116388	-0.903627	0.412203	-0.062620	0.407522	0.911046	-0.991228	-0.131847	-0.009154
789	593262													9.605201	-0.535501	1.203798	0.129317	-0.901795	0.412363	-0.063414	0.407483	0.911008	-0.989574	-0.143958	-0.004492
790	593428													9.611112	-0.544058	1.327922	0.141846	-0.899827	0.412543	-0.064232	0.407512	0.910938	-0.987803	-0.155712	0.000006
791	593595													9.549056	-0.585524	1.457237	0.153825	-0.897766	0.412739	-0.065017	0.407609	0.910839	-0.985957	-0.166945	0.004330
792	593762													9.556782	-0.630532	1.601557	0.165202	-0.895688	0.412858	-0.065740	0.407678	0.910756	-0.984066	-0.177600	0.008467
793	593928													9.507298	-0.675965	1.689325	0.175994	-0.893618	0.412884	-0.066426	0.407694	0.910699	-0.982148	-0.187704	0.012392
794	594095													9.514870	-0.702599	1.799123	0.186274	-0.891605	0.412727	-0.067049	0.407564	0.910712	-0.980207	-0.197314	0.016137
795	594262													9.549254	-0.677371	1.856582	0.196112	-0.889630	0.412430	-0.067582	0.407335	0.910775	-0.978250	-0.206487	0.019760
796	594428													9.604730	-0.656739	1.951529	0.205788	-0.887637	0.412010	-0.067887	0.407058	0.910876	-0.976239	-0.215417	0.023508
797	594595													9.673923	-0.655641	2.042492	0.215526	-0.885561	0.411498	-0.068003	0.406767	0.910997	-0.974127	-0.224327	0.027448
798	594762													9.640740	-0.659534	2.125425	0.225371	-0.883372	0.410928	-0.068099	0.406464	0.911125	-0.971890	-0.233325	0.031448
799	594928													9.558142	-0.659433	2.241856	0.235309	-0.881096	0.410244	-0.068199	0.406087	0.911286	-0.969525	-0.242412	0.035466
800	595095													9.661077	-0.613836	2.407742	0.245391	-0.878689	0.409498	-0.068290	0.405696	0.911454	-0.967016	-0.251627	0.039548
801	595262													9.650468	-0.615103	2.557253	0.255845	-0.876037	0.408781	-0.068390	0.405393	0.911581	-0.964296	-0.261180	0.043806
802	595428													9.464178	-0.609527	2.659827	0.266399	-0.873194	0.408123	-0.068510	0.405199	0.911658	-0.961425	-0.270825	0.048122
803	595595													9.353410	-0.622475	2.755362	0.276762	-0.870273	0.407464	-0.068618	0.405047	0.911717	-0.958486	-0.280288	0.052385
804	595762													9.325942	-0.609121	2.840611	0.286878	-0.867280	0.406850	-0.068750	0.404967	0.911743	-0.955497	-0.289530	0.056551
805	595928													9.348461	-0.616685	2.951955	0.296792	-0.864216	0.406257	-0.068936	0.404926	0.911747	-0.952451	-0.298605	0.060603
806	596095													9.373915	-0.613544	3.006487	0.306587	-0.861047	0.405712	-0.069076	0.404988	0.911709	-0.949333	-0.307543	0.064686
807	596262													9.406563	-0.612856	3.099885	0.316483	-0.857714	0.405173	-0.069174	0.405124	0.911641	-0.946073	-0.316546	0.068883
808	596428													9.481219	-0.613781	3.199910	0.326669	-0.854159	0.404598	-0.069262	0.405298	0.911557	-0.942598	-0.325801	0.073238
809	596595													9.422882	-0.635840	3.301704	0.337277	-0.850364	0.403888	-0.069332	0.405424	0.911496	-0.938849	-0.335429	0.077782
810	596762													9.297331	-0.612391	3.398720	0.348062	-0.846350	0.403167	-0.069522	0.405570	0.911416	-0.934890	-0.345259	0.082324
811	596928													9.196894	-0.616596	3.468252	0.358859	-0.842190	0.402414	-0.069766	0.405723	0.911330	-0.930781	-0.355113	0.086841
812	597095													9.146865	-0.639154	3.575087	0.369558	-0.837904	0.401677	-0.070086	0.405912	0.911221	-0.926561	-0.364900	0.091283
813	597262													9.128987	-0.666973	3.643004	0.380190	-0.833538	0.400836	-0.070523	0.405992	0.911152	-0.922216	-0.374679	0.095570
814	597428													9.103896	-0.656779	3.758666	0.390800	-0.829059	0.399920	-0.071063	0.406001	0.911106	-0.917728	-0.384479	0.099750
815	597595													9.229535	-0.638213	3.911944	0.401513	-0.824420	0.398898	-0.071692	0.405919	0.911093	-0.913043	-0.394413	0.103877
816	597762													9.203675	-0.684371	4.011528	0.412546	-0.819535	0.397704	-0.072507	0.405660	0.911144	-0.908047	-0.404725	0.107932
817	597928													9.086987	-0.692973	4.119457	0.423851	-0.814448	0.396264	-0.073519	0.405126	0.911300	-0.902743	-0.415388	0.111836
818	598095													8.964796	-0.697482	4.219603	0.435210	-0.809282	0.394530	-0.074635	0.404269	0.911590	-0.897230	-0.426179	0.115542
819	598262													8.837965	-0.689796	4.282680	0.446483	-0.804078	0.392571	-0.075830	0.403149	0.911987	-0.891573	-0.436955	0.119026
820	598428													8.680083	-0.702744	4.369426	0.457465	-0.798937	0.390417	-0.076996	0.401813	0.912479	-0.885888	-0.447488	0.122300
821	598595													8.656754	-0.746567	4.455526	0.468004	-0.793975	0.388042	-0.078109	0.400215	0.913087	-0.880268	-0.457638	0.125285
822	598762													8.686729	-0.798592	4.554002	0.478294	-0.789143	0.385342	-0.079178	0.398250	0.913853	-0.874623	-0.467601	0.127998
823	598928													8.714233	-0.773573	4.638033	0.488549	-0.784392	0.382165	-0.080202	0.395769	0.914841	-0.868843	-0.477595	0.130443
824	599095													8.706041	-0.797013	4.730168	0.498979	-0.779559	0.378560	-0.081078	0.392917	0.915992	-0.862813	-0.487754	0.132853
825	599262													8.663090	-0.791771	4.903143	0.509652	-0.774617	0.374464	-0.081745	0.389667	0.917321	-0.856489	-0.498125	0.135273
826	599428													8.618538	-0.737651	5.021073	0.520583	-0.769457	0.370040	-0.082160	0.386241	0.918731	-0.849849	-0.508678	0.137852
827	599595													8.501321	-0.719129	5.106908	0.531677	-0.764066	0.365409	-0.082379	0.382743	0.920175	-0.842932	-0.519337	0.140553
828	599762													8.384363	-0.676813	5.259576	0.542776	-0.758452	0.360756	-0.082579	0.379259	0.921598	-0.835808	-0.530012	0.143220
829	599928													8.254551	-0.598350	5.354128	0.553715	-0.752635	0.356286	-0.082806	0.375977	0.922922	-0.828579	-0.540538	0.145862
830	600095													8.133309	-0.560167	5.490502	0.564243	-0.746683	0.352270	-0.083210	0.373075	0.924062	-0.821405	-0.550708	0.148373
831	600262													8.035328	-0.610423	5.626466	0.574240	-0.740696	0.348737	-0.083954	0.370449	0.925051	-0.814371	-0.560480	0.150542
832	600428													7.928971	-0.572229	5.793654	0.583500	-0.734810	0.345807	-0.085019	0.368200	0.925851	-0.807651	-0.569634	0.152372
833	600595													7.944068	-0.569362	5.967361	0.592005	-0.729009	0.343620	-0.086233	0.366618	0.926367	-0.801307	-0.578046	0.154175
834	600762													7.869624	-0.710013	6.083740	0.599888	-0.723262	0.342092	-0.087605	0.365622	0.926632	-0.795274	-0.585844	0.155970
835	600928													7.769704	-0.775878	6.207930	0.607052	-0.717810	0.340935	-0.089046	0.364885	0.926785	-0.789658	-0.592965	0.157586
836	601095													7.731261	-0.819010	6.351418	0.613448	-0.712732	0.340139	-0.090462	0.364448	0.926819	-0.784537	-0.599325	0.159094
837	601262													7.680942	-0.907014	6.446395	0.619128	-0.708083	0.339559	-0.091797	0.364177	0.926795	-0.779907	-0.604975	0.160472
838	601428													7.621275	-0.900990	6.520758	0.624099	-0.703958	0.339034	-0.092926	0.363959	0.926768	-0.775800	-0.609900	0.161730
839	601595													7.660677	-0.950509	6.607360	0.628441	-0.700293	0.338603	-0.093754	0.363936	0.926693	-0.772187	-0.614117	0.163057
840	601762													7.637151	-1.005590	6.663985	0.632385	-0.696973	0.338109	-0.094302	0.363955	0.926630	-0.768893	-0.617871	0.164434
841	601928													7.536565	-1.030741	6.693974	0.635908	-0.694079	0.337454	-0.094560	0.363884	0.926632	-0.765950	-0.621162	0.165765
842	602095													7.496631	-0.995160	6.706914	0.638973	-0.691616	0.336720	-0.094538	0.363813	0.926662	-0.763398	-0.623945	0.167083
843	602262													7.465541	-0.968634	6.721972	0.641568	-0.689607	0.335906	-0.094357	0.363635	0.926751	-0.761240	-0.626269	0.168227
844	602428													7.474864	-0.889426	6.683731	0.643837	-0.687893	0.335076	-0.094081	0.363424	0.926861	-0.759357	-0.628272	0.169268
845	602595													7.454845	-0.877166	6.716407	0.645884	-0.686275	0.334456	-0.093847	0.363399	0.926895	-0.757646	-0.630054	0.170309
846	602762													7.444314	-0.911535	6.735128	0.647788	-0.684780	0.333838	-0.093790	0.363191	0.926982	-0.756026	-0.631798	0.171046
847	602928													7.334553	-0.982442	6.720026	0.649457	-0.683507	0.333203	-0.093814	0.362824	0.927123	-0.754589	-0.633385	0.171516
848	603095													7.335951	-1.016662	6.736118	0.650641	-0.682724	0.332499	-0.093481	0.362513	0.927278	-0.753610	-0.634407	0.172044
849	603262													7.434972	-1.202964	6.726962	0.651512	-0.682384	0.331488	-0.092487	0.362248	0.927482	-0.752979	-0.634924	0.172897
850	603428													7.534389	-1.252545	6.734221	0.652441	-0.682397	0.329631	-0.090813	0.361427	0.927967	-0.752379	-0.635378	0.173840
851	603595													7.487642	-1.039692	6.747036	0.653525	-0.682574	0.327105	-0.088544	0.360251	0.928644	-0.751708	-0.635855	0.174995
852	603762													7.459178	-0.818411	6.825216	0.654554	-0.682848	0.324466	-0.085987	0.359152	0.929309	-0.751110	-0.636183	0.176368
853	603928													7.410435	-0.727601	6.848918	0.655362	-0.683144	0.322203	-0.083476	0.358460	0.929806	-0.750688	-0.636255	0.177895
854	604095													7.388212	-0.755002	6.818232	0.655752	-0.683684	0.320259	-0.081092	0.357961	0.930209	-0.750609	-0.635956	0.179292
855	604262													7.395345	-0.690933	6.785553	0.655749	-0.684530	0.318451	-0.078817	0.357426	0.930610	-0.750853	-0.635346	0.180429
856	604428													7.385671	-0.646896	6.728628	0.655299	-0.685665	0.316934	-0.076656	0.357044	0.930937	-0.751470	-0.634337	0.181410
857	604595													7.511494	-0.754818	6.683516	0.654527	-0.687068	0.315486	-0.074322	0.356794	0.931222	-0.752376	-0.632958	0.182467
858	604762													7.591144	-0.672027	6.600923	0.653748	-0.688568	0.313827	-0.071974	0.356263	0.931610	-0.753282	-0.631625	0.183347
859	604928													7.577278	-0.478624	6.514893	0.652981	-0.689999	0.312276	-0.069889	0.355660	0.931999	-0.754142	-0.630402	0.184017
860	605095													7.691594	-0.373812	6.444191	0.652131	-0.691300	0.311174	-0.068271	0.355243	0.932278	-0.755026	-0.629212	0.184469
861	605262													7.728338	-0.246522	6.425559	0.651459	-0.692167	0.310654	-0.067401	0.355044	0.932417	-0.755684	-0.628370	0.184644
862	605428													7.687160	-0.196987	6.421990	0.650973	-0.692492	0.310949	-0.067535	0.355169	0.932359	-0.756091	-0.627941	0.184438
863	605595													7.668713	-0.306056	6.388752	0.650470	-0.692453	0.312085	-0.068554	0.355690	0.932086	-0.756432	-0.627689	0.183896
864	605762													7.675317	-0.521894	6.374600	0.649961	-0.692223	0.313654	-0.069961	0.356467	0.931685	-0.756741	-0.627502	0.183261
865	605928													7.733819	-0.649723	6.377995	0.649481	-0.691887	0.315384	-0.071506	0.357359	0.931226	-0.757009	-0.627365	0.182624
866	606095													7.686007	-0.715038	6.360360	0.649079	-0.691510	0.317035	-0.073074	0.358152	0.930799	-0.757203	-0.627329	0.181937
867	606262													7.702714	-0.735409	6.350055	0.648627	-0.691253	0.318515	-0.074451	0.358858	0.930418	-0.757456	-0.627208	0.181300
868	606428													7.738116	-0.698218	6.367824	0.648261	-0.691015	0.319776	-0.075707	0.359397	0.930109	-0.757645	-0.627162	0.180669
869	606595													7.727682	-0.634752	6.346797	0.647915	-0.690769	0.321005	-0.077020	0.359855	0.929824	-0.757809	-0.627170	0.179952
870	606762													7.707758	-0.599833	6.313402	0.647553	-0.690435	0.322452	-0.078613	0.360367	0.929492	-0.757955	-0.627244	0.179079
