// Start Time: Unknown
// Update Rate: 60.0Hz
//Filter Profile: human (46.1)
// Option Flags: AHS Disabled ICC Disabled
// Firmware Version: 4.0.2
0	sampleTimeFine	Year	Month	Day	Second	UTC_Nano	UTC_Year	UTC_Month	UTC_Day	UTC_Hour	UTC_Minute	UTC_Second	UTC_Valid	Acc_X	Acc_Y	Acc_Z	Mat[1][1]	Mat[2][1]	Mat[3][1]	Mat[1][2]	Mat[2][2]	Mat[3][2]	Mat[1][3]	Mat[2][3]	Mat[3][3]
0	3799358													0.010051	-0.424714	0.446429	0.353597	-0.864386	-0.357499	-0.023242	-0.390190	0.920441	-0.935109	-0.317156	-0.158060
1	3799525													9.195988	-0.237818	3.479196	0.353348	-0.864659	-0.357086	-0.023317	-0.389731	0.920633	-0.935201	-0.316978	-0.157872
2	3799691													9.168622	-0.220714	3.456625	0.353325	-0.864875	-0.356585	-0.023536	-0.389267	0.920824	-0.935205	-0.316957	-0.157894
3	3799858													9.163534	-0.226538	3.482042	0.353228	-0.865142	-0.356032	-0.023525	-0.388657	0.921082	-0.935241	-0.316976	-0.157638
4	3800025													9.172921	-0.210285	3.478044	0.353283	-0.864897	-0.356573	-0.023505	-0.389237	0.920838	-0.935221	-0.316935	-0.157840
5	3800191													9.178055	-0.206803	3.477521	0.353357	-0.864948	-0.356376	-0.023373	-0.388996	0.920943	-0.935197	-0.317092	-0.157671
6	3800358													9.177560	-0.194458	3.457488	0.353441	-0.864685	-0.356931	-0.023161	-0.389530	0.920723	-0.935170	-0.317154	-0.157703
7	3800525													9.169142	-0.205761	3.498131	0.353432	-0.864633	-0.357066	-0.022933	-0.389595	0.920701	-0.935179	-0.317216	-0.157524
8	3800691													9.186869	-0.195776	3.472268	0.353487	-0.864477	-0.357390	-0.022742	-0.389884	0.920583	-0.935163	-0.317286	-0.157479
9	3800858													9.184909	-0.203340	3.488705	0.353474	-0.864493	-0.357363	-0.022566	-0.389794	0.920626	-0.935172	-0.317353	-0.157290
10	3801025													9.185017	-0.197578	3.479460	0.353488	-0.864443	-0.357469	-0.022427	-0.389862	0.920600	-0.935170	-0.317404	-0.157199
11	3801191													9.187917	-0.206644	3.488998	0.353476	-0.864419	-0.357540	-0.022302	-0.389893	0.920590	-0.935178	-0.317433	-0.157096
12	3801358													9.166931	-0.214780	3.462448	0.353464	-0.864255	-0.357949	-0.022182	-0.390286	0.920426	-0.935185	-0.317397	-0.157123
13	3801525													9.174895	-0.195923	3.471421	0.353447	-0.864218	-0.358054	-0.022119	-0.390373	0.920391	-0.935193	-0.317390	-0.157091
14	3801691													9.192337	-0.206497	3.461422	0.353448	-0.864078	-0.358392	-0.022046	-0.390708	0.920251	-0.935194	-0.317360	-0.157144
15	3801858													9.165276	-0.217430	3.484009	0.353438	-0.864017	-0.358547	-0.021972	-0.390847	0.920193	-0.935200	-0.317354	-0.157125
16	3802025													9.185099	-0.191695	3.482818	0.353365	-0.863969	-0.358735	-0.021915	-0.391015	0.920123	-0.935229	-0.317278	-0.157105
17	3802191													9.177031	-0.200361	3.455925	0.353311	-0.863923	-0.358898	-0.021870	-0.391163	0.920061	-0.935250	-0.317219	-0.157096
18	3802358													9.172428	-0.208547	3.462201	0.353245	-0.863846	-0.359150	-0.021823	-0.391404	0.919960	-0.935276	-0.317134	-0.157113
19	3802525													9.206223	-0.181049	3.467387	0.353245	-0.863762	-0.359352	-0.021759	-0.391597	0.919880	-0.935278	-0.317124	-0.157124
20	3802691													9.176548	-0.186052	3.466690	0.353208	-0.863699	-0.359540	-0.021722	-0.391778	0.919803	-0.935293	-0.317072	-0.157141
21	3802858													9.170619	-0.198594	3.483898	0.353143	-0.863654	-0.359711	-0.021707	-0.391943	0.919733	-0.935318	-0.316989	-0.157159
22	3803025													9.182080	-0.201444	3.481030	0.353081	-0.863645	-0.359793	-0.021692	-0.392016	0.919703	-0.935341	-0.316925	-0.157148
23	3803191													9.170147	-0.186975	3.464100	0.352994	-0.863601	-0.359983	-0.021714	-0.392209	0.919620	-0.935374	-0.316804	-0.157200
24	3803358													9.210858	-0.177172	3.496250	0.352959	-0.863532	-0.360184	-0.021719	-0.392419	0.919530	-0.935387	-0.316733	-0.157263
25	3803525													9.154222	-0.183599	3.499119	0.352932	-0.863551	-0.360165	-0.021747	-0.392402	0.919537	-0.935396	-0.316701	-0.157271
26	3803691													9.176284	-0.151180	3.426021	0.352843	-0.863459	-0.360472	-0.021718	-0.392704	0.919408	-0.935430	-0.316578	-0.157315
27	3803858													9.186715	-0.170878	3.413554	0.352868	-0.863427	-0.360525	-0.021704	-0.392760	0.919385	-0.935421	-0.316597	-0.157332
28	3804025													9.248584	-0.179104	3.439067	0.352934	-0.863451	-0.360403	-0.021814	-0.392679	0.919417	-0.935394	-0.316632	-0.157425
29	3804191													9.207912	-0.230030	3.492764	0.353205	-0.863399	-0.360260	-0.021933	-0.392616	0.919441	-0.935289	-0.316850	-0.157611
30	3804358													9.129628	-0.192564	3.548102	0.353335	-0.863381	-0.360178	-0.021957	-0.392560	0.919464	-0.935239	-0.316970	-0.157662
31	3804525													9.178932	-0.187876	3.486552	0.353271	-0.863396	-0.360203	-0.022043	-0.392604	0.919443	-0.935261	-0.316873	-0.157727
32	3804691													9.166516	-0.228491	3.480068	0.353211	-0.863334	-0.360411	-0.022156	-0.392853	0.919334	-0.935281	-0.316734	-0.157889
33	3804858													9.164404	-0.210395	3.513784	0.353122	-0.863282	-0.360624	-0.022256	-0.393098	0.919227	-0.935313	-0.316573	-0.158025
34	3805025													9.160619	-0.198257	3.496805	0.353029	-0.863272	-0.360738	-0.022368	-0.393241	0.919163	-0.935345	-0.316422	-0.158135
35	3805191													9.149331	-0.212427	3.496055	0.352983	-0.863255	-0.360823	-0.022449	-0.393351	0.919114	-0.935361	-0.316331	-0.158225
36	3805358													9.158037	-0.188362	3.479485	0.352911	-0.863251	-0.360905	-0.022462	-0.393429	0.919081	-0.935387	-0.316247	-0.158236
37	3805525													9.173322	-0.176829	3.470024	0.352791	-0.863233	-0.361064	-0.022473	-0.393580	0.919015	-0.935432	-0.316107	-0.158251
38	3805691													9.170769	-0.188641	3.456998	0.352741	-0.863209	-0.361170	-0.022504	-0.393694	0.918966	-0.935450	-0.316029	-0.158298
39	3805858													9.192530	-0.190723	3.483973	0.352695	-0.863183	-0.361276	-0.022544	-0.393813	0.918914	-0.935467	-0.315952	-0.158356
40	3806025													9.199392	-0.196756	3.488679	0.352668	-0.863240	-0.361168	-0.022560	-0.393699	0.918963	-0.935477	-0.315941	-0.158320
41	3806191													9.168888	-0.217519	3.504744	0.352550	-0.863303	-0.361133	-0.022569	-0.393643	0.918986	-0.935521	-0.315838	-0.158263
42	3806358													9.174417	-0.207376	3.460263	0.352293	-0.863338	-0.361299	-0.022542	-0.393765	0.918935	-0.935618	-0.315590	-0.158182
43	3806525													9.228662	-0.181397	3.425333	0.352077	-0.863486	-0.361155	-0.022492	-0.393555	0.919026	-0.935701	-0.315445	-0.157983
44	3806691													9.205922	-0.201405	3.431894	0.351890	-0.863540	-0.361209	-0.022539	-0.393595	0.919007	-0.935770	-0.315249	-0.157966
45	3806858													9.194633	-0.205299	3.438052	0.351811	-0.863559	-0.361241	-0.022546	-0.393618	0.918998	-0.935800	-0.315169	-0.157949
46	3807025													9.201163	-0.200593	3.439396	0.351721	-0.863598	-0.361234	-0.022507	-0.393581	0.919015	-0.935834	-0.315106	-0.157867
47	3807191													9.205065	-0.171316	3.484107	0.351623	-0.863574	-0.361388	-0.022490	-0.393721	0.918955	-0.935871	-0.314998	-0.157864
48	3807358													9.163176	-0.208376	3.473571	0.351443	-0.863686	-0.361297	-0.022499	-0.393594	0.919009	-0.935939	-0.314850	-0.157758
49	3807525													9.193005	-0.195409	3.465745	0.351316	-0.863744	-0.361280	-0.022507	-0.393557	0.919025	-0.935987	-0.314736	-0.157703
50	3807691													9.170444	-0.201384	3.464222	0.351116	-0.863787	-0.361372	-0.022541	-0.393631	0.918992	-0.936060	-0.314527	-0.157681
51	3807858													9.201810	-0.204917	3.467523	0.350962	-0.863826	-0.361428	-0.022575	-0.393673	0.918973	-0.936118	-0.314365	-0.157665
52	3808025													9.208002	-0.202255	3.465279	0.350792	-0.863834	-0.361574	-0.022642	-0.393821	0.918908	-0.936180	-0.314158	-0.157708
53	3808191													9.204496	-0.207888	3.497016	0.350669	-0.863932	-0.361460	-0.022730	-0.393707	0.918955	-0.936224	-0.314033	-0.157698
54	3808358													9.181201	-0.185487	3.471242	0.350541	-0.863984	-0.361459	-0.022805	-0.393709	0.918952	-0.936270	-0.313887	-0.157714
55	3808525													9.178800	-0.208049	3.457522	0.350466	-0.863973	-0.361558	-0.022884	-0.393827	0.918900	-0.936296	-0.313769	-0.157794
56	3808691													9.162400	-0.210456	3.480741	0.350381	-0.863996	-0.361586	-0.022937	-0.393859	0.918885	-0.936327	-0.313666	-0.157818
57	3808858													9.174652	-0.199313	3.475069	0.350261	-0.864039	-0.361599	-0.022962	-0.393859	0.918884	-0.936371	-0.313547	-0.157793
58	3809025													9.205165	-0.183550	3.471196	0.350119	-0.864068	-0.361667	-0.023008	-0.393922	0.918856	-0.936423	-0.313387	-0.157800
59	3809191													9.177116	-0.193237	3.464438	0.350010	-0.864054	-0.361806	-0.023038	-0.394060	0.918796	-0.936463	-0.313252	-0.157831
60	3809358													9.171659	-0.191797	3.454907	0.349889	-0.864094	-0.361828	-0.023079	-0.394076	0.918788	-0.936507	-0.313124	-0.157825
61	3809525													9.191836	-0.193845	3.472494	0.349769	-0.864184	-0.361729	-0.023136	-0.393968	0.918833	-0.936550	-0.313011	-0.157792
62	3809691													9.206542	-0.199188	3.468896	0.349652	-0.864239	-0.361711	-0.023192	-0.393946	0.918841	-0.936593	-0.312886	-0.157787
63	3809858													9.190749	-0.186821	3.459233	0.349479	-0.864362	-0.361584	-0.023216	-0.393789	0.918908	-0.936656	-0.312744	-0.157688
64	3810025													9.175532	-0.193033	3.450750	0.349355	-0.864445	-0.361504	-0.023228	-0.393686	0.918952	-0.936702	-0.312644	-0.157616
65	3810191													9.182167	-0.212555	3.446126	0.349212	-0.864536	-0.361427	-0.023268	-0.393591	0.918991	-0.936755	-0.312513	-0.157562
66	3810358													9.200033	-0.224475	3.445927	0.349103	-0.864563	-0.361466	-0.023280	-0.393618	0.918979	-0.936795	-0.312403	-0.157540
67	3810525													9.182262	-0.197825	3.458257	0.348933	-0.864717	-0.361262	-0.023293	-0.393374	0.919083	-0.936858	-0.312283	-0.157403
68	3810692													9.195398	-0.189219	3.435073	0.348779	-0.864810	-0.361189	-0.023274	-0.393263	0.919131	-0.936916	-0.312168	-0.157289
69	3810858													9.183600	-0.193448	3.448118	0.348696	-0.864884	-0.361090	-0.023256	-0.393137	0.919186	-0.936947	-0.312119	-0.157199
70	3811025													9.187021	-0.208340	3.421065	0.348520	-0.864927	-0.361158	-0.023255	-0.393177	0.919169	-0.937013	-0.311950	-0.157144
71	3811192													9.210015	-0.194380	3.411738	0.348367	-0.865066	-0.360973	-0.023228	-0.392945	0.919269	-0.937070	-0.311859	-0.156983
72	3811358													9.176648	-0.187944	3.453472	0.348253	-0.865083	-0.361042	-0.023168	-0.392978	0.919256	-0.937114	-0.311769	-0.156898
73	3811525													9.210079	-0.195187	3.455595	0.348067	-0.865248	-0.360825	-0.023137	-0.392704	0.919374	-0.937184	-0.311655	-0.156707
74	3811692													9.216890	-0.190308	3.428613	0.347951	-0.865336	-0.360727	-0.023138	-0.392580	0.919427	-0.937227	-0.311569	-0.156621
75	3811858													9.182924	-0.193873	3.428392	0.347847	-0.865403	-0.360667	-0.023146	-0.392500	0.919461	-0.937266	-0.311484	-0.156560
76	3812025													9.180829	-0.184880	3.435229	0.347715	-0.865423	-0.360746	-0.023100	-0.392545	0.919443	-0.937316	-0.311370	-0.156485
77	3812192													9.203234	-0.178928	3.446055	0.347646	-0.865438	-0.360776	-0.023085	-0.392560	0.919437	-0.937342	-0.311310	-0.156450
78	3812358													9.200219	-0.174079	3.445930	0.347654	-0.865411	-0.360832	-0.023117	-0.392632	0.919405	-0.937338	-0.311294	-0.156506
79	3812525													9.194822	-0.177115	3.395351	0.347584	-0.865484	-0.360726	-0.023128	-0.392510	0.919457	-0.937364	-0.311246	-0.156447
80	3812692													9.192472	-0.168204	3.394937	0.347555	-0.865521	-0.360664	-0.023119	-0.392436	0.919489	-0.937375	-0.311235	-0.156403
81	3812858													9.272507	-0.189156	3.399228	0.347562	-0.865552	-0.360584	-0.023207	-0.392382	0.919510	-0.937370	-0.311219	-0.156464
82	3813025													9.280935	-0.226512	3.422913	0.347812	-0.865523	-0.360412	-0.023362	-0.392294	0.919543	-0.937273	-0.311408	-0.156665
83	3813192													9.152655	-0.201225	3.527156	0.348166	-0.865465	-0.360209	-0.023449	-0.392171	0.919593	-0.937140	-0.311724	-0.156835
84	3813358													9.119431	-0.177144	3.525622	0.348170	-0.865534	-0.360040	-0.023479	-0.392002	0.919665	-0.937137	-0.311747	-0.156805
85	3813525													9.143497	-0.199112	3.507058	0.348085	-0.865613	-0.359933	-0.023592	-0.391910	0.919701	-0.937166	-0.311642	-0.156839
86	3813692													9.170891	-0.233687	3.476692	0.348039	-0.865674	-0.359830	-0.023727	-0.391838	0.919728	-0.937180	-0.311564	-0.156914
87	3813858													9.173152	-0.198341	3.435339	0.348014	-0.865684	-0.359829	-0.023798	-0.391856	0.919719	-0.937187	-0.311512	-0.156973
88	3814025													9.160351	-0.187665	3.485325	0.348033	-0.865713	-0.359743	-0.023897	-0.391801	0.919740	-0.937178	-0.311503	-0.157048
89	3814192													9.170486	-0.198258	3.451276	0.348056	-0.865703	-0.359743	-0.023966	-0.391828	0.919726	-0.937167	-0.311495	-0.157125
90	3814358													9.187712	-0.187517	3.452454	0.347977	-0.865729	-0.359757	-0.023995	-0.391838	0.919721	-0.937196	-0.311409	-0.157124
91	3814525													9.201524	-0.173943	3.437880	0.347942	-0.865761	-0.359715	-0.024060	-0.391809	0.919732	-0.937207	-0.311358	-0.157157
92	3814692													9.193195	-0.178406	3.463078	0.347992	-0.865739	-0.359719	-0.024123	-0.391843	0.919716	-0.937187	-0.311377	-0.157242
93	3814858													9.218908	-0.207005	3.484828	0.348013	-0.865718	-0.359749	-0.024159	-0.391891	0.919694	-0.937179	-0.311374	-0.157298
94	3815025													9.204460	-0.188384	3.479396	0.348004	-0.865732	-0.359725	-0.024185	-0.391872	0.919702	-0.937181	-0.311359	-0.157311
95	3815192													9.160881	-0.198594	3.472093	0.347885	-0.865776	-0.359733	-0.024209	-0.391867	0.919703	-0.937225	-0.311242	-0.157284
96	3815358													9.198750	-0.192934	3.419430	0.347680	-0.865809	-0.359852	-0.024172	-0.391945	0.919671	-0.937302	-0.311053	-0.157200
97	3815525													9.201681	-0.213525	3.417731	0.347633	-0.865828	-0.359852	-0.024220	-0.391953	0.919666	-0.937318	-0.310991	-0.157226
98	3815692													9.199185	-0.221550	3.397218	0.347599	-0.865862	-0.359804	-0.024275	-0.391914	0.919682	-0.937329	-0.310946	-0.157248
99	3815858													9.179062	-0.208529	3.441656	0.347649	-0.865828	-0.359836	-0.024230	-0.391942	0.919671	-0.937312	-0.311004	-0.157238
100	3816025													9.225614	-0.182193	3.460653	0.347639	-0.865815	-0.359877	-0.024210	-0.391977	0.919656	-0.937316	-0.310996	-0.157228
101	3816192													9.218798	-0.187908	3.422752	0.347695	-0.865797	-0.359865	-0.024199	-0.391971	0.919659	-0.937295	-0.311053	-0.157238
102	3816358													9.194458	-0.206676	3.450196	0.347824	-0.865734	-0.359892	-0.024187	-0.392019	0.919639	-0.937248	-0.311168	-0.157293
103	3816525													9.187265	-0.176725	3.456851	0.347864	-0.865675	-0.359996	-0.024187	-0.392135	0.919589	-0.937233	-0.311185	-0.157348
104	3816692													9.194201	-0.192629	3.457720	0.347840	-0.865691	-0.359979	-0.024256	-0.392137	0.919587	-0.937240	-0.311138	-0.157399
105	3816858													9.194873	-0.202367	3.422119	0.347777	-0.865731	-0.359945	-0.024333	-0.392114	0.919595	-0.937261	-0.311056	-0.157434
106	3817025													9.241646	-0.214855	3.411752	0.347800	-0.865758	-0.359858	-0.024463	-0.392069	0.919610	-0.937250	-0.311037	-0.157541
107	3817192													9.198445	-0.209233	3.456887	0.347993	-0.865716	-0.359773	-0.024570	-0.392049	0.919616	-0.937175	-0.311180	-0.157701
108	3817358													9.168233	-0.208525	3.458099	0.348154	-0.865653	-0.359769	-0.024642	-0.392098	0.919593	-0.937114	-0.311294	-0.157842
109	3817525													9.161180	-0.185097	3.465688	0.348215	-0.865626	-0.359775	-0.024728	-0.392144	0.919571	-0.937088	-0.311312	-0.157956
110	3817692													9.194718	-0.200489	3.438899	0.348216	-0.865631	-0.359763	-0.024807	-0.392157	0.919564	-0.937086	-0.311282	-0.158028
111	3817858													9.199683	-0.204250	3.435126	0.348368	-0.865545	-0.359821	-0.024846	-0.392259	0.919519	-0.937028	-0.311391	-0.158156
112	3818025													9.174812	-0.186552	3.454038	0.348510	-0.865458	-0.359892	-0.024882	-0.392372	0.919470	-0.936975	-0.311490	-0.158280
113	3818192													9.172475	-0.182907	3.484601	0.348645	-0.865370	-0.359975	-0.024933	-0.392501	0.919414	-0.936923	-0.311574	-0.158420
114	3818358													9.165441	-0.182061	3.471424	0.348707	-0.865349	-0.359964	-0.024984	-0.392518	0.919405	-0.936899	-0.311610	-0.158494
115	3818525													9.181347	-0.187930	3.454076	0.348688	-0.865361	-0.359955	-0.025026	-0.392519	0.919403	-0.936905	-0.311577	-0.158523
116	3818692													9.179545	-0.193401	3.465310	0.348732	-0.865332	-0.359980	-0.025042	-0.392558	0.919386	-0.936888	-0.311605	-0.158567
117	3818858													9.189043	-0.188834	3.469800	0.348761	-0.865323	-0.359973	-0.025081	-0.392569	0.919380	-0.936876	-0.311616	-0.158616
118	3819025													9.173293	-0.199113	3.464476	0.348819	-0.865283	-0.360014	-0.025069	-0.392619	0.919359	-0.936855	-0.311665	-0.158645
119	3819192													9.168122	-0.188602	3.490450	0.348888	-0.865247	-0.360035	-0.025030	-0.392640	0.919351	-0.936830	-0.311739	-0.158644
120	3819358													9.170011	-0.192800	3.494090	0.348934	-0.865231	-0.360028	-0.025017	-0.392637	0.919353	-0.936813	-0.311787	-0.158650
121	3819525													9.188066	-0.208743	3.471832	0.348943	-0.865226	-0.360031	-0.025005	-0.392638	0.919353	-0.936810	-0.311799	-0.158643
122	3819692													9.175600	-0.199220	3.486505	0.348994	-0.865204	-0.360034	-0.024983	-0.392643	0.919351	-0.936792	-0.311853	-0.158646
123	3819858													9.165565	-0.185827	3.505724	0.348989	-0.865224	-0.359992	-0.024993	-0.392602	0.919369	-0.936793	-0.311853	-0.158638
124	3820025													9.210296	-0.188602	3.481359	0.349014	-0.865247	-0.359913	-0.025018	-0.392530	0.919399	-0.936784	-0.311879	-0.158645
125	3820192													9.189466	-0.203272	3.487968	0.349114	-0.865256	-0.359794	-0.025054	-0.392433	0.919439	-0.936745	-0.311974	-0.158682
126	3820358													9.184333	-0.204727	3.465091	0.349125	-0.865236	-0.359830	-0.025039	-0.392469	0.919424	-0.936742	-0.311984	-0.158686
127	3820525													9.187649	-0.181793	3.449277	0.349127	-0.865185	-0.359952	-0.024983	-0.392580	0.919379	-0.936742	-0.311987	-0.158675
128	3820692													9.235556	-0.185755	3.463571	0.349218	-0.865145	-0.359958	-0.024956	-0.392594	0.919373	-0.936709	-0.312079	-0.158691
129	3820858													9.208297	-0.191931	3.427899	0.349406	-0.865089	-0.359911	-0.024985	-0.392588	0.919375	-0.936638	-0.312242	-0.158787
130	3821025													9.193113	-0.172273	3.396753	0.349612	-0.865051	-0.359803	-0.024944	-0.392496	0.919415	-0.936562	-0.312464	-0.158799
131	3821192													9.213853	-0.173839	3.393439	0.349914	-0.865035	-0.359548	-0.024952	-0.392282	0.919507	-0.936449	-0.312777	-0.158849
132	3821358													9.290357	-0.186042	3.438897	0.350283	-0.864994	-0.359288	-0.025063	-0.392109	0.919577	-0.936308	-0.313108	-0.159029
133	3821525													9.269249	-0.223765	3.470588	0.350851	-0.864931	-0.358885	-0.025247	-0.391845	0.919685	-0.936091	-0.313611	-0.159316
134	3821692													9.143418	-0.209232	3.541039	0.351525	-0.864855	-0.358408	-0.025349	-0.391494	0.919831	-0.935835	-0.314258	-0.159544
135	3821858													9.164623	-0.182765	3.499852	0.352000	-0.864867	-0.357912	-0.025455	-0.391089	0.920001	-0.935654	-0.314730	-0.159679
136	3822025													9.175654	-0.180239	3.520813	0.352565	-0.864940	-0.357179	-0.025637	-0.390473	0.920257	-0.935436	-0.315294	-0.159842
137	3822192													9.182944	-0.212888	3.492795	0.353315	-0.865063	-0.356138	-0.025852	-0.389574	0.920632	-0.935147	-0.316066	-0.160006
138	3822358													9.200776	-0.227426	3.472824	0.354287	-0.865140	-0.354983	-0.025993	-0.388570	0.921053	-0.934776	-0.317090	-0.160153
139	3822525													9.177380	-0.205100	3.493120	0.355612	-0.865020	-0.353951	-0.026081	-0.387742	0.921399	-0.934270	-0.318429	-0.160446
140	3822692													9.132628	-0.228609	3.584219	0.356984	-0.864686	-0.353386	-0.026064	-0.387386	0.921549	-0.933747	-0.319767	-0.160828
141	3822858													9.107436	-0.208631	3.573230	0.358062	-0.864454	-0.352860	-0.025982	-0.386995	0.921716	-0.933336	-0.320864	-0.161028
142	3823025													9.203519	-0.199050	3.490194	0.359231	-0.864161	-0.352391	-0.025924	-0.386690	0.921845	-0.932889	-0.322020	-0.161314
143	3823192													9.245398	-0.202880	3.532104	0.360842	-0.863675	-0.351936	-0.025896	-0.386493	0.921929	-0.932268	-0.323556	-0.161829
144	3823358													9.213648	-0.207056	3.552609	0.362747	-0.863087	-0.351418	-0.025863	-0.386283	0.922018	-0.931529	-0.325371	-0.162445
145	3823525													9.158272	-0.199835	3.623653	0.364716	-0.862447	-0.350952	-0.025863	-0.386152	0.922073	-0.930760	-0.327218	-0.163141
146	3823692													9.141359	-0.179931	3.609833	0.366599	-0.861814	-0.350545	-0.025888	-0.386080	0.922102	-0.930019	-0.328967	-0.163847
147	3823858													9.207145	-0.191938	3.565551	0.368623	-0.860964	-0.350512	-0.025785	-0.386390	0.921975	-0.929221	-0.330824	-0.164632
148	3824025													9.144139	-0.214630	3.664635	0.370950	-0.859845	-0.350802	-0.025715	-0.387120	0.921671	-0.928297	-0.332872	-0.165713
149	3824192													9.098736	-0.192499	3.753783	0.373128	-0.858963	-0.350655	-0.025812	-0.387415	0.921544	-0.927421	-0.334803	-0.166726
150	3824358													9.086227	-0.194794	3.656404	0.375087	-0.858391	-0.349964	-0.025937	-0.387098	0.921674	-0.926627	-0.336631	-0.167460
151	3824525													9.235676	-0.166491	3.583791	0.377285	-0.857558	-0.349642	-0.026010	-0.387207	0.921626	-0.925732	-0.338622	-0.168392
152	3824692													9.201630	-0.182395	3.594229	0.380027	-0.856333	-0.349677	-0.026182	-0.387846	0.921352	-0.924605	-0.340983	-0.169813
153	3824858													9.190241	-0.194375	3.711141	0.383109	-0.854869	-0.349894	-0.026290	-0.388733	0.920975	-0.923329	-0.343635	-0.171402
154	3825025													9.128734	-0.177396	3.759535	0.386552	-0.853261	-0.350034	-0.026478	-0.389647	0.920584	-0.921887	-0.346585	-0.173212
155	3825192													9.088066	-0.187588	3.833038	0.390154	-0.851535	-0.350240	-0.026749	-0.390707	0.920126	-0.920361	-0.349622	-0.175214
156	3825358													9.067678	-0.207236	3.873972	0.393974	-0.849741	-0.350320	-0.027106	-0.391723	0.919684	-0.918722	-0.352836	-0.177361
157	3825525													9.108201	-0.218461	3.851188	0.398091	-0.847642	-0.350751	-0.027241	-0.393109	0.919088	-0.916941	-0.356326	-0.179583
158	3825692													9.069517	-0.216440	3.914982	0.402613	-0.845414	-0.350966	-0.027478	-0.394403	0.918527	-0.914958	-0.360167	-0.182022
159	3825858													9.024715	-0.211358	4.042711	0.407457	-0.843214	-0.350669	-0.027747	-0.395243	0.918157	-0.912803	-0.364379	-0.184441
160	3826025													8.979164	-0.232266	4.111253	0.412537	-0.841247	-0.349453	-0.028204	-0.395229	0.918150	-0.910504	-0.368914	-0.186773
161	3826192													8.941121	-0.262580	4.183439	0.417692	-0.839412	-0.347737	-0.028652	-0.394701	0.918363	-0.908137	-0.373629	-0.188914
162	3826358													9.518079	-0.411223	3.799093	0.421324	-0.838782	-0.344863	-0.029723	-0.392828	0.919131	-0.906423	-0.377001	-0.190439
163	3826525													9.534247	-0.383517	3.738009	0.426170	-0.836761	-0.343818	-0.031302	-0.393471	0.918804	-0.904101	-0.380804	-0.193878
164	3826692													8.512539	-0.167004	4.407530	0.431891	-0.834598	-0.341929	-0.032455	-0.393245	0.918861	-0.901341	-0.385751	-0.196927
165	3826858													8.647331	-0.260137	4.332063	0.437080	-0.832593	-0.340219	-0.033498	-0.393071	0.918898	-0.898798	-0.390235	-0.199694
166	3827025													8.705649	-0.279837	4.339073	0.442704	-0.830096	-0.339049	-0.034059	-0.393416	0.918730	-0.896021	-0.395178	-0.202439
167	3827192													8.866406	-0.291428	4.190343	0.448462	-0.827355	-0.338179	-0.034391	-0.394052	0.918444	-0.893140	-0.400257	-0.205171
168	3827359													8.833805	-0.260767	4.280689	0.454602	-0.824456	-0.337061	-0.034740	-0.394549	0.918218	-0.890017	-0.405714	-0.208005
169	3827525													8.695053	-0.252189	4.437557	0.460567	-0.821475	-0.336238	-0.035010	-0.395324	0.917874	-0.886934	-0.410971	-0.210834
170	3827692													8.652950	-0.277694	4.572402	0.466608	-0.818443	-0.335303	-0.035369	-0.396066	0.917541	-0.883757	-0.416273	-0.213756
171	3827859													8.455120	-0.302289	4.679265	0.472695	-0.815401	-0.334187	-0.035800	-0.396686	0.917256	-0.880498	-0.421619	-0.216703
172	3828025													8.117906	-0.337358	4.751266	0.478608	-0.811869	-0.334369	-0.035758	-0.398525	0.916460	-0.877300	-0.426668	-0.219768
173	3828192													8.980732	-0.315654	4.708534	0.483155	-0.809213	-0.334269	-0.035799	-0.399728	0.915935	-0.874803	-0.430572	-0.222099
174	3828359													8.802864	-0.302732	4.673581	0.488972	-0.806119	-0.333283	-0.035973	-0.400384	0.915641	-0.871557	-0.435734	-0.224775
175	3828525													8.612331	-0.265209	4.881550	0.494773	-0.803222	-0.331714	-0.036337	-0.400498	0.915577	-0.868262	-0.440949	-0.227342
176	3828692													8.395520	-0.296995	5.036023	0.500661	-0.800257	-0.330041	-0.036737	-0.400566	0.915531	-0.864863	-0.446246	-0.229947
177	3828859													8.317306	-0.333581	5.129789	0.506233	-0.797492	-0.328228	-0.037101	-0.400387	0.915595	-0.861598	-0.451327	-0.232277
178	3829025													8.307021	-0.352661	5.117959	0.511729	-0.794656	-0.326582	-0.037274	-0.400300	0.915626	-0.858338	-0.456379	-0.234466
179	3829192													8.302770	-0.299962	5.098241	0.517506	-0.791553	-0.325010	-0.037293	-0.400330	0.915612	-0.854867	-0.461714	-0.236692
180	3829359													8.408322	-0.327229	5.011957	0.523788	-0.788114	-0.323301	-0.037349	-0.400410	0.915574	-0.851030	-0.467492	-0.239165
181	3829525													8.532297	-0.367886	5.175408	0.530521	-0.784372	-0.321415	-0.037498	-0.400519	0.915521	-0.846842	-0.473650	-0.241896
182	3829692													8.223744	-0.371909	5.412537	0.537666	-0.780368	-0.319284	-0.037713	-0.400555	0.915496	-0.842314	-0.480190	-0.244795
183	3829859													7.972894	-0.303807	5.585379	0.544013	-0.776702	-0.317465	-0.037888	-0.400703	0.915424	-0.838221	-0.485974	-0.247415
184	3830025													8.048049	-0.316917	5.563690	0.549707	-0.773424	-0.315655	-0.038213	-0.400754	0.915388	-0.834483	-0.491133	-0.249852
185	3830192													8.102705	-0.303624	5.579755	0.555457	-0.770110	-0.313685	-0.038623	-0.400717	0.915387	-0.830648	-0.496343	-0.252325
186	3830359													8.030974	-0.336370	5.546524	0.561415	-0.766662	-0.311515	-0.039105	-0.400595	0.915420	-0.826610	-0.501749	-0.254881
187	3830525													8.143402	-0.313501	5.555252	0.567391	-0.762887	-0.309952	-0.039390	-0.401121	0.915178	-0.822506	-0.507055	-0.257643
188	3830692													8.088894	-0.337389	5.606774	0.573877	-0.758951	-0.307667	-0.039680	-0.401017	0.915211	-0.817979	-0.513010	-0.260249
189	3830859													7.962657	-0.332797	5.832357	0.580595	-0.754542	-0.305902	-0.039800	-0.401564	0.914966	-0.813219	-0.519049	-0.263177
190	3831025													7.908626	-0.295335	5.851975	0.587479	-0.750004	-0.303911	-0.040153	-0.402104	0.914713	-0.808243	-0.525172	-0.266343
191	3831192													7.806417	-0.354513	5.912321	0.594484	-0.745340	-0.301757	-0.040608	-0.402619	0.914467	-0.803082	-0.531382	-0.269617
192	3831359													7.779162	-0.361786	5.953184	0.601498	-0.740587	-0.299551	-0.041047	-0.403122	0.914225	-0.797819	-0.537609	-0.272876
193	3831525													7.814309	-0.338692	5.979819	0.608384	-0.735883	-0.297231	-0.041662	-0.403611	0.913982	-0.792549	-0.543668	-0.276209
194	3831692													7.764668	-0.342986	6.054805	0.615283	-0.731155	-0.294685	-0.042396	-0.403971	0.913789	-0.787165	-0.549745	-0.279555
195	3831859													7.725054	-0.335349	6.000584	0.622228	-0.726185	-0.292384	-0.042902	-0.404564	0.913503	-0.781660	-0.555863	-0.282886
196	3832025													7.663581	-0.317841	6.121568	0.629560	-0.720832	-0.289923	-0.043456	-0.405239	0.913177	-0.775736	-0.562301	-0.286447
197	3832192													7.604990	-0.368672	6.176776	0.637257	-0.715161	-0.287138	-0.044159	-0.405866	0.912865	-0.769385	-0.569050	-0.290222
198	3832359													7.514994	-0.460390	6.140474	0.645300	-0.708933	-0.284607	-0.044710	-0.406967	0.912348	-0.762620	-0.576013	-0.294312
199	3832525													7.736062	-0.189802	6.307617	0.653902	-0.702164	-0.281740	-0.045317	-0.408068	0.911826	-0.755221	-0.583477	-0.298657
200	3832692													7.195204	-0.292302	6.640248	0.663347	-0.694750	-0.278017	-0.046111	-0.408769	0.911472	-0.746890	-0.591803	-0.303191
201	3832859													7.102861	-0.361774	6.630002	0.671632	-0.688255	-0.274255	-0.047012	-0.409016	0.911315	-0.739392	-0.599175	-0.307064
202	3833025													6.961874	-0.470821	6.628664	0.679086	-0.682214	-0.270974	-0.047539	-0.409242	0.911187	-0.732518	-0.605892	-0.310342
203	3833192													7.285733	-0.460242	6.461998	0.685709	-0.676678	-0.268161	-0.047942	-0.409603	0.911003	-0.726295	-0.611827	-0.313310
204	3833359													7.113589	-0.444918	6.629516	0.692061	-0.671298	-0.265350	-0.048383	-0.409916	0.910839	-0.720216	-0.617517	-0.316166
205	3833525													6.903141	-0.461164	6.758146	0.697982	-0.666155	-0.262791	-0.048797	-0.410358	0.910618	-0.714451	-0.622772	-0.318929
206	3833692													6.711946	-0.467861	6.894385	0.702981	-0.661661	-0.260811	-0.049077	-0.410971	0.910327	-0.709513	-0.627143	-0.321377
207	3833859													6.655177	-0.518165	7.000567	0.707263	-0.657705	-0.259236	-0.049214	-0.411612	0.910029	-0.705236	-0.630872	-0.323486
208	3834025													6.650063	-0.518192	7.085630	0.710541	-0.654593	-0.258145	-0.049212	-0.412193	0.909766	-0.701932	-0.633723	-0.325094
209	3834192													6.707053	-0.508069	7.144757	0.713090	-0.652096	-0.257435	-0.049087	-0.412741	0.909525	-0.699352	-0.635936	-0.326331
210	3834359													6.656615	-0.504667	7.165278	0.715091	-0.650083	-0.256977	-0.048861	-0.413202	0.909328	-0.697322	-0.637696	-0.327241
211	3834525													6.549470	-0.498173	7.206703	0.716511	-0.648539	-0.256922	-0.048456	-0.413690	0.909127	-0.695890	-0.638951	-0.327839
212	3834692													6.541302	-0.490330	7.172964	0.717534	-0.647325	-0.257129	-0.048029	-0.414265	0.908888	-0.694866	-0.639809	-0.328339
213	3834859													6.556715	-0.461940	7.186371	0.718242	-0.646409	-0.257457	-0.047636	-0.414834	0.908649	-0.694161	-0.640366	-0.328743
214	3835025													6.626285	-0.455452	7.176559	0.718722	-0.645746	-0.257781	-0.047281	-0.415282	0.908463	-0.693688	-0.640745	-0.329004
215	3835192													6.610750	-0.432808	7.200451	0.719167	-0.645081	-0.258204	-0.046898	-0.415819	0.908237	-0.693253	-0.641065	-0.329296
216	3835359													6.591462	-0.463861	7.189085	0.719518	-0.644496	-0.258686	-0.046503	-0.416369	0.908006	-0.692915	-0.641297	-0.329556
217	3835525													6.545439	-0.454390	7.219624	0.719779	-0.643955	-0.259307	-0.046078	-0.417026	0.907726	-0.692672	-0.641414	-0.329839
218	3835692													6.599463	-0.425940	7.209676	0.719918	-0.643501	-0.260047	-0.045630	-0.417748	0.907416	-0.692557	-0.641400	-0.330107
219	3835859													6.605139	-0.434492	7.231481	0.720046	-0.643036	-0.260841	-0.045205	-0.418560	0.907063	-0.692453	-0.641336	-0.330451
220	3836025													6.618369	-0.417831	7.219098	0.720058	-0.642703	-0.261628	-0.044825	-0.419326	0.906729	-0.692464	-0.641170	-0.330748
221	3836192													6.577295	-0.386109	7.209706	0.720053	-0.642364	-0.262474	-0.044438	-0.420158	0.906362	-0.692495	-0.640965	-0.331082
222	3836359													6.631257	-0.387351	7.174971	0.719843	-0.642209	-0.263425	-0.044047	-0.420997	0.905992	-0.692738	-0.640569	-0.331339
223	3836525													6.674192	-0.391944	7.141135	0.719624	-0.642111	-0.264262	-0.043697	-0.421706	0.905679	-0.692987	-0.640201	-0.331528
224	3836692													6.730877	-0.377708	7.154186	0.719329	-0.642072	-0.265157	-0.043336	-0.422437	0.905356	-0.693316	-0.639758	-0.331696
225	3836859													6.758238	-0.359872	7.125558	0.718924	-0.642214	-0.265912	-0.043052	-0.422965	0.905123	-0.693754	-0.639266	-0.331729
226	3837025													6.805951	-0.363189	7.077206	0.718698	-0.642216	-0.266519	-0.042799	-0.423435	0.904915	-0.694004	-0.638953	-0.331808
227	3837192													6.831645	-0.370412	7.074378	0.718655	-0.642073	-0.266980	-0.042564	-0.423840	0.904737	-0.694063	-0.638829	-0.331924
228	3837359													6.778866	-0.429201	7.107800	0.718495	-0.642063	-0.267431	-0.042389	-0.424205	0.904573	-0.694239	-0.638596	-0.332006
229	3837525													6.833078	-0.401632	7.061555	0.718198	-0.642073	-0.268206	-0.041989	-0.424730	0.904346	-0.694571	-0.638238	-0.332000
230	3837692													6.838612	-0.351830	7.068882	0.717782	-0.642207	-0.268996	-0.041639	-0.425242	0.904122	-0.695022	-0.637761	-0.331972
231	3837859													6.840075	-0.369835	7.056288	0.717361	-0.642419	-0.269613	-0.041357	-0.425567	0.903981	-0.695473	-0.637331	-0.331854
232	3838025													6.808093	-0.371171	7.048339	0.716991	-0.642559	-0.270262	-0.041034	-0.425937	0.903822	-0.695873	-0.636942	-0.331760
233	3838192													6.826293	-0.360171	7.023297	0.716711	-0.642597	-0.270916	-0.040724	-0.426385	0.903625	-0.696181	-0.636605	-0.331763
234	3838359													6.836803	-0.374351	7.004020	0.716612	-0.642475	-0.271464	-0.040390	-0.426785	0.903451	-0.696301	-0.636460	-0.331789
235	3838525													6.777551	-0.385797	7.054121	0.716567	-0.642282	-0.272041	-0.040003	-0.427211	0.903267	-0.696371	-0.636368	-0.331818
236	3838692													6.815308	-0.349666	7.020513	0.716447	-0.642162	-0.272638	-0.039637	-0.427636	0.903082	-0.696514	-0.636204	-0.331832
237	3838859													6.842902	-0.349196	7.038616	0.716475	-0.641956	-0.273049	-0.039383	-0.428002	0.902919	-0.696500	-0.636166	-0.331934
238	3839025													6.816544	-0.370046	7.092675	0.716540	-0.641748	-0.273367	-0.039139	-0.428270	0.902803	-0.696447	-0.636195	-0.331990
239	3839192													6.817163	-0.370569	7.096926	0.716542	-0.641585	-0.273745	-0.038960	-0.428639	0.902636	-0.696455	-0.636111	-0.332134
240	3839359													6.798986	-0.390947	7.130153	0.716466	-0.641503	-0.274137	-0.038759	-0.428956	0.902494	-0.696545	-0.635980	-0.332197
241	3839525													6.773511	-0.387224	7.094848	0.716161	-0.641631	-0.274633	-0.038537	-0.429247	0.902365	-0.696871	-0.635654	-0.332136
242	3839692													6.827891	-0.335447	7.052446	0.716018	-0.641575	-0.275136	-0.038228	-0.429576	0.902221	-0.697034	-0.635489	-0.332111
243	3839859													6.719732	-0.383970	7.078818	0.715761	-0.641676	-0.275568	-0.038019	-0.429821	0.902113	-0.697309	-0.635221	-0.332045
244	3840025													6.749285	-0.375392	7.034520	0.715369	-0.641882	-0.276105	-0.037739	-0.430058	0.902012	-0.697727	-0.634852	-0.331874
245	3840192													6.745508	-0.323084	7.064041	0.714826	-0.642190	-0.276794	-0.037432	-0.430386	0.901868	-0.698299	-0.634318	-0.331690
246	3840359													6.818522	-0.334524	7.037621	0.714031	-0.642766	-0.277510	-0.037204	-0.430654	0.901750	-0.699125	-0.633553	-0.331414
247	3840525													6.726928	-0.368174	7.079435	0.713142	-0.643390	-0.278349	-0.036896	-0.430961	0.901616	-0.700048	-0.632710	-0.331075
248	3840692													6.745640	-0.361740	7.105506	0.712076	-0.644203	-0.279194	-0.036653	-0.431221	0.901501	-0.701145	-0.631704	-0.330675
249	3840859													6.715659	-0.360908	7.114216	0.710851	-0.645164	-0.280097	-0.036378	-0.431428	0.901414	-0.702402	-0.630581	-0.330151
250	3841025													6.759011	-0.350703	7.100892	0.709323	-0.646389	-0.281145	-0.036117	-0.431658	0.901314	-0.703958	-0.629169	-0.329530
251	3841192													6.740281	-0.340373	7.076179	0.707551	-0.647810	-0.282335	-0.035871	-0.431944	0.901187	-0.705751	-0.627508	-0.328860
252	3841359													6.783548	-0.336880	6.996465	0.705551	-0.649446	-0.283579	-0.035657	-0.432191	0.901077	-0.707761	-0.625644	-0.328090
253	3841525													6.739736	-0.329480	6.981223	0.703279	-0.651280	-0.285015	-0.035388	-0.432488	0.900945	-0.710033	-0.623529	-0.327207
254	3841692													6.820245	-0.343843	6.963857	0.700655	-0.653341	-0.286753	-0.034966	-0.432854	0.900786	-0.712643	-0.621114	-0.326126
255	3841859													6.868329	-0.350764	6.944565	0.697883	-0.655509	-0.288561	-0.034432	-0.433140	0.900669	-0.715384	-0.618625	-0.324852
256	3842025													6.791540	-0.373343	6.896454	0.694718	-0.657898	-0.290753	-0.033697	-0.433551	0.900499	-0.718493	-0.615795	-0.323365
257	3842192													6.713031	-0.330556	6.823852	0.690718	-0.660786	-0.293718	-0.032633	-0.434249	0.900202	-0.722388	-0.612200	-0.321507
258	3842359													6.762762	-0.316150	6.802575	0.685773	-0.664285	-0.297390	-0.031357	-0.435193	0.899791	-0.727140	-0.607727	-0.319274
259	3842525													7.049837	-0.273726	6.793063	0.679837	-0.668596	-0.301333	-0.030174	-0.436046	0.899419	-0.732742	-0.602365	-0.316614
260	3842692													7.277585	-0.310943	6.755747	0.673635	-0.673131	-0.305140	-0.029143	-0.436746	0.899113	-0.738489	-0.596782	-0.313824
261	3842859													7.210994	-0.319300	6.802359	0.667121	-0.677889	-0.308895	-0.028145	-0.437292	0.898879	-0.744417	-0.590968	-0.310805
262	3843025													7.083479	-0.222648	6.751297	0.659581	-0.683477	-0.312749	-0.027310	-0.437610	0.898750	-0.751137	-0.584257	-0.307305
263	3843192													7.247520	-0.226394	6.603682	0.651039	-0.689776	-0.316793	-0.026565	-0.437808	0.898676	-0.758580	-0.576657	-0.303353
264	3843359													7.362220	-0.251964	6.448706	0.642100	-0.696334	-0.320665	-0.025993	-0.437818	0.898688	-0.766180	-0.568712	-0.299223
265	3843525													7.428375	-0.230026	6.383959	0.633016	-0.702967	-0.324235	-0.025640	-0.437642	0.898784	-0.773714	-0.560631	-0.295059
266	3843692													7.406465	-0.215051	6.301421	0.623320	-0.710035	-0.327600	-0.025404	-0.437110	0.899049	-0.781554	-0.552073	-0.290497
267	3843859													7.617254	-0.171912	6.164318	0.613132	-0.717383	-0.330803	-0.025302	-0.436367	0.899413	-0.789575	-0.543089	-0.285702
268	3844026													7.672732	-0.150209	6.000866	0.602868	-0.724679	-0.333754	-0.025305	-0.435478	0.899844	-0.797440	-0.534041	-0.280874
269	3844192													7.702144	-0.207729	6.023189	0.592741	-0.731708	-0.336542	-0.025341	-0.434598	0.900268	-0.804994	-0.525098	-0.276146
270	3844359													7.579752	-0.262387	6.008920	0.582017	-0.739078	-0.339148	-0.025349	-0.433352	0.900868	-0.812782	-0.515723	-0.270953
271	3844526													7.627158	-0.137962	5.873953	0.570211	-0.747124	-0.341562	-0.025505	-0.431679	0.901667	-0.821102	-0.505429	-0.265203
272	3844692													7.864485	-0.175967	5.641457	0.557975	-0.755358	-0.343654	-0.025798	-0.429700	0.902603	-0.829457	-0.494764	-0.259248
273	3844859													7.947774	-0.225224	5.528241	0.545784	-0.763111	-0.346094	-0.025907	-0.428207	0.903309	-0.837525	-0.484046	-0.253478
274	3845026													8.090208	-0.218734	5.362845	0.533134	-0.770798	-0.348768	-0.025906	-0.426921	0.903918	-0.845634	-0.472874	-0.247574
275	3845192													8.248124	-0.184254	5.217227	0.520749	-0.777999	-0.351478	-0.025839	-0.425882	0.904410	-0.853318	-0.461889	-0.241881
276	3845359													8.303995	-0.181872	5.184152	0.508516	-0.785217	-0.353335	-0.026036	-0.424186	0.905201	-0.860659	-0.451109	-0.236149
277	3845526													8.412209	-0.215071	4.987255	0.496065	-0.792323	-0.355167	-0.026332	-0.422583	0.905941	-0.867886	-0.440054	-0.230493
278	3845692													8.498762	-0.258069	4.812827	0.484333	-0.798784	-0.356884	-0.026598	-0.421177	0.906588	-0.874479	-0.429598	-0.225236
279	3845859													8.532605	-0.281349	4.575972	0.473093	-0.804547	-0.359009	-0.026602	-0.420355	0.906969	-0.880611	-0.419530	-0.220269
280	3846026													8.531732	-0.194493	4.635488	0.461993	-0.810175	-0.360803	-0.026782	-0.419381	0.907415	-0.886479	-0.409557	-0.215450
281	3846192													8.875041	-0.294828	4.038443	0.450882	-0.815721	-0.362361	-0.026843	-0.418176	0.907969	-0.892180	-0.399660	-0.210444
282	3846359													9.242052	-0.275077	4.042645	0.441175	-0.820461	-0.363604	-0.026959	-0.417099	0.908461	-0.897016	-0.390988	-0.206133
283	3846526													8.946876	-0.181922	4.281611	0.431420	-0.825082	-0.364852	-0.027310	-0.416183	0.908871	-0.901738	-0.382140	-0.202083
284	3846692													8.900868	-0.209212	4.127539	0.421313	-0.829673	-0.366248	-0.027582	-0.415375	0.909232	-0.906496	-0.372969	-0.197887
285	3846859													9.064692	-0.315775	3.818806	0.412048	-0.833910	-0.367166	-0.027731	-0.414255	0.909738	-0.910740	-0.364675	-0.193818
286	3847026													9.024815	-0.328298	3.890695	0.403316	-0.837693	-0.368249	-0.027659	-0.413407	0.910126	-0.914643	-0.356883	-0.189904
287	3847192													9.132387	-0.255742	3.641521	0.394848	-0.841174	-0.369489	-0.027431	-0.412780	0.910417	-0.918337	-0.349342	-0.186060
288	3847359													9.232197	-0.269198	3.619390	0.387947	-0.843664	-0.371118	-0.027249	-0.412975	0.910335	-0.921279	-0.343049	-0.183201
289	3847526													9.314169	-0.317231	3.531472	0.382343	-0.845746	-0.372192	-0.027023	-0.412858	0.910395	-0.923625	-0.338026	-0.180708
290	3847692													9.353696	-0.281789	3.558125	0.378129	-0.846696	-0.374333	-0.026438	-0.414067	0.909863	-0.925375	-0.334149	-0.178956
291	3847859													9.261583	-0.288083	3.606662	0.375210	-0.847208	-0.376107	-0.025934	-0.415188	0.909366	-0.926577	-0.331449	-0.177754
292	3848026													9.078874	-0.320722	3.812070	0.372712	-0.847448	-0.378044	-0.025336	-0.416540	0.908764	-0.927601	-0.329129	-0.176720
293	3848192													8.948002	-0.323394	3.928796	0.369135	-0.847972	-0.380371	-0.024729	-0.418092	0.908068	-0.929047	-0.325794	-0.175302
294	3848359													9.034659	-0.276658	3.797024	0.364292	-0.849653	-0.381288	-0.024391	-0.417986	0.908126	-0.930965	-0.321523	-0.172993
295	3848526													9.259877	-0.296732	3.446521	0.358878	-0.851030	-0.383347	-0.023802	-0.418917	0.907712	-0.933081	-0.316633	-0.170596
296	3848692													9.421092	-0.279880	3.253935	0.354099	-0.852181	-0.385230	-0.023532	-0.419908	0.907262	-0.934912	-0.312195	-0.168743
297	3848859													9.285264	-0.306003	3.483814	0.350078	-0.853292	-0.386444	-0.023331	-0.420364	0.907055	-0.936430	-0.308524	-0.167069
298	3849026													9.126965	-0.274790	3.327127	0.345088	-0.854569	-0.388105	-0.022895	-0.421048	0.906749	-0.938291	-0.304023	-0.164864
299	3849192													9.159954	-0.222735	3.433766	0.339646	-0.856480	-0.388694	-0.022941	-0.420681	0.906918	-0.940273	-0.299115	-0.162531
300	3849359													9.484640	-0.261161	2.891850	0.334254	-0.858298	-0.389356	-0.022771	-0.420351	0.907076	-0.942208	-0.294328	-0.160049
301	3849526													9.748418	-0.228094	2.653326	0.331469	-0.859336	-0.389447	-0.022551	-0.419882	0.907299	-0.943196	-0.291959	-0.158557
302	3849692													9.590748	-0.269676	2.893941	0.330952	-0.859392	-0.389765	-0.022138	-0.419998	0.907255	-0.943388	-0.291629	-0.158025
303	3849859													9.331018	-0.244269	3.155319	0.331203	-0.858956	-0.390511	-0.021620	-0.420670	0.906956	-0.943312	-0.291944	-0.157898
304	3850026													9.373603	-0.222291	3.174826	0.332144	-0.858359	-0.391025	-0.021079	-0.421211	0.906718	-0.942993	-0.292919	-0.157996
305	3850192													9.296972	-0.229559	3.257800	0.333606	-0.857695	-0.391236	-0.020435	-0.421493	0.906602	-0.942491	-0.294453	-0.158139
306	3850359													9.275861	-0.214275	3.266523	0.335189	-0.857157	-0.391062	-0.019723	-0.421366	0.906676	-0.941944	-0.296195	-0.158143
307	3850526													9.300654	-0.201027	3.296089	0.337224	-0.856296	-0.391201	-0.018845	-0.421598	0.906587	-0.941236	-0.298350	-0.158310
308	3850692													9.257310	-0.187343	3.402118	0.339522	-0.855326	-0.391335	-0.018022	-0.421888	0.906469	-0.940425	-0.300714	-0.158654
309	3850859													9.217996	-0.217734	3.449960	0.341906	-0.854350	-0.391390	-0.017119	-0.422084	0.906395	-0.939578	-0.303202	-0.158938
310	3851026													9.154419	-0.189806	3.480592	0.344022	-0.853470	-0.391456	-0.016144	-0.422218	0.906350	-0.938823	-0.305485	-0.159031
311	3851192													9.105783	-0.160262	3.509706	0.345533	-0.852793	-0.391600	-0.015207	-0.422337	0.906311	-0.938283	-0.307206	-0.158899
312	3851359													9.107175	-0.134911	3.624301	0.346371	-0.852368	-0.391786	-0.014475	-0.422446	0.906273	-0.937986	-0.308235	-0.158661
313	3851526													9.129421	-0.081980	3.556902	0.346399	-0.852243	-0.392033	-0.013885	-0.422519	0.906248	-0.937985	-0.308480	-0.158194
314	3851692													9.134336	-0.060285	3.515644	0.345902	-0.852335	-0.392271	-0.013313	-0.422495	0.906268	-0.938176	-0.308257	-0.157489
315	3851859													9.199181	-0.076262	3.429779	0.345142	-0.852438	-0.392716	-0.012734	-0.422643	0.906207	-0.938464	-0.307770	-0.156727
316	3852026													9.329568	-0.067586	3.326516	0.344679	-0.852500	-0.392990	-0.012330	-0.422720	0.906177	-0.938640	-0.307494	-0.156214
317	3852192													9.340714	-0.088513	3.357601	0.344568	-0.852519	-0.393045	-0.012059	-0.422670	0.906203	-0.938684	-0.307509	-0.155919
318	3852359													9.324858	-0.083043	3.393530	0.344588	-0.852545	-0.392971	-0.011793	-0.422508	0.906283	-0.938680	-0.307660	-0.155645
319	3852526													9.288276	-0.080534	3.422706	0.344476	-0.852611	-0.392926	-0.011562	-0.422364	0.906352	-0.938724	-0.307674	-0.155352
320	3852692													9.252277	-0.074221	3.406097	0.344051	-0.852840	-0.392801	-0.011475	-0.422129	0.906463	-0.938881	-0.307362	-0.155020
321	3852859													9.215861	-0.106290	3.392493	0.343088	-0.853133	-0.393007	-0.011438	-0.422166	0.906446	-0.939234	-0.306496	-0.154599
322	3853026													9.264824	-0.109438	3.308400	0.341677	-0.853500	-0.393439	-0.011239	-0.422315	0.906380	-0.939750	-0.305267	-0.153887
323	3853192													9.321335	-0.062213	3.254409	0.340371	-0.854064	-0.393347	-0.011117	-0.421951	0.906551	-0.940226	-0.304191	-0.153114
324	3853359													9.258860	-0.058233	3.274454	0.339036	-0.854743	-0.393025	-0.011131	-0.421383	0.906814	-0.940708	-0.303068	-0.152378
325	3853526													9.276887	-0.063732	3.268788	0.337223	-0.855393	-0.393170	-0.011165	-0.421237	0.906882	-0.941358	-0.301432	-0.151602
326	3853692													9.298108	-0.044043	3.263118	0.335093	-0.856172	-0.393296	-0.011356	-0.421070	0.906957	-0.942117	-0.299449	-0.150821
327	3853859													9.286831	-0.029390	3.203026	0.332819	-0.857164	-0.393067	-0.011576	-0.420512	0.907213	-0.942920	-0.297387	-0.149877
328	3854026													9.379432	-0.099275	3.099930	0.330512	-0.858000	-0.393188	-0.011720	-0.420299	0.907310	-0.943729	-0.295269	-0.148969
329	3854192													9.415356	-0.149219	3.048255	0.328839	-0.858449	-0.393611	-0.011661	-0.420450	0.907241	-0.944314	-0.293746	-0.148270
330	3854359													9.376089	-0.101390	3.082994	0.327803	-0.858642	-0.394056	-0.011540	-0.420710	0.907122	-0.944676	-0.292809	-0.147819
331	3854526													9.373392	-0.089163	3.116420	0.327293	-0.858695	-0.394362	-0.011483	-0.420932	0.907019	-0.944853	-0.292333	-0.147629
332	3854692													9.358699	-0.118144	3.166345	0.327254	-0.858712	-0.394357	-0.011616	-0.420962	0.907004	-0.944865	-0.292240	-0.147736
333	3854859													9.307237	-0.122712	3.196415	0.327508	-0.858624	-0.394339	-0.011747	-0.421025	0.906973	-0.944775	-0.292408	-0.147975
334	3855026													9.286711	-0.099874	3.242137	0.327831	-0.858465	-0.394417	-0.011831	-0.421186	0.906897	-0.944662	-0.292643	-0.148234
335	3855192													9.251562	-0.092935	3.288780	0.327961	-0.858374	-0.394506	-0.011912	-0.421328	0.906830	-0.944616	-0.292706	-0.148404
336	3855359													9.209019	-0.102315	3.321808	0.327905	-0.858481	-0.394320	-0.012016	-0.421154	0.906910	-0.944634	-0.292642	-0.148414
337	3855526													9.234792	-0.082805	3.274764	0.327526	-0.858810	-0.393919	-0.012249	-0.420739	0.907099	-0.944763	-0.292273	-0.148322
338	3855692													9.308307	-0.107695	3.212597	0.327107	-0.859107	-0.393619	-0.012409	-0.420403	0.907253	-0.944906	-0.291884	-0.148177
339	3855859													9.288196	-0.089516	3.236295	0.326760	-0.859339	-0.393402	-0.012511	-0.420148	0.907369	-0.945025	-0.291570	-0.148039
340	3856026													9.292172	-0.119735	3.226277	0.326546	-0.859486	-0.393257	-0.012598	-0.419986	0.907443	-0.945097	-0.291368	-0.147972
341	3856192													9.286230	-0.145112	3.205591	0.326545	-0.859553	-0.393112	-0.012643	-0.419847	0.907507	-0.945097	-0.291372	-0.147966
342	3856359													9.286598	-0.135395	3.233450	0.326710	-0.859567	-0.392945	-0.012672	-0.419706	0.907572	-0.945040	-0.291534	-0.148015
343	3856526													9.284657	-0.133759	3.221939	0.327042	-0.859617	-0.392558	-0.012776	-0.419385	0.907719	-0.944923	-0.291847	-0.148139
344	3856692													9.299094	-0.155700	3.207047	0.327490	-0.859613	-0.392192	-0.012917	-0.419117	0.907840	-0.944766	-0.292243	-0.148361
345	3856859													9.315893	-0.128002	3.223084	0.327951	-0.859624	-0.391783	-0.013050	-0.418802	0.907984	-0.944605	-0.292662	-0.148564
346	3857026													9.314239	-0.114116	3.193804	0.328400	-0.859666	-0.391316	-0.013100	-0.418399	0.908169	-0.944448	-0.293117	-0.148664
347	3857192													9.282155	-0.121338	3.205888	0.328902	-0.859689	-0.390844	-0.013080	-0.417977	0.908363	-0.944273	-0.293651	-0.148718
348	3857359													9.228372	-0.125786	3.281115	0.328810	-0.859816	-0.390641	-0.013074	-0.417746	0.908470	-0.944305	-0.293607	-0.148600
349	3857526													9.352084	-0.132269	3.109146	0.328441	-0.860115	-0.390293	-0.013133	-0.417334	0.908658	-0.944433	-0.293315	-0.148365
350	3857692													9.397820	-0.095351	3.121836	0.328384	-0.860349	-0.389825	-0.013219	-0.416858	0.908876	-0.944452	-0.293308	-0.148262
351	3857859													9.335187	-0.121829	3.142424	0.328703	-0.860448	-0.389339	-0.013369	-0.416444	0.909063	-0.944339	-0.293606	-0.148390
352	3858026													9.285439	-0.126562	3.183438	0.329023	-0.860588	-0.388758	-0.013500	-0.415924	0.909299	-0.944225	-0.293932	-0.148466
353	3858192													9.253778	-0.143537	3.193644	0.329120	-0.860908	-0.387967	-0.013701	-0.415167	0.909642	-0.944189	-0.294066	-0.148435
354	3858359													9.312346	-0.137111	3.188918	0.328912	-0.861329	-0.387207	-0.013849	-0.414375	0.910001	-0.944259	-0.293947	-0.148221
355	3858526													9.370727	-0.109350	3.146402	0.329014	-0.861585	-0.386549	-0.013983	-0.413740	0.910288	-0.944222	-0.294092	-0.148174
356	3858692													9.345747	-0.119324	3.167243	0.329567	-0.861706	-0.385808	-0.014173	-0.413107	0.910572	-0.944026	-0.294627	-0.148360
357	3858859													9.347214	-0.146537	3.186050	0.330483	-0.861697	-0.385045	-0.014315	-0.412497	0.910846	-0.943703	-0.295508	-0.148658
358	3859026													9.312945	-0.137093	3.243191	0.331693	-0.861627	-0.384160	-0.014405	-0.411792	0.911164	-0.943277	-0.296693	-0.149000
359	3859192													9.227834	-0.141697	3.305594	0.332811	-0.861776	-0.382856	-0.014606	-0.410663	0.911670	-0.942880	-0.297822	-0.149260
360	3859359													9.280166	-0.140900	3.295221	0.333831	-0.861912	-0.381661	-0.014796	-0.409630	0.912132	-0.942517	-0.298850	-0.149500
361	3859526													9.313639	-0.145054	3.264696	0.335061	-0.861786	-0.380865	-0.014994	-0.409057	0.912385	-0.942077	-0.299994	-0.149981
362	3859692													9.174310	-0.140161	3.346509	0.336235	-0.861615	-0.380219	-0.015093	-0.408602	0.912588	-0.941657	-0.301106	-0.150391
363	3859859													9.218998	-0.134373	3.255144	0.337325	-0.861425	-0.379682	-0.015018	-0.408195	0.912771	-0.941269	-0.302198	-0.150631
364	3860026													9.345515	-0.130818	3.232181	0.338750	-0.860994	-0.379391	-0.015047	-0.408138	0.912796	-0.940756	-0.303501	-0.151212
365	3860192													9.370022	-0.123714	3.274300	0.340721	-0.860323	-0.379149	-0.015370	-0.408323	0.912708	-0.940039	-0.305151	-0.152347
366	3860359													9.292605	-0.142367	3.335566	0.343407	-0.859368	-0.378890	-0.015613	-0.408592	0.912584	-0.939057	-0.307472	-0.153731
367	3860526													9.283960	-0.155670	3.369859	0.346560	-0.858194	-0.378681	-0.015650	-0.408933	0.912430	-0.937897	-0.310286	-0.155151
368	3860693													9.216129	-0.157108	3.446360	0.350007	-0.856812	-0.378639	-0.015711	-0.409519	0.912166	-0.936615	-0.313315	-0.156796
369	3860859													9.061317	-0.132350	3.664134	0.353230	-0.855715	-0.378128	-0.015913	-0.409620	0.912117	-0.935401	-0.316170	-0.158307
370	3861026													9.037300	-0.192462	3.583224	0.355316	-0.855400	-0.376884	-0.016198	-0.408767	0.912495	-0.934606	-0.318119	-0.159097
371	3861193													9.268342	-0.181226	3.399949	0.357532	-0.854858	-0.376017	-0.016390	-0.408312	0.912695	-0.933757	-0.320155	-0.159995
372	3861359													9.346106	-0.150168	3.379863	0.360315	-0.853881	-0.375579	-0.016527	-0.408404	0.912652	-0.932684	-0.322635	-0.161266
373	3861526													9.240376	-0.139245	3.506873	0.363554	-0.852576	-0.375424	-0.016532	-0.408841	0.912456	-0.931427	-0.325520	-0.162731
374	3861693													9.139332	-0.149333	3.575042	0.366785	-0.851212	-0.375376	-0.016460	-0.409372	0.912219	-0.930160	-0.328409	-0.164162
375	3861859													9.185754	-0.114100	3.605634	0.369762	-0.849942	-0.375333	-0.016439	-0.409885	0.911989	-0.928981	-0.331049	-0.165532
376	3862026													9.226823	-0.121836	3.632385	0.372460	-0.848934	-0.374947	-0.016730	-0.410093	0.911890	-0.927897	-0.333370	-0.166946
377	3862193													9.150392	-0.096060	3.702209	0.374813	-0.847983	-0.374755	-0.017047	-0.410457	0.911720	-0.926944	-0.335336	-0.168300
378	3862359													9.116316	-0.116941	3.725180	0.377132	-0.847220	-0.374151	-0.017437	-0.410405	0.911737	-0.925995	-0.337321	-0.169550
379	3862526													9.249863	-0.108974	3.589880	0.379681	-0.846426	-0.373371	-0.017641	-0.410144	0.911850	-0.924949	-0.339625	-0.170656
380	3862693													9.280088	-0.142850	3.635933	0.383022	-0.845143	-0.372864	-0.017934	-0.410374	0.911741	-0.923565	-0.342530	-0.172339
381	3862859													9.172919	-0.183715	3.700190	0.387008	-0.843666	-0.372092	-0.018561	-0.410584	0.911634	-0.921890	-0.345903	-0.174559
382	3863026													9.090902	-0.108489	3.861116	0.391352	-0.842334	-0.370563	-0.019580	-0.410211	0.911780	-0.920033	-0.349571	-0.177030
383	3863193													9.085891	-0.165228	3.805695	0.396472	-0.840831	-0.368528	-0.020679	-0.409503	0.912074	-0.917814	-0.353991	-0.179744
384	3863359													9.072137	-0.210807	3.894699	0.402710	-0.838613	-0.366814	-0.021418	-0.409269	0.912162	-0.915077	-0.359481	-0.182778
385	3863526													8.872514	-0.213842	3.945935	0.409515	-0.835854	-0.365577	-0.021807	-0.409572	0.912017	-0.912043	-0.365513	-0.185953
386	3863693													8.973469	-0.224837	3.624871	0.415923	-0.832965	-0.364935	-0.022108	-0.410434	0.911622	-0.909131	-0.371097	-0.189124
387	3863859													9.408789	-0.217764	3.759497	0.423305	-0.829404	-0.364556	-0.022261	-0.411786	0.911009	-0.905714	-0.377519	-0.192775
388	3864026													9.053032	-0.227238	4.154631	0.431627	-0.825311	-0.364087	-0.022594	-0.413386	0.910276	-0.901769	-0.384673	-0.197076
389	3864193													8.645700	-0.112123	4.385435	0.439737	-0.821171	-0.363744	-0.022943	-0.415141	0.909468	-0.897834	-0.391581	-0.201393
390	3864359													8.764684	-0.123082	4.347541	0.447931	-0.816885	-0.363396	-0.023536	-0.417085	0.908563	-0.893758	-0.398421	-0.206052
391	3864526													8.764316	-0.196638	4.403719	0.456853	-0.812209	-0.362769	-0.024173	-0.419001	0.907664	-0.889214	-0.405900	-0.211056
392	3864693													8.618218	-0.211122	4.320505	0.465752	-0.807547	-0.361862	-0.024777	-0.420663	0.906879	-0.884568	-0.413414	-0.215933
393	3864859													8.806149	-0.204434	4.320761	0.474408	-0.802840	-0.361090	-0.025403	-0.422501	0.906006	-0.879939	-0.420644	-0.220832
394	3865026													8.939361	-0.178983	4.498983	0.483656	-0.797715	-0.360176	-0.025996	-0.424419	0.905093	-0.874872	-0.428391	-0.226011
395	3865193													8.553223	-0.221139	4.776568	0.493609	-0.791926	-0.359449	-0.026638	-0.426884	0.903914	-0.869276	-0.436605	-0.231809
396	3865359													8.534410	-0.240966	4.991166	0.503651	-0.786127	-0.358246	-0.027421	-0.429019	0.902879	-0.863472	-0.444913	-0.237632
397	3865526													8.262771	-0.233531	4.984043	0.513360	-0.780541	-0.356674	-0.028279	-0.430781	0.902013	-0.857707	-0.452971	-0.243219
398	3865693													8.478354	-0.249766	4.806176	0.523014	-0.774883	-0.354982	-0.028961	-0.432403	0.901215	-0.851832	-0.461068	-0.248594
399	3865859													8.606007	-0.273832	5.100635	0.533272	-0.768925	-0.352668	-0.029536	-0.433563	0.900639	-0.845428	-0.469869	-0.253918
400	3866026													8.183170	-0.263099	5.431983	0.542959	-0.763318	-0.350059	-0.030190	-0.434331	0.900247	-0.839217	-0.478229	-0.258868
401	3866193													7.980825	-0.317053	5.538235	0.551993	-0.758033	-0.347404	-0.030814	-0.434886	0.899958	-0.833279	-0.486066	-0.263412
402	3866359													8.038537	-0.284754	5.487007	0.560601	-0.753023	-0.344503	-0.031439	-0.435077	0.899844	-0.827489	-0.493623	-0.267579
403	3866526													8.028993	-0.270204	5.557888	0.569319	-0.747613	-0.341979	-0.032086	-0.435863	0.899441	-0.821490	-0.501096	-0.272133
404	3866693													7.832643	-0.333314	5.612336	0.577727	-0.742600	-0.338788	-0.032802	-0.435852	0.899420	-0.815571	-0.508507	-0.276162
405	3866859													7.875184	-0.345244	5.788143	0.585692	-0.737604	-0.336014	-0.033215	-0.436052	0.899309	-0.809853	-0.515557	-0.279891
406	3867026													7.783489	-0.325567	5.914972	0.593335	-0.732752	-0.333207	-0.033661	-0.436169	0.899235	-0.804251	-0.522332	-0.283460
407	3867193													7.800790	-0.355559	5.978111	0.600610	-0.728108	-0.330342	-0.034149	-0.436148	0.899227	-0.798813	-0.528804	-0.286819
408	3867359													7.786430	-0.321332	6.048167	0.608143	-0.723283	-0.327145	-0.034643	-0.435899	0.899329	-0.793071	-0.535587	-0.290145
409	3867526													7.613228	-0.303595	6.109457	0.615868	-0.718178	-0.323924	-0.035100	-0.435753	0.899382	-0.787067	-0.542530	-0.293575
410	3867693													7.527601	-0.309834	6.161453	0.623479	-0.712940	-0.320921	-0.035483	-0.435848	0.899321	-0.781035	-0.549320	-0.297039
411	3867859													7.450462	-0.302851	6.245979	0.630752	-0.707923	-0.317800	-0.036009	-0.435805	0.899321	-0.775148	-0.555805	-0.300376
412	3868026													7.705997	-0.320226	6.170610	0.637598	-0.703277	-0.314435	-0.036665	-0.435402	0.899489	-0.769496	-0.561984	-0.303397
413	3868193													7.476505	-0.279130	6.264869	0.644979	-0.698221	-0.310627	-0.037431	-0.434849	0.899725	-0.763283	-0.568677	-0.306604
414	3868359													7.381635	-0.346581	6.364406	0.652042	-0.693296	-0.306892	-0.038187	-0.434290	0.899963	-0.757221	-0.575094	-0.309650
415	3868526													7.150867	-0.441247	6.521125	0.658563	-0.688630	-0.303453	-0.038908	-0.433866	0.900137	-0.751520	-0.580990	-0.312521
416	3868693													7.032282	-0.415685	6.575088	0.663770	-0.684829	-0.300697	-0.039499	-0.433571	0.900253	-0.746893	-0.585684	-0.314842
417	3868859													7.087614	-0.357496	6.602553	0.667965	-0.681714	-0.298478	-0.040023	-0.433403	0.900311	-0.743116	-0.589430	-0.316783
418	3869026													7.017437	-0.391078	6.662111	0.671264	-0.679304	-0.296566	-0.040568	-0.433176	0.900396	-0.740108	-0.592372	-0.318333
419	3869193													6.997863	-0.449983	6.730539	0.673704	-0.677504	-0.295147	-0.040958	-0.433004	0.900461	-0.737866	-0.594556	-0.319465
420	3869359													7.025214	-0.437529	6.739811	0.675719	-0.675958	-0.294081	-0.041224	-0.432966	0.900467	-0.736006	-0.596340	-0.320429
421	3869526													6.970893	-0.445414	6.759026	0.677345	-0.674699	-0.293231	-0.041443	-0.432956	0.900462	-0.734497	-0.597771	-0.321222
422	3869693													7.009225	-0.426166	6.742276	0.678665	-0.673668	-0.292548	-0.041557	-0.432909	0.900479	-0.733271	-0.598967	-0.321796
423	3869859													7.053347	-0.411202	6.749322	0.679810	-0.672735	-0.292036	-0.041605	-0.432936	0.900464	-0.732207	-0.599994	-0.322303
424	3870026													7.067748	-0.422090	6.783273	0.680945	-0.671809	-0.291526	-0.041655	-0.432964	0.900448	-0.731149	-0.601012	-0.322808
425	3870193													7.066406	-0.422167	6.756952	0.682035	-0.670934	-0.290992	-0.041702	-0.432933	0.900461	-0.730130	-0.602011	-0.323255
426	3870359													7.071784	-0.408968	6.765538	0.683175	-0.670017	-0.290430	-0.041777	-0.432919	0.900464	-0.729059	-0.603041	-0.323751
427	3870526													7.105067	-0.398881	6.789070	0.684336	-0.669074	-0.289871	-0.041858	-0.432928	0.900456	-0.727965	-0.604081	-0.324274
428	3870693													7.148466	-0.349878	6.721445	0.685618	-0.668065	-0.289166	-0.041985	-0.432855	0.900485	-0.726750	-0.605248	-0.324822
429	3870859													7.128850	-0.326302	6.773076	0.687376	-0.666694	-0.288154	-0.042164	-0.432702	0.900550	-0.725076	-0.606868	-0.325540
430	3871026													7.050816	-0.375485	6.816632	0.689059	-0.665482	-0.286934	-0.042488	-0.432348	0.900705	-0.723458	-0.608448	-0.326188
431	3871193													7.173387	-0.430391	6.715370	0.690851	-0.664133	-0.285749	-0.042641	-0.431968	0.900880	-0.721738	-0.610190	-0.326745
432	3871359													7.091785	-0.376297	6.774366	0.692702	-0.662715	-0.284559	-0.042723	-0.431562	0.901071	-0.719958	-0.612016	-0.327257
433	3871526													7.034562	-0.387317	6.799015	0.694324	-0.661477	-0.283481	-0.042766	-0.431137	0.901272	-0.718390	-0.613652	-0.327638
434	3871693													7.038484	-0.442075	6.790460	0.695720	-0.660388	-0.282597	-0.042674	-0.430721	0.901476	-0.717044	-0.615115	-0.327843
435	3871859													7.004331	-0.464692	6.785065	0.696846	-0.659488	-0.281922	-0.042514	-0.430367	0.901652	-0.715959	-0.616328	-0.327937
436	3872026													7.011554	-0.468365	6.771521	0.697644	-0.658868	-0.281402	-0.042340	-0.430004	0.901834	-0.715193	-0.617244	-0.327885
437	3872193													7.008058	-0.462183	6.841844	0.698124	-0.658470	-0.281140	-0.042117	-0.429755	0.901963	-0.714737	-0.617841	-0.327756
438	3872359													7.011856	-0.476694	6.876583	0.698396	-0.658219	-0.281054	-0.041889	-0.429610	0.902043	-0.714485	-0.618210	-0.327610
439	3872526													6.971234	-0.482973	6.894549	0.698493	-0.658081	-0.281135	-0.041584	-0.429519	0.902100	-0.714408	-0.618419	-0.327382
440	3872693													6.947445	-0.457541	6.888366	0.698450	-0.658085	-0.281233	-0.041268	-0.429352	0.902194	-0.714468	-0.618531	-0.327039
441	3872859													6.936001	-0.424202	6.897283	0.698251	-0.658161	-0.281550	-0.040893	-0.429337	0.902218	-0.714684	-0.618461	-0.326699
442	3873026													6.969736	-0.424563	6.865828	0.697990	-0.658277	-0.281924	-0.040473	-0.429324	0.902243	-0.714962	-0.618347	-0.326307
443	3873193													6.946926	-0.398845	6.866199	0.697751	-0.658385	-0.282263	-0.040036	-0.429261	0.902293	-0.715220	-0.618275	-0.325876
444	3873359													6.939812	-0.409910	6.878748	0.697539	-0.658448	-0.282641	-0.039597	-0.429267	0.902309	-0.715452	-0.618204	-0.325503
445	3873526													6.945055	-0.377861	6.870977	0.697405	-0.658417	-0.283043	-0.039139	-0.429339	0.902295	-0.715608	-0.618187	-0.325193
446	3873693													6.938823	-0.390178	6.875717	0.697310	-0.658340	-0.283456	-0.038625	-0.429402	0.902287	-0.715728	-0.618225	-0.324855
447	3873859													6.976046	-0.377073	6.878650	0.697242	-0.658236	-0.283862	-0.038108	-0.429470	0.902277	-0.715822	-0.618288	-0.324529
448	3874026													6.952655	-0.375841	6.894596	0.697166	-0.658178	-0.284183	-0.037673	-0.429488	0.902287	-0.715919	-0.618338	-0.324220
449	3874193													6.980026	-0.355358	6.877800	0.697047	-0.658141	-0.284563	-0.037243	-0.429563	0.902269	-0.716057	-0.618326	-0.323937
450	3874359													6.998775	-0.334979	6.867928	0.696880	-0.658195	-0.284845	-0.036911	-0.429559	0.902284	-0.716237	-0.618270	-0.323646
451	3874526													7.008951	-0.353678	6.887106	0.696702	-0.658266	-0.285119	-0.036602	-0.429557	0.902298	-0.716427	-0.618196	-0.323367
452	3874693													7.006170	-0.339161	6.903925	0.696491	-0.658394	-0.285338	-0.036275	-0.429445	0.902364	-0.716648	-0.618137	-0.322988
453	3874859													6.993409	-0.341654	6.854647	0.696195	-0.658571	-0.285652	-0.035933	-0.429398	0.902400	-0.716953	-0.617982	-0.322609
454	3875026													7.001019	-0.327619	6.865216	0.695859	-0.658728	-0.286108	-0.035537	-0.429474	0.902380	-0.717299	-0.617761	-0.322263
455	3875193													7.029500	-0.341337	6.834504	0.695408	-0.658996	-0.286586	-0.035093	-0.429470	0.902399	-0.717758	-0.617478	-0.321783
456	3875359													7.049828	-0.319401	6.836777	0.694932	-0.659299	-0.287045	-0.034676	-0.429448	0.902426	-0.718239	-0.617171	-0.321298
457	3875526													7.058128	-0.317341	6.845181	0.694394	-0.659658	-0.287520	-0.034279	-0.429428	0.902450	-0.718778	-0.616800	-0.320805
458	3875693													7.059560	-0.306641	6.772533	0.693824	-0.660030	-0.288043	-0.033832	-0.429412	0.902475	-0.719349	-0.616414	-0.320266
459	3875859													7.078346	-0.287617	6.817869	0.693306	-0.660347	-0.288564	-0.033385	-0.429427	0.902484	-0.719870	-0.616064	-0.319770
460	3876026													7.093421	-0.300297	6.733263	0.692832	-0.660662	-0.288981	-0.032963	-0.429348	0.902537	-0.720345	-0.615781	-0.319243
461	3876193													7.162912	-0.285751	6.730157	0.692653	-0.660769	-0.289164	-0.032658	-0.429230	0.902605	-0.720531	-0.615748	-0.318887
462	3876359													7.156252	-0.329149	6.757624	0.692858	-0.660618	-0.289018	-0.032453	-0.428979	0.902731	-0.720343	-0.616085	-0.318660
463	3876526													7.075140	-0.357955	6.810776	0.693093	-0.660457	-0.288823	-0.032277	-0.428702	0.902869	-0.720125	-0.616450	-0.318448
464	3876693													7.016654	-0.300673	6.843874	0.693112	-0.660430	-0.288840	-0.032094	-0.428581	0.902933	-0.720116	-0.616564	-0.318250
465	3876859													6.994323	-0.287524	6.865337	0.692857	-0.660695	-0.288845	-0.031999	-0.428353	0.903045	-0.720364	-0.616438	-0.317929
466	3877026													6.993267	-0.331003	6.812363	0.692266	-0.661215	-0.289073	-0.031890	-0.428215	0.903114	-0.720938	-0.615976	-0.317525
467	3877193													7.012987	-0.357407	6.775222	0.691504	-0.661790	-0.289580	-0.031659	-0.428252	0.903105	-0.721679	-0.615332	-0.317090
468	3877360													7.026949	-0.351374	6.797239	0.690658	-0.662423	-0.290150	-0.031419	-0.428319	0.903081	-0.722499	-0.614604	-0.316634
469	3877526													7.005612	-0.356036	6.784163	0.689668	-0.663216	-0.290694	-0.031219	-0.428301	0.903097	-0.723453	-0.613761	-0.316090
470	3877693													7.002640	-0.325232	6.793720	0.688364	-0.664232	-0.291463	-0.030973	-0.428365	0.903075	-0.724704	-0.612616	-0.315445
471	3877860													6.985754	-0.281284	6.797637	0.686762	-0.665501	-0.292348	-0.030716	-0.428405	0.903065	-0.726233	-0.611211	-0.314653
472	3878026													6.951163	-0.292295	6.783265	0.684783	-0.667054	-0.293448	-0.030450	-0.428513	0.903022	-0.728111	-0.609439	-0.313750
473	3878193													6.959365	-0.296935	6.769712	0.682230	-0.668999	-0.294964	-0.030062	-0.428757	0.902919	-0.730520	-0.607131	-0.312622
474	3878360													7.024741	-0.302977	6.801084	0.679122	-0.671340	-0.296809	-0.029537	-0.429024	0.902810	-0.733431	-0.604351	-0.311189
475	3878526													6.981149	-0.321551	6.777773	0.675367	-0.674221	-0.298840	-0.029046	-0.429220	0.902733	-0.736910	-0.600996	-0.309464
476	3878693													7.075058	-0.211796	6.710339	0.670972	-0.677579	-0.301136	-0.028543	-0.429429	0.902649	-0.740933	-0.597058	-0.307475
477	3878860													7.016519	-0.223704	6.759272	0.666122	-0.681381	-0.303317	-0.028287	-0.429464	0.902641	-0.745306	-0.592689	-0.305349
478	3879026													7.007968	-0.288586	6.683122	0.660234	-0.685949	-0.305883	-0.028156	-0.429587	0.902587	-0.750532	-0.587306	-0.302941
479	3879193													7.217419	-0.295318	6.566020	0.653782	-0.690839	-0.308724	-0.027894	-0.429723	0.902530	-0.756169	-0.581446	-0.300215
480	3879360													7.364318	-0.234694	6.472136	0.647020	-0.695771	-0.311878	-0.027436	-0.430015	0.902405	-0.761979	-0.575317	-0.297318
481	3879526													7.315214	-0.328331	6.473916	0.639987	-0.700923	-0.314838	-0.027023	-0.430018	0.902416	-0.767910	-0.569027	-0.294147
482	3879693													7.341061	-0.299337	6.399386	0.632319	-0.706459	-0.317944	-0.026550	-0.429924	0.902475	-0.774253	-0.562211	-0.290605
483	3879860													7.468054	-0.222470	6.331877	0.624202	-0.712344	-0.320840	-0.026321	-0.429610	0.902631	-0.780819	-0.554979	-0.286913
484	3880026													7.499196	-0.207322	6.140038	0.615737	-0.718457	-0.323554	-0.026297	-0.429136	0.902857	-0.787513	-0.547414	-0.283128
485	3880193													7.653421	-0.243851	6.042749	0.607130	-0.724402	-0.326548	-0.026190	-0.428978	0.902935	-0.794170	-0.539647	-0.279417
486	3880360													7.756945	-0.300688	5.949398	0.598361	-0.730357	-0.329459	-0.026060	-0.428716	0.903063	-0.800803	-0.531772	-0.275560
487	3880526													7.792922	-0.288899	5.874509	0.589373	-0.736386	-0.332228	-0.025887	-0.428247	0.903291	-0.807446	-0.523775	-0.271460
488	3880693													7.875433	-0.252760	5.748247	0.580004	-0.742704	-0.334642	-0.025825	-0.427357	0.903714	-0.814204	-0.515516	-0.267050
489	3880860													8.008209	-0.223162	5.614594	0.570465	-0.748989	-0.337023	-0.025765	-0.426460	0.904139	-0.820918	-0.507096	-0.262578
490	3881026													7.980361	-0.238331	5.459331	0.560658	-0.755263	-0.339471	-0.025651	-0.425610	0.904543	-0.827650	-0.498431	-0.257994
491	3881193													8.112084	-0.270778	5.426336	0.550532	-0.761481	-0.342143	-0.025248	-0.424844	0.904915	-0.834432	-0.489546	-0.253116
492	3881360													8.159638	-0.255987	5.364057	0.539685	-0.768009	-0.344822	-0.024861	-0.423952	0.905343	-0.841500	-0.480027	-0.247894
493	3881526													8.256402	-0.214695	5.308998	0.528140	-0.774863	-0.347355	-0.024562	-0.422827	0.905877	-0.848802	-0.469899	-0.242344
494	3881693													8.350871	-0.241291	5.134335	0.516390	-0.781701	-0.349694	-0.024389	-0.421611	0.906449	-0.856006	-0.459552	-0.236780
495	3881860													8.383451	-0.217011	4.959621	0.504532	-0.788372	-0.352018	-0.024224	-0.420480	0.906978	-0.863053	-0.449072	-0.231243
496	3882026													8.483850	-0.262905	4.855413	0.492602	-0.794988	-0.354031	-0.024190	-0.419163	0.907588	-0.869918	-0.438516	-0.225711
497	3882193													8.518738	-0.266039	4.826765	0.481000	-0.801289	-0.355774	-0.024158	-0.417760	0.908236	-0.876388	-0.428267	-0.220300
498	3882360													8.523363	-0.204891	4.659697	0.469523	-0.807220	-0.357693	-0.024073	-0.416679	0.908735	-0.882592	-0.418062	-0.215072
499	3882526													8.639297	-0.216578	4.533241	0.458642	-0.812652	-0.359505	-0.024005	-0.415748	0.909163	-0.888297	-0.408351	-0.210187
500	3882693													8.674219	-0.287923	4.479615	0.448317	-0.817865	-0.360706	-0.023902	-0.414355	0.909802	-0.893555	-0.399258	-0.205311
501	3882860													8.663124	-0.257934	4.464748	0.438420	-0.822465	-0.362407	-0.023491	-0.413574	0.910167	-0.898463	-0.390522	-0.200640
502	3883026													8.868134	-0.250006	4.149190	0.429226	-0.826513	-0.364198	-0.023179	-0.413180	0.910354	-0.902900	-0.382306	-0.196505
503	3883193													8.912940	-0.203622	4.198616	0.420623	-0.829993	-0.366317	-0.022904	-0.413359	0.910280	-0.906947	-0.374494	-0.192878
504	3883360													8.939731	-0.193601	4.071617	0.412087	-0.833477	-0.368103	-0.022818	-0.413314	0.910303	-0.910859	-0.366725	-0.189339
505	3883526													9.074542	-0.290110	3.754112	0.404313	-0.836626	-0.369578	-0.022673	-0.413122	0.910394	-0.914340	-0.359705	-0.185999
506	3883693													9.143395	-0.250463	3.873820	0.397394	-0.839110	-0.371447	-0.022337	-0.413507	0.910227	-0.917376	-0.353422	-0.183068
507	3883860													9.010959	-0.175262	3.951049	0.390181	-0.841793	-0.373020	-0.022137	-0.413591	0.910194	-0.920472	-0.346883	-0.180010
508	3884026													9.120631	-0.221342	3.528308	0.382884	-0.844533	-0.374385	-0.021772	-0.413405	0.910287	-0.923540	-0.340383	-0.176673
509	3884193													9.290366	-0.191109	3.418366	0.376442	-0.847148	-0.375008	-0.021719	-0.412743	0.910589	-0.926186	-0.334639	-0.173773
510	3884360													9.417912	-0.247236	3.423587	0.370686	-0.848412	-0.377874	-0.021171	-0.414472	0.909816	-0.928517	-0.329256	-0.171601
511	3884526													9.216043	-0.247537	3.599889	0.365035	-0.850078	-0.379627	-0.021275	-0.415276	0.909447	-0.930751	-0.323904	-0.169676
512	3884693													9.345081	-0.295380	3.285909	0.359956	-0.851855	-0.380492	-0.021024	-0.415132	0.909518	-0.932732	-0.319387	-0.167338
513	3884860													9.343027	-0.170683	3.360753	0.355644	-0.853248	-0.381426	-0.020937	-0.415279	0.909453	-0.934387	-0.315455	-0.165555
514	3885026													9.263766	-0.214922	3.297111	0.350942	-0.855257	-0.381282	-0.021224	-0.414340	0.909875	-0.936157	-0.311221	-0.163561
515	3885193													9.473955	-0.218279	3.066685	0.347487	-0.856208	-0.382308	-0.021291	-0.414815	0.909657	-0.937443	-0.307954	-0.162373
516	3885360													9.375674	-0.234476	3.175039	0.345454	-0.856638	-0.383189	-0.021414	-0.415416	0.909379	-0.938191	-0.305943	-0.161851
517	3885526													9.381355	-0.236380	3.176446	0.344081	-0.856733	-0.384210	-0.021275	-0.416205	0.909022	-0.938699	-0.304603	-0.161435
518	3885693													9.356714	-0.218252	3.263807	0.343670	-0.856785	-0.384461	-0.021086	-0.416335	0.908967	-0.938854	-0.304278	-0.161148
519	3885860													9.215402	-0.225654	3.472507	0.343400	-0.856961	-0.384309	-0.020888	-0.416060	0.909097	-0.938957	-0.304156	-0.160775
520	3886026													8.982292	-0.238817	3.579499	0.341246	-0.857801	-0.384355	-0.020799	-0.415690	0.909268	-0.939744	-0.302291	-0.159694
521	3886193													9.307164	-0.197444	3.230612	0.338160	-0.858667	-0.385149	-0.020649	-0.415930	0.909162	-0.940862	-0.299489	-0.158381
522	3886360													9.439446	-0.223999	3.224400	0.335899	-0.858963	-0.386464	-0.020383	-0.416836	0.908753	-0.941678	-0.297372	-0.157523
523	3886526													9.321236	-0.190504	3.242423	0.333615	-0.859184	-0.387949	-0.020153	-0.417932	0.908255	-0.942494	-0.295189	-0.156743
524	3886693													9.341500	-0.163981	3.145153	0.332074	-0.859233	-0.389159	-0.019808	-0.418833	0.907847	-0.943045	-0.293764	-0.156103
525	3886860													9.265794	-0.158275	3.227962	0.330328	-0.859319	-0.390453	-0.019483	-0.419794	0.907410	-0.943665	-0.292136	-0.155412
526	3887026													9.455334	-0.200405	3.049536	0.329000	-0.859553	-0.391059	-0.019208	-0.420118	0.907266	-0.944135	-0.290979	-0.154729
527	3887193													9.429352	-0.190035	3.074146	0.328802	-0.859489	-0.391367	-0.018841	-0.420296	0.907191	-0.944211	-0.290912	-0.154388
528	3887360													9.370436	-0.200266	3.154773	0.329332	-0.859190	-0.391578	-0.018371	-0.420465	0.907123	-0.944036	-0.291550	-0.154257
529	3887526													9.362700	-0.179647	3.172755	0.330353	-0.858774	-0.391630	-0.017932	-0.420560	0.907087	-0.943687	-0.292636	-0.154332
530	3887693													9.316457	-0.150906	3.221594	0.331662	-0.858328	-0.391500	-0.017638	-0.420559	0.907094	-0.943233	-0.293944	-0.154622
531	3887860													9.308758	-0.180432	3.227833	0.333176	-0.857854	-0.391255	-0.017412	-0.420491	0.907130	-0.942704	-0.295421	-0.155034
532	3888026													9.287033	-0.195024	3.253948	0.334702	-0.857401	-0.390945	-0.017228	-0.420372	0.907188	-0.942166	-0.296903	-0.155471
533	3888193													9.251579	-0.151375	3.322773	0.335919	-0.857118	-0.390523	-0.017124	-0.420105	0.907314	-0.941735	-0.298096	-0.155798
534	3888360													9.250893	-0.135415	3.332925	0.336605	-0.857208	-0.389733	-0.017167	-0.419402	0.907638	-0.941489	-0.298825	-0.155888
535	3888526													9.288926	-0.147133	3.305636	0.336808	-0.857437	-0.389053	-0.017229	-0.418737	0.907944	-0.941416	-0.299099	-0.155807
536	3888693													9.248415	-0.173678	3.316151	0.336398	-0.857636	-0.388969	-0.017241	-0.418581	0.908016	-0.941562	-0.298748	-0.155596
537	3888860													9.213072	-0.150079	3.364266	0.335328	-0.857978	-0.389138	-0.017291	-0.418588	0.908012	-0.941943	-0.297753	-0.155200
538	3889026													9.299330	-0.161520	3.243243	0.333673	-0.858620	-0.389145	-0.017352	-0.418328	0.908130	-0.942529	-0.296266	-0.154484
539	3889193													9.377249	-0.161658	3.141125	0.332275	-0.859139	-0.389197	-0.017376	-0.418148	0.908213	-0.943023	-0.295013	-0.153868
540	3889360													9.286934	-0.151469	3.212954	0.331054	-0.859598	-0.389222	-0.017423	-0.417979	0.908289	-0.943451	-0.293911	-0.153351
541	3889526													9.280593	-0.144564	3.182796	0.329515	-0.860114	-0.389390	-0.017440	-0.417898	0.908327	-0.943989	-0.292517	-0.152704
542	3889693													9.379971	-0.176146	3.127627	0.327935	-0.860682	-0.389468	-0.017394	-0.417698	0.908419	-0.944540	-0.291128	-0.151949
543	3889860													9.415048	-0.136307	3.056303	0.326731	-0.861078	-0.389603	-0.017334	-0.417618	0.908457	-0.944958	-0.290068	-0.151375
544	3890026													9.409178	-0.153047	3.083746	0.326162	-0.861270	-0.389656	-0.017294	-0.417565	0.908482	-0.945156	-0.289574	-0.151089
545	3890193													9.343904	-0.138019	3.133507	0.326055	-0.861465	-0.389316	-0.017349	-0.417205	0.908647	-0.945192	-0.289515	-0.150978
546	3890360													9.341727	-0.174464	3.116181	0.326133	-0.861639	-0.388864	-0.017351	-0.416742	0.908859	-0.945165	-0.289661	-0.150863
547	3890526													9.227349	-0.158056	3.204592	0.326047	-0.861855	-0.388457	-0.017343	-0.416296	0.909064	-0.945194	-0.289660	-0.150680
548	3890693													9.194505	-0.153488	3.271402	0.325116	-0.862190	-0.388494	-0.017291	-0.416162	0.909126	-0.945516	-0.288854	-0.150209
549	3890860													9.359321	-0.167493	3.090597	0.324043	-0.862592	-0.388498	-0.017166	-0.415949	0.909226	-0.945887	-0.287959	-0.149593
550	3891026													9.373182	-0.164189	3.113434	0.323433	-0.862853	-0.388428	-0.016981	-0.415718	0.909335	-0.946099	-0.287513	-0.149109
551	3891193													9.315361	-0.145810	3.165760	0.323201	-0.863022	-0.388244	-0.016890	-0.415458	0.909456	-0.946179	-0.287380	-0.148853
552	3891360													9.293660	-0.152186	3.191158	0.323160	-0.863261	-0.387747	-0.016944	-0.414944	0.909689	-0.946193	-0.287405	-0.148720
553	3891526													9.179622	-0.176967	3.280143	0.322791	-0.863440	-0.387656	-0.016888	-0.414770	0.909769	-0.946320	-0.287118	-0.148466
554	3891693													9.176167	-0.182610	3.296269	0.321743	-0.863669	-0.388017	-0.016778	-0.414944	0.909692	-0.946678	-0.286177	-0.147997
555	3891860													9.335236	-0.148746	3.090718	0.320407	-0.863870	-0.388675	-0.016555	-0.415350	0.909511	-0.947135	-0.284979	-0.147382
556	3892026													9.409824	-0.159543	3.038753	0.319578	-0.864025	-0.389013	-0.016415	-0.415528	0.909432	-0.947418	-0.284249	-0.146977
557	3892193													9.330202	-0.176382	3.083920	0.319018	-0.864159	-0.389173	-0.016352	-0.415587	0.909407	-0.947607	-0.283754	-0.146710
558	3892360													9.302970	-0.172578	3.066158	0.318553	-0.864342	-0.389149	-0.016308	-0.415472	0.909460	-0.947765	-0.283365	-0.146446
559	3892526													9.273972	-0.164260	3.094370	0.318079	-0.864436	-0.389328	-0.016219	-0.415557	0.909423	-0.947925	-0.282954	-0.146200
560	3892693													9.427169	-0.156366	3.044381	0.317581	-0.864531	-0.389524	-0.016337	-0.415718	0.909347	-0.948090	-0.282427	-0.146148
561	3892860													9.436988	-0.173543	3.015299	0.317757	-0.864456	-0.389546	-0.016540	-0.415830	0.909292	-0.948028	-0.282491	-0.146431
562	3893026													9.336775	-0.177031	3.110310	0.318329	-0.864274	-0.389482	-0.016610	-0.415877	0.909269	-0.947835	-0.282978	-0.146741
563	3893193													9.301162	-0.167624	3.173671	0.318971	-0.864018	-0.389526	-0.016613	-0.416028	0.909200	-0.947619	-0.283537	-0.147055
564	3893360													9.290606	-0.160145	3.174047	0.319710	-0.863778	-0.389452	-0.016700	-0.416097	0.909167	-0.947368	-0.284166	-0.147456
565	3893526													9.292972	-0.163954	3.161760	0.320392	-0.863561	-0.389374	-0.016791	-0.416155	0.909139	-0.947136	-0.284743	-0.147832
566	3893693													9.322477	-0.141553	3.157099	0.321239	-0.863234	-0.389399	-0.016821	-0.416330	0.909058	-0.946849	-0.285475	-0.148262
567	3893860													9.332694	-0.124531	3.136135	0.322507	-0.862842	-0.389220	-0.016879	-0.416368	0.909039	-0.946417	-0.286602	-0.148846
568	3894027													9.349091	-0.121130	3.132909	0.324074	-0.862410	-0.388878	-0.016964	-0.416294	0.909072	-0.945880	-0.288009	-0.149540
569	3894193													9.360712	-0.135898	3.130508	0.325905	-0.861947	-0.388373	-0.017057	-0.416096	0.909161	-0.945249	-0.289676	-0.150310
570	3894360													9.352209	-0.155956	3.159145	0.327970	-0.861530	-0.387560	-0.017180	-0.415623	0.909375	-0.944532	-0.291589	-0.151113
571	3894527													9.347322	-0.159080	3.235267	0.330048	-0.861205	-0.386516	-0.017355	-0.414928	0.909689	-0.943805	-0.293533	-0.151892
572	3894693													9.291441	-0.151101	3.312501	0.331900	-0.861127	-0.385102	-0.017638	-0.413837	0.910180	-0.943150	-0.295297	-0.152541
573	3894860													9.244780	-0.144831	3.317644	0.333279	-0.861449	-0.383184	-0.018054	-0.412177	0.910925	-0.942656	-0.296674	-0.152922
574	3895027													9.334534	-0.145211	3.196559	0.334639	-0.861704	-0.381423	-0.018421	-0.410663	0.911601	-0.942166	-0.298031	-0.153297
575	3895193													9.357082	-0.146930	3.179447	0.336230	-0.861844	-0.379702	-0.018729	-0.409214	0.912246	-0.941594	-0.299613	-0.153731
576	3895360													9.326574	-0.179720	3.259164	0.338068	-0.861821	-0.378121	-0.019080	-0.407970	0.912796	-0.940928	-0.301373	-0.154365
577	3895527													9.324978	-0.171274	3.259753	0.340167	-0.861552	-0.376847	-0.019457	-0.407108	0.913173	-0.940164	-0.303299	-0.155248
578	3895693													9.307717	-0.153734	3.328433	0.342369	-0.860987	-0.376145	-0.019795	-0.406861	0.913276	-0.939357	-0.305232	-0.156339
579	3895860													9.296871	-0.131711	3.400647	0.344749	-0.860259	-0.375636	-0.020167	-0.406864	0.913266	-0.938478	-0.307272	-0.157615
580	3896027													9.301368	-0.124990	3.365965	0.347267	-0.859459	-0.375148	-0.020387	-0.406869	0.913259	-0.937545	-0.309497	-0.158814
581	3896193													9.341505	-0.164917	3.347718	0.350189	-0.858635	-0.374317	-0.020679	-0.406611	0.913367	-0.936451	-0.312111	-0.160146
582	3896360													9.293252	-0.203820	3.342478	0.353368	-0.857903	-0.373006	-0.021006	-0.405906	0.913673	-0.935248	-0.315028	-0.161455
583	3896527													9.315854	-0.270394	3.362706	0.356392	-0.857411	-0.371257	-0.021236	-0.404679	0.914212	-0.934095	-0.317933	-0.162432
584	3896693													9.297830	-0.229439	3.410878	0.359243	-0.856878	-0.369735	-0.021461	-0.403663	0.914656	-0.932997	-0.320649	-0.163403
585	3896860													9.329079	-0.213459	3.407289	0.362212	-0.856073	-0.368703	-0.021787	-0.403231	0.914839	-0.931841	-0.323333	-0.164706
586	3897027													9.416403	-0.214781	3.339343	0.365872	-0.855056	-0.367446	-0.022310	-0.402766	0.915031	-0.930398	-0.326587	-0.166437
587	3897193													9.442327	-0.226947	3.399645	0.370679	-0.853704	-0.365768	-0.022959	-0.402125	0.915297	-0.928477	-0.330883	-0.168660
588	3897360													9.173215	-0.213608	3.724364	0.375901	-0.852399	-0.363475	-0.023871	-0.401019	0.915759	-0.926352	-0.335558	-0.171092
589	3897527													9.202623	-0.223374	3.220297	0.380577	-0.851542	-0.360608	-0.025166	-0.399345	0.916455	-0.924407	-0.339707	-0.173412
590	3897693													9.496078	-0.245501	3.251801	0.387011	-0.849298	-0.359049	-0.026241	-0.399379	0.916410	-0.921702	-0.345239	-0.176850
591	3897860													9.306317	-0.263695	3.522534	0.394602	-0.846304	-0.357854	-0.027264	-0.400070	0.916079	-0.918448	-0.351730	-0.180942
592	3898027													9.123306	-0.245187	3.671339	0.403001	-0.842730	-0.356926	-0.028298	-0.401285	0.915516	-0.914762	-0.358853	-0.185566
593	3898193													9.063291	-0.286223	3.758910	0.412097	-0.838649	-0.356152	-0.029292	-0.402878	0.914785	-0.910669	-0.366548	-0.190590
594	3898360													9.125353	-0.240947	3.825744	0.421667	-0.834345	-0.355055	-0.030446	-0.404376	0.914086	-0.906239	-0.374630	-0.195914
595	3898527													9.001032	-0.184691	4.013515	0.431542	-0.829864	-0.353692	-0.031658	-0.405769	0.913427	-0.901537	-0.382985	-0.201378
596	3898693													8.817067	-0.266715	4.221714	0.441145	-0.825547	-0.351943	-0.033099	-0.406865	0.912888	-0.896825	-0.391067	-0.206812
597	3898860													8.823008	-0.410137	4.197377	0.450586	-0.821108	-0.350362	-0.034452	-0.408162	0.912259	-0.892068	-0.398981	-0.212201
598	3899027													8.874108	-0.412968	4.407290	0.460533	-0.816278	-0.348711	-0.035309	-0.409386	0.911678	-0.886940	-0.407545	-0.217357
599	3899193													8.649869	-0.288779	4.460005	0.470665	-0.811137	-0.347175	-0.036233	-0.410921	0.910951	-0.881568	-0.416173	-0.222796
600	3899360													8.557467	-0.333196	4.649210	0.480891	-0.805772	-0.345652	-0.037076	-0.412565	0.910173	-0.875996	-0.424878	-0.228274
601	3899527													8.473558	-0.364105	4.926462	0.490984	-0.800238	-0.344316	-0.037719	-0.414391	0.909317	-0.870352	-0.433473	-0.233643
602	3899693													8.258254	-0.301157	4.864718	0.500891	-0.794949	-0.342292	-0.038458	-0.415532	0.908765	-0.864655	-0.442029	-0.238709
603	3899860													8.149688	-0.345544	4.795842	0.511388	-0.789009	-0.340510	-0.039045	-0.417166	0.907991	-0.858463	-0.451041	-0.244140
604	3900027													8.658007	-0.432468	5.196181	0.521230	-0.783423	-0.338478	-0.039493	-0.418332	0.907435	-0.852502	-0.459615	-0.248987
605	3900193													8.199900	-0.336620	5.231364	0.531184	-0.777725	-0.336136	-0.039948	-0.419283	0.906976	-0.846314	-0.468344	-0.253785
606	3900360													8.112798	-0.323144	5.342256	0.540846	-0.772002	-0.333912	-0.040252	-0.420285	0.906499	-0.840158	-0.476836	-0.258385
607	3900527													8.141246	-0.372972	5.467378	0.550675	-0.766099	-0.331436	-0.040678	-0.421220	0.906046	-0.833728	-0.485455	-0.263119
608	3900693													8.072259	-0.393664	5.682268	0.560518	-0.760142	-0.328638	-0.041221	-0.421955	0.905679	-0.827116	-0.494103	-0.267848
609	3900860													7.884282	-0.431165	5.579176	0.569767	-0.754454	-0.325828	-0.041679	-0.422496	0.905406	-0.820748	-0.502291	-0.272169
610	3901027													8.105928	-0.381769	5.736164	0.578529	-0.749006	-0.322945	-0.042039	-0.422785	0.905254	-0.814577	-0.510140	-0.276081
611	3901193													7.861520	-0.338497	5.880922	0.587107	-0.743752	-0.319591	-0.042716	-0.422709	0.905258	-0.808381	-0.517832	-0.279946
612	3901360													7.571000	-0.452685	6.011614	0.595139	-0.738809	-0.316182	-0.043491	-0.422479	0.905329	-0.802445	-0.525045	-0.283565
613	3901527													7.612679	-0.524863	5.953019	0.602872	-0.733802	-0.313177	-0.044077	-0.422565	0.905260	-0.796619	-0.531952	-0.287096
614	3901693													7.599031	-0.458433	6.105970	0.610671	-0.728632	-0.310124	-0.044647	-0.422685	0.905176	-0.790625	-0.538919	-0.290653
615	3901860													7.470361	-0.451941	6.130773	0.617947	-0.723750	-0.307129	-0.045188	-0.422688	0.905148	-0.784920	-0.545455	-0.293904
616	3902027													7.656196	-0.484161	6.159828	0.624819	-0.719003	-0.304360	-0.045597	-0.422758	0.905095	-0.779437	-0.551643	-0.296932
617	3902193													7.506059	-0.482379	6.245700	0.631528	-0.714326	-0.301513	-0.045993	-0.422700	0.905102	-0.773988	-0.557730	-0.299801
618	3902360													7.478854	-0.491717	6.343421	0.637675	-0.709994	-0.298797	-0.046444	-0.422625	0.905114	-0.768904	-0.563291	-0.302472
619	3902527													7.473778	-0.504828	6.336641	0.643750	-0.705665	-0.296012	-0.046965	-0.422529	0.905132	-0.763794	-0.568776	-0.305145
620	3902693													7.276794	-0.478256	6.382987	0.649411	-0.701609	-0.293274	-0.047624	-0.422432	0.905143	-0.758944	-0.573843	-0.307746
621	3902860													7.350744	-0.485685	6.384701	0.654525	-0.697885	-0.290781	-0.048298	-0.422421	0.905112	-0.754496	-0.578374	-0.310192
622	3903027													7.406747	-0.463379	6.434845	0.659684	-0.694012	-0.288383	-0.048925	-0.422565	0.905011	-0.749949	-0.582913	-0.312714
623	3903193													7.286835	-0.526039	6.548613	0.664782	-0.690169	-0.285888	-0.049668	-0.422683	0.904916	-0.745384	-0.587372	-0.315272
624	3903360													7.218681	-0.582988	6.518774	0.669889	-0.686132	-0.283675	-0.050196	-0.423053	0.904714	-0.740763	-0.591818	-0.317839
625	3903527													7.210906	-0.521148	6.561414	0.675182	-0.681756	-0.281671	-0.050458	-0.423639	0.904425	-0.735923	-0.596439	-0.320433
626	3903693													7.243188	-0.463571	6.622384	0.680614	-0.677252	-0.279454	-0.050808	-0.424146	0.904167	-0.730878	-0.601190	-0.323090
627	3903860													7.261014	-0.436995	6.668264	0.685992	-0.672781	-0.277094	-0.051226	-0.424539	0.903960	-0.725804	-0.605914	-0.325694
628	3904027													7.182118	-0.466275	6.703053	0.691276	-0.668321	-0.274745	-0.051606	-0.424913	0.903762	-0.720746	-0.610571	-0.328221
629	3904193													7.119350	-0.490602	6.706545	0.696422	-0.663920	-0.272408	-0.051975	-0.425260	0.903578	-0.715748	-0.615113	-0.330668
630	3904360													7.071465	-0.513657	6.742204	0.701624	-0.659398	-0.270034	-0.052366	-0.425661	0.903366	-0.710621	-0.619682	-0.333184
631	3904527													6.936331	-0.498859	6.839725	0.706406	-0.655237	-0.267684	-0.052822	-0.425935	0.903211	-0.705833	-0.623894	-0.335494
632	3904693													6.967148	-0.501717	6.833312	0.710916	-0.651212	-0.265558	-0.053179	-0.426297	0.903019	-0.701263	-0.627849	-0.337692
633	3904860													6.936419	-0.503709	6.897927	0.715192	-0.647334	-0.263551	-0.053506	-0.426682	0.902818	-0.696877	-0.631587	-0.339795
634	3905027													6.837265	-0.531039	6.998958	0.719377	-0.643486	-0.261576	-0.053692	-0.426961	0.902675	-0.692541	-0.635319	-0.341696
635	3905193													6.752513	-0.554185	7.073550	0.723277	-0.639785	-0.259894	-0.053745	-0.427365	0.902480	-0.688463	-0.638775	-0.343489
636	3905360													6.696887	-0.544119	7.131880	0.726974	-0.636237	-0.258284	-0.053788	-0.427750	0.902295	-0.684555	-0.642053	-0.345185
637	3905527													6.650095	-0.507507	7.205814	0.730184	-0.633170	-0.256764	-0.053903	-0.428010	0.902165	-0.681121	-0.644906	-0.346655
638	3905693													6.642820	-0.504706	7.177722	0.733127	-0.630379	-0.255239	-0.054142	-0.428207	0.902057	-0.677933	-0.647504	-0.348060
639	3905860													6.553232	-0.547625	7.219959	0.735934	-0.627696	-0.253769	-0.054389	-0.428412	0.901945	-0.674865	-0.649970	-0.349422
640	3906027													6.517005	-0.577492	7.236621	0.738604	-0.625064	-0.252505	-0.054481	-0.428679	0.901813	-0.671934	-0.652326	-0.350678
641	3906193													6.489048	-0.531632	7.302565	0.741150	-0.622476	-0.251435	-0.054493	-0.429073	0.901625	-0.669124	-0.654538	-0.351928
642	3906360													6.448818	-0.526715	7.355090	0.743565	-0.620017	-0.250380	-0.054561	-0.429458	0.901437	-0.666434	-0.656616	-0.353159
643	3906527													6.438461	-0.524281	7.351191	0.745775	-0.617774	-0.249350	-0.054637	-0.429744	0.901296	-0.663954	-0.658540	-0.354246
644	3906693													6.426780	-0.534475	7.355543	0.747881	-0.615661	-0.248265	-0.054796	-0.429965	0.901181	-0.661567	-0.660372	-0.355299
645	3906860													6.344385	-0.551948	7.418293	0.749893	-0.613607	-0.247279	-0.054873	-0.430185	0.901072	-0.659280	-0.662138	-0.356263
646	3907027													6.313651	-0.561695	7.438951	0.751779	-0.611658	-0.246381	-0.054919	-0.430414	0.900959	-0.657125	-0.663791	-0.357168
647	3907193													6.270053	-0.551740	7.477560	0.753525	-0.609805	-0.245638	-0.054913	-0.430716	0.900815	-0.655122	-0.665298	-0.358041
648	3907527													6.269269	-0.500704	7.518418	0.756591	-0.606502	-0.244387	-0.054886	-0.431329	0.900523	-0.651581	-0.667915	-0.359628
649	3907860													6.248803	-0.530544	7.549630	0.758761	-0.604214	-0.243323	-0.054980	-0.431632	0.900373	-0.649044	-0.669790	-0.360725
650	3908027													6.280333	-0.542998	7.456635	0.759479	-0.603492	-0.242876	-0.055006	-0.431589	0.900392	-0.648202	-0.670469	-0.360979
651	3908193													6.295698	-0.502665	7.438670	0.760221	-0.602715	-0.242484	-0.054944	-0.431556	0.900411	-0.647337	-0.671188	-0.361194
652	3908360													6.268254	-0.526711	7.540850	0.760936	-0.601996	-0.242029	-0.054995	-0.431525	0.900423	-0.646492	-0.671854	-0.361469
653	3908527													6.236022	-0.606038	7.555586	0.761354	-0.601628	-0.241627	-0.055133	-0.431417	0.900466	-0.645988	-0.672252	-0.361631
654	3908693													6.304426	-0.595782	7.548297	0.761578	-0.601363	-0.241580	-0.055047	-0.431445	0.900458	-0.645731	-0.672471	-0.361683
655	3908860													6.281229	-0.550471	7.577754	0.761642	-0.601313	-0.241506	-0.055044	-0.431385	0.900487	-0.645656	-0.672555	-0.361660
656	3909027													6.272194	-0.574923	7.503762	0.761418	-0.601551	-0.241618	-0.055045	-0.431365	0.900497	-0.645920	-0.672354	-0.361562
657	3909193													6.301359	-0.526915	7.471501	0.761204	-0.601743	-0.241814	-0.055018	-0.431451	0.900457	-0.646175	-0.672127	-0.361529
658	3909360													6.314350	-0.548207	7.463515	0.760989	-0.601961	-0.241950	-0.055028	-0.431485	0.900440	-0.646427	-0.671911	-0.361479
659	3909527													6.334923	-0.565811	7.408779	0.760859	-0.602076	-0.242071	-0.054995	-0.431524	0.900424	-0.646583	-0.671782	-0.361439
660	3909693													6.355204	-0.533238	7.435740	0.760801	-0.602106	-0.242180	-0.054928	-0.431569	0.900406	-0.646657	-0.671727	-0.361410
661	3909860													6.363689	-0.533261	7.425942	0.760789	-0.602041	-0.242377	-0.054769	-0.431688	0.900359	-0.646684	-0.671709	-0.361397
662	3910027													6.363718	-0.546700	7.434455	0.760805	-0.601976	-0.242488	-0.054638	-0.431731	0.900346	-0.646676	-0.671739	-0.361354
663	3910193													6.356311	-0.573248	7.469836	0.760789	-0.601943	-0.242619	-0.054465	-0.431735	0.900355	-0.646710	-0.671766	-0.361244
664	3910360													6.369316	-0.569633	7.490267	0.760726	-0.601936	-0.242835	-0.054295	-0.431828	0.900320	-0.646798	-0.671713	-0.361185
665	3910527													6.367584	-0.558719	7.510474	0.760545	-0.602053	-0.243111	-0.054112	-0.431900	0.900297	-0.647026	-0.671561	-0.361057
666	3910694													6.428796	-0.518547	7.403775	0.760393	-0.602083	-0.243513	-0.053832	-0.432084	0.900225	-0.647228	-0.671416	-0.360965
667	3910860													6.344935	-0.535305	7.500190	0.760344	-0.602106	-0.243611	-0.053762	-0.432117	0.900214	-0.647292	-0.671375	-0.360927
668	3911027													6.358404	-0.627883	7.447902	0.760170	-0.602233	-0.243839	-0.053573	-0.432117	0.900225	-0.647512	-0.671261	-0.360746
669	3911194													6.373649	-0.551670	7.405332	0.760073	-0.602153	-0.244339	-0.053088	-0.432280	0.900175	-0.647666	-0.671227	-0.360531
670	3911360													6.372046	-0.481561	7.450680	0.759915	-0.602152	-0.244830	-0.052657	-0.432436	0.900126	-0.647886	-0.671127	-0.360322
671	3911527													6.375120	-0.483927	7.422328	0.759723	-0.602221	-0.245257	-0.052341	-0.432587	0.900072	-0.648137	-0.670968	-0.360167
672	3911694													6.315371	-0.511100	7.466965	0.759428	-0.602410	-0.245706	-0.052027	-0.432688	0.900041	-0.648507	-0.670733	-0.359937
673	3911860													6.364189	-0.520592	7.455174	0.759086	-0.602656	-0.246159	-0.051734	-0.432779	0.900014	-0.648932	-0.670453	-0.359694
674	3912027													6.353399	-0.505663	7.482597	0.758756	-0.602925	-0.246517	-0.051509	-0.432809	0.900013	-0.649335	-0.670192	-0.359452
675	3912194													6.356535	-0.512985	7.437125	0.758346	-0.603291	-0.246882	-0.051297	-0.432797	0.900031	-0.649831	-0.669870	-0.359157
676	3912360													6.378782	-0.521840	7.420517	0.757959	-0.603599	-0.247319	-0.051045	-0.432870	0.900010	-0.650302	-0.669546	-0.358909
677	3912527													6.349888	-0.478293	7.449930	0.757625	-0.603842	-0.247748	-0.050778	-0.432960	0.899982	-0.650712	-0.669268	-0.358684
678	3912694													6.361211	-0.513751	7.466251	0.757207	-0.604221	-0.248101	-0.050627	-0.432987	0.899977	-0.651210	-0.668909	-0.358451
679	3912860													6.342845	-0.541088	7.471844	0.756781	-0.604598	-0.248482	-0.050460	-0.433034	0.899964	-0.651718	-0.668538	-0.358220
680	3913027													6.327360	-0.539870	7.452557	0.756310	-0.605011	-0.248910	-0.050256	-0.433077	0.899955	-0.652280	-0.668136	-0.357946
681	3913194													6.375331	-0.513559	7.390818	0.755727	-0.605531	-0.249419	-0.050002	-0.433099	0.899958	-0.652976	-0.667651	-0.357582
682	3913360													6.396164	-0.475533	7.427039	0.755201	-0.606004	-0.249861	-0.049792	-0.433114	0.899963	-0.653599	-0.667212	-0.357262
683	3913527													6.389769	-0.442679	7.399766	0.754600	-0.606586	-0.250263	-0.049682	-0.433110	0.899971	-0.654301	-0.666685	-0.356961
684	3913694													6.390533	-0.491187	7.357907	0.753793	-0.607372	-0.250788	-0.049535	-0.433089	0.899989	-0.655242	-0.665983	-0.356545
685	3913860													6.478453	-0.499449	7.318723	0.752829	-0.608275	-0.251496	-0.049321	-0.433144	0.899974	-0.656366	-0.665123	-0.356084
686	3914027													6.448781	-0.480654	7.357972	0.751727	-0.609309	-0.252286	-0.049117	-0.433224	0.899947	-0.657643	-0.664123	-0.355594
687	3914194													6.408774	-0.461088	7.379936	0.750394	-0.610594	-0.253146	-0.048957	-0.433270	0.899934	-0.659175	-0.662912	-0.355016
688	3914360													6.403563	-0.466463	7.395616	0.748769	-0.612210	-0.254057	-0.048862	-0.433229	0.899958	-0.661028	-0.661447	-0.354302
689	3914527													6.329787	-0.515925	7.355651	0.746771	-0.614052	-0.255488	-0.048414	-0.433315	0.899941	-0.663317	-0.659681	-0.353315
690	3914694													6.333278	-0.529128	7.383950	0.744220	-0.616271	-0.257577	-0.047615	-0.433600	0.899846	-0.666235	-0.657420	-0.352038
691	3914860													6.387142	-0.505499	7.318596	0.741087	-0.619041	-0.259957	-0.046805	-0.433873	0.899757	-0.669775	-0.654631	-0.350513
692	3915027													6.399815	-0.486753	7.297785	0.737570	-0.622117	-0.262604	-0.045959	-0.434233	0.899628	-0.673705	-0.651469	-0.348868
693	3915194													6.288947	-0.431390	7.336885	0.733338	-0.625767	-0.265765	-0.044981	-0.434710	0.899446	-0.678374	-0.647644	-0.346937
694	3915360													6.396742	-0.419601	7.283940	0.728066	-0.630336	-0.269437	-0.044029	-0.435235	0.899240	-0.684091	-0.642843	-0.344633
695	3915527													6.502141	-0.435613	7.226324	0.722035	-0.635457	-0.273606	-0.043001	-0.435920	0.898957	-0.690519	-0.637313	-0.342075
696	3915694													6.659291	-0.385304	7.140176	0.715159	-0.641282	-0.278038	-0.042005	-0.436499	0.898723	-0.697698	-0.631052	-0.339103
697	3915860													6.828600	-0.338866	6.998265	0.707640	-0.647666	-0.282444	-0.041179	-0.436862	0.898586	-0.705372	-0.624244	-0.335811
698	3916027													6.957752	-0.339592	6.974111	0.700161	-0.654065	-0.286309	-0.040719	-0.436929	0.898574	-0.712823	-0.617488	-0.332554
699	3916194													6.860988	-0.389909	7.077778	0.692029	-0.661069	-0.289972	-0.040594	-0.436699	0.898691	-0.720727	-0.610149	-0.329044
700	3916360													6.933269	-0.471822	6.958568	0.682801	-0.668958	-0.293729	-0.040521	-0.436092	0.898990	-0.729480	-0.601929	-0.324871
701	3916527													7.038700	-0.442105	6.792578	0.672942	-0.677066	-0.297878	-0.040145	-0.435540	0.899274	-0.738605	-0.593200	-0.320274
702	3916694													7.067060	-0.403875	6.725849	0.662692	-0.685370	-0.301839	-0.039911	-0.434796	0.899644	-0.747827	-0.584141	-0.315489
703	3916860													7.132922	-0.482290	6.603519	0.652060	-0.693849	-0.305600	-0.039704	-0.433775	0.900146	-0.757127	-0.574816	-0.310396
704	3917027													7.276092	-0.463530	6.388861	0.641258	-0.702333	-0.309057	-0.039481	-0.432438	0.900799	-0.766309	-0.565443	-0.305033
705	3917194													7.319262	-0.419969	6.303391	0.630326	-0.710608	-0.312610	-0.039184	-0.431284	0.901365	-0.775341	-0.555904	-0.299695
706	3917360													7.360210	-0.427459	6.256311	0.618913	-0.718991	-0.316226	-0.038788	-0.430086	0.901954	-0.784501	-0.545966	-0.294074
707	3917527													7.589314	-0.456241	6.032248	0.607132	-0.727116	-0.320457	-0.037913	-0.429341	0.902346	-0.793696	-0.535694	-0.288234
708	3917694													7.758500	-0.414589	5.876357	0.595122	-0.735538	-0.323749	-0.037522	-0.427848	0.903071	-0.802759	-0.525290	-0.282220
709	3917860													7.825397	-0.391269	5.771636	0.582842	-0.743874	-0.327027	-0.036949	-0.426298	0.903828	-0.811745	-0.514705	-0.275950
710	3918027													7.945564	-0.332509	5.628172	0.570080	-0.752229	-0.330395	-0.036444	-0.424898	0.904507	-0.820781	-0.503600	-0.269640
711	3918194													8.102374	-0.355786	5.554021	0.557266	-0.760177	-0.334045	-0.035795	-0.423921	0.904992	-0.829562	-0.492364	-0.263447
712	3918360													8.030777	-0.408020	5.478836	0.543938	-0.768205	-0.337628	-0.035143	-0.422859	0.905514	-0.838389	-0.480678	-0.257006
713	3918527													8.282567	-0.329503	5.211389	0.530480	-0.776438	-0.340199	-0.034609	-0.420824	0.906482	-0.846991	-0.469096	-0.250110
714	3918694													8.291042	-0.318003	5.092588	0.517188	-0.784140	-0.342988	-0.034128	-0.419323	0.907195	-0.855191	-0.457485	-0.243630
715	3918860													8.423877	-0.353005	4.865466	0.503906	-0.791640	-0.345520	-0.033779	-0.417774	0.907923	-0.863098	-0.445837	-0.237259
716	3919027													8.507904	-0.293350	4.722983	0.491080	-0.798524	-0.348138	-0.033198	-0.416512	0.908524	-0.870481	-0.434600	-0.231051
717	3919194													8.524246	-0.227857	4.802182	0.478417	-0.805090	-0.350638	-0.032830	-0.415419	0.909038	-0.877519	-0.423388	-0.225175
718	3919360													8.625998	-0.311448	4.546024	0.465642	-0.811704	-0.352582	-0.032479	-0.413816	0.909781	-0.884377	-0.412181	-0.219053
719	3919527													8.692971	-0.291139	4.439321	0.453723	-0.817327	-0.355123	-0.031804	-0.413100	0.910130	-0.890575	-0.401653	-0.213427
720	3919694													8.969951	-0.360481	4.054083	0.442598	-0.822207	-0.357886	-0.030966	-0.412882	0.910258	-0.896185	-0.391796	-0.208201
721	3919860													8.916980	-0.287240	4.261071	0.432680	-0.826140	-0.360944	-0.029918	-0.413298	0.910104	-0.901051	-0.382985	-0.203542
722	3920027													8.874635	-0.280834	4.090174	0.422818	-0.830393	-0.362866	-0.029244	-0.412714	0.910391	-0.905743	-0.374318	-0.198787
723	3920194													9.005521	-0.260986	3.989597	0.413537	-0.834417	-0.364329	-0.028852	-0.411956	0.910747	-0.910030	-0.366116	-0.194434
724	3920360													9.063740	-0.282885	3.963668	0.404654	-0.837888	-0.366332	-0.028469	-0.411944	0.910765	-0.914027	-0.358115	-0.190548
725	3920527													9.136756	-0.357754	3.651261	0.396299	-0.840717	-0.368974	-0.027845	-0.412700	0.910441	-0.917699	-0.350532	-0.186963
726	3920694													9.264570	-0.276148	3.616359	0.389236	-0.843146	-0.370945	-0.027300	-0.413086	0.910283	-0.920733	-0.344188	-0.183806
727	3920860													9.072232	-0.169430	3.861436	0.382392	-0.845352	-0.373035	-0.026956	-0.413752	0.909990	-0.923607	-0.337918	-0.181003
728	3921027													9.087139	-0.341615	3.627907	0.375515	-0.847808	-0.374447	-0.026403	-0.413636	0.910060	-0.926440	-0.331855	-0.177711
729	3921194													9.362019	-0.293502	3.357765	0.368795	-0.850296	-0.375481	-0.025878	-0.413191	0.910277	-0.929150	-0.325989	-0.174387
730	3921360													9.614800	-0.245088	3.190796	0.364049	-0.852135	-0.375945	-0.025414	-0.412581	0.910566	-0.931033	-0.321936	-0.171856
731	3921527													9.429324	-0.189010	3.336388	0.361177	-0.853071	-0.376591	-0.025024	-0.412574	0.910580	-0.932161	-0.319457	-0.170359
732	3921694													9.287192	-0.263950	3.413265	0.359397	-0.853462	-0.377407	-0.024595	-0.412952	0.910421	-0.932861	-0.317920	-0.169405
733	3921860													9.332319	-0.269517	3.314626	0.358539	-0.853676	-0.377739	-0.024131	-0.412982	0.910419	-0.933203	-0.317306	-0.168671
734	3922027													9.367549	-0.267600	3.365901	0.358377	-0.853801	-0.377611	-0.023729	-0.412678	0.910568	-0.933275	-0.317366	-0.168154
735	3922194													9.177750	-0.270522	3.495449	0.357953	-0.853909	-0.377768	-0.023268	-0.412607	0.910612	-0.933450	-0.317166	-0.167563
736	3922360													9.012265	-0.219093	3.719921	0.356270	-0.854429	-0.378185	-0.023054	-0.412658	0.910594	-0.934099	-0.315698	-0.166716
737	3922527													9.169824	-0.239249	3.401416	0.353077	-0.855562	-0.378615	-0.022856	-0.412445	0.910696	-0.935315	-0.312892	-0.165180
738	3922694													9.507068	-0.271165	3.080366	0.350434	-0.856208	-0.379611	-0.022395	-0.412857	0.910520	-0.936319	-0.310576	-0.163854
739	3922860													9.380542	-0.219099	3.232362	0.348498	-0.856500	-0.380732	-0.022045	-0.413574	0.910204	-0.937050	-0.308811	-0.163011
740	3923027													9.340516	-0.205273	3.201994	0.346893	-0.856872	-0.381361	-0.021691	-0.413830	0.910096	-0.937654	-0.307434	-0.162142
741	3923194													9.357202	-0.204108	3.212229	0.345832	-0.857144	-0.381712	-0.021287	-0.413876	0.910084	-0.938055	-0.306611	-0.161377
742	3923360													9.283952	-0.179804	3.365794	0.344561	-0.857768	-0.381461	-0.021157	-0.413336	0.910333	-0.938525	-0.305595	-0.160567
743	3923527													9.437995	-0.170108	3.204302	0.343149	-0.858450	-0.381199	-0.021244	-0.412831	0.910560	-0.939041	-0.304359	-0.159899
744	3923694													9.492717	-0.211673	3.136127	0.342664	-0.858617	-0.381258	-0.021245	-0.412806	0.910571	-0.939218	-0.303920	-0.159695
745	3923860													9.360762	-0.199551	3.224002	0.342920	-0.858498	-0.381296	-0.021000	-0.412814	0.910573	-0.939130	-0.304247	-0.159590
746	3924027													9.246105	-0.179496	3.337242	0.343182	-0.858353	-0.381386	-0.020699	-0.412859	0.910560	-0.939041	-0.304593	-0.159452
747	3924194													9.184794	-0.181934	3.401198	0.342601	-0.858586	-0.381386	-0.020458	-0.412676	0.910648	-0.939258	-0.304186	-0.158948
748	3924360													9.239355	-0.183594	3.375348	0.341287	-0.859082	-0.381446	-0.020358	-0.412472	0.910743	-0.939739	-0.303059	-0.158260
749	3924527													9.139009	-0.172902	3.457551	0.338892	-0.859862	-0.381824	-0.020283	-0.412422	0.910767	-0.940607	-0.300907	-0.157207
750	3924694													9.168574	-0.156666	3.379625	0.335630	-0.860991	-0.382161	-0.020404	-0.412243	0.910845	-0.941773	-0.297909	-0.155929
751	3924860													9.428349	-0.123617	3.058659	0.332631	-0.862155	-0.382158	-0.020592	-0.411776	0.911052	-0.942832	-0.295175	-0.154723
752	3925027													9.483170	-0.164007	2.972595	0.331231	-0.862754	-0.382024	-0.020774	-0.411450	0.911196	-0.943321	-0.293880	-0.154207
753	3925194													9.401728	-0.186622	3.088620	0.330783	-0.863011	-0.381831	-0.020951	-0.411223	0.911294	-0.943474	-0.293441	-0.154107
754	3925360													9.337460	-0.183921	3.186451	0.330682	-0.863118	-0.381677	-0.021046	-0.411073	0.911359	-0.943508	-0.293337	-0.154100
755	3925527													9.335905	-0.192474	3.225682	0.330854	-0.863156	-0.381440	-0.021163	-0.410889	0.911440	-0.943445	-0.293481	-0.154211
756	3925694													9.273481	-0.196052	3.228610	0.331294	-0.863079	-0.381232	-0.021263	-0.410777	0.911488	-0.943288	-0.293865	-0.154440
757	3925860													9.263639	-0.191012	3.233024	0.331815	-0.862893	-0.381201	-0.021253	-0.410830	0.911464	-0.943105	-0.294336	-0.154659
758	3926027													9.272161	-0.210624	3.253385	0.332389	-0.862654	-0.381243	-0.021291	-0.410986	0.911393	-0.942902	-0.294820	-0.154974
759	3926194													9.237641	-0.222354	3.296819	0.332863	-0.862583	-0.380989	-0.021415	-0.410839	0.911456	-0.942732	-0.295231	-0.155225
760	3926360													9.220571	-0.241061	3.328419	0.332873	-0.862581	-0.380984	-0.021397	-0.410830	0.911461	-0.942729	-0.295249	-0.155211
761	3926527													9.223376	-0.219067	3.306092	0.332229	-0.862582	-0.381544	-0.021335	-0.411291	0.911254	-0.942957	-0.294605	-0.155046
762	3926694													9.165099	-0.186589	3.414341	0.330834	-0.863076	-0.381641	-0.021443	-0.411184	0.911300	-0.943445	-0.293305	-0.154540
763	3926860													9.302002	-0.202225	3.164047	0.328678	-0.863741	-0.381999	-0.021537	-0.411220	0.911282	-0.944196	-0.291291	-0.153762
764	3927027													9.431310	-0.224274	3.027424	0.327061	-0.864179	-0.382395	-0.021686	-0.411406	0.911194	-0.944754	-0.289723	-0.153296
765	3927194													9.411744	-0.232997	3.033555	0.326424	-0.864312	-0.382638	-0.021796	-0.411587	0.911110	-0.944972	-0.289068	-0.153191
766	3927361													9.369780	-0.219251	3.092282	0.326368	-0.864285	-0.382748	-0.021892	-0.411723	0.911046	-0.944989	-0.288957	-0.153294
767	3927527													9.335715	-0.237770	3.140839	0.326509	-0.864184	-0.382855	-0.022018	-0.411899	0.910964	-0.944938	-0.289008	-0.153517
768	3927694													9.288351	-0.225820	3.176162	0.326643	-0.864160	-0.382796	-0.022148	-0.411899	0.910960	-0.944888	-0.289081	-0.153683
769	3927861													9.292367	-0.211594	3.166715	0.326852	-0.864166	-0.382603	-0.022292	-0.411775	0.911013	-0.944813	-0.289237	-0.153853
770	3928027													9.262933	-0.222385	3.206717	0.327140	-0.864134	-0.382428	-0.022458	-0.411692	0.911046	-0.944709	-0.289451	-0.154088
771	3928194													9.232869	-0.248657	3.213101	0.327129	-0.864118	-0.382473	-0.022551	-0.411765	0.911011	-0.944710	-0.289393	-0.154187
772	3928361													9.324077	-0.247653	3.127488	0.327056	-0.864090	-0.382600	-0.022564	-0.411891	0.910954	-0.944736	-0.289300	-0.154209
773	3928527													9.232594	-0.256499	3.252990	0.326802	-0.864088	-0.382821	-0.022452	-0.412046	0.910886	-0.944826	-0.289084	-0.154058
774	3928694													9.215310	-0.281076	3.252585	0.325850	-0.864160	-0.383470	-0.022316	-0.412525	0.910673	-0.945158	-0.288185	-0.153706
775	3928861													9.338620	-0.256488	3.149301	0.324736	-0.864238	-0.384239	-0.022150	-0.413094	0.910419	-0.945545	-0.287135	-0.153289
776	3929027													9.295144	-0.249704	3.177262	0.323559	-0.864353	-0.384973	-0.022032	-0.413631	0.910178	-0.945951	-0.286015	-0.152877
777	3929194													9.320216	-0.226968	3.129073	0.322571	-0.864489	-0.385495	-0.021995	-0.414001	0.910011	-0.946290	-0.285064	-0.152559
778	3929361													9.331839	-0.245933	3.084294	0.321914	-0.864604	-0.385786	-0.021992	-0.414195	0.909922	-0.946514	-0.284432	-0.152350
779	3929527													9.353987	-0.228621	3.082362	0.321622	-0.864582	-0.386078	-0.021947	-0.414440	0.909812	-0.946614	-0.284143	-0.152268
780	3929694													9.334890	-0.192716	3.105769	0.321755	-0.864432	-0.386304	-0.021872	-0.414677	0.909706	-0.946570	-0.284254	-0.152331
781	3929861													9.320768	-0.186357	3.111439	0.322268	-0.864177	-0.386447	-0.021772	-0.414884	0.909614	-0.946398	-0.284726	-0.152519
782	3930027													9.301759	-0.180469	3.167813	0.323010	-0.863889	-0.386471	-0.021646	-0.414998	0.909565	-0.946148	-0.285433	-0.152748
783	3930194													9.237784	-0.185770	3.193932	0.323520	-0.863717	-0.386429	-0.021575	-0.415018	0.909557	-0.945975	-0.285923	-0.152901
784	3930361													9.247997	-0.170313	3.172528	0.323736	-0.863666	-0.386363	-0.021406	-0.414935	0.909599	-0.945905	-0.286200	-0.152817
785	3930527													9.304477	-0.174719	3.146966	0.323931	-0.863648	-0.386239	-0.021209	-0.414779	0.909675	-0.945843	-0.286480	-0.152677
786	3930694													9.357258	-0.180455	3.198370	0.324097	-0.863562	-0.386292	-0.021137	-0.414840	0.909649	-0.945788	-0.286650	-0.152701
787	3930861													9.347195	-0.216865	3.207019	0.324358	-0.863473	-0.386271	-0.021136	-0.414862	0.909639	-0.945698	-0.286885	-0.152814
788	3931027													9.303975	-0.224212	3.178400	0.324775	-0.863381	-0.386127	-0.021019	-0.414746	0.909694	-0.945558	-0.287330	-0.152846
789	3931194													9.265413	-0.195115	3.194119	0.325177	-0.863289	-0.385995	-0.020888	-0.414636	0.909748	-0.945423	-0.287766	-0.152863
790	3931361													9.251284	-0.209033	3.207568	0.325377	-0.863266	-0.385877	-0.020908	-0.414552	0.909785	-0.945353	-0.287956	-0.152935
791	3931527													9.274922	-0.238033	3.166650	0.325372	-0.863318	-0.385767	-0.020904	-0.414433	0.909840	-0.945355	-0.287972	-0.152892
792	3931694													9.277175	-0.217022	3.186372	0.325289	-0.863370	-0.385719	-0.020877	-0.414360	0.909874	-0.945384	-0.287919	-0.152811
793	3931861													9.271632	-0.204030	3.157097	0.325134	-0.863466	-0.385635	-0.020845	-0.414236	0.909931	-0.945438	-0.287811	-0.152681
794	3932027													9.300370	-0.180162	3.105521	0.325151	-0.863494	-0.385558	-0.020762	-0.414132	0.909980	-0.945434	-0.287876	-0.152583
795	3932194													9.311375	-0.174430	3.096981	0.325314	-0.863425	-0.385575	-0.020666	-0.414148	0.909975	-0.945380	-0.288059	-0.152572
796	3932361													9.304286	-0.173571	3.174252	0.325424	-0.863359	-0.385630	-0.020624	-0.414213	0.909946	-0.945343	-0.288165	-0.152601
797	3932527													9.318187	-0.171350	3.179527	0.325361	-0.863440	-0.385501	-0.020574	-0.414051	0.910021	-0.945366	-0.288155	-0.152480
798	3932694													9.352169	-0.176929	3.143597	0.325265	-0.863492	-0.385467	-0.020611	-0.414010	0.910039	-0.945398	-0.288059	-0.152461
799	3932861													9.346300	-0.190733	3.128498	0.325225	-0.863490	-0.385503	-0.020604	-0.414039	0.910026	-0.945412	-0.288021	-0.152448
800	3933027													9.322253	-0.178217	3.118381	0.325233	-0.863471	-0.385540	-0.020555	-0.414065	0.910015	-0.945411	-0.288042	-0.152416
801	3933194													9.322840	-0.190447	3.155706	0.325271	-0.863458	-0.385537	-0.020563	-0.414070	0.910013	-0.945397	-0.288073	-0.152440
802	3933361													9.317452	-0.183466	3.112656	0.325360	-0.863462	-0.385453	-0.020672	-0.414030	0.910028	-0.945364	-0.288118	-0.152558
803	3933527													9.264530	-0.241709	3.132314	0.325547	-0.863446	-0.385330	-0.020623	-0.413918	0.910081	-0.945301	-0.288328	-0.152557
804	3933694													9.266891	-0.169212	3.209843	0.325488	-0.863505	-0.385249	-0.020539	-0.413796	0.910138	-0.945323	-0.288326	-0.152422
805	3933861													9.273732	-0.154321	3.185761	0.325072	-0.863660	-0.385253	-0.020438	-0.413698	0.910185	-0.945468	-0.288002	-0.152133
806	3934027													9.339330	-0.186357	3.131988	0.324647	-0.863733	-0.385446	-0.020392	-0.413817	0.910132	-0.945615	-0.287611	-0.151957
807	3934194													9.331394	-0.186003	3.122712	0.324419	-0.863726	-0.385654	-0.020355	-0.413986	0.910056	-0.945695	-0.287389	-0.151886
808	3934361													9.321112	-0.180748	3.151495	0.324388	-0.863670	-0.385807	-0.020361	-0.414144	0.909984	-0.945705	-0.287332	-0.151928
809	3934527													9.315959	-0.202364	3.161102	0.324508	-0.863593	-0.385878	-0.020365	-0.414240	0.909940	-0.945664	-0.287424	-0.152011
810	3934694													9.302317	-0.197586	3.167560	0.324728	-0.863470	-0.385967	-0.020365	-0.414370	0.909880	-0.945588	-0.287604	-0.152142
811	3934861													9.271954	-0.190222	3.196203	0.324884	-0.863401	-0.385991	-0.020398	-0.414433	0.909851	-0.945534	-0.287723	-0.152254
812	3935027													9.258332	-0.197664	3.217871	0.324911	-0.863390	-0.385993	-0.020446	-0.414454	0.909841	-0.945524	-0.287725	-0.152314
813	3935194													9.268550	-0.211166	3.190631	0.324745	-0.863486	-0.385918	-0.020488	-0.414359	0.909883	-0.945580	-0.287573	-0.152252
814	3935361													9.304580	-0.191356	3.152563	0.324594	-0.863545	-0.385913	-0.020505	-0.414334	0.909894	-0.945631	-0.287433	-0.152197
815	3935527													9.312981	-0.179754	3.147155	0.324601	-0.863544	-0.385910	-0.020522	-0.414337	0.909892	-0.945628	-0.287432	-0.152216
816	3935694													9.286098	-0.188184	3.180307	0.324658	-0.863510	-0.385937	-0.020525	-0.414376	0.909874	-0.945609	-0.287477	-0.152254
817	3935861													9.296619	-0.190433	3.153399	0.324762	-0.863451	-0.385982	-0.020543	-0.414446	0.909842	-0.945573	-0.287553	-0.152334
818	3936027													9.306332	-0.186628	3.184756	0.324911	-0.863415	-0.385936	-0.020607	-0.414443	0.909842	-0.945520	-0.287665	-0.152449
819	3936194													9.303571	-0.201355	3.159626	0.325046	-0.863433	-0.385784	-0.020659	-0.414321	0.909896	-0.945473	-0.287788	-0.152511
820	3936361													9.307255	-0.160525	3.143440	0.325232	-0.863428	-0.385637	-0.020690	-0.414207	0.909947	-0.945408	-0.287965	-0.152578
821	3936527													9.305463	-0.190830	3.177596	0.325406	-0.863441	-0.385462	-0.020713	-0.414059	0.910014	-0.945348	-0.288140	-0.152622
822	3936694													9.297856	-0.211923	3.142639	0.325448	-0.863491	-0.385315	-0.020738	-0.413920	0.910077	-0.945332	-0.288192	-0.152617
823	3936861													9.295918	-0.191856	3.171881	0.325460	-0.863513	-0.385256	-0.020706	-0.413849	0.910110	-0.945329	-0.288227	-0.152571
824	3937027													9.254831	-0.188541	3.218572	0.325320	-0.863579	-0.385225	-0.020701	-0.413791	0.910136	-0.945377	-0.288111	-0.152491
825	3937194													9.298515	-0.191058	3.166004	0.325137	-0.863709	-0.385088	-0.020745	-0.413629	0.910209	-0.945439	-0.287954	-0.152404
826	3937361													9.326953	-0.200768	3.112917	0.325188	-0.863733	-0.384990	-0.020734	-0.413532	0.910253	-0.945422	-0.288021	-0.152385
827	3937527													9.291023	-0.214058	3.157147	0.325378	-0.863676	-0.384959	-0.020700	-0.413521	0.910259	-0.945357	-0.288210	-0.152428
828	3937694													9.286957	-0.197500	3.168198	0.325436	-0.863611	-0.385055	-0.020685	-0.413627	0.910211	-0.945338	-0.288251	-0.152473
829	3937861													9.322638	-0.210413	3.192416	0.325494	-0.863519	-0.385213	-0.020675	-0.413800	0.910133	-0.945318	-0.288279	-0.152543
830	3938027													9.274058	-0.177145	3.172871	0.325541	-0.863433	-0.385365	-0.020631	-0.413956	0.910063	-0.945303	-0.288312	-0.152573
831	3938194													9.304887	-0.176997	3.113410	0.325592	-0.863378	-0.385446	-0.020580	-0.414034	0.910029	-0.945286	-0.288366	-0.152575
832	3938361													9.334419	-0.173000	3.130188	0.325771	-0.863272	-0.385532	-0.020607	-0.414163	0.909969	-0.945224	-0.288497	-0.152712
833	3938527													9.348352	-0.188429	3.146612	0.325845	-0.863249	-0.385520	-0.020813	-0.414226	0.909936	-0.945194	-0.288474	-0.152940
834	3938694													9.285525	-0.214404	3.213922	0.326154	-0.863215	-0.385336	-0.020948	-0.414126	0.909979	-0.945084	-0.288722	-0.153151
835	3938861													9.255885	-0.197271	3.231900	0.326347	-0.863198	-0.385210	-0.020943	-0.414025	0.910025	-0.945018	-0.288917	-0.153194
836	3939027													9.261555	-0.185737	3.233961	0.326253	-0.863264	-0.385141	-0.021043	-0.413967	0.910049	-0.945048	-0.288802	-0.153223
837	3939194													9.258280	-0.216174	3.230932	0.326086	-0.863390	-0.385001	-0.021188	-0.413835	0.910105	-0.945103	-0.288615	-0.153240
838	3939361													9.279753	-0.228356	3.191573	0.325841	-0.863477	-0.385013	-0.021334	-0.413850	0.910095	-0.945184	-0.288332	-0.153271
839	3939527													9.282351	-0.213538	3.178368	0.325698	-0.863539	-0.384994	-0.021461	-0.413844	0.910095	-0.945230	-0.288154	-0.153320
840	3939694													9.277212	-0.214407	3.209722	0.325594	-0.863564	-0.385027	-0.021527	-0.413881	0.910077	-0.945265	-0.288027	-0.153347
841	3939861													9.277186	-0.192616	3.173192	0.325403	-0.863584	-0.385143	-0.021574	-0.413986	0.910028	-0.945329	-0.287816	-0.153343
842	3940027													9.316677	-0.190088	3.139034	0.325306	-0.863556	-0.385288	-0.021629	-0.414138	0.909957	-0.945362	-0.287681	-0.153400
843	3940194													9.323775	-0.209108	3.158889	0.325347	-0.863507	-0.385363	-0.021694	-0.414244	0.909907	-0.945346	-0.287675	-0.153506
844	3940361													9.306168	-0.213696	3.188350	0.325397	-0.863448	-0.385453	-0.021729	-0.414358	0.909854	-0.945328	-0.287688	-0.153593
845	3940527													9.304693	-0.205353	3.195624	0.325505	-0.863384	-0.385506	-0.021791	-0.414452	0.909810	-0.945289	-0.287747	-0.153720
846	3940694													9.291844	-0.212008	3.187066	0.325668	-0.863329	-0.385491	-0.021852	-0.414482	0.909795	-0.945232	-0.287867	-0.153849
847	3940861													9.289166	-0.194649	3.175082	0.325739	-0.863292	-0.385515	-0.021827	-0.414511	0.909782	-0.945208	-0.287937	-0.153865
848	3941027													9.310959	-0.193055	3.151038	0.325884	-0.863202	-0.385592	-0.021887	-0.414636	0.909724	-0.945156	-0.288025	-0.154017
849	3941194													9.321396	-0.223417	3.142554	0.326170	-0.863165	-0.385435	-0.022019	-0.414560	0.909756	-0.945055	-0.288248	-0.154223
850	3941361													9.308268	-0.208182	3.148873	0.326473	-0.863082	-0.385364	-0.022027	-0.414539	0.909765	-0.944950	-0.288525	-0.154347
851	3941527													9.319441	-0.169308	3.161263	0.326656	-0.863040	-0.385302	-0.022055	-0.414515	0.909775	-0.944886	-0.288686	-0.154438
852	3941694													9.309919	-0.186088	3.182899	0.326765	-0.863045	-0.385199	-0.022071	-0.414429	0.909814	-0.944848	-0.288794	-0.154469
853	3941861													9.307851	-0.199101	3.167211	0.326874	-0.863022	-0.385158	-0.022032	-0.414393	0.909831	-0.944811	-0.288914	-0.154469
854	3942027													9.293751	-0.205560	3.184745	0.326964	-0.863018	-0.385090	-0.022011	-0.414331	0.909860	-0.944780	-0.289015	-0.154467
