// Start Time: Unknown
// Update Rate: 60.0Hz
//Filter Profile: human (46.1)
// Option Flags: AHS Disabled ICC Disabled
// Firmware Version: 4.0.2
0	sampleTimeFine	Year	Month	Day	Second	UTC_Nano	UTC_Year	UTC_Month	UTC_Day	UTC_Hour	UTC_Minute	UTC_Second	UTC_Valid	Acc_X	Acc_Y	Acc_Z	Mat[1][1]	Mat[2][1]	Mat[3][1]	Mat[1][2]	Mat[2][2]	Mat[3][2]	Mat[1][3]	Mat[2][3]	Mat[3][3]
0	3799358													-0.118937	-0.507095	0.045239	-0.252186	-0.941017	0.225586	0.006898	0.231367	0.972842	-0.967654	0.246893	-0.051856
1	3799525													9.447417	0.069103	-2.485242	-0.252221	-0.941181	0.224861	0.006513	0.230717	0.972999	-0.967648	0.246875	-0.052062
2	3799691													9.419787	0.081777	-2.451794	-0.252652	-0.941074	0.224827	0.006415	0.230731	0.972996	-0.967536	0.247272	-0.052257
3	3799858													9.431385	0.097648	-2.438995	-0.252713	-0.941146	0.224455	0.006589	0.230306	0.973096	-0.967519	0.247393	-0.052000
4	3800025													9.446766	0.120325	-2.458282	-0.252549	-0.941149	0.224629	0.006941	0.230387	0.973074	-0.967559	0.247308	-0.051652
5	3800191													9.454885	0.106303	-2.461879	-0.252432	-0.941188	0.224596	0.007420	0.230223	0.973110	-0.967586	0.247310	-0.051132
6	3800358													9.454479	0.119438	-2.450399	-0.252338	-0.941206	0.224625	0.007777	0.230157	0.973122	-0.967608	0.247302	-0.050758
7	3800525													9.438309	0.118201	-2.447563	-0.252245	-0.941179	0.224842	0.008063	0.230303	0.973086	-0.967630	0.247269	-0.050504
8	3800691													9.455400	0.089301	-2.462340	-0.252157	-0.941130	0.225148	0.008298	0.230555	0.973024	-0.967651	0.247223	-0.050327
9	3800858													9.436539	0.084667	-2.476412	-0.252109	-0.941120	0.225243	0.008468	0.230607	0.973010	-0.967662	0.247212	-0.050168
10	3801025													9.447432	0.070097	-2.472654	-0.252143	-0.941097	0.225300	0.008560	0.230644	0.973001	-0.967652	0.247263	-0.050100
11	3801191													9.454522	0.082260	-2.495242	-0.252178	-0.941063	0.225403	0.008596	0.230743	0.972977	-0.967643	0.247301	-0.050099
12	3801358													9.460174	0.088086	-2.483308	-0.252177	-0.941039	0.225507	0.008639	0.230840	0.972953	-0.967643	0.247304	-0.050083
13	3801525													9.438630	0.103875	-2.482009	-0.252175	-0.941002	0.225663	0.008697	0.230986	0.972918	-0.967643	0.247308	-0.050065
14	3801691													9.441749	0.089208	-2.487123	-0.252181	-0.940993	0.225691	0.008727	0.231008	0.972913	-0.967641	0.247320	-0.050043
15	3801858													9.432251	0.120114	-2.487117	-0.252237	-0.940952	0.225802	0.008735	0.231124	0.972885	-0.967626	0.247370	-0.050079
16	3802025													9.444695	0.143717	-2.477078	-0.252302	-0.940916	0.225879	0.008784	0.231194	0.972868	-0.967609	0.247441	-0.050066
17	3802191													9.458089	0.120522	-2.462026	-0.252319	-0.940884	0.225991	0.008820	0.231301	0.972842	-0.967604	0.247460	-0.050063
18	3802358													9.465577	0.103399	-2.437754	-0.252302	-0.940846	0.226167	0.008803	0.231487	0.972798	-0.967608	0.247430	-0.050122
19	3802525													9.445717	0.108970	-2.477618	-0.252255	-0.940821	0.226325	0.008734	0.231665	0.972756	-0.967621	0.247360	-0.050222
20	3802691													9.428211	0.111198	-2.480565	-0.252231	-0.940798	0.226447	0.008696	0.231800	0.972725	-0.967628	0.247320	-0.050286
21	3802858													9.431256	0.093092	-2.437950	-0.252268	-0.940776	0.226499	0.008632	0.231872	0.972708	-0.967619	0.247338	-0.050373
22	3803025													9.456644	0.099690	-2.440626	-0.252268	-0.940746	0.226623	0.008574	0.232016	0.972674	-0.967619	0.247318	-0.050464
23	3803191													9.407292	0.130453	-2.450660	-0.252289	-0.940726	0.226683	0.008478	0.232103	0.972654	-0.967615	0.247312	-0.050581
24	3803358													9.394410	0.178031	-2.474235	-0.252413	-0.940665	0.226799	0.008515	0.232221	0.972626	-0.967582	0.247434	-0.050606
25	3803525													9.435850	0.122088	-2.477803	-0.252612	-0.940544	0.227077	0.008563	0.232506	0.972557	-0.967530	0.247624	-0.050680
26	3803691													9.494484	0.094748	-2.497345	-0.252863	-0.940455	0.227167	0.008466	0.232638	0.972527	-0.967465	0.247839	-0.050864
27	3803858													9.515473	0.112748	-2.477368	-0.253016	-0.940391	0.227260	0.008244	0.232799	0.972490	-0.967427	0.247929	-0.051149
28	3804025													9.480355	0.103097	-2.456335	-0.253065	-0.940372	0.227287	0.008009	0.232890	0.972470	-0.967416	0.247918	-0.051405
29	3804191													9.449756	0.070921	-2.479706	-0.253073	-0.940366	0.227300	0.007787	0.232961	0.972455	-0.967416	0.247872	-0.051633
30	3804358													9.443855	0.060115	-2.467298	-0.253025	-0.940396	0.227230	0.007581	0.232939	0.972462	-0.967430	0.247780	-0.051811
31	3804525													9.445280	0.061889	-2.447859	-0.252942	-0.940464	0.227043	0.007363	0.232796	0.972498	-0.967453	0.247657	-0.051960
32	3804691													9.439874	0.088846	-2.437560	-0.252829	-0.940547	0.226822	0.007130	0.232621	0.972541	-0.967485	0.247504	-0.052107
33	3804858													9.423014	0.101073	-2.451488	-0.252663	-0.940643	0.226611	0.006961	0.232437	0.972586	-0.967529	0.247314	-0.052180
34	3805025													9.426948	0.130597	-2.451182	-0.252540	-0.940729	0.226388	0.006868	0.232224	0.972638	-0.967562	0.247185	-0.052185
35	3805191													9.446562	0.140867	-2.455509	-0.252445	-0.940780	0.226283	0.006762	0.232137	0.972660	-0.967588	0.247073	-0.052240
36	3805358													9.446012	0.139651	-2.453690	-0.252437	-0.940780	0.226294	0.006677	0.232169	0.972653	-0.967590	0.247044	-0.052327
37	3805525													9.469772	0.133800	-2.459522	-0.252450	-0.940755	0.226385	0.006560	0.232293	0.972624	-0.967588	0.247024	-0.052471
38	3805691													9.463829	0.103935	-2.476931	-0.252472	-0.940713	0.226532	0.006450	0.232475	0.972581	-0.967583	0.247011	-0.052625
39	3805858													9.421021	0.097816	-2.455624	-0.252521	-0.940684	0.226597	0.006308	0.232581	0.972557	-0.967571	0.247021	-0.052798
40	3806025													9.404677	0.108860	-2.453711	-0.252666	-0.940628	0.226667	0.006271	0.232672	0.972535	-0.967533	0.247148	-0.052889
41	3806191													9.415704	0.092035	-2.487858	-0.252903	-0.940531	0.226807	0.006275	0.232828	0.972498	-0.967471	0.247370	-0.052981
42	3806358													9.434358	0.090118	-2.502237	-0.253217	-0.940420	0.226919	0.006227	0.232974	0.972463	-0.967390	0.247657	-0.053137
43	3806525													9.450081	0.092842	-2.483988	-0.253541	-0.940322	0.226962	0.006190	0.233047	0.972446	-0.967305	0.247960	-0.053267
44	3806691													9.441848	0.135632	-2.515549	-0.253816	-0.940264	0.226895	0.006133	0.233007	0.972456	-0.967233	0.248216	-0.053375
45	3806858													9.455610	0.124448	-2.528167	-0.254030	-0.940201	0.226918	0.006118	0.233048	0.972446	-0.967177	0.248418	-0.053449
46	3807025													9.450965	0.111842	-2.498785	-0.254178	-0.940145	0.226984	0.006058	0.233139	0.972425	-0.967139	0.248544	-0.053563
47	3807191													9.465622	0.111313	-2.509296	-0.254221	-0.940115	0.227058	0.005964	0.233242	0.972400	-0.967128	0.248559	-0.053688
48	3807358													9.458389	0.113423	-2.516069	-0.254211	-0.940116	0.227066	0.005845	0.233281	0.972392	-0.967131	0.248520	-0.053808
49	3807525													9.455066	0.115097	-2.508216	-0.254168	-0.940116	0.227113	0.005709	0.233362	0.972373	-0.967143	0.248443	-0.053946
50	3807691													9.438519	0.099100	-2.483211	-0.254096	-0.940127	0.227149	0.005555	0.233435	0.972356	-0.967163	0.248334	-0.054093
51	3807858													9.431581	0.113080	-2.476781	-0.254009	-0.940181	0.227024	0.005406	0.233339	0.972380	-0.967187	0.248220	-0.054188
52	3808025													9.449220	0.096268	-2.467276	-0.253912	-0.940222	0.226959	0.005252	0.233306	0.972389	-0.967213	0.248093	-0.054301
53	3808191													9.450169	0.088245	-2.478476	-0.253765	-0.940284	0.226869	0.005072	0.233250	0.972403	-0.967252	0.247913	-0.054422
54	3808358													9.446417	0.091859	-2.454314	-0.253613	-0.940370	0.226682	0.004893	0.233093	0.972442	-0.967293	0.247733	-0.054515
55	3808525													9.433560	0.115184	-2.442271	-0.253468	-0.940480	0.226390	0.004757	0.232818	0.972509	-0.967332	0.247577	-0.054538
56	3808691													9.422580	0.107762	-2.446526	-0.253375	-0.940583	0.226063	0.004630	0.232507	0.972584	-0.967357	0.247476	-0.054556
57	3808858													9.434785	0.131476	-2.465441	-0.253337	-0.940638	0.225875	0.004500	0.232344	0.972623	-0.967368	0.247418	-0.054628
58	3809025													9.443748	0.134751	-2.478287	-0.253345	-0.940664	0.225760	0.004353	0.232263	0.972643	-0.967366	0.247397	-0.054748
59	3809191													9.454711	0.121393	-2.447320	-0.253339	-0.940705	0.225597	0.004168	0.232141	0.972673	-0.967369	0.247356	-0.054889
60	3809358													9.440969	0.100671	-2.473836	-0.253354	-0.940714	0.225542	0.004006	0.232127	0.972677	-0.967365	0.247335	-0.055042
61	3809525													9.422541	0.101689	-2.463561	-0.253405	-0.940753	0.225320	0.003880	0.231932	0.972724	-0.967353	0.247367	-0.055123
62	3809691													9.434332	0.086727	-2.454877	-0.253495	-0.940747	0.225247	0.003788	0.231885	0.972736	-0.967329	0.247437	-0.055218
63	3809858													9.439342	0.058804	-2.479098	-0.253584	-0.940757	0.225102	0.003709	0.231762	0.972766	-0.967306	0.247513	-0.055282
64	3810025													9.435977	0.073348	-2.489233	-0.253673	-0.940776	0.224925	0.003673	0.231592	0.972806	-0.967283	0.247601	-0.055293
65	3810191													9.443559	0.096046	-2.483626	-0.253733	-0.940831	0.224628	0.003668	0.231290	0.972878	-0.967267	0.247675	-0.055235
66	3810358													9.438519	0.108534	-2.475394	-0.253764	-0.940875	0.224407	0.003691	0.231057	0.972933	-0.967259	0.247724	-0.055161
67	3810525													9.443047	0.104718	-2.498081	-0.253770	-0.940930	0.224168	0.003709	0.230807	0.972993	-0.967257	0.247748	-0.055082
68	3810692													9.434050	0.123547	-2.505434	-0.253779	-0.940997	0.223876	0.003700	0.230507	0.973064	-0.967255	0.247772	-0.055016
69	3810858													9.454276	0.132971	-2.498439	-0.253761	-0.941023	0.223788	0.003719	0.230410	0.973086	-0.967260	0.247763	-0.054970
70	3811025													9.448580	0.130929	-2.505029	-0.253712	-0.941100	0.223518	0.003709	0.230131	0.973153	-0.967273	0.247730	-0.054897
71	3811192													9.456881	0.121577	-2.477257	-0.253650	-0.941169	0.223297	0.003665	0.229910	0.973205	-0.967289	0.247672	-0.054867
72	3811358													9.449302	0.117443	-2.500699	-0.253570	-0.941234	0.223116	0.003582	0.229739	0.973246	-0.967310	0.247585	-0.054883
73	3811525													9.401938	0.133224	-2.492827	-0.253510	-0.941304	0.222887	0.003517	0.229516	0.973299	-0.967326	0.247525	-0.054874
74	3811692													9.426439	0.121387	-2.481713	-0.253485	-0.941354	0.222707	0.003491	0.229334	0.973341	-0.967333	0.247505	-0.054847
75	3811858													9.462412	0.127635	-2.464393	-0.253464	-0.941408	0.222500	0.003460	0.229127	0.973390	-0.967339	0.247489	-0.054819
76	3812025													9.427387	0.120497	-2.483865	-0.253427	-0.941441	0.222405	0.003403	0.229041	0.973411	-0.967348	0.247446	-0.054842
77	3812192													9.405207	0.136822	-2.498721	-0.253441	-0.941467	0.222279	0.003396	0.228914	0.973441	-0.967345	0.247464	-0.054819
78	3812358													9.417834	0.150480	-2.486748	-0.253538	-0.941442	0.222271	0.003419	0.228906	0.973443	-0.967319	0.247565	-0.054818
79	3812525													9.488003	0.096232	-2.492355	-0.253668	-0.941411	0.222256	0.003337	0.228919	0.973440	-0.967286	0.247672	-0.054927
80	3812692													9.535166	0.109140	-2.481141	-0.253688	-0.941448	0.222078	0.003069	0.228805	0.973468	-0.967281	0.247639	-0.055155
81	3812858													9.471546	0.125164	-2.477089	-0.253520	-0.941533	0.221908	0.002868	0.228669	0.973500	-0.967326	0.247438	-0.055272
82	3813025													9.429115	0.091179	-2.448635	-0.253318	-0.941622	0.221759	0.002669	0.228555	0.973527	-0.967379	0.247204	-0.055384
83	3813192													9.412088	0.075707	-2.445193	-0.253109	-0.941730	0.221540	0.002437	0.228375	0.973570	-0.967435	0.246959	-0.055509
84	3813358													9.426264	0.061912	-2.449907	-0.252898	-0.941863	0.221217	0.002208	0.228087	0.973638	-0.967490	0.246720	-0.055603
85	3813525													9.451467	0.084413	-2.431587	-0.252704	-0.942009	0.220814	0.001986	0.227716	0.973726	-0.967542	0.246503	-0.055674
86	3813692													9.448194	0.114222	-2.446981	-0.252477	-0.942157	0.220442	0.001773	0.227372	0.973806	-0.967601	0.246255	-0.055736
87	3813858													9.422845	0.145104	-2.456964	-0.252266	-0.942282	0.220152	0.001644	0.227092	0.973872	-0.967656	0.246037	-0.055739
88	3814025													9.415174	0.136068	-2.450213	-0.252133	-0.942370	0.219924	0.001580	0.226865	0.973925	-0.967691	0.245907	-0.055711
89	3814192													9.460738	0.154285	-2.450947	-0.252096	-0.942415	0.219775	0.001513	0.226727	0.973957	-0.967701	0.245864	-0.055732
90	3814358													9.469611	0.140355	-2.440830	-0.252098	-0.942437	0.219681	0.001454	0.226644	0.973977	-0.967701	0.245857	-0.055766
91	3814525													9.473016	0.122880	-2.470386	-0.252130	-0.942435	0.219652	0.001373	0.226637	0.973978	-0.967693	0.245870	-0.055847
92	3814692													9.458552	0.105492	-2.433704	-0.252153	-0.942434	0.219630	0.001306	0.226633	0.973979	-0.967686	0.245879	-0.055916
93	3814858													9.386128	0.144826	-2.434067	-0.252198	-0.942426	0.219613	0.001304	0.226617	0.973983	-0.967675	0.245923	-0.055923
94	3815025													9.405335	0.079223	-2.468621	-0.252338	-0.942399	0.219568	0.001333	0.226573	0.973993	-0.967638	0.246068	-0.055917
95	3815192													9.423624	0.078761	-2.489543	-0.252533	-0.942387	0.219395	0.001298	0.226414	0.974030	-0.967588	0.246259	-0.055954
96	3815358													9.436275	0.090853	-2.502837	-0.252701	-0.942403	0.219132	0.001263	0.226161	0.974089	-0.967544	0.246430	-0.055961
97	3815525													9.449373	0.125725	-2.505898	-0.252832	-0.942442	0.218812	0.001259	0.225839	0.974164	-0.967510	0.246575	-0.055913
98	3815692													9.493872	0.133021	-2.551066	-0.252862	-0.942502	0.218521	0.001325	0.225523	0.974237	-0.967501	0.246637	-0.055777
99	3815858													9.500842	0.131368	-2.524820	-0.252762	-0.942585	0.218278	0.001434	0.225238	0.974303	-0.967527	0.246580	-0.055580
100	3816025													9.473818	0.141146	-2.508916	-0.252492	-0.942706	0.218067	0.001451	0.225000	0.974358	-0.967598	0.246334	-0.055443
101	3816192													9.469718	0.147531	-2.500147	-0.252098	-0.942849	0.217903	0.001390	0.224823	0.974399	-0.967701	0.245947	-0.055367
102	3816358													9.448732	0.126083	-2.490949	-0.251655	-0.943003	0.217749	0.001292	0.224662	0.974436	-0.967816	0.245503	-0.055319
103	3816525													9.435503	0.103113	-2.499957	-0.251190	-0.943171	0.217561	0.001165	0.224473	0.974480	-0.967937	0.245033	-0.055287
104	3816692													9.425925	0.073656	-2.480783	-0.250751	-0.943354	0.217271	0.000970	0.224197	0.974543	-0.968051	0.244578	-0.055303
105	3816858													9.458597	0.095892	-2.457605	-0.250292	-0.943570	0.216865	0.000759	0.223803	0.974634	-0.968170	0.244108	-0.055299
106	3817025													9.436694	0.085577	-2.433404	-0.249826	-0.943797	0.216413	0.000572	0.223357	0.974737	-0.968291	0.243638	-0.055260
107	3817192													9.424583	0.097265	-2.425969	-0.249461	-0.944020	0.215859	0.000391	0.222808	0.974862	-0.968385	0.243274	-0.055213
108	3817358													9.426197	0.110749	-2.409753	-0.249177	-0.944228	0.215276	0.000246	0.222226	0.974995	-0.968458	0.242999	-0.055141
109	3817525													9.444837	0.119207	-2.390403	-0.248990	-0.944413	0.214682	0.000120	0.221633	0.975130	-0.968506	0.242823	-0.055071
110	3817692													9.456364	0.129617	-2.391952	-0.248855	-0.944575	0.214125	-0.000034	0.221089	0.975254	-0.968541	0.242690	-0.055052
111	3817858													9.465490	0.140496	-2.395376	-0.248758	-0.944704	0.213667	-0.000212	0.220654	0.975352	-0.968566	0.242581	-0.055090
112	3818025													9.446800	0.122524	-2.383085	-0.248703	-0.944814	0.213243	-0.000369	0.220253	0.975443	-0.968580	0.242517	-0.055127
113	3818192													9.453751	0.118026	-2.391746	-0.248711	-0.944885	0.212920	-0.000459	0.219942	0.975513	-0.968578	0.242523	-0.055136
114	3818358													9.452723	0.104984	-2.388555	-0.248770	-0.944942	0.212598	-0.000576	0.219642	0.975580	-0.968562	0.242573	-0.055184
115	3818525													9.460262	0.088171	-2.403508	-0.248850	-0.944992	0.212280	-0.000624	0.219332	0.975650	-0.968542	0.242658	-0.055171
116	3818692													9.484420	0.093400	-2.427887	-0.248909	-0.945051	0.211950	-0.000632	0.218996	0.975726	-0.968527	0.242733	-0.055107
117	3818858													9.470112	0.087757	-2.423910	-0.248888	-0.945133	0.211611	-0.000584	0.218632	0.975807	-0.968532	0.242743	-0.054967
118	3819025													9.442264	0.102505	-2.451977	-0.248815	-0.945234	0.211244	-0.000544	0.218239	0.975895	-0.968551	0.242703	-0.054816
119	3819192													9.456466	0.119578	-2.466095	-0.248688	-0.945355	0.210851	-0.000509	0.217818	0.975989	-0.968584	0.242609	-0.054650
120	3819358													9.481500	0.120212	-2.461762	-0.248442	-0.945492	0.210525	-0.000471	0.217457	0.976070	-0.968647	0.242398	-0.054471
121	3819525													9.495178	0.108440	-2.484943	-0.248092	-0.945655	0.210207	-0.000462	0.217106	0.976148	-0.968736	0.242078	-0.054299
122	3819692													9.517667	0.122857	-2.474111	-0.247651	-0.945845	0.209869	-0.000519	0.216747	0.976228	-0.968849	0.241655	-0.054168
123	3819858													9.489898	0.108526	-2.453054	-0.247024	-0.946084	0.209532	-0.000583	0.216378	0.976310	-0.969009	0.241050	-0.054003
124	3820025													9.454045	0.113830	-2.437546	-0.246357	-0.946327	0.209223	-0.000631	0.216033	0.976386	-0.969179	0.240407	-0.053818
125	3820192													9.446968	0.095671	-2.410022	-0.245705	-0.946574	0.208870	-0.000656	0.215638	0.976473	-0.969345	0.239787	-0.053604
126	3820358													9.431528	0.118160	-2.410548	-0.245093	-0.946818	0.208480	-0.000677	0.215206	0.976568	-0.969499	0.239209	-0.053386
127	3820525													9.425799	0.141716	-2.421660	-0.244532	-0.947052	0.208079	-0.000728	0.214773	0.976664	-0.969641	0.238674	-0.053209
128	3820692													9.432955	0.134466	-2.427632	-0.243987	-0.947287	0.207650	-0.000774	0.214311	0.976765	-0.969778	0.238157	-0.053022
129	3820858													9.480192	0.153777	-2.452533	-0.243488	-0.947505	0.207240	-0.000802	0.213867	0.976862	-0.969903	0.237689	-0.052834
130	3821025													9.544810	0.083806	-2.463780	-0.242914	-0.947748	0.206802	-0.000995	0.213431	0.976958	-0.970047	0.237111	-0.052788
131	3821192													9.600016	0.104431	-2.434837	-0.242089	-0.948071	0.206289	-0.001344	0.212941	0.977064	-0.970253	0.236259	-0.052825
132	3821358													9.593748	0.101348	-2.466501	-0.240911	-0.948479	0.205791	-0.001637	0.212433	0.977174	-0.970546	0.235075	-0.052730
133	3821525													9.602751	0.061443	-2.443950	-0.239337	-0.948975	0.205340	-0.001870	0.211937	0.977282	-0.970935	0.233515	-0.052499
134	3821692													9.633886	0.029424	-2.439766	-0.237294	-0.949599	0.204826	-0.002035	0.211334	0.977412	-0.971436	0.231517	-0.052081
135	3821858													9.655462	0.011201	-2.457561	-0.234651	-0.950392	0.204190	-0.002167	0.210566	0.977577	-0.972077	0.228947	-0.051468
136	3822025													9.648090	0.015013	-2.440791	-0.231385	-0.951348	0.203466	-0.002288	0.209673	0.977769	-0.972860	0.225775	-0.050691
137	3822192													9.626259	0.034594	-2.427841	-0.227534	-0.952460	0.202604	-0.002425	0.208615	0.977995	-0.973767	0.222036	-0.049777
138	3822358													9.628651	0.079655	-2.388090	-0.223175	-0.953694	0.201645	-0.002584	0.207441	0.978244	-0.974775	0.217799	-0.048760
139	3822525													9.620916	0.092150	-2.343244	-0.218388	-0.955022	0.200598	-0.002737	0.206159	0.978515	-0.975858	0.213147	-0.047636
140	3822692													9.697783	0.103599	-2.313196	-0.213187	-0.956381	0.199717	-0.002935	0.205042	0.978749	-0.977007	0.208070	-0.046519
141	3822858													9.780726	0.111875	-2.275694	-0.207362	-0.957847	0.198821	-0.003265	0.203915	0.978983	-0.978259	0.202355	-0.045411
142	3823025													9.801169	0.089540	-2.226996	-0.200887	-0.959408	0.197942	-0.003671	0.202797	0.979214	-0.979608	0.195984	-0.044261
143	3823192													9.849941	0.067712	-2.168073	-0.193581	-0.961089	0.197062	-0.004124	0.201657	0.979447	-0.981076	0.188790	-0.043000
144	3823358													9.816297	0.098286	-2.132663	-0.185443	-0.962884	0.196125	-0.004571	0.200430	0.979697	-0.982644	0.180781	-0.041570
145	3823525													9.813593	0.048028	-2.066755	-0.176539	-0.964744	0.195199	-0.005004	0.199191	0.979948	-0.984281	0.172023	-0.039993
146	3823692													9.750659	0.061132	-2.012552	-0.166949	-0.966656	0.194173	-0.005551	0.197856	0.980215	-0.985950	0.162568	-0.038398
147	3823858													9.690955	0.110326	-1.933625	-0.156828	-0.968546	0.193191	-0.006040	0.196549	0.980475	-0.987608	0.152599	-0.036674
148	3824025													9.665155	0.123281	-1.809356	-0.146348	-0.970360	0.192314	-0.006419	0.195335	0.980716	-0.989212	0.142291	-0.034816
149	3824192													9.725414	0.126828	-1.694250	-0.135560	-0.972069	0.191588	-0.006740	0.194273	0.980924	-0.990746	0.131683	-0.032888
150	3824358													9.820544	0.128440	-1.610724	-0.124316	-0.973685	0.191008	-0.007072	0.193366	0.981101	-0.992217	0.120616	-0.030924
151	3824525													9.921215	0.127085	-1.552205	-0.112421	-0.975221	0.190541	-0.007471	0.192581	0.981253	-0.993633	0.108890	-0.028936
152	3824692													9.972395	0.146013	-1.480410	-0.099618	-0.976658	0.190304	-0.007832	0.192019	0.981360	-0.994995	0.096270	-0.026778
153	3824858													10.000392	0.115713	-1.350252	-0.085776	-0.977974	0.190288	-0.008201	0.191679	0.981423	-0.996281	0.082622	-0.024462
154	3825025													10.027347	0.100672	-1.174386	-0.070748	-0.979157	0.190385	-0.008617	0.191456	0.981463	-0.997457	0.067796	-0.021982
155	3825192													10.052952	0.032459	-1.051766	-0.054585	-0.980156	0.190564	-0.009166	0.191333	0.981482	-0.998467	0.051827	-0.019428
156	3825358													10.004853	-0.003347	-0.939077	-0.037350	-0.980957	0.190599	-0.009929	0.191087	0.981523	-0.999253	0.034767	-0.016877
157	3825525													9.901107	-0.023930	-0.818753	-0.019184	-0.981499	0.190505	-0.010822	0.190733	0.981582	-0.999757	0.016769	-0.014281
158	3825692													9.842353	-0.078949	-0.643793	-0.000254	-0.981745	0.190204	-0.011801	0.190194	0.981676	-0.999930	-0.001995	-0.011634
159	3825858													9.753175	-0.050546	-0.409319	0.019286	-0.981660	0.189663	-0.013015	0.189436	0.981807	-0.999729	-0.021403	-0.009122
160	3826025													9.756836	0.018397	-0.157086	0.039234	-0.981212	0.188904	-0.014509	0.188470	0.981972	-0.999125	-0.041267	-0.006842
161	3826192													9.708645	0.028927	0.066254	0.059523	-0.980350	0.188072	-0.016144	0.187436	0.982144	-0.998096	-0.061496	-0.004670
162	3826358													9.621013	0.053938	0.330656	0.079922	-0.979036	0.187351	-0.017701	0.186529	0.982290	-0.996644	-0.081823	-0.002422
163	3826525													9.649432	0.006254	0.631442	0.100285	-0.977258	0.186843	-0.019150	0.185859	0.982390	-0.994774	-0.102097	-0.000076
164	3826692													9.635015	-0.026867	0.929240	0.120430	-0.975051	0.186475	-0.020684	0.185337	0.982457	-0.992506	-0.122174	0.002152
165	3826858													9.489371	-0.029511	1.266691	0.140103	-0.972467	0.186224	-0.022354	0.184925	0.982498	-0.989885	-0.141814	0.004170
166	3827025													9.344021	-0.043010	1.493068	0.158864	-0.969590	0.186168	-0.024117	0.184695	0.982500	-0.987006	-0.160574	0.005958
167	3827192													9.313206	-0.071958	1.682132	0.176478	-0.966521	0.186261	-0.025966	0.184594	0.982472	-0.983962	-0.178221	0.007480
168	3827359													9.291425	-0.087455	1.837478	0.193082	-0.963297	0.186489	-0.027731	0.184632	0.982416	-0.980791	-0.194858	0.008936
169	3827525													9.451662	-0.127256	2.026029	0.208977	-0.959905	0.186847	-0.029306	0.184832	0.982333	-0.977481	-0.210760	0.010495
170	3827692													9.648486	-0.211201	2.264082	0.224740	-0.956264	0.187218	-0.030791	0.185068	0.982243	-0.973932	-0.226514	0.012148
171	3827859													9.649149	-0.245997	2.469721	0.240616	-0.952337	0.187503	-0.032183	0.185244	0.982165	-0.970087	-0.242360	0.013923
172	3828025													9.427197	-0.285927	2.586505	0.256391	-0.948183	0.187651	-0.033496	0.185307	0.982110	-0.965993	-0.258090	0.015750
173	3828192													9.338564	-0.296750	2.673159	0.271896	-0.943852	0.187660	-0.034623	0.185286	0.982075	-0.961704	-0.273520	0.017699
174	3828359													9.205082	-0.283770	2.721083	0.287033	-0.939400	0.187456	-0.035525	0.185117	0.982074	-0.957262	-0.288547	0.019763
175	3828525													9.177184	-0.292296	2.777517	0.301801	-0.934843	0.187041	-0.036178	0.184818	0.982107	-0.952684	-0.303168	0.021958
176	3828692													9.267411	-0.323233	2.941603	0.316375	-0.930145	0.186379	-0.036657	0.184337	0.982179	-0.947926	-0.317569	0.024223
177	3828859													9.517519	-0.254487	3.170123	0.331067	-0.925218	0.185379	-0.037104	0.183542	0.982311	-0.942877	-0.332090	0.026435
178	3829025													9.229944	-0.174712	3.416239	0.345911	-0.920006	0.184213	-0.037605	0.182582	0.982471	-0.937513	-0.346775	0.028561
179	3829192													8.991302	-0.154375	3.606748	0.360235	-0.914721	0.183075	-0.038234	0.181609	0.982627	-0.932078	-0.360977	0.030449
180	3829359													8.908165	-0.191086	3.734420	0.373849	-0.909466	0.181957	-0.038910	0.180631	0.982781	-0.926673	-0.374492	0.032141
181	3829525													8.892947	-0.240885	3.855025	0.386764	-0.904280	0.180809	-0.039649	0.179579	0.982944	-0.921326	-0.387336	0.033601
182	3829692													8.891815	-0.290586	3.900444	0.399213	-0.899107	0.179543	-0.040365	0.178399	0.983130	-0.915969	-0.399726	0.034926
183	3829859													9.107957	-0.345615	4.090441	0.411608	-0.893791	0.178090	-0.040981	0.177061	0.983346	-0.910439	-0.412051	0.036251
184	3830025													9.190484	-0.339769	4.274384	0.424461	-0.888103	0.176370	-0.041435	0.175532	0.983601	-0.904498	-0.424809	0.037708
185	3830192													8.982838	-0.296049	4.435781	0.437641	-0.882054	0.174503	-0.041728	0.173942	0.983871	-0.898181	-0.437864	0.039318
186	3830359													8.714678	-0.250844	4.514979	0.450657	-0.875867	0.172528	-0.041882	0.172309	0.984152	-0.891714	-0.450741	0.040969
187	3830525													8.550324	-0.250579	4.617755	0.463057	-0.869766	0.170547	-0.041993	0.170674	0.984432	-0.885333	-0.463010	0.042507
188	3830692													8.575852	-0.258565	4.698164	0.474846	-0.863790	0.168488	-0.042093	0.168938	0.984727	-0.879062	-0.474686	0.043860
189	3830859													8.625673	-0.256610	4.816109	0.486280	-0.857830	0.166311	-0.042239	0.167031	0.985046	-0.872782	-0.486033	0.044990
190	3831025													8.792796	-0.250162	4.945400	0.497803	-0.851627	0.164088	-0.042391	0.165077	0.985369	-0.866254	-0.497475	0.046074
191	3831192													8.687622	-0.250365	5.067846	0.509603	-0.845030	0.161955	-0.042457	0.163304	0.985662	-0.859361	-0.509173	0.047343
192	3831359													8.448525	-0.202114	5.195372	0.521391	-0.838185	0.159993	-0.042388	0.161823	0.985909	-0.852264	-0.520826	0.048844
193	3831525													8.306498	-0.213385	5.275163	0.532808	-0.831282	0.158384	-0.042084	0.160902	0.986073	-0.845189	-0.532053	0.050746
194	3831692													8.180549	-0.224414	5.317905	0.543769	-0.824395	0.157126	-0.041593	0.160523	0.986155	-0.838204	-0.542776	0.052998
195	3831859													8.239215	-0.146125	5.356122	0.554380	-0.817480	0.156171	-0.040933	0.160637	0.986164	-0.831256	-0.553102	0.055592
196	3832025													8.478051	-0.144112	5.326685	0.565288	-0.810057	0.155748	-0.040290	0.161471	0.986055	-0.823909	-0.563680	0.058641
197	3832192													8.068103	-0.384699	5.283891	0.576514	-0.802129	0.155629	-0.039927	0.162585	0.985886	-0.816111	-0.574591	0.061706
198	3832359													7.967454	-0.500515	5.443367	0.587532	-0.794150	0.155343	-0.039817	0.163366	0.985762	-0.808220	-0.585352	0.064362
199	3832525													8.265661	-0.364982	5.871593	0.598513	-0.786019	0.154777	-0.039917	0.163703	0.985702	-0.800118	-0.596134	0.066603
200	3832692													7.983104	-0.218561	6.299261	0.609376	-0.777716	0.154330	-0.040220	0.164073	0.985628	-0.791860	-0.606825	0.068703
201	3832859													7.697047	-0.227767	6.647311	0.619205	-0.769959	0.154107	-0.040590	0.164609	0.985523	-0.784180	-0.616496	0.070674
202	3833025													7.332185	-0.317738	6.867622	0.627427	-0.763279	0.154077	-0.041026	0.165193	0.985408	-0.777594	-0.624593	0.072332
203	3833192													7.233767	-0.371065	7.018064	0.633647	-0.758115	0.154121	-0.041370	0.165729	0.985303	-0.772515	-0.630710	0.073650
204	3833359													7.295121	-0.437654	7.074573	0.638050	-0.754407	0.154149	-0.041630	0.166104	0.985229	-0.768869	-0.635042	0.074576
205	3833525													7.523520	-0.464814	7.105120	0.641134	-0.751812	0.154034	-0.041671	0.166313	0.985192	-0.766297	-0.638059	0.075300
206	3833692													7.654351	-0.421018	7.077972	0.643528	-0.749815	0.153780	-0.041508	0.166428	0.985180	-0.764296	-0.640374	0.075978
207	3833859													7.479909	-0.443090	7.014341	0.645386	-0.748290	0.153425	-0.041132	0.166519	0.985180	-0.762748	-0.642132	0.076690
208	3834025													7.413902	-0.383658	6.902457	0.646584	-0.747358	0.152922	-0.040647	0.166426	0.985216	-0.761759	-0.643241	0.077231
209	3834192													7.385723	-0.325483	6.810250	0.647159	-0.746968	0.152395	-0.040147	0.166230	0.985269	-0.761297	-0.643744	0.077589
210	3834359													7.487232	-0.327366	6.719099	0.647330	-0.746943	0.151790	-0.039634	0.165889	0.985348	-0.761179	-0.643861	0.077781
211	3834525													7.611322	-0.322038	6.661027	0.647405	-0.747004	0.151170	-0.039141	0.165498	0.985433	-0.761141	-0.643891	0.077906
212	3834692													7.590854	-0.312910	6.603084	0.647536	-0.747015	0.150548	-0.038686	0.165080	0.985521	-0.761052	-0.643985	0.077996
213	3834859													7.511634	-0.297165	6.565810	0.647680	-0.747020	0.149905	-0.038271	0.164603	0.985617	-0.760951	-0.644101	0.078021
214	3835025													7.495922	-0.269819	6.523742	0.647733	-0.747101	0.149271	-0.037894	0.164093	0.985717	-0.760925	-0.644137	0.077978
215	3835192													7.594894	-0.239331	6.543419	0.647807	-0.747149	0.148708	-0.037552	0.163649	0.985804	-0.760878	-0.644195	0.077956
216	3835359													7.609006	-0.292833	6.570077	0.647997	-0.747089	0.148181	-0.037290	0.163201	0.985888	-0.760729	-0.644378	0.077894
217	3835525													7.544537	-0.307526	6.628239	0.648198	-0.747017	0.147663	-0.037059	0.162741	0.985973	-0.760569	-0.644578	0.077804
218	3835692													7.505097	-0.282251	6.640516	0.648252	-0.747054	0.147239	-0.036854	0.162361	0.986043	-0.760533	-0.644631	0.077719
219	3835859													7.535351	-0.271116	6.656129	0.648073	-0.747276	0.146902	-0.036659	0.162058	0.986100	-0.760695	-0.644450	0.077631
220	3836025													7.572379	-0.289458	6.678870	0.647665	-0.747686	0.146616	-0.036490	0.161770	0.986154	-0.761051	-0.644047	0.077490
221	3836192													7.693189	-0.317389	6.637345	0.647111	-0.748225	0.146309	-0.036309	0.161443	0.986214	-0.761531	-0.643502	0.077304
222	3836359													7.663809	-0.292468	6.575470	0.646462	-0.748852	0.145970	-0.036031	0.161145	0.986273	-0.762095	-0.642847	0.077193
223	3836525													7.622529	-0.241605	6.485645	0.645601	-0.749651	0.145682	-0.035661	0.160962	0.986316	-0.762842	-0.641961	0.077184
224	3836692													7.739598	-0.256556	6.418812	0.644531	-0.750608	0.145488	-0.035272	0.160893	0.986341	-0.763764	-0.640859	0.077225
225	3836859													7.751790	-0.300434	6.375509	0.643347	-0.751657	0.145314	-0.035004	0.160731	0.986377	-0.764774	-0.639670	0.077095
226	3837025													7.792843	-0.268307	6.331746	0.642152	-0.752716	0.145120	-0.034803	0.160487	0.986424	-0.765787	-0.638485	0.076861
227	3837192													7.835151	-0.274524	6.291676	0.641051	-0.753685	0.144957	-0.034628	0.160274	0.986465	-0.766717	-0.637394	0.076645
228	3837359													7.806897	-0.292270	6.254847	0.640116	-0.754513	0.144778	-0.034411	0.160099	0.986501	-0.767507	-0.636457	0.076519
229	3837525													7.767371	-0.285795	6.220756	0.639325	-0.755228	0.144544	-0.034091	0.159955	0.986535	-0.768180	-0.635645	0.076517
230	3837692													7.852349	-0.270530	6.220104	0.638731	-0.755770	0.144340	-0.033793	0.159858	0.986561	-0.768688	-0.635025	0.076567
231	3837859													7.858797	-0.305903	6.243476	0.638433	-0.756067	0.144100	-0.033525	0.159728	0.986592	-0.768947	-0.634704	0.076628
232	3838025													7.769582	-0.247223	6.263616	0.638323	-0.756206	0.143862	-0.033295	0.159592	0.986621	-0.769049	-0.634573	0.076693
233	3838192													7.760599	-0.215749	6.303463	0.638201	-0.756316	0.143824	-0.033190	0.159613	0.986622	-0.769154	-0.634436	0.076763
234	3838359													7.814317	-0.303556	6.349864	0.638099	-0.756400	0.143837	-0.033092	0.159697	0.986611	-0.769243	-0.634315	0.076872
235	3838525													7.780751	-0.278694	6.354294	0.638026	-0.756468	0.143801	-0.032994	0.159722	0.986611	-0.769308	-0.634227	0.076948
236	3838692													7.802111	-0.285610	6.367916	0.637924	-0.756554	0.143802	-0.032852	0.159827	0.986598	-0.769399	-0.634099	0.077103
237	3838859													7.791276	-0.293778	6.419861	0.637869	-0.756597	0.143821	-0.032666	0.159998	0.986577	-0.769452	-0.634004	0.077343
238	3839025													7.735126	-0.331303	6.415805	0.637750	-0.756701	0.143798	-0.032493	0.160095	0.986567	-0.769558	-0.633855	0.077513
239	3839192													7.713675	-0.283560	6.439244	0.637483	-0.756927	0.143794	-0.032328	0.160191	0.986556	-0.769786	-0.633562	0.077650
240	3839359													7.687014	-0.303553	6.443882	0.637046	-0.757294	0.143798	-0.032163	0.160274	0.986549	-0.770155	-0.633102	0.077745
241	3839525													7.668694	-0.297211	6.451516	0.636366	-0.757869	0.143784	-0.032012	0.160290	0.986551	-0.770723	-0.632410	0.077743
242	3839692													7.711700	-0.266674	6.508442	0.635492	-0.758595	0.143816	-0.031833	0.160364	0.986544	-0.771451	-0.631519	0.077762
243	3839859													7.741579	-0.294911	6.567616	0.634431	-0.759453	0.143972	-0.031657	0.160572	0.986516	-0.772331	-0.630434	0.077829
244	3840025													7.596913	-0.295179	6.604335	0.632998	-0.760606	0.144193	-0.031502	0.160797	0.986485	-0.773512	-0.628986	0.077824
245	3840192													7.645143	-0.329689	6.614993	0.631041	-0.762187	0.144425	-0.031346	0.160970	0.986461	-0.775116	-0.627025	0.077687
246	3840359													7.625388	-0.297767	6.597250	0.628624	-0.764136	0.144664	-0.031209	0.161077	0.986448	-0.777083	-0.624620	0.077409
247	3840525													7.686251	-0.270415	6.502867	0.625781	-0.766404	0.144991	-0.031080	0.161239	0.986426	-0.779379	-0.621793	0.077081
248	3840692													7.704725	-0.270568	6.448932	0.622570	-0.768930	0.145441	-0.030943	0.161518	0.986385	-0.781952	-0.618594	0.076763
249	3840859													7.633082	-0.276190	6.448889	0.618863	-0.771806	0.146025	-0.030840	0.161884	0.986328	-0.784893	-0.614906	0.076381
250	3841025													7.676857	-0.295471	6.480797	0.614532	-0.775120	0.146765	-0.030772	0.162346	0.986254	-0.788291	-0.610601	0.075914
251	3841192													7.769708	-0.343480	6.476739	0.609619	-0.778836	0.147574	-0.030709	0.162824	0.986177	-0.792099	-0.605725	0.075343
252	3841359													7.750691	-0.368167	6.444770	0.604119	-0.782974	0.148293	-0.030611	0.163151	0.986126	-0.796306	-0.600277	0.074595
253	3841525													7.431111	-0.356246	6.446393	0.597456	-0.787942	0.148978	-0.030363	0.163420	0.986089	-0.801327	-0.593668	0.073711
254	3841692													7.124094	-0.342347	6.472317	0.588693	-0.794360	0.149775	-0.029896	0.163761	0.986047	-0.807804	-0.584957	0.072657
255	3841859													7.256598	-0.290858	6.500392	0.577203	-0.802567	0.150743	-0.029177	0.164212	0.985994	-0.816079	-0.573517	0.071367
256	3842025													7.726419	-0.269441	6.429673	0.563446	-0.812073	0.151876	-0.028291	0.164762	0.985928	-0.825669	-0.559813	0.069860
257	3842192													8.102479	-0.156453	6.263939	0.548314	-0.822116	0.153223	-0.027446	0.165432	0.985839	-0.835822	-0.544755	0.068145
258	3842359													8.093894	-0.136546	6.002619	0.532113	-0.832405	0.154784	-0.026787	0.166172	0.985733	-0.846249	-0.528668	0.066124
259	3842525													7.975136	-0.155568	5.766756	0.514548	-0.843029	0.156659	-0.026549	0.166950	0.985608	-0.857050	-0.511302	0.063522
260	3842692													7.958724	-0.127473	5.625173	0.495135	-0.854192	0.158737	-0.026599	0.167715	0.985477	-0.868409	-0.492166	0.060321
261	3842859													8.110333	-0.110467	5.427602	0.473825	-0.865759	0.161095	-0.026777	0.168685	0.985306	-0.880212	-0.471177	0.056745
262	3843025													8.307191	-0.108432	5.159069	0.450799	-0.877489	0.163685	-0.026989	0.169892	0.985093	-0.892217	-0.448497	0.052905
263	3843192													8.500988	-0.154446	4.888912	0.426286	-0.889130	0.166518	-0.027196	0.171401	0.984826	-0.904180	-0.424346	0.048886
264	3843359													8.392578	-0.205151	4.591500	0.400277	-0.900584	0.169492	-0.027400	0.173110	0.984521	-0.915985	-0.398725	0.044616
265	3843525													8.397497	-0.272447	4.281394	0.372269	-0.911968	0.172425	-0.027684	0.174784	0.984218	-0.927712	-0.371167	0.039820
266	3843692													8.734717	-0.216632	3.879318	0.342739	-0.922940	0.175247	-0.027942	0.176448	0.983913	-0.939015	-0.342122	0.034686
267	3843859													8.932598	-0.232808	3.337203	0.312587	-0.933064	0.177990	-0.028079	0.178221	0.983590	-0.949474	-0.312455	0.029510
268	3844026													8.916950	-0.194467	2.891368	0.282101	-0.942231	0.180612	-0.027936	0.180111	0.983250	-0.958978	-0.282421	0.024487
269	3844192													8.969198	-0.230302	2.511875	0.251053	-0.950469	0.183253	-0.027507	0.182235	0.982870	-0.967583	-0.251793	0.019606
270	3844359													9.188267	-0.286564	2.203814	0.219589	-0.957756	0.185699	-0.026999	0.184306	0.982498	-0.975219	-0.220760	0.014613
271	3844526													9.589322	-0.269373	1.845543	0.188345	-0.963963	0.187889	-0.026425	0.186270	0.982143	-0.981747	-0.189947	0.009610
272	3844692													9.971492	-0.283734	1.455804	0.158336	-0.968981	0.189752	-0.025820	0.188047	0.981821	-0.987048	-0.160357	0.004756
273	3844859													9.912942	-0.256975	1.072751	0.129932	-0.972901	0.191262	-0.025244	0.189588	0.981539	-0.991202	-0.132361	0.000074
274	3845026													9.723535	-0.230654	0.710601	0.102880	-0.975887	0.192512	-0.024597	0.190984	0.981285	-0.994390	-0.105690	-0.004355
275	3845192													9.663060	-0.186180	0.379539	0.076833	-0.978061	0.193633	-0.023895	0.192345	0.981036	-0.996758	-0.080002	-0.008593
276	3845359													9.538355	-0.197118	0.121020	0.051462	-0.979501	0.194754	-0.023204	0.193787	0.980769	-0.998405	-0.054991	-0.012755
277	3845526													9.400760	-0.195012	-0.037041	0.026105	-0.980311	0.195725	-0.022606	0.195163	0.980510	-0.999404	-0.030021	-0.017066
278	3845692													9.383622	-0.122861	-0.170656	0.000226	-0.980479	0.196621	-0.021907	0.196569	0.980245	-0.999760	-0.004529	-0.021435
279	3845859													9.616708	-0.113081	-0.361498	-0.026106	-0.979904	0.197752	-0.020797	0.198309	0.979919	-0.999443	0.021469	-0.025556
280	3846026													9.854372	-0.256746	-0.645806	-0.052163	-0.978631	0.198898	-0.019378	0.200124	0.979579	-0.998451	0.047244	-0.029403
281	3846192													9.632209	-0.342339	-0.948937	-0.077763	-0.976732	0.199867	-0.017884	0.201808	0.979262	-0.996811	0.072576	-0.033161
282	3846359													9.588367	-0.320443	-1.214907	-0.103131	-0.974248	0.200512	-0.016294	0.203214	0.978999	-0.994534	0.097698	-0.036832
283	3846526													9.589165	-0.177932	-1.498921	-0.127935	-0.971213	0.200943	-0.014514	0.204419	0.978776	-0.991676	0.122303	-0.040249
284	3846692													9.684461	-0.111457	-1.823102	-0.152013	-0.967614	0.201531	-0.012285	0.205735	0.978531	-0.988302	0.146274	-0.043162
285	3846859													9.748349	-0.197984	-2.111916	-0.175065	-0.963590	0.202105	-0.009856	0.206980	0.978296	-0.984507	0.169274	-0.045732
286	3847026													9.805277	-0.209993	-2.407720	-0.196705	-0.959322	0.202505	-0.007390	0.207985	0.978104	-0.980435	0.190901	-0.048001
287	3847192													9.853069	-0.224235	-2.681748	-0.216546	-0.955033	0.202534	-0.004942	0.208526	0.978004	-0.976260	0.210782	-0.049875
288	3847359													9.784110	-0.235528	-2.942995	-0.234467	-0.950847	0.202277	-0.002616	0.208694	0.977978	-0.972120	0.228775	-0.051419
289	3847526													9.686269	-0.209554	-3.149965	-0.250602	-0.946868	0.201591	-0.000450	0.208350	0.978054	-0.968090	0.245012	-0.052639
290	3847692													9.499675	-0.143117	-3.288408	-0.265272	-0.943049	0.200722	0.001532	0.207768	0.978177	-0.964172	0.259791	-0.053670
291	3847859													9.433685	-0.018071	-3.336816	-0.278819	-0.939361	0.199651	0.003423	0.206922	0.978351	-0.960338	0.273466	-0.054479
292	3848026													9.359400	0.055434	-3.333785	-0.291380	-0.935766	0.198595	0.005329	0.206013	0.978535	-0.956592	0.286184	-0.055042
293	3848192													9.324334	0.098432	-3.336647	-0.303136	-0.932194	0.197793	0.007393	0.205253	0.978681	-0.952919	0.298136	-0.055328
294	3848359													9.289567	0.102800	-3.366086	-0.314284	-0.928648	0.197077	0.009305	0.204572	0.978807	-0.949283	0.309457	-0.055653
295	3848526													9.241233	0.138188	-3.356334	-0.324989	-0.925078	0.196502	0.011032	0.204058	0.978897	-0.945653	0.320298	-0.056111
296	3848692													9.116887	0.211294	-3.352032	-0.335442	-0.921405	0.196191	0.012581	0.203857	0.978920	-0.941977	0.330839	-0.056790
297	3848859													8.965792	0.209716	-3.381292	-0.346025	-0.917474	0.196237	0.014081	0.204056	0.978858	-0.938120	0.341473	-0.057690
298	3849026													8.945408	0.202166	-3.486781	-0.357007	-0.913204	0.196482	0.015566	0.204497	0.978743	-0.933972	0.352477	-0.058792
299	3849192													9.081724	0.102804	-3.630681	-0.368066	-0.908715	0.196885	0.017107	0.205096	0.978592	-0.929642	0.363555	-0.059943
300	3849359													9.023160	0.018925	-3.795420	-0.378924	-0.904204	0.197059	0.018566	0.205468	0.978488	-0.925242	0.374431	-0.061070
301	3849526													8.961555	0.014686	-3.924101	-0.389618	-0.899677	0.196924	0.019969	0.205518	0.978450	-0.920760	0.385154	-0.062108
302	3849692													8.920752	0.041042	-4.030682	-0.400010	-0.895204	0.196474	0.021396	0.205192	0.978488	-0.916261	0.395609	-0.062925
303	3849859													8.867758	0.094973	-4.101947	-0.410030	-0.890789	0.195883	0.022877	0.204654	0.978567	-0.911785	0.405723	-0.063536
304	3850026													8.857270	0.133871	-4.225500	-0.419696	-0.886397	0.195333	0.024418	0.204100	0.978645	-0.907336	0.415504	-0.064016
305	3850192													8.893660	0.167834	-4.318155	-0.428919	-0.882117	0.194676	0.025945	0.203388	0.978754	-0.902970	0.424857	-0.064350
306	3850359													8.931414	0.155497	-4.420232	-0.437546	-0.878053	0.193848	0.027329	0.202494	0.978902	-0.898781	0.433613	-0.064604
307	3850526													8.918776	0.210746	-4.466712	-0.445441	-0.874295	0.192848	0.028434	0.201475	0.979081	-0.894859	0.441607	-0.064886
308	3850692													8.936381	0.293103	-4.532407	-0.452558	-0.870873	0.191757	0.029315	0.200393	0.979277	-0.891253	0.448801	-0.065160
309	3850859													8.887760	0.365512	-4.561042	-0.458833	-0.867796	0.190795	0.030115	0.199421	0.979451	-0.888012	0.455150	-0.065367
310	3851026													8.799965	0.376900	-4.614264	-0.464349	-0.865027	0.190021	0.030919	0.198591	0.979595	-0.885112	0.460749	-0.065470
311	3851192													8.678106	0.405431	-4.668555	-0.469237	-0.862504	0.189483	0.031715	0.197973	0.979694	-0.882503	0.465718	-0.065542
312	3851359													8.589365	0.419104	-4.749595	-0.473684	-0.860127	0.189220	0.032595	0.197584	0.979744	-0.880091	0.470257	-0.065556
313	3851526													8.583256	0.431242	-4.795000	-0.477877	-0.857825	0.189131	0.033413	0.197400	0.979753	-0.877791	0.474521	-0.065671
314	3851692													8.573901	0.398060	-4.841710	-0.481815	-0.855625	0.189103	0.034062	0.197353	0.979741	-0.875611	0.478495	-0.065943
315	3851859													8.642019	0.404489	-4.913688	-0.485378	-0.853616	0.189069	0.034523	0.197370	0.979721	-0.873622	0.482062	-0.066330
316	3852026													8.673209	0.415850	-4.972119	-0.488403	-0.851876	0.189130	0.034919	0.197485	0.979684	-0.871919	0.485084	-0.066706
317	3852192													8.678304	0.365004	-5.020759	-0.490805	-0.850477	0.189209	0.035246	0.197605	0.979648	-0.870556	0.487485	-0.067010
318	3852359													8.552704	0.325255	-5.059658	-0.492565	-0.849469	0.189163	0.035376	0.197637	0.979637	-0.869557	0.489226	-0.067298
319	3852526													8.453158	0.354441	-5.043550	-0.493805	-0.848786	0.188993	0.035311	0.197587	0.979649	-0.868855	0.490429	-0.067598
320	3852692													8.445874	0.348690	-5.052273	-0.494685	-0.848331	0.188735	0.035095	0.197491	0.979676	-0.868363	0.491255	-0.067923
321	3852859													8.444921	0.381751	-5.022975	-0.495200	-0.848101	0.188420	0.034860	0.197308	0.979722	-0.868079	0.491726	-0.068142
322	3853026													8.419517	0.374618	-4.967256	-0.495368	-0.848060	0.188162	0.034650	0.197144	0.979762	-0.867992	0.491863	-0.068273
323	3853192													8.392523	0.388272	-4.929116	-0.495258	-0.848169	0.187961	0.034446	0.197017	0.979795	-0.868063	0.491726	-0.068358
324	3853359													8.374892	0.361081	-4.884155	-0.494978	-0.848339	0.187929	0.034381	0.196992	0.979802	-0.868225	0.491442	-0.068340
325	3853526													8.322582	0.345272	-4.846205	-0.494701	-0.848492	0.187968	0.034382	0.197010	0.979798	-0.868383	0.491170	-0.068289
326	3853692													8.318436	0.318560	-4.850458	-0.494568	-0.848567	0.187979	0.034322	0.197045	0.979794	-0.868461	0.491026	-0.068327
327	3853859													8.326897	0.334533	-4.830752	-0.494576	-0.848588	0.187865	0.034142	0.197016	0.979806	-0.868463	0.491003	-0.068467
328	3854026													8.372830	0.375374	-4.805171	-0.494720	-0.848521	0.187786	0.034028	0.197003	0.979812	-0.868386	0.491123	-0.068588
329	3854192													8.423613	0.312205	-4.845440	-0.494891	-0.848439	0.187708	0.033930	0.196983	0.979820	-0.868292	0.491273	-0.068697
330	3854359													8.450106	0.288225	-4.841075	-0.495008	-0.848403	0.187564	0.033792	0.196906	0.979840	-0.868231	0.491367	-0.068801
331	3854526													8.473810	0.286541	-4.853920	-0.495006	-0.848453	0.187338	0.033627	0.196738	0.979879	-0.868238	0.491346	-0.068855
332	3854692													8.466670	0.305837	-4.831666	-0.494838	-0.848632	0.186972	0.033354	0.196455	0.979945	-0.868345	0.491150	-0.068908
333	3854859													8.490151	0.325222	-4.807153	-0.494494	-0.848917	0.186590	0.033054	0.196152	0.980016	-0.868552	0.490780	-0.068936
334	3855026													8.516325	0.317385	-4.783720	-0.493882	-0.849353	0.186225	0.032773	0.195833	0.980089	-0.868911	0.490152	-0.068882
335	3855192													8.507953	0.352734	-4.764466	-0.493021	-0.849904	0.185991	0.032606	0.195579	0.980146	-0.869406	0.489297	-0.068713
336	3855359													8.509717	0.334105	-4.767499	-0.491934	-0.850555	0.185897	0.032461	0.195452	0.980176	-0.870027	0.488216	-0.068539
337	3855526													8.475554	0.312948	-4.791449	-0.490689	-0.851283	0.185853	0.032275	0.195393	0.980194	-0.870737	0.486968	-0.068402
338	3855692													8.475476	0.297586	-4.794921	-0.489263	-0.852125	0.185756	0.031973	0.195321	0.980218	-0.871550	0.485524	-0.068318
339	3855859													8.497578	0.294869	-4.765858	-0.487665	-0.853070	0.185622	0.031626	0.195216	0.980250	-0.872458	0.483904	-0.068221
340	3856026													8.524570	0.246750	-4.782467	-0.485888	-0.854137	0.185375	0.031180	0.195020	0.980304	-0.873465	0.482098	-0.068126
341	3856192													8.560542	0.245242	-4.770951	-0.483855	-0.855361	0.185043	0.030736	0.194703	0.980381	-0.874608	0.480050	-0.067917
342	3856359													8.589716	0.229486	-4.758608	-0.481530	-0.856762	0.184627	0.030271	0.194274	0.980480	-0.875907	0.477720	-0.067614
343	3856526													8.578134	0.243057	-4.751431	-0.478916	-0.858323	0.184176	0.029775	0.193798	0.980590	-0.877356	0.475104	-0.067256
344	3856692													8.568944	0.263152	-4.730369	-0.476056	-0.860028	0.183635	0.029280	0.193199	0.980723	-0.878928	0.472255	-0.066792
345	3856859													8.554043	0.291950	-4.683717	-0.472952	-0.861860	0.183070	0.028822	0.192532	0.980867	-0.880617	0.469180	-0.066218
346	3857026													8.518908	0.340724	-4.676252	-0.469724	-0.863717	0.182624	0.028387	0.191982	0.980988	-0.882357	0.465978	-0.065660
347	3857192													8.532866	0.333461	-4.631855	-0.466402	-0.865574	0.182347	0.028016	0.191583	0.981076	-0.884129	0.462685	-0.065105
348	3857359													8.588862	0.323072	-4.608711	-0.462998	-0.867446	0.182130	0.027602	0.191271	0.981149	-0.885930	0.459297	-0.064614
349	3857526													8.667191	0.286808	-4.577761	-0.459417	-0.869367	0.182038	0.027164	0.191099	0.981195	-0.887805	0.455722	-0.064179
350	3857692													8.671848	0.282862	-4.506098	-0.455598	-0.871379	0.182014	0.026701	0.190999	0.981227	-0.889785	0.451905	-0.063753
351	3857859													8.669484	0.284845	-4.468848	-0.451610	-0.873431	0.182118	0.026269	0.191014	0.981236	-0.891829	0.447920	-0.063320
352	3858026													8.682784	0.259495	-4.449617	-0.447493	-0.875506	0.182318	0.025925	0.191084	0.981231	-0.893912	0.443821	-0.062811
353	3858192													8.717293	0.218269	-4.428267	-0.443203	-0.877633	0.182571	0.025668	0.191159	0.981223	-0.896054	0.439567	-0.062195
354	3858359													8.801947	0.185835	-4.399262	-0.438595	-0.879899	0.182787	0.025379	0.191186	0.981226	-0.898326	0.435000	-0.061522
355	3858526													8.863365	0.214966	-4.362453	-0.433645	-0.882316	0.182950	0.025063	0.191145	0.981242	-0.900735	0.430096	-0.060775
356	3858692													8.889260	0.240514	-4.314700	-0.428259	-0.884899	0.183164	0.024768	0.191122	0.981254	-0.903317	0.424767	-0.059932
357	3858859													8.881114	0.269335	-4.257993	-0.422423	-0.887631	0.183495	0.024573	0.191155	0.981252	-0.906065	0.419013	-0.058936
358	3859026													8.932388	0.224910	-4.179634	-0.416151	-0.890496	0.183943	0.024538	0.191220	0.981240	-0.908965	0.412857	-0.057725
359	3859192													8.969305	0.187122	-4.126042	-0.409427	-0.893530	0.184320	0.024416	0.191225	0.981242	-0.912016	0.406248	-0.056476
360	3859359													8.977699	0.264216	-4.065332	-0.402177	-0.896752	0.184631	0.024262	0.191149	0.981261	-0.915240	0.399120	-0.055119
361	3859526													8.995662	0.285760	-4.007493	-0.394480	-0.900093	0.184983	0.024171	0.191075	0.981278	-0.918587	0.391565	-0.053619
362	3859692													9.105183	0.229880	-3.982185	-0.386294	-0.903530	0.185499	0.024037	0.191181	0.981260	-0.922062	0.383514	-0.052134
363	3859859													9.220668	0.202734	-3.935452	-0.377462	-0.907167	0.185931	0.023800	0.191214	0.981260	-0.925719	0.374813	-0.050585
364	3860026													9.304743	0.182203	-3.860447	-0.367836	-0.911041	0.186283	0.023386	0.191201	0.981272	-0.929596	0.365304	-0.049025
365	3860192													9.348242	0.174980	-3.772320	-0.357303	-0.915182	0.186481	0.022794	0.191058	0.981314	-0.933710	0.354877	-0.047405
366	3860359													9.328122	0.165799	-3.697940	-0.345811	-0.919600	0.186414	0.021991	0.190673	0.981407	-0.938047	0.343481	-0.045714
367	3860526													9.319104	0.158182	-3.610848	-0.333374	-0.924222	0.186214	0.021080	0.190156	0.981528	-0.942559	0.331142	-0.043911
368	3860693													9.399353	0.178122	-3.524153	-0.320032	-0.928989	0.185900	0.020253	0.189467	0.981678	-0.947190	0.317933	-0.041820
369	3860859													9.487441	0.106779	-3.418663	-0.305637	-0.933907	0.185481	0.019468	0.188633	0.981855	-0.951949	0.303702	-0.039472
370	3861026													9.588474	0.151780	-3.329596	-0.290083	-0.938990	0.184798	0.018568	0.187542	0.982081	-0.956821	0.288316	-0.036967
371	3861193													9.664305	0.211984	-3.206850	-0.273211	-0.944214	0.183892	0.017517	0.186250	0.982346	-0.961795	0.271609	-0.034345
372	3861359													9.689200	0.293692	-3.041207	-0.254913	-0.949501	0.182942	0.016474	0.184901	0.982619	-0.966824	0.253496	-0.031492
373	3861526													9.698462	0.307348	-2.881967	-0.235278	-0.954702	0.182179	0.015628	0.183700	0.982858	-0.971803	0.234092	-0.028300
374	3861693													9.736968	0.264317	-2.663668	-0.214356	-0.959725	0.181602	0.014952	0.182677	0.983059	-0.976641	0.213440	-0.024808
375	3861859													9.737573	0.159747	-2.525141	-0.192164	-0.964503	0.181126	0.014219	0.181810	0.983231	-0.981260	0.191517	-0.021224
376	3862026													9.675378	0.158993	-2.316120	-0.168919	-0.968967	0.180473	0.013254	0.180854	0.983421	-0.985541	0.168510	-0.017707
377	3862193													9.688073	0.133491	-2.098726	-0.144801	-0.973095	0.179215	0.011923	0.179395	0.983705	-0.989389	0.144578	-0.014374
378	3862359													9.678226	0.142986	-1.877898	-0.119773	-0.976783	0.177624	0.010266	0.177684	0.984034	-0.992748	0.119684	-0.011254
379	3862526													9.558728	0.099023	-1.660745	-0.093999	-0.979920	0.175842	0.008599	0.175818	0.984385	-0.995535	0.094043	-0.008100
380	3862693													9.497420	0.018107	-1.414296	-0.067703	-0.982438	0.173872	0.007160	0.173789	0.984757	-0.997680	0.067916	-0.004731
381	3862859													9.399587	0.019378	-1.138850	-0.041144	-0.984309	0.171592	0.005991	0.171491	0.985167	-0.999135	0.041562	-0.001159
382	3863026													9.414861	0.083260	-0.693344	-0.014645	-0.985495	0.169069	0.004976	0.169013	0.985601	-0.999880	0.015276	0.002429
383	3863193													9.558458	0.252788	-0.265540	0.011913	-0.985974	0.166471	0.004030	0.166529	0.986028	-0.999921	-0.011076	0.005957
384	3863359													9.595723	0.326594	0.071235	0.038469	-0.985672	0.164225	0.003127	0.164465	0.986378	-0.999255	-0.037431	0.009409
385	3863526													9.492008	0.352928	0.284658	0.064846	-0.984594	0.162387	0.002147	0.162867	0.986646	-0.997893	-0.063632	0.012675
386	3863693													9.476256	0.252068	0.473907	0.091094	-0.982753	0.160930	0.001006	0.161692	0.986841	-0.995842	-0.089733	0.015718
387	3863859													9.459048	0.105416	0.649313	0.117279	-0.980193	0.159584	-0.000523	0.160632	0.987014	-0.993099	-0.115839	0.018326
388	3864026													9.366407	0.106767	0.885205	0.143404	-0.976963	0.158048	-0.002590	0.159327	0.987222	-0.989661	-0.141981	0.020318
389	3864193													9.659337	0.149001	1.387426	0.169459	-0.973028	0.156528	-0.005060	0.157964	0.987432	-0.985524	-0.168121	0.021845
390	3864359													9.739133	0.177692	1.780219	0.195844	-0.968277	0.155193	-0.007734	0.156728	0.987612	-0.980605	-0.194618	0.023205
391	3864526													9.181160	0.170140	2.098326	0.222018	-0.962767	0.154231	-0.010366	0.155839	0.987728	-0.974988	-0.220892	0.024619
392	3864693													9.112045	0.055768	2.287869	0.247336	-0.956701	0.153452	-0.012867	0.155116	0.987813	-0.968844	-0.246296	0.026056
393	3864859													9.057523	-0.074862	2.486937	0.271876	-0.950141	0.152697	-0.015309	0.154383	0.987892	-0.962211	-0.270921	0.027427
394	3865026													9.138453	-0.223587	2.805521	0.295775	-0.943130	0.151736	-0.017772	0.153383	0.988007	-0.955092	-0.294924	0.028606
395	3865193													9.455312	-0.248310	3.243251	0.319462	-0.935567	0.150527	-0.020266	0.152069	0.988162	-0.947382	-0.318731	0.029620
396	3865359													9.226659	-0.233474	3.610343	0.343088	-0.927383	0.149171	-0.022710	0.150574	0.988338	-0.939029	-0.342474	0.030599
397	3865526													8.616055	-0.128097	3.868267	0.365671	-0.918932	0.147809	-0.025121	0.149005	0.988517	-0.930405	-0.365186	0.031402
398	3865693													8.321050	-0.073375	4.109954	0.386202	-0.910675	0.146691	-0.027397	0.147635	0.988662	-0.922007	-0.385843	0.032067
399	3865859													8.246307	-0.143406	4.357401	0.404529	-0.902787	0.146056	-0.029403	0.146785	0.988731	-0.914052	-0.404265	0.032834
400	3866026													8.356396	-0.334192	4.543562	0.420782	-0.895400	0.145605	-0.031207	0.146123	0.988774	-0.906625	-0.420602	0.033544
401	3866193													8.483244	-0.448594	4.725477	0.435426	-0.888456	0.145086	-0.032640	0.145480	0.988823	-0.899633	-0.435295	0.034346
402	3866359													8.559411	-0.487406	4.851759	0.448934	-0.881828	0.144354	-0.033653	0.144748	0.988896	-0.892931	-0.448807	0.035307
403	3866526													8.634762	-0.475584	4.992818	0.461682	-0.875374	0.143423	-0.034208	0.143996	0.988987	-0.886386	-0.461504	0.036536
404	3866693													8.642600	-0.450330	5.044205	0.473989	-0.868981	0.142152	-0.034447	0.143016	0.989121	-0.879857	-0.473729	0.037854
405	3866859													8.437937	-0.402111	5.054531	0.485824	-0.862680	0.140567	-0.034495	0.141773	0.989298	-0.873376	-0.485473	0.039119
406	3867026													8.344502	-0.334759	5.011917	0.497068	-0.856533	0.138834	-0.034258	0.140504	0.989487	-0.867035	-0.496599	0.040497
407	3867193													8.324594	-0.275054	5.074908	0.507883	-0.850416	0.137286	-0.033807	0.139571	0.989635	-0.860763	-0.507260	0.042135
408	3867359													8.808002	-0.230444	5.320784	0.518832	-0.844010	0.135870	-0.033282	0.138872	0.989751	-0.854228	-0.518037	0.043961
409	3867526													8.636271	-0.255183	5.495766	0.530433	-0.836968	0.134627	-0.032948	0.138335	0.989837	-0.847086	-0.529478	0.045801
410	3867693													8.126224	-0.279636	5.700073	0.541593	-0.829972	0.133505	-0.032831	0.137809	0.989915	-0.840000	-0.540514	0.047387
411	3867859													7.992777	-0.233066	5.894673	0.551702	-0.823425	0.132654	-0.032907	0.137435	0.989964	-0.833392	-0.550530	0.048727
412	3868026													7.771187	-0.272259	6.089974	0.560285	-0.817702	0.132076	-0.033251	0.137121	0.989996	-0.827632	-0.559071	0.049637
413	3868193													7.775672	-0.264195	6.324095	0.567104	-0.813040	0.131753	-0.033736	0.136899	0.990010	-0.822955	-0.565884	0.050207
414	3868359													7.868965	-0.305202	6.442719	0.572376	-0.809346	0.131700	-0.034255	0.136871	0.989996	-0.819275	-0.571162	0.050618
415	3868526													7.801710	-0.343581	6.473392	0.576299	-0.806534	0.131843	-0.034724	0.137017	0.989960	-0.816501	-0.575091	0.050957
416	3868693													7.819821	-0.388438	6.424564	0.578960	-0.804590	0.132061	-0.035042	0.137264	0.989914	-0.814602	-0.577749	0.051276
417	3868859													7.908485	-0.443811	6.317738	0.580722	-0.803307	0.132137	-0.035179	0.137397	0.989891	-0.813341	-0.579500	0.051530
418	3869026													7.964903	-0.400130	6.199466	0.581935	-0.802451	0.131999	-0.035184	0.137318	0.989902	-0.812474	-0.580703	0.051677
419	3869193													8.000756	-0.364285	6.061598	0.582843	-0.801827	0.131789	-0.035099	0.137191	0.989923	-0.811827	-0.581595	0.051818
420	3869359													8.072004	-0.361942	5.948953	0.583639	-0.801287	0.131546	-0.034892	0.137103	0.989942	-0.811263	-0.582359	0.052060
421	3869526													8.147986	-0.329000	5.842580	0.584596	-0.800641	0.131232	-0.034675	0.136946	0.989971	-0.810583	-0.583284	0.052296
422	3869693													8.093383	-0.306289	5.809937	0.585741	-0.799858	0.130898	-0.034496	0.136754	0.990004	-0.809764	-0.584401	0.052511
423	3869859													8.135668	-0.292198	5.776466	0.587090	-0.798918	0.130597	-0.034363	0.136586	0.990032	-0.808792	-0.585726	0.052734
424	3870026													8.190666	-0.275898	5.785974	0.588800	-0.797678	0.130480	-0.034350	0.136589	0.990032	-0.807549	-0.587413	0.053024
425	3870193													8.127560	-0.306566	5.765205	0.590883	-0.796118	0.130591	-0.034441	0.136831	0.989995	-0.806022	-0.589469	0.053432
426	3870359													8.058497	-0.287918	5.772086	0.593159	-0.794345	0.131067	-0.034562	0.137525	0.989895	-0.804343	-0.591695	0.054120
427	3870526													8.180902	-0.380368	5.834704	0.595672	-0.792345	0.131776	-0.034741	0.138490	0.989754	-0.802476	-0.594147	0.054967
428	3870693													8.178385	-0.377734	5.934895	0.598529	-0.790062	0.132535	-0.034938	0.139539	0.989600	-0.800339	-0.596935	0.055915
429	3870859													8.022702	-0.365735	6.014723	0.601425	-0.787720	0.133359	-0.035012	0.140775	0.989422	-0.798161	-0.599733	0.057086
430	3871026													7.962820	-0.368500	6.084231	0.604113	-0.785491	0.134355	-0.034986	0.142292	0.989206	-0.796130	-0.602293	0.058480
431	3871193													7.961761	-0.401702	6.213067	0.606396	-0.783556	0.135363	-0.034865	0.143869	0.988982	-0.794398	-0.604434	0.059923
432	3871359													7.881487	-0.370231	6.287876	0.608160	-0.782033	0.136256	-0.034695	0.145297	0.988780	-0.793056	-0.606064	0.061231
433	3871526													7.838446	-0.336460	6.347329	0.609212	-0.781067	0.137099	-0.034532	0.146592	0.988594	-0.792255	-0.606997	0.062334
434	3871693													7.903170	-0.360390	6.358903	0.609616	-0.780615	0.137870	-0.034353	0.147745	0.988429	-0.791952	-0.607298	0.063251
435	3871859													7.901053	-0.377077	6.333898	0.609514	-0.780584	0.138498	-0.034162	0.148677	0.988296	-0.792039	-0.607111	0.063955
436	3872026													7.903585	-0.371894	6.231163	0.609067	-0.780848	0.138970	-0.033937	0.149401	0.988194	-0.792392	-0.606593	0.064495
437	3872193													7.910944	-0.345729	6.139856	0.608430	-0.781290	0.139281	-0.033693	0.149916	0.988125	-0.792892	-0.605898	0.064889
438	3872359													7.969271	-0.365132	6.082147	0.607758	-0.781778	0.139473	-0.033403	0.150310	0.988074	-0.793419	-0.605169	0.065238
439	3872526													8.013062	-0.366372	6.037747	0.607227	-0.782179	0.139540	-0.033098	0.150572	0.988045	-0.793839	-0.604586	0.065543
440	3872693													7.943310	-0.318978	6.019077	0.606881	-0.782452	0.139511	-0.032734	0.150776	0.988026	-0.794118	-0.604181	0.065891
441	3872859													7.928247	-0.312390	6.028769	0.606629	-0.782640	0.139556	-0.032404	0.151057	0.987994	-0.794324	-0.603868	0.066274
442	3873026													7.936258	-0.302339	6.027359	0.606473	-0.782756	0.139585	-0.032049	0.151347	0.987961	-0.794458	-0.603645	0.066702
443	3873193													7.938783	-0.260852	6.040589	0.606366	-0.782821	0.139682	-0.031719	0.151709	0.987916	-0.794553	-0.603470	0.067160
444	3873359													7.938134	-0.284518	6.075414	0.606293	-0.782854	0.139814	-0.031501	0.152033	0.987873	-0.794617	-0.603345	0.067516
445	3873526													7.939212	-0.262546	6.092807	0.606220	-0.782879	0.139993	-0.031390	0.152335	0.987830	-0.794677	-0.603237	0.067774
446	3873693													7.944887	-0.280362	6.132441	0.606069	-0.782953	0.140232	-0.031348	0.152652	0.987783	-0.794794	-0.603060	0.067974
447	3873859													8.005144	-0.304843	6.158931	0.605878	-0.783059	0.140462	-0.031311	0.152950	0.987738	-0.794941	-0.602847	0.068151
448	3874026													7.992327	-0.336280	6.146460	0.605664	-0.783197	0.140620	-0.031275	0.153154	0.987707	-0.795106	-0.602617	0.068266
449	3874193													7.958673	-0.326203	6.146458	0.605388	-0.783397	0.140696	-0.031173	0.153297	0.987688	-0.795320	-0.602320	0.068383
450	3874359													7.951968	-0.293573	6.138540	0.605011	-0.783676	0.140763	-0.030952	0.153507	0.987663	-0.795615	-0.601903	0.068617
451	3874526													7.976499	-0.344212	6.115567	0.604514	-0.784050	0.140815	-0.030646	0.153751	0.987634	-0.796005	-0.601354	0.068917
452	3874693													8.001039	-0.309997	6.108817	0.603930	-0.784503	0.140796	-0.030281	0.153938	0.987616	-0.796462	-0.600714	0.069212
453	3874859													8.000305	-0.303248	6.071218	0.603267	-0.785006	0.140836	-0.029908	0.154197	0.987587	-0.796978	-0.599991	0.069544
454	3875026													7.995599	-0.261631	6.051042	0.602509	-0.785576	0.140900	-0.029498	0.154502	0.987552	-0.797567	-0.599165	0.069916
455	3875193													7.984170	-0.239887	6.016325	0.601647	-0.786203	0.141084	-0.029107	0.154932	0.987496	-0.798231	-0.598231	0.070330
456	3875359													8.021655	-0.233795	5.991755	0.600692	-0.786885	0.141351	-0.028747	0.155431	0.987428	-0.798963	-0.597204	0.070745
457	3875526													7.992761	-0.191320	5.970140	0.599626	-0.787627	0.141750	-0.028440	0.156041	0.987341	-0.799775	-0.596066	0.071166
458	3875693													8.011780	-0.139926	5.951323	0.598415	-0.788425	0.142424	-0.028178	0.156945	0.987205	-0.800690	-0.594772	0.071702
459	3875859													8.117436	-0.159893	5.934329	0.597147	-0.789199	0.143458	-0.028044	0.158196	0.987009	-0.801642	-0.593413	0.072333
460	3876026													8.166201	-0.284311	5.928747	0.596034	-0.789828	0.144623	-0.028115	0.159474	0.986802	-0.802467	-0.592233	0.072846
461	3876193													8.114652	-0.303676	5.959100	0.595050	-0.790370	0.145710	-0.028381	0.160524	0.986624	-0.803187	-0.591226	0.073088
462	3876359													8.047971	-0.328084	6.020178	0.594071	-0.790927	0.146677	-0.028667	0.161409	0.986471	-0.803902	-0.590238	0.073215
463	3876526													7.944543	-0.379949	6.051450	0.592866	-0.791687	0.147448	-0.028756	0.162167	0.986344	-0.804787	-0.589010	0.073378
464	3876693													7.982493	-0.399885	6.083390	0.591336	-0.792754	0.147862	-0.028507	0.162691	0.986265	-0.805921	-0.587430	0.073606
465	3876859													8.011588	-0.353156	6.151394	0.589498	-0.794101	0.147973	-0.028064	0.162943	0.986236	-0.807282	-0.585537	0.073769
466	3877026													7.973475	-0.262582	6.170671	0.587238	-0.795773	0.147975	-0.027666	0.162977	0.986242	-0.808941	-0.583253	0.073690
467	3877193													7.943039	-0.216448	6.208939	0.584414	-0.797841	0.148024	-0.027435	0.162886	0.986263	-0.810992	-0.580447	0.073303
468	3877360													7.840250	-0.196175	6.233163	0.580824	-0.800403	0.148317	-0.027399	0.162876	0.986266	-0.813568	-0.576911	0.072672
469	3877526													7.841015	-0.250413	6.235550	0.576254	-0.803594	0.148889	-0.027432	0.163058	0.986235	-0.816810	-0.572406	0.071918
470	3877693													7.839033	-0.303109	6.315537	0.570554	-0.807503	0.149688	-0.027436	0.163423	0.986175	-0.820801	-0.566773	0.071087
471	3877860													7.858912	-0.329158	6.343801	0.563664	-0.812161	0.150591	-0.027396	0.163830	0.986108	-0.825550	-0.559959	0.070095
472	3878026													7.827470	-0.282509	6.314575	0.555443	-0.817595	0.151726	-0.027343	0.164405	0.986014	-0.831105	-0.551823	0.068963
473	3878193													7.765717	-0.260955	6.208216	0.545665	-0.823913	0.153026	-0.027240	0.165072	0.985905	-0.837561	-0.542142	0.067630
474	3878360													7.697290	-0.203867	6.014463	0.534111	-0.831131	0.154748	-0.027076	0.166133	0.985732	-0.844980	-0.530680	0.066230
475	3878526													7.804061	-0.231861	5.818479	0.520726	-0.839188	0.156870	-0.026878	0.167542	0.985498	-0.853300	-0.517391	0.064688
476	3878693													8.018273	-0.300862	5.629063	0.505806	-0.847806	0.159328	-0.026682	0.169232	0.985215	-0.862235	-0.502578	0.062977
477	3878860													8.338281	-0.371215	5.386610	0.489755	-0.856721	0.161767	-0.026570	0.170789	0.984949	-0.871455	-0.486682	0.060882
478	3879026													8.481009	-0.285960	5.160054	0.473115	-0.865591	0.164054	-0.026540	0.172125	0.984717	-0.880601	-0.470238	0.058462
479	3879193													8.489585	-0.237787	4.932464	0.455844	-0.874389	0.166283	-0.026546	0.173383	0.984497	-0.889664	-0.453191	0.055824
480	3879360													8.512162	-0.226072	4.721668	0.437853	-0.883101	0.168577	-0.026397	0.174798	0.984250	-0.898659	-0.435407	0.053224
481	3879526													8.566276	-0.260645	4.511101	0.418928	-0.891782	0.170952	-0.025951	0.176433	0.983970	-0.907649	-0.416649	0.050770
482	3879693													8.704465	-0.306238	4.316814	0.399105	-0.900375	0.173320	-0.025250	0.178163	0.983677	-0.916557	-0.396967	0.048372
483	3879860													8.939597	-0.359083	4.052392	0.378588	-0.908767	0.175541	-0.024510	0.179748	0.983407	-0.925241	-0.376609	0.045776
484	3880026													9.002193	-0.280953	3.854774	0.357526	-0.916877	0.177515	-0.023828	0.181061	0.983183	-0.933599	-0.355743	0.042887
485	3880193													8.986519	-0.237751	3.626133	0.335835	-0.924661	0.179493	-0.023068	0.182429	0.982948	-0.941638	-0.334249	0.039936
486	3880360													8.952449	-0.247614	3.448270	0.313117	-0.932207	0.181518	-0.022152	0.183908	0.982694	-0.949456	-0.311719	0.036935
487	3880526													8.982785	-0.213547	3.289379	0.289163	-0.939498	0.183653	-0.021105	0.185546	0.982409	-0.957047	-0.287952	0.033824
488	3880693													8.969969	-0.225875	3.069937	0.263678	-0.946527	0.185902	-0.020008	0.187314	0.982096	-0.964403	-0.262677	0.030452
489	3880860													8.979220	-0.183472	2.711914	0.236588	-0.953228	0.188103	-0.018817	0.189068	0.981784	-0.971428	-0.235818	0.026795
490	3881026													9.007285	-0.110997	2.331355	0.208059	-0.959417	0.190343	-0.017547	0.190909	0.981451	-0.977959	-0.207539	0.022886
491	3881193													9.113708	-0.154013	1.948197	0.178321	-0.964948	0.192556	-0.016180	0.192790	0.981107	-0.983839	-0.178068	0.018766
492	3881360													9.341112	-0.212965	1.582328	0.147729	-0.969718	0.194482	-0.014714	0.194463	0.980800	-0.988918	-0.147754	0.014459
493	3881526													9.522385	-0.186964	1.205621	0.116925	-0.973590	0.196088	-0.013249	0.195896	0.980535	-0.993052	-0.117247	0.010006
494	3881693													9.662471	-0.167915	0.805967	0.086533	-0.976488	0.197444	-0.011709	0.197177	0.980298	-0.996180	-0.087140	0.005628
495	3881860													9.915545	-0.207442	0.369634	0.057118	-0.978410	0.198622	-0.010081	0.198372	0.980075	-0.998317	-0.057982	0.001467
496	3882026													10.088984	-0.258723	0.071354	0.029330	-0.979474	0.199424	-0.008539	0.199257	0.979910	-0.999533	-0.030444	-0.002520
497	3882193													10.088357	-0.250179	-0.272713	0.003474	-0.979830	0.199805	-0.007136	0.199777	0.979815	-0.999969	-0.004829	-0.006298
498	3882360													9.966700	-0.116765	-0.535511	-0.020534	-0.979599	0.199909	-0.005730	0.200063	0.979766	-0.999773	0.018973	-0.009721
499	3882526													9.980108	-0.055262	-0.792036	-0.042983	-0.978863	0.199948	-0.004082	0.200303	0.979726	-0.999067	0.041296	-0.012605
500	3882693													9.842971	-0.115663	-1.020343	-0.063984	-0.977710	0.199971	-0.002315	0.200526	0.979686	-0.997948	0.062221	-0.015094
501	3882860													9.778451	-0.111602	-1.143593	-0.084003	-0.976221	0.199838	-0.000567	0.200593	0.979674	-0.996465	0.082183	-0.017404
502	3883026													9.854052	-0.074830	-1.260387	-0.103191	-0.974419	0.199646	0.001187	0.200596	0.979673	-0.994661	0.101331	-0.019543
503	3883193													9.887546	-0.053777	-1.418008	-0.121489	-0.972374	0.199321	0.002930	0.200456	0.979698	-0.992588	0.119606	-0.021504
504	3883360													9.774891	-0.002776	-1.533108	-0.138956	-0.970107	0.198954	0.004645	0.200262	0.979731	-0.990288	0.137064	-0.023321
505	3883526													9.613774	0.075104	-1.656679	-0.156065	-0.967580	0.198576	0.006373	0.200049	0.979765	-0.987726	0.154173	-0.025055
506	3883693													9.511374	0.129055	-1.848197	-0.173031	-0.964751	0.198281	0.008116	0.199914	0.979780	-0.984883	0.171142	-0.026761
507	3883860													9.527171	0.086840	-2.044966	-0.189985	-0.961417	0.198957	0.009796	0.200781	0.979587	-0.981738	0.188056	-0.028728
508	3884026													9.512127	0.079744	-2.215893	-0.206770	-0.957855	0.199399	0.011209	0.201471	0.979430	-0.978325	0.204752	-0.030921
509	3884193													9.571531	0.075595	-2.370555	-0.223258	-0.954088	0.199679	0.012314	0.202073	0.979293	-0.974682	0.221093	-0.033366
510	3884360													9.501746	0.086448	-2.532069	-0.239268	-0.950204	0.199658	0.013234	0.202420	0.979209	-0.970863	0.236935	-0.035857
511	3884526													9.388508	0.106745	-2.737497	-0.254828	-0.946146	0.199675	0.014208	0.202807	0.979116	-0.966882	0.252343	-0.038238
512	3884693													9.276162	0.045708	-2.925196	-0.270061	-0.941943	0.199525	0.015188	0.203031	0.979055	-0.962723	0.267435	-0.040524
513	3884860													9.280860	-0.027617	-3.100691	-0.284924	-0.937627	0.199183	0.016217	0.203051	0.979034	-0.958413	0.282180	-0.042649
514	3885026													9.398178	-0.055871	-3.256861	-0.299166	-0.933356	0.198359	0.017113	0.202598	0.979113	-0.954048	0.296312	-0.044637
515	3885193													9.461600	0.011173	-3.357881	-0.312414	-0.929242	0.197249	0.017883	0.201852	0.979253	-0.949778	0.309460	-0.046443
516	3885360													9.476571	0.078379	-3.475595	-0.324555	-0.925350	0.195935	0.018652	0.200847	0.979445	-0.945683	0.321538	-0.047926
517	3885526													9.459361	0.152829	-3.553587	-0.335525	-0.921706	0.194629	0.019536	0.199753	0.979651	-0.941829	0.332500	-0.049016
518	3885693													9.347393	0.206375	-3.639354	-0.345503	-0.918265	0.193436	0.020533	0.198684	0.979849	-0.938193	0.342513	-0.049792
519	3885860													9.164035	0.261883	-3.671129	-0.354830	-0.914901	0.192490	0.021590	0.197814	0.980002	-0.934682	0.351890	-0.050438
520	3886026													9.165858	0.237821	-3.722771	-0.363641	-0.911580	0.191799	0.022644	0.197183	0.980105	-0.931264	0.360749	-0.051062
521	3886193													9.178005	0.234919	-3.750214	-0.371941	-0.908355	0.191182	0.023593	0.196641	0.980192	-0.927956	0.369084	-0.051708
522	3886360													9.132838	0.230972	-3.775463	-0.379631	-0.905299	0.190564	0.024526	0.196064	0.980284	-0.924813	0.376820	-0.052229
523	3886526													8.993589	0.199951	-3.869077	-0.386912	-0.902320	0.190049	0.025362	0.195609	0.980354	-0.921768	0.384130	-0.052799
524	3886693													8.957404	0.207054	-3.938744	-0.393895	-0.899406	0.189513	0.026094	0.195156	0.980425	-0.918785	0.391130	-0.053402
525	3886860													8.984106	0.226257	-4.064270	-0.400552	-0.896596	0.188876	0.026712	0.194621	0.980515	-0.915885	0.397793	-0.054006
526	3887026													8.980086	0.270289	-4.163425	-0.406766	-0.893943	0.188167	0.027264	0.194006	0.980621	-0.913125	0.404014	-0.054543
527	3887193													8.974013	0.288071	-4.226823	-0.412485	-0.891466	0.187470	0.027689	0.193429	0.980724	-0.910543	0.409725	-0.055102
528	3887360													8.980799	0.268656	-4.283589	-0.417629	-0.889221	0.186740	0.027950	0.192852	0.980830	-0.908188	0.414843	-0.055686
529	3887526													9.026960	0.276031	-4.317747	-0.422074	-0.887284	0.185961	0.028000	0.192271	0.980942	-0.906129	0.419237	-0.056309
530	3887693													9.024810	0.274354	-4.354751	-0.425790	-0.885666	0.185197	0.027830	0.191762	0.981047	-0.904394	0.422874	-0.057003
531	3887860													8.982007	0.274959	-4.366415	-0.428776	-0.884364	0.184531	0.027490	0.191393	0.981128	-0.902993	0.425757	-0.057754
532	3888026													8.931110	0.246365	-4.405034	-0.431106	-0.883352	0.183948	0.027097	0.191099	0.981197	-0.901894	0.427985	-0.058448
533	3888193													8.942327	0.225936	-4.403575	-0.432865	-0.882597	0.183441	0.026731	0.190837	0.981258	-0.901062	0.429656	-0.059014
534	3888360													8.884582	0.234520	-4.377265	-0.434076	-0.882093	0.183004	0.026365	0.190615	0.981311	-0.900490	0.430789	-0.059485
535	3888526													8.787098	0.247880	-4.339306	-0.434959	-0.881724	0.182682	0.026059	0.190467	0.981348	-0.900073	0.431607	-0.059868
536	3888693													8.785323	0.244340	-4.316857	-0.435580	-0.881459	0.182484	0.025895	0.190372	0.981370	-0.899778	0.432190	-0.060097
537	3888860													8.785274	0.214717	-4.283698	-0.435951	-0.881299	0.182372	0.025787	0.190327	0.981382	-0.899601	0.432537	-0.060247
538	3889026													8.791351	0.219729	-4.279492	-0.436086	-0.881248	0.182293	0.025691	0.190295	0.981391	-0.899538	0.432654	-0.060345
539	3889193													8.738670	0.221746	-4.269094	-0.436109	-0.881237	0.182291	0.025652	0.190313	0.981388	-0.899528	0.432669	-0.060392
540	3889360													8.691323	0.218145	-4.281680	-0.436148	-0.881222	0.182269	0.025593	0.190321	0.981388	-0.899511	0.432695	-0.060455
541	3889526													8.691129	0.236559	-4.279998	-0.436228	-0.881180	0.182284	0.025602	0.190338	0.981385	-0.899472	0.432774	-0.060471
542	3889693													8.728420	0.234464	-4.297028	-0.436327	-0.881124	0.182316	0.025656	0.190355	0.981380	-0.899422	0.432880	-0.060451
543	3889860													8.780151	0.229654	-4.286244	-0.436337	-0.881104	0.182388	0.025684	0.190424	0.981366	-0.899417	0.432891	-0.060459
544	3890026													8.794467	0.228926	-4.254040	-0.436198	-0.881145	0.182523	0.025708	0.190552	0.981341	-0.899483	0.432751	-0.060466
545	3890193													8.805803	0.225973	-4.216825	-0.435834	-0.881284	0.182722	0.025742	0.190729	0.981305	-0.899659	0.432390	-0.060440
546	3890360													8.786409	0.205465	-4.228519	-0.435256	-0.881521	0.182956	0.025713	0.190961	0.981261	-0.899939	0.431804	-0.060450
547	3890526													8.754732	0.229126	-4.230695	-0.434563	-0.881811	0.183205	0.025677	0.191204	0.981214	-0.900275	0.431103	-0.060447
548	3890693													8.783785	0.243997	-4.199698	-0.433779	-0.882121	0.183572	0.025773	0.191507	0.981153	-0.900651	0.430334	-0.060336
549	3890860													8.839462	0.241138	-4.179829	-0.432822	-0.882474	0.184132	0.026028	0.191937	0.981062	-0.901104	0.429417	-0.060106
550	3891026													8.803322	0.188290	-4.171044	-0.431709	-0.882890	0.184749	0.026284	0.192419	0.980961	-0.901630	0.428345	-0.059863
551	3891193													8.789885	0.231597	-4.106924	-0.430491	-0.883347	0.185405	0.026538	0.192937	0.980852	-0.902205	0.427168	-0.059615
552	3891360													8.791104	0.230509	-4.074373	-0.429271	-0.883786	0.186140	0.026846	0.193518	0.980729	-0.902777	0.425996	-0.059346
553	3891526													8.822162	0.245230	-4.041695	-0.428062	-0.884219	0.186867	0.027086	0.194124	0.980603	-0.903343	0.424821	-0.059147
554	3891693													8.782033	0.216841	-4.053333	-0.426918	-0.884628	0.187550	0.027217	0.194736	0.980478	-0.903881	0.423688	-0.059060
555	3891860													8.739296	0.171814	-4.027225	-0.425904	-0.885014	0.188030	0.027175	0.195214	0.980384	-0.904360	0.422659	-0.059092
556	3892026													8.687412	0.220028	-4.041553	-0.425081	-0.885353	0.188300	0.027031	0.195521	0.980327	-0.904752	0.421808	-0.059180
557	3892193													8.725502	0.225222	-4.052495	-0.424550	-0.885582	0.188418	0.026852	0.195697	0.980297	-0.905006	0.421245	-0.059303
558	3892360													8.794042	0.153090	-4.062840	-0.424270	-0.885730	0.188353	0.026534	0.195753	0.980294	-0.905147	0.420907	-0.059550
559	3892526													8.886621	0.157357	-4.044847	-0.424007	-0.885920	0.188051	0.026075	0.195613	0.980334	-0.905283	0.420572	-0.059841
560	3892693													8.898977	0.170269	-4.053226	-0.423607	-0.886212	0.187577	0.025593	0.195282	0.980413	-0.905485	0.420110	-0.060042
561	3892860													8.927090	0.220260	-4.090211	-0.422986	-0.886614	0.187079	0.025088	0.194921	0.980498	-0.905789	0.419431	-0.060206
562	3893026													8.896421	0.217714	-4.134683	-0.422039	-0.887173	0.186567	0.024610	0.194505	0.980593	-0.906244	0.418440	-0.060255
563	3893193													8.858772	0.252756	-4.154639	-0.420796	-0.887858	0.186117	0.024104	0.194150	0.980676	-0.906835	0.417151	-0.060297
564	3893360													8.917245	0.270689	-4.174071	-0.419193	-0.888668	0.185865	0.023647	0.193963	0.980724	-0.907589	0.415508	-0.060294
565	3893526													8.958060	0.257140	-4.184145	-0.417119	-0.889661	0.185780	0.023176	0.193933	0.980741	-0.908556	0.413392	-0.060274
566	3893693													9.024489	0.235614	-4.183136	-0.414478	-0.890887	0.185818	0.022663	0.194014	0.980737	-0.909777	0.410705	-0.060225
567	3893860													9.086769	0.211175	-4.207146	-0.411160	-0.892398	0.185936	0.022128	0.194144	0.980723	-0.911295	0.407349	-0.060078
568	3894027													9.110061	0.199568	-4.180542	-0.407134	-0.894222	0.186034	0.021519	0.194232	0.980720	-0.913115	0.403288	-0.059836
569	3894193													9.093296	0.217249	-4.163071	-0.402427	-0.896331	0.186125	0.020837	0.194294	0.980722	-0.915215	0.398547	-0.059512
570	3894360													9.091197	0.206374	-4.122087	-0.397054	-0.898681	0.186334	0.020144	0.194441	0.980707	-0.917574	0.393148	-0.059101
571	3894527													9.107232	0.177551	-4.076560	-0.391030	-0.901265	0.186591	0.019437	0.194602	0.980690	-0.920173	0.387106	-0.058577
572	3894693													9.149804	0.224991	-4.050366	-0.384296	-0.904088	0.186929	0.018718	0.194806	0.980663	-0.923020	0.380363	-0.057940
573	3894860													9.285910	0.178479	-4.035655	-0.376639	-0.907222	0.187328	0.017931	0.195042	0.980631	-0.926186	0.372703	-0.057193
574	3895027													9.503831	0.194243	-4.047903	-0.367658	-0.910803	0.187791	0.017073	0.195289	0.980597	-0.929804	0.363730	-0.056249
575	3895193													9.684575	0.212218	-4.049764	-0.356865	-0.914965	0.188376	0.016181	0.195569	0.980556	-0.934016	0.352975	-0.054987
576	3895360													9.825255	0.183732	-4.029596	-0.343870	-0.919676	0.189603	0.015337	0.196389	0.980406	-0.938892	0.340040	-0.053427
577	3895527													9.776601	0.138203	-4.008842	-0.328496	-0.924988	0.191018	0.014391	0.197316	0.980234	-0.944396	0.324752	-0.051506
578	3895693													9.665666	0.087567	-3.951874	-0.310926	-0.930772	0.192327	0.013267	0.198087	0.980095	-0.950342	0.307288	-0.049242
579	3895860													9.671839	0.123016	-3.801126	-0.291265	-0.936878	0.193453	0.011971	0.198636	0.980000	-0.956568	0.287755	-0.046640
580	3896027													9.696500	0.190516	-3.632683	-0.269563	-0.943131	0.194526	0.010517	0.199108	0.979921	-0.962925	0.266196	-0.043753
581	3896193													9.620957	0.211557	-3.405824	-0.245949	-0.949341	0.195603	0.008952	0.199568	0.979843	-0.969241	0.242743	-0.040585
582	3896360													9.650829	0.107542	-3.151477	-0.220638	-0.955322	0.196668	0.007149	0.200047	0.979760	-0.975330	0.217578	-0.037308
583	3896527													9.784560	-0.046700	-2.930418	-0.193551	-0.961037	0.197346	0.004779	0.200223	0.979739	-0.981079	0.190572	-0.034160
584	3896693													9.773769	-0.006550	-2.643797	-0.164657	-0.966407	0.197348	0.001750	0.199793	0.979837	-0.986349	0.161682	-0.031206
585	3896860													9.579367	0.081710	-2.190276	-0.134188	-0.971165	0.197057	-0.001475	0.199051	0.979988	-0.990955	0.131212	-0.028143
586	3897027													9.513372	0.065713	-1.767582	-0.102965	-0.975136	0.196234	-0.004614	0.197748	0.980242	-0.994674	0.100025	-0.024860
587	3897193													9.307069	0.080537	-1.419166	-0.071707	-0.978102	0.195385	-0.007735	0.196429	0.980488	-0.997396	0.068796	-0.021651
588	3897360													9.077947	0.003753	-1.063573	-0.041176	-0.980044	0.194470	-0.011028	0.195069	0.980728	-0.999091	0.038238	-0.018840
589	3897527													9.233727	0.009669	-0.725289	-0.011462	-0.981063	0.193347	-0.014641	0.193504	0.980990	-0.999827	0.008413	-0.016582
590	3897693													9.420086	0.031411	-0.358859	0.017855	-0.981193	0.192200	-0.018461	0.191874	0.981246	-0.999670	-0.021068	-0.014688
591	3897860													9.447026	-0.013776	0.047450	0.046937	-0.980428	0.191200	-0.022420	0.190329	0.981464	-0.998646	-0.050354	-0.013048
592	3898027													9.420854	-0.158991	0.424848	0.075414	-0.978815	0.190351	-0.026543	0.188856	0.981646	-0.996799	-0.079082	-0.011738
593	3898193													9.113611	-0.339485	0.743600	0.102888	-0.976525	0.189243	-0.030766	0.187038	0.981871	-0.994217	-0.106845	-0.010800
594	3898360													9.048968	-0.312797	1.060157	0.129077	-0.973684	0.187824	-0.034852	0.184837	0.982151	-0.991022	-0.133319	-0.010077
595	3898527													9.313887	-0.364267	1.320606	0.154499	-0.970285	0.186216	-0.038638	0.182401	0.982465	-0.987237	-0.158985	-0.009309
596	3898693													9.593573	-0.379176	1.711611	0.180062	-0.966199	0.184491	-0.041864	0.179859	0.982801	-0.982764	-0.184689	-0.008064
597	3898860													9.621803	-0.474755	1.942942	0.206110	-0.961302	0.182804	-0.044586	0.177395	0.983129	-0.977513	-0.210783	-0.006298
598	3899027													9.133532	-0.552298	2.191360	0.232120	-0.955702	0.180980	-0.046952	0.174836	0.983477	-0.971553	-0.236782	-0.004289
599	3899193													9.018476	-0.578522	2.583474	0.257226	-0.949645	0.178912	-0.049087	0.172062	0.983862	-0.965104	-0.261857	-0.002356
600	3899360													9.045618	-0.481732	3.034575	0.281334	-0.943193	0.176743	-0.051026	0.169218	0.984257	-0.958252	-0.285923	-0.000521
601	3899527													8.782144	-0.389066	3.394337	0.304203	-0.936419	0.174871	-0.052653	0.166762	0.984590	-0.951151	-0.308723	0.001424
602	3899693													8.708266	-0.392928	3.563694	0.325486	-0.929509	0.173409	-0.053892	0.164861	0.984843	-0.944010	-0.329899	0.003567
603	3899860													8.703467	-0.466917	3.713395	0.345234	-0.922553	0.172362	-0.054852	0.163505	0.985016	-0.936912	-0.349516	0.005843
604	3900027													8.774343	-0.555090	3.900924	0.363670	-0.915613	0.171458	-0.055656	0.162376	0.985158	-0.929864	-0.367815	0.008092
605	3900193													8.961621	-0.655404	4.082179	0.381301	-0.908607	0.170421	-0.056493	0.161102	0.985320	-0.922723	-0.385331	0.010099
606	3900360													9.067866	-0.602642	4.448103	0.398661	-0.901352	0.169218	-0.057355	0.159649	0.985506	-0.915303	-0.402588	0.011949
607	3900527													8.945854	-0.566623	4.687383	0.415760	-0.893799	0.168130	-0.058075	0.158397	0.985666	-0.907618	-0.419565	0.013948
608	3900693													8.448850	-0.596739	4.811502	0.431946	-0.886266	0.167197	-0.058520	0.157451	0.985791	-0.899999	-0.435593	0.016146
609	3900860													8.246703	-0.618922	4.875471	0.446589	-0.879136	0.166366	-0.058652	0.156774	0.985891	-0.892815	-0.450046	0.018450
610	3901027													8.147715	-0.658857	4.910503	0.459611	-0.872568	0.165480	-0.058504	0.156175	0.985995	-0.886191	-0.462855	0.020732
611	3901193													8.308760	-0.660498	4.971750	0.471314	-0.866498	0.164453	-0.058141	0.155531	0.986118	-0.880047	-0.474333	0.022925
612	3901360													8.659513	-0.679989	5.144825	0.482462	-0.860565	0.163276	-0.057651	0.154804	0.986262	-0.874018	-0.485247	0.025075
613	3901527													8.691714	-0.614426	5.231956	0.493696	-0.854414	0.161989	-0.057020	0.154068	0.986414	-0.867763	-0.496225	0.027344
614	3901693													8.412803	-0.540869	5.350518	0.504584	-0.848277	0.160689	-0.056405	0.153333	0.986564	-0.861518	-0.506868	0.029522
615	3901860													8.377673	-0.449360	5.443658	0.514910	-0.842282	0.159464	-0.055914	0.152624	0.986701	-0.855419	-0.516979	0.031493
616	3902027													8.181458	-0.430958	5.547805	0.524405	-0.836599	0.158432	-0.055691	0.151970	0.986815	-0.849646	-0.526314	0.033103
617	3902193													8.186544	-0.482174	5.610333	0.532957	-0.831350	0.157527	-0.055742	0.151271	0.986919	-0.844304	-0.534766	0.034280
618	3902360													8.303987	-0.458398	5.693660	0.540876	-0.826364	0.156765	-0.055927	0.150635	0.987006	-0.839241	-0.542616	0.035259
619	3902527													8.261464	-0.483859	5.645635	0.548448	-0.821473	0.156162	-0.056105	0.150183	0.987065	-0.834300	-0.550116	0.036279
620	3902693													8.144363	-0.607165	5.553078	0.555604	-0.816762	0.155573	-0.056267	0.149747	0.987122	-0.829541	-0.557203	0.037243
621	3902860													8.057487	-0.637473	5.422811	0.562340	-0.812302	0.154722	-0.056357	0.149025	0.987226	-0.824983	-0.563877	0.038024
622	3903027													8.130638	-0.605644	5.393340	0.568807	-0.807993	0.153644	-0.056391	0.148056	0.987370	-0.820536	-0.570287	0.038652
623	3903193													8.395030	-0.545056	5.429389	0.575578	-0.803414	0.152434	-0.056380	0.146976	0.987532	-0.815801	-0.576996	0.039299
624	3903360													8.391030	-0.501361	5.553190	0.583038	-0.798237	0.151274	-0.056298	0.146053	0.987674	-0.810492	-0.584368	0.040215
625	3903527													8.183332	-0.474133	5.699109	0.590887	-0.792626	0.150322	-0.056226	0.145416	0.987772	-0.804793	-0.592113	0.041358
626	3903693													8.069189	-0.518555	5.819909	0.598756	-0.786850	0.149526	-0.056310	0.144873	0.987847	-0.798950	-0.599899	0.042436
627	3903860													7.870298	-0.514067	5.950776	0.606337	-0.781165	0.148785	-0.056579	0.144249	0.987923	-0.793192	-0.607432	0.043266
628	3904027													7.884128	-0.541974	6.117743	0.613370	-0.775789	0.148085	-0.057021	0.143510	0.988005	-0.787735	-0.614457	0.043788
629	3904193													7.834531	-0.564385	6.320584	0.619908	-0.770693	0.147465	-0.057506	0.142805	0.988079	-0.782564	-0.620998	0.044207
630	3904360													7.764605	-0.612804	6.461443	0.625908	-0.765928	0.146946	-0.057910	0.142253	0.988135	-0.777744	-0.626992	0.044682
631	3904527													7.647933	-0.631924	6.532733	0.631299	-0.761609	0.146336	-0.058098	0.141716	0.988201	-0.773361	-0.632352	0.045217
632	3904693													7.642465	-0.589031	6.558672	0.636075	-0.757746	0.145702	-0.058130	0.141232	0.988268	-0.769434	-0.637083	0.045786
633	3904860													7.680652	-0.584131	6.626422	0.640438	-0.754185	0.145066	-0.058154	0.140722	0.988340	-0.765805	-0.641407	0.046264
634	3905027													7.708144	-0.525585	6.702258	0.644588	-0.750763	0.144436	-0.058172	0.140211	0.988411	-0.762314	-0.645520	0.046704
635	3905193													7.528957	-0.553060	6.705502	0.648483	-0.747488	0.143984	-0.058284	0.139836	0.988458	-0.758994	-0.649390	0.047115
636	3905360													7.477766	-0.567904	6.696021	0.651919	-0.744573	0.143573	-0.058466	0.139419	0.988506	-0.756032	-0.652820	0.047358
637	3905527													7.456786	-0.587190	6.675907	0.654971	-0.741969	0.143156	-0.058722	0.138898	0.988564	-0.753369	-0.655888	0.047404
638	3905693													7.494792	-0.605749	6.661261	0.657821	-0.739546	0.142630	-0.058928	0.138255	0.988642	-0.750866	-0.658754	0.047367
639	3905860													7.537694	-0.648578	6.697553	0.660651	-0.737136	0.142026	-0.059070	0.137560	0.988730	-0.748366	-0.661595	0.047336
640	3906027													7.494988	-0.671037	6.761861	0.663567	-0.734659	0.141262	-0.059042	0.136807	0.988837	-0.745784	-0.664499	0.047405
641	3906193													7.434804	-0.646868	6.810954	0.666507	-0.732154	0.140425	-0.058916	0.136044	0.988949	-0.743167	-0.667415	0.047538
642	3906360													7.316294	-0.625286	6.886652	0.669330	-0.729738	0.139568	-0.058729	0.135299	0.989063	-0.740641	-0.670206	0.047703
643	3906527													7.261284	-0.600031	6.911452	0.671919	-0.727516	0.138727	-0.058518	0.134576	0.989174	-0.738309	-0.672763	0.047852
644	3906693													7.266194	-0.594528	6.933527	0.674229	-0.725536	0.137886	-0.058311	0.133824	0.989288	-0.736216	-0.675047	0.047921
645	3906860													7.268615	-0.559101	6.943419	0.676288	-0.723765	0.137108	-0.058100	0.133140	0.989393	-0.734342	-0.677081	0.047990
646	3907027													7.322812	-0.536055	7.006514	0.678157	-0.722111	0.136595	-0.057898	0.132791	0.989451	-0.732633	-0.678912	0.048244
647	3907193													7.297268	-0.642093	7.072861	0.679875	-0.720546	0.136319	-0.057746	0.132710	0.989471	-0.731050	-0.680589	0.048618
648	3907527													7.281929	-0.629620	7.116741	0.681306	-0.719232	0.136117	-0.057678	0.132627	0.989486	-0.729723	-0.681994	0.048876
649	3907860													7.146138	-0.576092	7.141864	0.682321	-0.718291	0.135998	-0.057616	0.132615	0.989492	-0.728779	-0.682986	0.049101
650	3908027													7.161401	-0.544292	7.141285	0.682699	-0.717926	0.136028	-0.057519	0.132782	0.989475	-0.728432	-0.683338	0.049356
651	3908193													7.236438	-0.568473	7.101846	0.682592	-0.717991	0.136223	-0.057426	0.133128	0.989434	-0.728540	-0.683203	0.049641
652	3908360													7.279813	-0.610535	7.030442	0.682134	-0.718395	0.136389	-0.057389	0.133349	0.989406	-0.728971	-0.682735	0.049734
653	3908527													7.374051	-0.573886	6.960855	0.681556	-0.718933	0.136441	-0.057395	0.133360	0.989404	-0.729511	-0.682166	0.049629
654	3908693													7.366298	-0.551599	6.863872	0.681027	-0.719429	0.136472	-0.057453	0.133299	0.989409	-0.730001	-0.681655	0.049447
655	3908860													7.363067	-0.569171	6.808430	0.680513	-0.719908	0.136512	-0.057507	0.133257	0.989412	-0.730476	-0.681158	0.049283
656	3909027													7.355964	-0.599425	6.747611	0.680044	-0.720348	0.136528	-0.057489	0.133252	0.989413	-0.730914	-0.680693	0.049205
657	3909193													7.378116	-0.627841	6.710661	0.679597	-0.720780	0.136474	-0.057465	0.133158	0.989427	-0.731332	-0.680254	0.049074
658	3909360													7.405722	-0.605172	6.722097	0.679256	-0.721110	0.136422	-0.057483	0.133039	0.989442	-0.731646	-0.679927	0.048916
659	3909527													7.419503	-0.592768	6.750405	0.679008	-0.721347	0.136409	-0.057474	0.133007	0.989447	-0.731878	-0.679682	0.048854
660	3909693													7.425742	-0.603819	6.754169	0.678862	-0.721470	0.136482	-0.057462	0.133106	0.989435	-0.732014	-0.679532	0.048903
661	3909860													7.410885	-0.628157	6.759514	0.678728	-0.721589	0.136524	-0.057418	0.133191	0.989426	-0.732142	-0.679389	0.048968
662	3910027													7.391363	-0.567687	6.747688	0.678584	-0.721721	0.136539	-0.057333	0.133277	0.989419	-0.732282	-0.679232	0.049061
663	3910193													7.461846	-0.575376	6.782957	0.678443	-0.721849	0.136558	-0.057287	0.133333	0.989414	-0.732416	-0.679085	0.049106
664	3910360													7.480246	-0.558003	6.809202	0.678365	-0.721917	0.136593	-0.057277	0.133383	0.989408	-0.732489	-0.679003	0.049133
665	3910527													7.380489	-0.566348	6.830807	0.678253	-0.721990	0.136757	-0.057274	0.133600	0.989379	-0.732593	-0.678882	0.049264
666	3910694													7.375676	-0.625811	6.830278	0.678009	-0.722175	0.136998	-0.057273	0.133909	0.989337	-0.732819	-0.678625	0.049430
667	3910860													7.364597	-0.619000	6.815642	0.677597	-0.722526	0.137178	-0.057270	0.134120	0.989309	-0.733200	-0.678209	0.049500
668	3911027													7.398376	-0.579654	6.816981	0.677093	-0.722976	0.137299	-0.057213	0.134291	0.989289	-0.733670	-0.677696	0.049564
669	3911194													7.434316	-0.586130	6.789008	0.676534	-0.723474	0.137430	-0.057098	0.134526	0.989264	-0.734194	-0.677118	0.049702
670	3911360													7.427960	-0.633368	6.759898	0.675992	-0.723960	0.137541	-0.056906	0.134803	0.989237	-0.734709	-0.676543	0.049928
671	3911527													7.399099	-0.615775	6.758343	0.675407	-0.724489	0.137630	-0.056717	0.135045	0.989215	-0.735261	-0.675928	0.050119
672	3911694													7.459013	-0.631224	6.753082	0.674832	-0.725006	0.137722	-0.056616	0.135210	0.989198	-0.735796	-0.675340	0.050197
673	3911860													7.424685	-0.598324	6.761831	0.674272	-0.725512	0.137799	-0.056563	0.135312	0.989187	-0.736313	-0.674776	0.050200
674	3912027													7.400109	-0.578496	6.793835	0.673678	-0.726046	0.137896	-0.056515	0.135433	0.989173	-0.736861	-0.674177	0.050205
675	3912194													7.399418	-0.549166	6.793967	0.672998	-0.726641	0.138078	-0.056427	0.135698	0.989142	-0.737488	-0.673482	0.050322
676	3912360													7.383253	-0.557989	6.796097	0.672251	-0.727274	0.138386	-0.056310	0.136153	0.989086	-0.738179	-0.672707	0.050576
677	3912527													7.436217	-0.645885	6.767624	0.671459	-0.727937	0.138745	-0.056212	0.136658	0.989022	-0.738906	-0.671887	0.050841
678	3912694													7.448013	-0.665526	6.732985	0.670697	-0.728595	0.138978	-0.056106	0.136999	0.988981	-0.739606	-0.671104	0.051006
679	3912860													7.403788	-0.628762	6.715341	0.669893	-0.729324	0.139031	-0.055978	0.137111	0.988973	-0.740344	-0.670289	0.051023
680	3913027													7.410016	-0.565952	6.737267	0.669010	-0.730145	0.138978	-0.055773	0.137142	0.988980	-0.741158	-0.669388	0.051026
681	3913194													7.434033	-0.508314	6.740274	0.668052	-0.731020	0.138984	-0.055481	0.137324	0.988971	-0.742043	-0.668395	0.051182
682	3913360													7.415895	-0.556124	6.727591	0.666957	-0.731995	0.139112	-0.055154	0.137689	0.988939	-0.743052	-0.667252	0.051460
683	3913527													7.439280	-0.558086	6.808606	0.665552	-0.733241	0.139277	-0.054908	0.138001	0.988909	-0.744329	-0.665818	0.051586
684	3913694													7.540545	-0.539065	6.893006	0.663917	-0.734685	0.139471	-0.054865	0.138148	0.988891	-0.745791	-0.664193	0.051411
685	3913860													7.422969	-0.489086	6.936980	0.661941	-0.736411	0.139759	-0.055000	0.138233	0.988871	-0.747535	-0.662262	0.051000
686	3914027													7.382945	-0.563263	6.979516	0.659375	-0.738608	0.140296	-0.055186	0.138557	0.988816	-0.749786	-0.659742	0.050600
687	3914194													7.337491	-0.679615	6.985192	0.656143	-0.741368	0.140890	-0.055228	0.139023	0.988748	-0.752613	-0.656541	0.050274
688	3914360													7.322362	-0.721976	6.962187	0.652139	-0.744807	0.141343	-0.055078	0.139402	0.988703	-0.756096	-0.652557	0.049887
689	3914527													7.292199	-0.667052	6.959037	0.647247	-0.748995	0.141696	-0.054711	0.139760	0.988673	-0.760314	-0.647668	0.049481
690	3914694													7.275743	-0.623583	7.006845	0.641299	-0.754035	0.142010	-0.054137	0.140152	0.988649	-0.765379	-0.641707	0.049058
691	3914860													7.186949	-0.536768	7.010818	0.634009	-0.760089	0.142471	-0.053430	0.140737	0.988604	-0.771478	-0.634396	0.048617
692	3915027													7.064829	-0.512942	6.994183	0.624905	-0.767451	0.143222	-0.052609	0.141640	0.988519	-0.778927	-0.625265	0.048137
693	3915194													7.102323	-0.441231	6.924035	0.613735	-0.776183	0.144464	-0.051768	0.143022	0.988365	-0.787813	-0.614072	0.047596
694	3915360													7.223166	-0.485958	6.811961	0.600456	-0.786156	0.146327	-0.051051	0.144927	0.988124	-0.798026	-0.600796	0.046888
695	3915527													7.453905	-0.459327	6.642941	0.585244	-0.797119	0.148629	-0.050517	0.147100	0.987831	-0.809282	-0.585630	0.045821
696	3915694													7.468848	-0.436684	6.454248	0.568188	-0.808847	0.151424	-0.050180	0.149614	0.987470	-0.821368	-0.568667	0.044421
697	3915860													7.523641	-0.415702	6.231378	0.549050	-0.821349	0.154691	-0.049893	0.152544	0.987037	-0.834299	-0.549651	0.042774
698	3916027													7.766431	-0.462842	5.978185	0.527938	-0.834368	0.158467	-0.049657	0.155944	0.986517	-0.847830	-0.528689	0.040896
699	3916194													8.023974	-0.572282	5.672406	0.505239	-0.847564	0.162385	-0.049319	0.159502	0.985965	-0.861569	-0.506157	0.038785
700	3916360													8.249051	-0.614861	5.354265	0.481340	-0.860624	0.166247	-0.048872	0.163018	0.985412	-0.875170	-0.482443	0.036407
701	3916527													8.321709	-0.594825	5.020527	0.456463	-0.873372	0.169891	-0.048273	0.166353	0.984884	-0.888432	-0.457765	0.033774
702	3916694													8.452876	-0.617504	4.680950	0.430711	-0.885703	0.173256	-0.047442	0.169490	0.984389	-0.901242	-0.432207	0.030982
703	3916860													8.581570	-0.600230	4.340704	0.404308	-0.897453	0.176390	-0.046258	0.172544	0.983915	-0.913452	-0.405964	0.028246
704	3917027													8.737494	-0.651323	4.029501	0.377342	-0.908564	0.179235	-0.044733	0.175435	0.983474	-0.924993	-0.379124	0.025556
705	3917194													8.901445	-0.597948	3.721640	0.349947	-0.918967	0.181759	-0.042982	0.178071	0.983078	-0.935783	-0.351837	0.022816
706	3917360													9.070989	-0.581382	3.419847	0.322274	-0.928604	0.183942	-0.041157	0.180381	0.982735	-0.945751	-0.324281	0.019913
707	3917527													8.989225	-0.490080	3.130512	0.294145	-0.937537	0.185751	-0.039225	0.182344	0.982452	-0.954955	-0.296270	0.016860
708	3917694													9.080885	-0.438811	2.850247	0.265331	-0.945774	0.187381	-0.037103	0.184187	0.982191	-0.963443	-0.267558	0.013779
709	3917860													9.148576	-0.435159	2.525076	0.235767	-0.953276	0.188887	-0.034766	0.185968	0.981940	-0.971188	-0.238076	0.010703
710	3918027													9.247654	-0.388692	2.206132	0.205522	-0.959992	0.190201	-0.032338	0.187582	0.981716	-0.978118	-0.207915	0.007508
711	3918194													9.466563	-0.453389	1.796142	0.175077	-0.965811	0.191197	-0.030072	0.188860	0.981543	-0.984095	-0.177595	0.004021
712	3918360													9.431713	-0.380930	1.441839	0.144747	-0.970711	0.191752	-0.027882	0.189714	0.981443	-0.989076	-0.147407	0.000395
713	3918527													9.308784	-0.237041	1.120479	0.114327	-0.974680	0.192166	-0.025565	0.190484	0.981357	-0.993114	-0.117108	-0.003140
714	3918694													9.310845	-0.178832	0.780160	0.083533	-0.977710	0.192626	-0.023145	0.191346	0.981250	-0.996236	-0.086425	-0.006646
715	3918860													9.625470	-0.181370	0.409012	0.052817	-0.979737	0.193197	-0.020653	0.192354	0.981108	-0.998391	-0.055809	-0.010075
716	3919027													9.728534	-0.258026	0.011817	0.022918	-0.980790	0.193717	-0.018227	0.193326	0.980965	-0.999571	-0.026012	-0.013446
717	3919194													9.731749	-0.258128	-0.356674	-0.006031	-0.980942	0.194209	-0.015837	0.194282	0.980818	-0.999856	0.002839	-0.016707
718	3919360													9.632740	-0.291886	-0.628658	-0.034145	-0.980321	0.194435	-0.013515	0.194983	0.980713	-0.999325	0.030859	-0.019907
719	3919527													9.695378	-0.151164	-0.905872	-0.061490	-0.978969	0.194523	-0.011164	0.195555	0.980629	-0.998045	0.058127	-0.022954
720	3919694													9.785553	-0.147136	-1.177304	-0.087730	-0.976971	0.194502	-0.008852	0.196012	0.980562	-0.996105	0.084303	-0.025844
721	3919860													9.945121	-0.062012	-1.411441	-0.112636	-0.974436	0.194390	-0.006495	0.196353	0.980512	-0.993615	0.109178	-0.028445
722	3920027													9.696442	-0.044653	-1.652619	-0.136321	-0.971419	0.194323	-0.003996	0.196691	0.980457	-0.990657	0.132881	-0.030695
723	3920194													9.539245	-0.054103	-1.895147	-0.159227	-0.967760	0.195159	-0.001481	0.197915	0.980218	-0.987241	0.155788	-0.032947
724	3920360													9.504887	-0.037430	-2.095101	-0.181537	-0.963687	0.195834	0.000999	0.198962	0.980007	-0.983384	0.178103	-0.035156
725	3920527													9.637920	-0.040151	-2.276059	-0.203110	-0.959239	0.196488	0.003407	0.199977	0.979795	-0.979150	0.199675	-0.037350
726	3920694													9.638062	-0.080665	-2.454163	-0.223702	-0.954577	0.196825	0.005580	0.200685	0.979640	-0.974642	0.220246	-0.039567
727	3920860													9.567916	0.006689	-2.648180	-0.243335	-0.949734	0.196962	0.007552	0.201204	0.979520	-0.969913	0.239839	-0.041787
728	3921027													9.452332	0.126787	-2.839741	-0.262175	-0.944692	0.197033	0.009422	0.201659	0.979410	-0.964974	0.258633	-0.043969
729	3921194													9.367995	0.135459	-3.095595	-0.280270	-0.939449	0.197193	0.011321	0.202177	0.979284	-0.959854	0.276696	-0.046029
730	3921360													9.356856	0.100593	-3.321287	-0.297588	-0.934058	0.197428	0.013146	0.202768	0.979138	-0.954604	0.293975	-0.048062
731	3921527													9.354438	0.056672	-3.521273	-0.313912	-0.928690	0.197468	0.014743	0.203188	0.979029	-0.949338	0.310240	-0.050092
732	3921694													9.327639	0.104842	-3.712453	-0.329179	-0.923413	0.197354	0.016048	0.203501	0.978943	-0.944131	0.325415	-0.052170
733	3921860													9.334435	0.127224	-3.879962	-0.343340	-0.918284	0.197161	0.017169	0.203750	0.978872	-0.939054	0.339471	-0.054189
734	3922027													9.326348	0.116457	-3.981830	-0.356263	-0.913513	0.196393	0.018115	0.203392	0.978930	-0.934210	0.352314	-0.055913
735	3922194													9.287138	0.123774	-4.073175	-0.367949	-0.909055	0.195531	0.018879	0.202936	0.979010	-0.929654	0.363917	-0.057508
736	3922360													9.193149	0.185674	-4.093305	-0.378431	-0.904925	0.194682	0.019514	0.202478	0.979092	-0.925424	0.374318	-0.058965
737	3922527													9.072680	0.188672	-4.143180	-0.388016	-0.901015	0.193950	0.020096	0.202116	0.979155	-0.921434	0.383826	-0.060317
738	3922694													9.013028	0.180118	-4.201486	-0.396778	-0.897346	0.193226	0.020545	0.201771	0.979217	-0.917685	0.392502	-0.061622
739	3922860													9.018748	0.184389	-4.274892	-0.404774	-0.893930	0.192477	0.020816	0.201429	0.979282	-0.914180	0.400394	-0.062925
740	3923027													8.929130	0.222231	-4.344265	-0.412109	-0.890738	0.191709	0.020992	0.201069	0.979352	-0.910893	0.407625	-0.064164
741	3923194													8.906631	0.247773	-4.416686	-0.418909	-0.887714	0.190997	0.021178	0.200733	0.979417	-0.907781	0.414331	-0.065289
742	3923360													8.819936	0.215055	-4.455178	-0.425186	-0.884836	0.190479	0.021431	0.200549	0.979449	-0.904852	0.420531	-0.066308
743	3923527													8.770876	0.172110	-4.461554	-0.431152	-0.882051	0.189983	0.021582	0.200417	0.979473	-0.902021	0.426402	-0.067374
744	3923694													8.929872	0.147292	-4.469291	-0.436603	-0.879487	0.189419	0.021580	0.200247	0.979508	-0.899395	0.431744	-0.068449
745	3923860													8.955108	0.185323	-4.505510	-0.441317	-0.877268	0.188786	0.021402	0.200032	0.979556	-0.897096	0.436335	-0.069502
746	3924027													8.948107	0.223897	-4.553071	-0.445282	-0.875388	0.188201	0.021187	0.199829	0.979602	-0.895140	0.440186	-0.070434
747	3924194													8.843491	0.202598	-4.560995	-0.448558	-0.873819	0.187712	0.020939	0.199694	0.979634	-0.893508	0.443354	-0.071278
748	3924360													8.741429	0.181972	-4.556288	-0.451357	-0.872475	0.187255	0.020659	0.199573	0.979665	-0.892104	0.446047	-0.072054
749	3924527													8.638129	0.220798	-4.508469	-0.453799	-0.871287	0.186881	0.020374	0.199519	0.979682	-0.890871	0.448387	-0.072790
750	3924694													8.591582	0.229593	-4.463833	-0.456140	-0.870093	0.186746	0.020206	0.199668	0.979655	-0.889678	0.450634	-0.073496
751	3924860													8.645608	0.154561	-4.432999	-0.458381	-0.868911	0.186762	0.020124	0.199937	0.979602	-0.888528	0.452790	-0.074162
752	3925027													8.733394	0.116698	-4.454575	-0.460401	-0.867842	0.186764	0.020036	0.200175	0.979555	-0.887485	0.454731	-0.074773
753	3925194													8.754929	0.121967	-4.478814	-0.462088	-0.866938	0.186798	0.020035	0.200375	0.979514	-0.886608	0.456364	-0.075221
754	3925360													8.699080	0.119897	-4.530150	-0.463485	-0.866181	0.186849	0.020087	0.200541	0.979479	-0.885877	0.457727	-0.075549
755	3925527													8.667918	0.099661	-4.536720	-0.464622	-0.865561	0.186898	0.020219	0.200638	0.979457	-0.885278	0.458857	-0.075720
756	3925694													8.653999	0.121171	-4.557743	-0.465453	-0.865111	0.186912	0.020442	0.200619	0.979456	-0.884836	0.459712	-0.075695
757	3925860													8.681563	0.122021	-4.554879	-0.465995	-0.864829	0.186867	0.020676	0.200499	0.979476	-0.884546	0.460295	-0.075551
758	3926027													8.711325	0.100598	-4.579908	-0.466277	-0.864700	0.186759	0.020808	0.200335	0.979507	-0.884394	0.460607	-0.075419
759	3926194													8.686507	0.130435	-4.584909	-0.466270	-0.864756	0.186519	0.020816	0.200058	0.979563	-0.884397	0.460624	-0.075280
760	3926360													8.644714	0.153358	-4.565257	-0.466049	-0.864950	0.186171	0.020748	0.199677	0.979642	-0.884515	0.460424	-0.075113
761	3926527													8.673517	0.190501	-4.515320	-0.465658	-0.865242	0.185791	0.020625	0.199274	0.979727	-0.884725	0.460049	-0.074948
762	3926694													8.555105	0.190197	-4.472111	-0.465223	-0.865548	0.185458	0.020507	0.198917	0.979802	-0.884956	0.459630	-0.074791
763	3926860													8.495707	0.162304	-4.437042	-0.464976	-0.865741	0.185178	0.020399	0.198632	0.979862	-0.885088	0.459390	-0.074698
764	3927027													8.540524	0.129172	-4.415044	-0.464951	-0.865817	0.184884	0.020207	0.198396	0.979914	-0.885106	0.459347	-0.074748
765	3927194													8.595745	0.097417	-4.440922	-0.465066	-0.865843	0.184469	0.019921	0.198086	0.979982	-0.885052	0.459431	-0.074874
766	3927361													8.630240	0.117865	-4.466039	-0.465217	-0.865868	0.183972	0.019575	0.197718	0.980063	-0.884980	0.459543	-0.075033
767	3927527													8.622190	0.144455	-4.485408	-0.465319	-0.865909	0.183520	0.019316	0.197351	0.980143	-0.884932	0.459624	-0.075106
768	3927694													8.616470	0.112032	-4.490810	-0.465370	-0.865960	0.183150	0.019198	0.196998	0.980216	-0.884908	0.459680	-0.075052
769	3927861													8.612340	0.094104	-4.488151	-0.465351	-0.866037	0.182836	0.019187	0.196646	0.980287	-0.884918	0.459685	-0.074893
770	3928027													8.627786	0.082016	-4.470996	-0.465275	-0.866134	0.182565	0.019245	0.196302	0.980355	-0.884957	0.459648	-0.074666
771	3928194													8.632570	0.080122	-4.483462	-0.465109	-0.866291	0.182248	0.019317	0.195890	0.980436	-0.885043	0.459530	-0.074376
772	3928361													8.649886	0.109081	-4.471031	-0.464874	-0.866480	0.181946	0.019432	0.195467	0.980518	-0.885163	0.459353	-0.074030
773	3928527													8.629901	0.111860	-4.418978	-0.464578	-0.866713	0.181594	0.019527	0.194991	0.980611	-0.885317	0.459116	-0.073664
774	3928694													8.595652	0.097702	-4.400848	-0.464344	-0.866931	0.181151	0.019548	0.194457	0.980716	-0.885439	0.458931	-0.073348
775	3928861													8.550005	0.074399	-4.381439	-0.464232	-0.867113	0.180564	0.019471	0.193822	0.980843	-0.885500	0.458854	-0.073095
776	3929027													8.564678	0.094814	-4.344525	-0.464319	-0.867218	0.179833	0.019302	0.193091	0.980991	-0.885458	0.458964	-0.072916
777	3929194													8.556013	0.090506	-4.357857	-0.464624	-0.867227	0.179001	0.019098	0.192284	0.981154	-0.885302	0.459286	-0.072777
778	3929361													8.554006	0.114909	-4.374594	-0.465155	-0.867115	0.178165	0.018933	0.191473	0.981315	-0.885027	0.459837	-0.072648
779	3929527													8.542283	0.129412	-4.379238	-0.465930	-0.866861	0.177374	0.018818	0.190710	0.981466	-0.884622	0.460632	-0.072544
780	3929694													8.597656	0.147036	-4.397789	-0.466814	-0.866520	0.176714	0.018834	0.190036	0.981596	-0.884155	0.461551	-0.072391
781	3929861													8.681798	0.161031	-4.390320	-0.467679	-0.866158	0.176198	0.018993	0.189448	0.981707	-0.883694	0.462470	-0.072150
782	3930027													8.670126	0.160987	-4.442990	-0.468414	-0.865828	0.175873	0.019184	0.189047	0.981781	-0.883301	0.463253	-0.071942
783	3930194													8.614459	0.210873	-4.442682	-0.469054	-0.865523	0.175667	0.019421	0.188748	0.981833	-0.882956	0.463945	-0.071723
784	3930361													8.613081	0.225280	-4.471844	-0.469639	-0.865201	0.175691	0.019793	0.188634	0.981848	-0.882637	0.464591	-0.071465
785	3930527													8.593151	0.231724	-4.535357	-0.470226	-0.864839	0.175899	0.020209	0.188705	0.981826	-0.882314	0.465235	-0.071256
786	3930694													8.615337	0.155136	-4.541692	-0.470862	-0.864440	0.176161	0.020519	0.188896	0.981783	-0.881968	0.465898	-0.071206
787	3930861													8.622380	0.153753	-4.538422	-0.471454	-0.864080	0.176342	0.020663	0.189082	0.981744	-0.881649	0.466490	-0.071289
788	3931027													8.635643	0.135201	-4.533200	-0.471934	-0.863790	0.176481	0.020788	0.189217	0.981715	-0.881389	0.466974	-0.071341
789	3931194													8.625126	0.127386	-4.524917	-0.472285	-0.863585	0.176546	0.020833	0.189299	0.981698	-0.881200	0.467319	-0.071412
790	3931361													8.613027	0.096199	-4.543334	-0.472506	-0.863479	0.176471	0.020791	0.189256	0.981708	-0.881082	0.467532	-0.071472
791	3931527													8.602069	0.087422	-4.528318	-0.472635	-0.863452	0.176255	0.020663	0.189091	0.981742	-0.881016	0.467648	-0.071529
792	3931694													8.551226	0.138453	-4.532272	-0.472686	-0.863491	0.175928	0.020484	0.188818	0.981798	-0.880993	0.467686	-0.071564
793	3931861													8.518390	0.159102	-4.542567	-0.472699	-0.863549	0.175612	0.020369	0.188522	0.981858	-0.880989	0.467700	-0.071524
794	3932027													8.551284	0.176464	-4.557329	-0.472741	-0.863581	0.175340	0.020333	0.188236	0.981913	-0.880967	0.467756	-0.071427
795	3932194													8.573163	0.197492	-4.563065	-0.472766	-0.863613	0.175111	0.020306	0.187992	0.981961	-0.880954	0.467794	-0.071340
796	3932361													8.585627	0.199617	-4.591339	-0.472791	-0.863634	0.174942	0.020271	0.187821	0.981994	-0.880942	0.467824	-0.071293
797	3932527													8.578634	0.214905	-4.557912	-0.472822	-0.863633	0.174866	0.020279	0.187732	0.982011	-0.880925	0.467862	-0.071250
798	3932694													8.580877	0.164109	-4.562089	-0.472879	-0.863610	0.174826	0.020244	0.187711	0.982016	-0.880895	0.467913	-0.071281
799	3932861													8.579568	0.196198	-4.521781	-0.472896	-0.863610	0.174778	0.020197	0.187683	0.982022	-0.880887	0.467924	-0.071312
800	3933027													8.547268	0.175188	-4.562547	-0.472879	-0.863610	0.174824	0.020256	0.187702	0.982017	-0.880895	0.467916	-0.071267
801	3933194													8.546148	0.132849	-4.564546	-0.472863	-0.863621	0.174812	0.020234	0.187700	0.982018	-0.880903	0.467897	-0.071282
802	3933361													8.572094	0.119174	-4.572417	-0.472804	-0.863677	0.174696	0.020147	0.187608	0.982037	-0.880937	0.467831	-0.071301
803	3933527													8.579182	0.161265	-4.537739	-0.472674	-0.863780	0.174540	0.020105	0.187441	0.982070	-0.881008	0.467708	-0.071232
804	3933694													8.573750	0.185208	-4.512115	-0.472508	-0.863897	0.174406	0.020155	0.187246	0.982106	-0.881096	0.467568	-0.071063
805	3933861													8.564952	0.185780	-4.535657	-0.472351	-0.864008	0.174285	0.020239	0.187050	0.982142	-0.881178	0.467443	-0.070866
806	3934027													8.558801	0.184933	-4.529366	-0.472227	-0.864096	0.174183	0.020349	0.186865	0.982175	-0.881242	0.467354	-0.070659
807	3934194													8.566525	0.179890	-4.533715	-0.472152	-0.864153	0.174105	0.020471	0.186704	0.982203	-0.881279	0.467313	-0.070463
808	3934361													8.577412	0.172784	-4.516256	-0.472094	-0.864192	0.174068	0.020586	0.186596	0.982221	-0.881308	0.467284	-0.070300
809	3934527													8.584299	0.172756	-4.505063	-0.472038	-0.864227	0.174044	0.020662	0.186524	0.982233	-0.881336	0.467247	-0.070190
810	3934694													8.602864	0.166626	-4.502330	-0.471932	-0.864300	0.173968	0.020698	0.186409	0.982254	-0.881392	0.467158	-0.070083
811	3934861													8.607294	0.175864	-4.508625	-0.471796	-0.864389	0.173898	0.020656	0.186339	0.982268	-0.881466	0.467023	-0.070059
812	3935027													8.599134	0.173811	-4.474800	-0.471574	-0.864523	0.173832	0.020605	0.186271	0.982282	-0.881586	0.466801	-0.070028
813	3935194													8.571815	0.164598	-4.477860	-0.471342	-0.864661	0.173773	0.020519	0.186228	0.982292	-0.881712	0.466562	-0.070035
814	3935361													8.563954	0.176913	-4.469834	-0.471104	-0.864797	0.173745	0.020467	0.186203	0.982298	-0.881840	0.466321	-0.070021
815	3935527													8.561123	0.181038	-4.507141	-0.470893	-0.864918	0.173714	0.020439	0.186162	0.982306	-0.881954	0.466111	-0.069984
816	3935694													8.563045	0.147054	-4.508166	-0.470725	-0.865021	0.173655	0.020355	0.186125	0.982315	-0.882045	0.465936	-0.070006
817	3935861													8.567324	0.176347	-4.485107	-0.470598	-0.865105	0.173583	0.020324	0.186049	0.982330	-0.882114	0.465811	-0.069972
818	3936027													8.588973	0.184014	-4.500106	-0.470508	-0.865167	0.173521	0.020297	0.185984	0.982343	-0.882162	0.465722	-0.069947
819	3936194													8.615816	0.191842	-4.482475	-0.470404	-0.865224	0.173518	0.020299	0.185970	0.982346	-0.882218	0.465621	-0.069917
820	3936361													8.647223	0.177310	-4.508951	-0.470205	-0.865321	0.173571	0.020365	0.185978	0.982343	-0.882322	0.465437	-0.069826
821	3936527													8.616620	0.175233	-4.496178	-0.469929	-0.865455	0.173648	0.020430	0.186006	0.982336	-0.882468	0.465176	-0.069728
822	3936694													8.605136	0.184707	-4.504127	-0.469558	-0.865637	0.173746	0.020534	0.186029	0.982330	-0.882663	0.464828	-0.069576
823	3936861													8.572352	0.191663	-4.536091	-0.469190	-0.865816	0.173848	0.020661	0.186045	0.982324	-0.882856	0.464488	-0.069402
824	3937027													8.533097	0.168435	-4.518463	-0.468882	-0.865958	0.173973	0.020793	0.186091	0.982313	-0.883016	0.464206	-0.069249
825	3937194													8.563902	0.156469	-4.498433	-0.468648	-0.866064	0.174075	0.020958	0.186099	0.982308	-0.883136	0.464005	-0.069064
826	3937361													8.603850	0.177037	-4.488381	-0.468423	-0.866173	0.174139	0.021142	0.186054	0.982312	-0.883251	0.463819	-0.068839
827	3937527													8.587230	0.156476	-4.506573	-0.468191	-0.866299	0.174135	0.021291	0.185952	0.982328	-0.883371	0.463624	-0.068617
828	3937694													8.595819	0.192561	-4.494034	-0.468004	-0.866419	0.174041	0.021392	0.185775	0.982359	-0.883467	0.463471	-0.068409
829	3937861													8.570030	0.198133	-4.482089	-0.467865	-0.866528	0.173872	0.021434	0.185549	0.982401	-0.883540	0.463358	-0.068238
830	3938027													8.546424	0.231921	-4.455472	-0.467754	-0.866625	0.173687	0.021455	0.185319	0.982444	-0.883598	0.463268	-0.068091
831	3938194													8.576629	0.253271	-4.474411	-0.467746	-0.866657	0.173552	0.021506	0.185138	0.982477	-0.883601	0.463282	-0.067959
832	3938361													8.571712	0.210388	-4.465996	-0.467806	-0.866642	0.173462	0.021459	0.185066	0.982492	-0.883571	0.463338	-0.067978
833	3938527													8.663639	0.187495	-4.464022	-0.467909	-0.866621	0.173291	0.021267	0.184982	0.982512	-0.883521	0.463411	-0.068124
834	3938694													8.677685	0.195528	-4.466124	-0.467906	-0.866665	0.173078	0.020969	0.184897	0.982534	-0.883529	0.463363	-0.068342
835	3938861													8.627688	0.209133	-4.451841	-0.467830	-0.866750	0.172858	0.020648	0.184809	0.982558	-0.883577	0.463239	-0.068562
836	3939027													8.609516	0.184180	-4.448929	-0.467707	-0.866854	0.172668	0.020345	0.184741	0.982577	-0.883649	0.463071	-0.068769
837	3939194													8.586389	0.144369	-4.434356	-0.467549	-0.866990	0.172410	0.020028	0.184602	0.982609	-0.883740	0.462871	-0.068946
838	3939361													8.577703	0.118440	-4.463824	-0.467445	-0.867112	0.172079	0.019657	0.184412	0.982652	-0.883803	0.462719	-0.069158
839	3939527													8.581990	0.157753	-4.429859	-0.467392	-0.867211	0.171727	0.019342	0.184173	0.982704	-0.883838	0.462630	-0.069308
840	3939694													8.573175	0.167201	-4.438650	-0.467374	-0.867279	0.171430	0.019154	0.183933	0.982752	-0.883852	0.462596	-0.069353
841	3939861													8.587633	0.165460	-4.417596	-0.467414	-0.867308	0.171177	0.019044	0.183707	0.982797	-0.883833	0.462633	-0.069350
842	3940027													8.624160	0.174705	-4.425485	-0.467484	-0.867311	0.170967	0.018960	0.183520	0.982833	-0.883798	0.462700	-0.069348
843	3940194													8.628033	0.197256	-4.462016	-0.467546	-0.867315	0.170778	0.018876	0.183355	0.982866	-0.883767	0.462758	-0.069356
844	3940361													8.639819	0.170063	-4.450626	-0.467603	-0.867315	0.170621	0.018795	0.183225	0.982891	-0.883739	0.462810	-0.069375
845	3940527													8.636219	0.143048	-4.483933	-0.467658	-0.867322	0.170437	0.018618	0.183114	0.982915	-0.883713	0.462841	-0.069487
846	3940694													8.549871	0.203092	-4.478053	-0.467720	-0.867326	0.170246	0.018465	0.182982	0.982943	-0.883684	0.462886	-0.069570
847	3940861													8.547607	0.163050	-4.482389	-0.467853	-0.867290	0.170067	0.018390	0.182831	0.982972	-0.883615	0.463014	-0.069588
848	3941027													8.575529	0.152764	-4.470824	-0.468044	-0.867225	0.169869	0.018269	0.182687	0.983001	-0.883516	0.463192	-0.069662
849	3941194													8.617629	0.160098	-4.490557	-0.468216	-0.867174	0.169658	0.018172	0.182514	0.983035	-0.883427	0.463356	-0.069697
850	3941361													8.627164	0.181954	-4.511185	-0.468324	-0.867134	0.169560	0.018158	0.182420	0.983053	-0.883370	0.463466	-0.069687
851	3941527													8.629281	0.198007	-4.499541	-0.468338	-0.867123	0.169579	0.018228	0.182406	0.983054	-0.883361	0.463493	-0.069622
852	3941694													8.614332	0.198025	-4.519657	-0.468309	-0.867122	0.169664	0.018342	0.182440	0.983046	-0.883374	0.463481	-0.069534
853	3941861													8.599539	0.181789	-4.538866	-0.468239	-0.867132	0.169806	0.018474	0.182526	0.983027	-0.883409	0.463429	-0.069446
854	3942027													8.588176	0.160944	-4.508980	-0.468122	-0.867165	0.169961	0.018582	0.182635	0.983005	-0.883468	0.463325	-0.069382
855	3942194													8.588324	0.159138	-4.512843	-0.467965	-0.867227	0.170075	0.018648	0.182715	0.982989	-0.883550	0.463176	-0.069332
856	3942361													8.600625	0.148428	-4.517959	-0.467782	-0.867309	0.170164	0.018702	0.182771	0.982978	-0.883646	0.463002	-0.069277
857	3942527													8.597170	0.137379	-4.498056	-0.467574	-0.867425	0.170141	0.018709	0.182723	0.982986	-0.883756	0.462802	-0.069207
858	3942694													8.621529	0.131854	-4.491770	-0.467339	-0.867565	0.170072	0.018696	0.182631	0.983004	-0.883881	0.462576	-0.069131
859	3942861													8.630597	0.143706	-4.481882	-0.467066	-0.867745	0.169907	0.018654	0.182441	0.983040	-0.884025	0.462314	-0.069025
860	3943027													8.606690	0.153840	-4.490458	-0.466808	-0.867933	0.169654	0.018577	0.182172	0.983091	-0.884163	0.462067	-0.068916
861	3943194													8.583272	0.185341	-4.446039	-0.466571	-0.868123	0.169335	0.018471	0.181846	0.983154	-0.884291	0.461839	-0.068809
862	3943361													8.600357	0.199870	-4.451810	-0.466366	-0.868290	0.169043	0.018356	0.181557	0.983209	-0.884402	0.461638	-0.068734
863	3943527													8.620206	0.203008	-4.442660	-0.466149	-0.868449	0.168827	0.018248	0.181349	0.983249	-0.884518	0.461421	-0.068688
864	3943694													8.624726	0.190211	-4.454952	-0.465910	-0.868613	0.168640	0.018135	0.181175	0.983284	-0.884646	0.461180	-0.068659
865	3943861													8.606587	0.198795	-4.458565	-0.465695	-0.868760	0.168476	0.018005	0.181040	0.983311	-0.884762	0.460956	-0.068668
866	3944028													8.554466	0.193088	-4.431764	-0.465555	-0.868853	0.168386	0.017891	0.180984	0.983323	-0.884838	0.460804	-0.068713
867	3944194													8.572721	0.190221	-4.438511	-0.465488	-0.868899	0.168330	0.017799	0.180963	0.983329	-0.884875	0.460724	-0.068771
868	3944361													8.605063	0.175717	-4.445093	-0.465495	-0.868903	0.168289	0.017732	0.180952	0.983332	-0.884873	0.460720	-0.068825
869	3944528													8.622507	0.159413	-4.444321	-0.465498	-0.868899	0.168305	0.017750	0.180961	0.983330	-0.884871	0.460726	-0.068814
870	3944694													8.627411	0.160111	-4.437708	-0.465476	-0.868912	0.168299	0.017797	0.180928	0.983335	-0.884882	0.460714	-0.068754
871	3944861													8.600571	0.169337	-4.441499	-0.465469	-0.868927	0.168241	0.017831	0.180844	0.983350	-0.884885	0.460719	-0.068683
872	3945028													8.580301	0.176278	-4.444421	-0.465511	-0.868920	0.168160	0.017871	0.180735	0.983369	-0.884862	0.460775	-0.068606
