// Start Time: Unknown
// Update Rate: 60.0Hz
//Filter Profile: human (46.1)
// Option Flags: AHS Disabled ICC Disabled
// Firmware Version: 4.0.2
0	sampleTimeFine	Year	Month	Day	Second	UTC_Nano	UTC_Year	UTC_Month	UTC_Day	UTC_Hour	UTC_Minute	UTC_Second	UTC_Valid	Acc_X	Acc_Y	Acc_Z	Mat[1][1]	Mat[2][1]	Mat[3][1]	Mat[1][2]	Mat[2][2]	Mat[3][2]	Mat[1][3]	Mat[2][3]	Mat[3][3]
0	3869301													-0.383501	-0.338938	-0.051999	0.175656	-0.947806	-0.266098	0.022129	-0.266430	0.963600	-0.984203	-0.175150	-0.025826
1	3869468													9.672098	0.201799	1.711245	0.174900	-0.947776	-0.266705	0.021707	-0.267102	0.963424	-0.984347	-0.174292	-0.026143
2	3869634													9.661252	0.207650	1.705217	0.174090	-0.948027	-0.266340	0.020913	-0.266850	0.963511	-0.984508	-0.173308	-0.026630
3	3869801													9.694010	0.187585	1.643325	0.173274	-0.948187	-0.266305	0.020170	-0.266922	0.963507	-0.984667	-0.172322	-0.027126
4	3870301													9.769051	0.228564	1.630565	0.168759	-0.948805	-0.267002	0.017676	-0.267931	0.963276	-0.985499	-0.167281	-0.028444
5	3870468													9.718231	0.178359	1.597487	0.167710	-0.948991	-0.267001	0.017357	-0.267953	0.963276	-0.985684	-0.166185	-0.028466
6	3870634													9.697966	0.148170	1.622048	0.166868	-0.948962	-0.267629	0.016930	-0.268637	0.963093	-0.985834	-0.165240	-0.028761
7	3870801													9.733807	0.201617	1.702985	0.166271	-0.948978	-0.267945	0.016393	-0.269029	0.962992	-0.985944	-0.164510	-0.029175
8	3870968													9.646710	0.163043	1.723221	0.165867	-0.948971	-0.268219	0.015921	-0.269374	0.962904	-0.986020	-0.163984	-0.029572
9	3871134													9.664624	0.160342	1.682262	0.165572	-0.948999	-0.268304	0.015515	-0.269518	0.962870	-0.986076	-0.163587	-0.029901
10	3871301													9.674555	0.129993	1.676018	0.165217	-0.949108	-0.268136	0.015111	-0.269404	0.962909	-0.986141	-0.163141	-0.030168
11	3871468													9.637181	0.098824	1.648299	0.164861	-0.949240	-0.267890	0.014640	-0.269221	0.962967	-0.986208	-0.162677	-0.030487
12	3871634													9.662903	0.116860	1.670008	0.164509	-0.949326	-0.267799	0.014171	-0.269195	0.962981	-0.986274	-0.162214	-0.030832
13	3871801													9.697750	0.112888	1.641761	0.164184	-0.949329	-0.267988	0.013783	-0.269440	0.962919	-0.986333	-0.161790	-0.031153
14	3871968													9.710332	0.136214	1.599620	0.163958	-0.949361	-0.268014	0.013416	-0.269519	0.962902	-0.986376	-0.161471	-0.031454
15	3872134													9.713586	0.148346	1.623176	0.163708	-0.949322	-0.268304	0.013123	-0.269854	0.962812	-0.986421	-0.161141	-0.031719
16	3872301													9.722380	0.137728	1.650946	0.163474	-0.949300	-0.268524	0.012868	-0.270111	0.962743	-0.986464	-0.160839	-0.031940
17	3872468													9.706562	0.118975	1.572471	0.163242	-0.949335	-0.268543	0.012565	-0.270172	0.962730	-0.986506	-0.160532	-0.032175
18	3872634													9.716387	0.142744	1.567480	0.162996	-0.949324	-0.268730	0.012299	-0.270397	0.962670	-0.986550	-0.160216	-0.032398
19	3872801													9.742465	0.163809	1.569195	0.162769	-0.949290	-0.268988	0.012178	-0.270670	0.962595	-0.986589	-0.159956	-0.032496
20	3872968													9.696917	0.135178	1.564301	0.162544	-0.949287	-0.269134	0.012065	-0.270829	0.962552	-0.986628	-0.159704	-0.032568
21	3873134													9.706821	0.134388	1.557024	0.162392	-0.949307	-0.269154	0.011978	-0.270858	0.962545	-0.986654	-0.159534	-0.032614
22	3873301													9.694550	0.131397	1.578324	0.162258	-0.949285	-0.269313	0.011940	-0.271022	0.962499	-0.986676	-0.159389	-0.032642
23	3873468													9.730628	0.133132	1.571396	0.162134	-0.949264	-0.269465	0.011930	-0.271172	0.962457	-0.986697	-0.159262	-0.032642
24	3873634													9.728321	0.134712	1.585547	0.162085	-0.949203	-0.269706	0.011970	-0.271409	0.962390	-0.986704	-0.159218	-0.032629
25	3873801													9.714753	0.162070	1.601207	0.162081	-0.949149	-0.269900	0.012036	-0.271595	0.962336	-0.986704	-0.159225	-0.032596
26	3873968													9.703798	0.173125	1.609626	0.162067	-0.949107	-0.270056	0.012146	-0.271735	0.962296	-0.986705	-0.159237	-0.032512
27	3874134													9.697770	0.175433	1.587381	0.162096	-0.949001	-0.270411	0.012278	-0.272074	0.962198	-0.986699	-0.159288	-0.032451
28	3874301													9.705175	0.176754	1.607148	0.162168	-0.948962	-0.270504	0.012454	-0.272142	0.962176	-0.986685	-0.159403	-0.032315
29	3874468													9.670485	0.151252	1.629537	0.162244	-0.948903	-0.270666	0.012636	-0.272279	0.962135	-0.986670	-0.159520	-0.032185
30	3874634													9.673018	0.159449	1.630253	0.162241	-0.948880	-0.270749	0.012830	-0.272333	0.962118	-0.986668	-0.159568	-0.032009
31	3874801													9.693517	0.179924	1.677757	0.162276	-0.948829	-0.270907	0.012952	-0.272474	0.962076	-0.986660	-0.159630	-0.031926
32	3874968													9.690566	0.155228	1.651373	0.162355	-0.948771	-0.271063	0.013058	-0.272617	0.962034	-0.986646	-0.159731	-0.031872
33	3875134													9.692680	0.161601	1.634495	0.162434	-0.948723	-0.271182	0.013141	-0.272728	0.962001	-0.986632	-0.159825	-0.031833
34	3875301													9.697226	0.167220	1.649468	0.162462	-0.948727	-0.271151	0.013202	-0.272688	0.962012	-0.986626	-0.159871	-0.031777
35	3875468													9.704629	0.154503	1.625304	0.162505	-0.948709	-0.271188	0.013219	-0.272723	0.962002	-0.986619	-0.159915	-0.031777
36	3875634													9.697741	0.166773	1.629517	0.162677	-0.948685	-0.271168	0.013239	-0.272706	0.962006	-0.986591	-0.160087	-0.031804
37	3875801													9.656818	0.159921	1.660530	0.162808	-0.948699	-0.271043	0.013285	-0.272576	0.962043	-0.986568	-0.160229	-0.031775
38	3875968													9.674570	0.171433	1.637724	0.162824	-0.948707	-0.271003	0.013322	-0.272530	0.962055	-0.986565	-0.160256	-0.031736
39	3876134													9.701175	0.176493	1.583709	0.162800	-0.948720	-0.270974	0.013357	-0.272494	0.962065	-0.986569	-0.160244	-0.031690
40	3876301													9.685789	0.192239	1.586527	0.162800	-0.948740	-0.270905	0.013343	-0.272426	0.962084	-0.986569	-0.160242	-0.031692
41	3876468													9.734651	0.179597	1.582246	0.162779	-0.948717	-0.270996	0.013377	-0.272512	0.962059	-0.986572	-0.160228	-0.031668
42	3876634													9.708363	0.197302	1.596275	0.162865	-0.948681	-0.271073	0.013389	-0.272590	0.962037	-0.986558	-0.160311	-0.031694
43	3876801													9.689773	0.192931	1.608393	0.162997	-0.948598	-0.271281	0.013415	-0.272802	0.961977	-0.986535	-0.160438	-0.031741
44	3876968													9.685602	0.216119	1.638949	0.163151	-0.948518	-0.271469	0.013451	-0.272991	0.961922	-0.986509	-0.160590	-0.031780
45	3877134													9.671896	0.216643	1.647419	0.163243	-0.948511	-0.271438	0.013486	-0.272958	0.961931	-0.986494	-0.160690	-0.031767
46	3877301													9.723167	0.218635	1.674963	0.163313	-0.948552	-0.271252	0.013519	-0.272765	0.961986	-0.986482	-0.160772	-0.031723
47	3877468													9.688454	0.174902	1.672006	0.163403	-0.948557	-0.271181	0.013494	-0.272701	0.962004	-0.986467	-0.160854	-0.031760
48	3877634													9.660770	0.168522	1.667847	0.163484	-0.948604	-0.270967	0.013400	-0.272502	0.962062	-0.986455	-0.160912	-0.031839
49	3877801													9.747861	0.196345	1.648367	0.163563	-0.948683	-0.270645	0.013411	-0.272176	0.962154	-0.986442	-0.161002	-0.031795
50	3877968													9.740498	0.238779	1.650231	0.163682	-0.948658	-0.270659	0.013553	-0.272171	0.962153	-0.986420	-0.161155	-0.031693
51	3878134													9.674207	0.182773	1.651228	0.163959	-0.948522	-0.270966	0.013616	-0.272481	0.962065	-0.986373	-0.161429	-0.031761
52	3878301													9.672365	0.212659	1.715247	0.164184	-0.948412	-0.271215	0.013540	-0.272753	0.961989	-0.986337	-0.161616	-0.031940
53	3878468													9.637677	0.209215	1.711543	0.164298	-0.948359	-0.271333	0.013422	-0.272896	0.961950	-0.986319	-0.161688	-0.032108
54	3878634													9.661478	0.167932	1.684884	0.164317	-0.948433	-0.271062	0.013342	-0.272635	0.962025	-0.986317	-0.161694	-0.032144
55	3878801													9.688664	0.183803	1.696553	0.164254	-0.948459	-0.271010	0.013240	-0.272597	0.962037	-0.986329	-0.161606	-0.032217
56	3878968													9.672134	0.147281	1.633452	0.164168	-0.948488	-0.270961	0.013042	-0.272577	0.962046	-0.986346	-0.161471	-0.032378
57	3879134													9.674995	0.146373	1.631878	0.164173	-0.948512	-0.270874	0.012836	-0.272523	0.962064	-0.986348	-0.161422	-0.032565
58	3879301													9.680879	0.194814	1.648775	0.164230	-0.948523	-0.270799	0.012693	-0.272472	0.962080	-0.986340	-0.161440	-0.032709
59	3879468													9.694349	0.180100	1.638170	0.164385	-0.948530	-0.270680	0.012522	-0.272384	0.962107	-0.986317	-0.161546	-0.032899
60	3879634													9.703625	0.184072	1.646464	0.164642	-0.948518	-0.270568	0.012347	-0.272308	0.962131	-0.986276	-0.161748	-0.033122
61	3879801													9.700438	0.201377	1.680098	0.164949	-0.948515	-0.270392	0.012161	-0.272170	0.962172	-0.986227	-0.161997	-0.033359
62	3879968													9.693844	0.166227	1.675174	0.165139	-0.948590	-0.270011	0.011920	-0.271830	0.962271	-0.986198	-0.162127	-0.033583
63	3880134													9.701735	0.160144	1.696523	0.165360	-0.948618	-0.269778	0.011642	-0.271647	0.962326	-0.986165	-0.162271	-0.033875
64	3880301													9.737067	0.173652	1.665735	0.165548	-0.948686	-0.269425	0.011467	-0.271324	0.962420	-0.986135	-0.162416	-0.034038
65	3880468													9.703776	0.173901	1.683525	0.165945	-0.948673	-0.269226	0.011266	-0.271170	0.962466	-0.986071	-0.162749	-0.034312
66	3880634													9.696195	0.193918	1.665525	0.166494	-0.948633	-0.269027	0.011001	-0.271032	0.962508	-0.985981	-0.163211	-0.034689
67	3880801													9.674870	0.174982	1.665544	0.167043	-0.948694	-0.268471	0.010711	-0.270535	0.962651	-0.985891	-0.163680	-0.035029
68	3880968													9.690925	0.176907	1.632368	0.167410	-0.948706	-0.268200	0.010531	-0.270303	0.962718	-0.985831	-0.163992	-0.035261
69	3881134													9.724580	0.176897	1.629589	0.167764	-0.948714	-0.267951	0.010405	-0.270084	0.962781	-0.985772	-0.164308	-0.035439
70	3881301													9.713887	0.181423	1.611148	0.168135	-0.948658	-0.267914	0.010330	-0.270073	0.962785	-0.985710	-0.164646	-0.035609
71	3881468													9.731180	0.170269	1.624243	0.168545	-0.948595	-0.267881	0.010311	-0.270057	0.962789	-0.985640	-0.165035	-0.035736
72	3881634													9.730022	0.183137	1.607419	0.169042	-0.948584	-0.267608	0.010321	-0.269797	0.962862	-0.985555	-0.165526	-0.035817
73	3881801													9.735989	0.173381	1.629341	0.169646	-0.948476	-0.267607	0.010327	-0.269817	0.962856	-0.985451	-0.166108	-0.035978
74	3881968													9.680768	0.167545	1.649680	0.170329	-0.948341	-0.267651	0.010347	-0.269884	0.962837	-0.985333	-0.166768	-0.036156
75	3882134													9.690326	0.168794	1.694898	0.171001	-0.948231	-0.267613	0.010348	-0.269870	0.962841	-0.985217	-0.167416	-0.036335
76	3882301													9.673619	0.172051	1.693680	0.171647	-0.948080	-0.267734	0.010349	-0.270017	0.962800	-0.985104	-0.168032	-0.036536
77	3882468													9.670002	0.177841	1.738655	0.172200	-0.947969	-0.267773	0.010360	-0.270075	0.962783	-0.985008	-0.168565	-0.036686
78	3882634													9.653166	0.162756	1.766425	0.172753	-0.947848	-0.267843	0.010348	-0.270169	0.962757	-0.984911	-0.169091	-0.036864
79	3882801													9.651021	0.153769	1.799009	0.173271	-0.947762	-0.267815	0.010333	-0.270164	0.962759	-0.984820	-0.169586	-0.037018
80	3882968													9.660903	0.144830	1.840610	0.173725	-0.947654	-0.267903	0.010324	-0.270272	0.962729	-0.984740	-0.170016	-0.037170
81	3883134													9.638109	0.121688	1.845071	0.174144	-0.947570	-0.267927	0.010335	-0.270311	0.962718	-0.984666	-0.170420	-0.037280
82	3883301													9.637977	0.144623	1.883896	0.174516	-0.947490	-0.267968	0.010329	-0.270368	0.962702	-0.984600	-0.170775	-0.037397
83	3883468													9.626582	0.136325	1.869071	0.174830	-0.947407	-0.268058	0.010345	-0.270469	0.962673	-0.984544	-0.171077	-0.037485
84	3883634													9.632705	0.144279	1.848363	0.175080	-0.947329	-0.268170	0.010346	-0.270592	0.962639	-0.984500	-0.171313	-0.037575
85	3883801													9.626100	0.143879	1.835960	0.175323	-0.947236	-0.268338	0.010354	-0.270771	0.962588	-0.984457	-0.171542	-0.037664
86	3883968													9.650229	0.170704	1.810125	0.175552	-0.947178	-0.268394	0.010348	-0.270838	0.962569	-0.984416	-0.171758	-0.037745
87	3884135													9.642687	0.182141	1.810719	0.175842	-0.947083	-0.268541	0.010336	-0.271000	0.962524	-0.984364	-0.172027	-0.037864
88	3884301													9.666962	0.197452	1.800920	0.176132	-0.946988	-0.268685	0.010355	-0.271155	0.962480	-0.984312	-0.172306	-0.037953
89	3884468													9.680683	0.182854	1.773650	0.176493	-0.946930	-0.268651	0.010392	-0.271128	0.962487	-0.984247	-0.172664	-0.038012
90	3884635													9.680186	0.203651	1.744706	0.176852	-0.946806	-0.268853	0.010385	-0.271348	0.962425	-0.984183	-0.172999	-0.038156
91	3884801													9.701217	0.209081	1.736253	0.177250	-0.946736	-0.268836	0.010354	-0.271352	0.962424	-0.984111	-0.173374	-0.038294
92	3884968													9.694477	0.218948	1.715089	0.177681	-0.946636	-0.268905	0.010371	-0.271437	0.962400	-0.984033	-0.173789	-0.038411
93	3885135													9.725611	0.212605	1.712110	0.178161	-0.946574	-0.268804	0.010389	-0.271350	0.962425	-0.983946	-0.174259	-0.038510
94	3885301													9.667692	0.169180	1.720537	0.178599	-0.946525	-0.268686	0.010422	-0.271242	0.962455	-0.983867	-0.174693	-0.038579
95	3885468													9.699691	0.161046	1.730357	0.179086	-0.946490	-0.268487	0.010414	-0.271059	0.962506	-0.983778	-0.175168	-0.038686
96	3885635													9.747901	0.172710	1.787222	0.179554	-0.946491	-0.268169	0.010495	-0.270740	0.962595	-0.983692	-0.175653	-0.038679
97	3885801													9.666469	0.159283	1.817451	0.179798	-0.946296	-0.268692	0.010711	-0.271244	0.962451	-0.983645	-0.175925	-0.038633
98	3885968													9.339316	0.149171	1.839461	0.178067	-0.946006	-0.270861	0.011010	-0.273328	0.961858	-0.983957	-0.174257	-0.038256
99	3886135													9.623155	0.150101	1.411221	0.173769	-0.946114	-0.273261	0.011049	-0.275592	0.961211	-0.984724	-0.170048	-0.037436
100	3886301													9.761019	0.332093	1.755189	0.169416	-0.946308	-0.275316	0.010773	-0.277559	0.960648	-0.985486	-0.165716	-0.036828
101	3886468													9.691175	0.348740	2.135431	0.164514	-0.947004	-0.275896	0.010331	-0.278037	0.960515	-0.986321	-0.160868	-0.035958
102	3886635													9.672565	0.237627	1.916242	0.159936	-0.947818	-0.275794	0.009990	-0.277822	0.960581	-0.987077	-0.156386	-0.034965
103	3886801													9.752043	0.087448	1.497216	0.156893	-0.948510	-0.275161	0.009948	-0.277079	0.960796	-0.987566	-0.153479	-0.034036
104	3886968													9.873245	-0.007654	1.425002	0.155848	-0.948846	-0.274596	0.010046	-0.276456	0.960974	-0.987730	-0.152525	-0.033553
105	3887135													9.790295	0.069299	1.583857	0.156035	-0.948989	-0.273993	0.010049	-0.275851	0.961148	-0.987700	-0.152726	-0.033506
106	3887301													9.679822	0.108420	1.746204	0.156807	-0.949073	-0.273262	0.009840	-0.275169	0.961345	-0.987580	-0.153435	-0.033809
107	3887468													9.718510	0.150122	1.728699	0.158132	-0.949094	-0.272426	0.009534	-0.274417	0.961564	-0.987372	-0.154651	-0.034345
108	3887635													9.742207	0.175026	1.636928	0.160140	-0.948928	-0.271828	0.009250	-0.273927	0.961706	-0.987051	-0.156522	-0.035089
109	3887801													9.796180	0.162214	1.601217	0.162936	-0.948496	-0.271676	0.008981	-0.273919	0.961711	-0.986596	-0.159138	-0.036113
110	3887968													9.838568	0.209613	1.604061	0.166108	-0.948019	-0.271419	0.008638	-0.273833	0.961738	-0.986070	-0.162097	-0.037297
111	3888135													9.792131	0.241393	1.645878	0.169865	-0.947429	-0.271152	0.008367	-0.273754	0.961763	-0.985432	-0.165639	-0.038574
112	3888301													9.697540	0.220694	1.714069	0.173856	-0.946782	-0.270884	0.008123	-0.273685	0.961785	-0.984738	-0.169412	-0.039891
113	3888468													9.698486	0.203073	1.673949	0.177618	-0.946029	-0.271075	0.008103	-0.274040	0.961684	-0.984066	-0.173009	-0.041009
114	3888635													9.688457	0.191843	1.673212	0.181230	-0.945186	-0.271622	0.008347	-0.274708	0.961492	-0.983405	-0.176518	-0.041896
115	3888801													9.771220	0.146350	1.559641	0.184617	-0.944475	-0.271816	0.008670	-0.274994	0.961407	-0.982772	-0.179849	-0.042580
116	3888968													9.810972	0.107015	1.625417	0.188332	-0.943643	-0.272157	0.008970	-0.275452	0.961273	-0.982065	-0.183479	-0.043412
117	3889135													9.749884	0.100543	1.728574	0.192226	-0.942770	-0.272460	0.009164	-0.275902	0.961142	-0.981308	-0.187253	-0.044396
118	3889301													9.785351	0.154642	1.859926	0.196315	-0.941882	-0.272613	0.009208	-0.276240	0.961045	-0.980498	-0.191178	-0.045558
119	3889468													9.709654	0.193482	1.956048	0.200472	-0.941031	-0.272527	0.009155	-0.276362	0.961010	-0.979657	-0.195150	-0.046787
120	3889635													9.604312	0.172690	2.073389	0.204416	-0.940220	-0.272399	0.009167	-0.276424	0.960992	-0.978841	-0.198939	-0.047886
121	3889801													9.574975	0.166769	2.110071	0.207884	-0.939477	-0.272335	0.009274	-0.276512	0.960966	-0.978110	-0.202295	-0.048769
122	3889968													9.597963	0.181255	2.136414	0.211404	-0.938674	-0.272395	0.009391	-0.276730	0.960902	-0.977354	-0.205696	-0.049687
123	3890135													9.642011	0.172206	2.168698	0.215311	-0.937753	-0.272509	0.009390	-0.277053	0.960809	-0.976500	-0.209432	-0.050847
124	3890301													9.580486	0.168449	2.215181	0.219688	-0.936772	-0.272388	0.009172	-0.277214	0.960765	-0.975527	-0.213566	-0.052309
125	3890468													9.554346	0.194056	2.284496	0.224405	-0.935746	-0.272071	0.008825	-0.277229	0.960763	-0.974456	-0.218001	-0.053954
126	3890635													9.499451	0.163817	2.178338	0.228467	-0.934795	-0.271958	0.008617	-0.277393	0.960718	-0.973514	-0.221836	-0.055320
127	3890801													9.545062	0.176314	2.232862	0.231691	-0.933870	-0.272408	0.008663	-0.278036	0.960532	-0.972751	-0.224906	-0.056329
128	3890968													9.567820	0.265818	2.294851	0.234682	-0.932990	-0.272862	0.008908	-0.278625	0.960359	-0.972031	-0.227810	-0.057077
129	3891135													9.542514	0.254036	2.241386	0.237855	-0.932127	-0.273065	0.009179	-0.278964	0.960258	-0.971257	-0.230909	-0.057797
130	3891301													9.529158	0.202210	2.288464	0.241274	-0.931203	-0.273218	0.009419	-0.279275	0.960165	-0.970411	-0.234237	-0.058611
131	3891468													9.537301	0.240738	2.490299	0.244969	-0.930282	-0.273066	0.009635	-0.279298	0.960156	-0.969483	-0.237839	-0.059456
132	3891635													9.498537	0.208096	2.452339	0.248682	-0.929505	-0.272356	0.009453	-0.278847	0.960289	-0.968539	-0.241381	-0.060557
133	3891801													9.622677	0.098230	2.473187	0.251645	-0.929029	-0.271256	0.008285	-0.278197	0.960488	-0.967784	-0.243949	-0.062310
134	3891968													9.414997	0.209848	2.586354	0.253750	-0.928588	-0.270804	0.007005	-0.278196	0.960499	-0.967245	-0.245623	-0.064088
135	3892135													9.454737	0.252901	2.704679	0.255736	-0.928199	-0.270271	0.006344	-0.277950	0.960575	-0.966726	-0.247368	-0.065193
136	3892301													9.417118	0.124629	2.675787	0.258067	-0.927763	-0.269550	0.005829	-0.277500	0.960708	-0.966109	-0.249498	-0.066205
137	3892468													9.488906	0.047764	2.734784	0.260773	-0.927097	-0.269238	0.005483	-0.277461	0.960721	-0.965385	-0.252006	-0.067271
138	3892635													9.502733	0.093961	2.925952	0.264028	-0.926368	-0.268574	0.004989	-0.277139	0.960817	-0.964502	-0.255023	-0.068550
139	3892801													9.496399	0.110465	2.980845	0.267812	-0.925891	-0.266463	0.003901	-0.275521	0.961287	-0.963463	-0.258484	-0.070176
140	3892968													9.466154	-0.003054	2.872957	0.271970	-0.925097	-0.265005	0.002953	-0.274582	0.961559	-0.962301	-0.262298	-0.071946
141	3893135													9.520778	0.028373	2.834202	0.276410	-0.924091	-0.263919	0.001962	-0.274075	0.961706	-0.961038	-0.266343	-0.073944
142	3893301													9.456800	0.146148	2.803658	0.281269	-0.922887	-0.262998	0.000910	-0.273805	0.961785	-0.959629	-0.270759	-0.076173
143	3893468													9.511192	0.139376	2.823219	0.286645	-0.921467	-0.262170	-0.000040	-0.273664	0.961825	-0.958037	-0.275692	-0.078482
144	3893635													9.423699	0.091262	2.814956	0.292428	-0.920041	-0.260790	-0.001099	-0.273033	0.962004	-0.956287	-0.281031	-0.080853
145	3893801													9.374737	0.097584	2.773758	0.298368	-0.918538	-0.259354	-0.002144	-0.272375	0.962189	-0.954449	-0.286530	-0.083237
146	3893968													9.475651	0.106659	2.796328	0.304059	-0.917007	-0.258157	-0.002955	-0.271895	0.962323	-0.952648	-0.291840	-0.085382
147	3894135													9.444395	0.087166	2.945526	0.309953	-0.915289	-0.257247	-0.003493	-0.271667	0.962385	-0.950745	-0.297396	-0.087401
148	3894301													9.352333	0.080576	3.082674	0.316577	-0.913236	-0.256472	-0.003780	-0.271591	0.962405	-0.948559	-0.303706	-0.089432
149	3894468													9.362474	-0.020990	3.213902	0.324335	-0.910712	-0.255753	-0.004119	-0.271726	0.962366	-0.945933	-0.311076	-0.091882
150	3894635													9.393958	-0.003976	3.401001	0.332922	-0.907851	-0.254890	-0.004486	-0.271832	0.962334	-0.942944	-0.319239	-0.094571
151	3894801													9.307219	0.066967	3.497504	0.341452	-0.905017	-0.253684	-0.005053	-0.271670	0.962377	-0.939886	-0.327324	-0.097335
152	3894968													9.326012	0.045970	3.535263	0.350596	-0.901785	-0.252716	-0.005325	-0.271759	0.962351	-0.936512	-0.336050	-0.100080
153	3895135													9.182179	0.009321	3.517793	0.360528	-0.897940	-0.252435	-0.004996	-0.272491	0.962145	-0.932735	-0.345619	-0.102726
154	3895301													9.245213	0.042907	3.552151	0.371256	-0.893532	-0.252527	-0.004412	-0.273659	0.961817	-0.928520	-0.355967	-0.105540
155	3895468													9.205786	0.075803	3.516341	0.381750	-0.889236	-0.252043	-0.004026	-0.274293	0.961638	-0.924257	-0.366091	-0.108292
156	3895635													9.255215	0.070250	3.579723	0.391006	-0.885299	-0.251713	-0.003866	-0.275063	0.961418	-0.920380	-0.374948	-0.110974
157	3895801													9.043678	0.153141	3.563523	0.399594	-0.881801	-0.250502	-0.004492	-0.275147	0.961392	-0.916681	-0.383041	-0.113908
158	3895968													8.885155	-0.017584	3.457641	0.408404	-0.878445	-0.248072	-0.005894	-0.274302	0.961625	-0.912782	-0.391269	-0.117203
159	3896135													8.794796	0.014974	3.684357	0.417726	-0.874732	-0.245661	-0.007364	-0.273632	0.961806	-0.908543	-0.399962	-0.120744
160	3896301													8.929902	0.024722	3.894136	0.427273	-0.870692	-0.243584	-0.008538	-0.273288	0.961894	-0.904082	-0.408912	-0.124202
161	3896468													9.038142	0.043231	4.219882	0.435995	-0.866801	-0.242001	-0.009403	-0.273278	0.961889	-0.899900	-0.417103	-0.127298
162	3896635													8.898059	0.181260	4.428595	0.443670	-0.863341	-0.240414	-0.010100	-0.273062	0.961944	-0.896133	-0.424357	-0.129869
163	3896801													8.812765	0.064173	4.327562	0.450335	-0.860442	-0.238405	-0.010898	-0.272291	0.962153	-0.892793	-0.430694	-0.131999
164	3896968													8.644457	-0.051966	4.236036	0.456513	-0.857736	-0.236398	-0.011628	-0.271429	0.962388	-0.889641	-0.436594	-0.133885
165	3897135													8.561655	-0.101911	4.388497	0.462236	-0.855072	-0.234924	-0.011992	-0.270928	0.962525	-0.886676	-0.442096	-0.135487
166	3897301													8.496545	-0.109554	4.518227	0.467359	-0.852566	-0.233896	-0.012199	-0.270762	0.962569	-0.883984	-0.447012	-0.136943
167	3897468													8.438151	-0.112773	4.707549	0.472076	-0.850228	-0.232932	-0.012391	-0.270601	0.962612	-0.881471	-0.451539	-0.138280
168	3897635													8.426777	-0.103034	4.873131	0.476623	-0.847951	-0.231971	-0.012586	-0.270426	0.962659	-0.879018	-0.455905	-0.139563
169	3897801													8.437763	-0.108792	5.054687	0.481211	-0.845687	-0.230760	-0.012936	-0.270065	0.962755	-0.876510	-0.460303	-0.140898
170	3897968													8.355003	-0.121228	5.126557	0.485864	-0.843426	-0.229279	-0.013496	-0.269532	0.962897	-0.873930	-0.464743	-0.142339
171	3898135													8.320541	-0.072173	5.150625	0.490521	-0.841039	-0.228130	-0.013820	-0.269263	0.962967	-0.871320	-0.469202	-0.143703
172	3898301													8.267212	-0.165796	5.180740	0.495338	-0.838474	-0.227159	-0.013911	-0.269116	0.963007	-0.868589	-0.473854	-0.144968
173	3898468													8.229680	-0.139546	5.141454	0.500216	-0.835732	-0.226573	-0.013774	-0.269308	0.962956	-0.865791	-0.478565	-0.146223
174	3898635													8.239155	-0.121289	5.192581	0.505131	-0.832860	-0.226246	-0.013549	-0.269770	0.962829	-0.862936	-0.483290	-0.147554
175	3898801													8.241203	-0.091833	5.194718	0.509926	-0.830068	-0.225750	-0.013428	-0.270082	0.962744	-0.860114	-0.487896	-0.148868
176	3898968													8.254493	-0.120705	5.181609	0.514613	-0.827339	-0.225132	-0.013368	-0.270278	0.962690	-0.857318	-0.492403	-0.150148
177	3899135													8.268583	-0.104649	5.206079	0.519140	-0.824649	-0.224608	-0.013398	-0.270614	0.962595	-0.854584	-0.496712	-0.151535
178	3899301													8.297279	-0.110035	5.223939	0.523439	-0.822056	-0.224132	-0.013529	-0.271032	0.962475	-0.851956	-0.500765	-0.152990
179	3899468													8.350541	-0.128220	5.253779	0.527176	-0.819771	-0.223743	-0.013732	-0.271487	0.962344	-0.849645	-0.504253	-0.154379
180	3899635													8.347100	-0.066261	5.246555	0.530164	-0.817971	-0.223271	-0.014181	-0.271841	0.962238	-0.847776	-0.506978	-0.155720
181	3899801													8.256338	-0.016768	5.216267	0.532573	-0.816507	-0.222898	-0.014598	-0.272175	0.962137	-0.846258	-0.509154	-0.156873
182	3899968													8.267252	-0.044057	5.172756	0.534802	-0.815121	-0.222632	-0.014841	-0.272498	0.962042	-0.844847	-0.511198	-0.157829
183	3900135													8.278936	-0.016718	5.218835	0.537010	-0.813714	-0.222464	-0.015018	-0.272896	0.961926	-0.843442	-0.513223	-0.158769
184	3900301													8.232799	-0.047258	5.335791	0.539331	-0.812218	-0.222316	-0.015267	-0.273391	0.961782	-0.841956	-0.515324	-0.159848
185	3900468													8.221091	-0.028525	5.392212	0.541440	-0.810839	-0.222221	-0.015520	-0.273911	0.961630	-0.840596	-0.517216	-0.160891
186	3900635													8.316732	-0.081619	5.351198	0.543011	-0.809814	-0.222125	-0.015788	-0.274320	0.961509	-0.839577	-0.518603	-0.161745
187	3900802													8.152241	-0.034434	5.349822	0.544315	-0.809121	-0.221458	-0.016333	-0.274164	0.961544	-0.838722	-0.519766	-0.162447
188	3900968													8.178338	-0.060482	5.239567	0.545675	-0.808381	-0.220813	-0.016810	-0.274007	0.961581	-0.837828	-0.520999	-0.163108
189	3901135													8.180287	-0.061654	5.339409	0.547139	-0.807541	-0.220265	-0.017185	-0.273929	0.961596	-0.836865	-0.522342	-0.163755
190	3901302													8.273190	-0.103687	5.367868	0.548532	-0.806677	-0.219965	-0.017454	-0.274065	0.961553	-0.835947	-0.523604	-0.164414
191	3901468													8.155272	-0.127082	5.516977	0.549805	-0.805915	-0.219580	-0.017783	-0.274112	0.961533	-0.835104	-0.524751	-0.165040
192	3901635													8.194537	-0.154477	5.464726	0.551121	-0.805141	-0.219119	-0.017903	-0.273948	0.961578	-0.834233	-0.526023	-0.165393
193	3901802													8.217685	-0.143728	5.495060	0.552523	-0.804227	-0.218946	-0.017818	-0.274021	0.961559	-0.833307	-0.527382	-0.165733
194	3901968													8.142639	-0.064398	5.511765	0.553854	-0.803356	-0.218782	-0.017795	-0.274126	0.961529	-0.832424	-0.528653	-0.166122
195	3902135													8.126009	-0.090518	5.498065	0.555113	-0.802572	-0.218468	-0.017898	-0.274117	0.961530	-0.831582	-0.529848	-0.166530
196	3902302													8.083774	-0.074556	5.495582	0.556253	-0.801874	-0.218131	-0.018076	-0.274101	0.961531	-0.830816	-0.530911	-0.166964
197	3902468													8.109655	-0.099822	5.493603	0.557240	-0.801269	-0.217835	-0.018260	-0.274102	0.961527	-0.830151	-0.531824	-0.167372
198	3902635													8.126476	-0.095479	5.504743	0.558019	-0.800760	-0.217713	-0.018501	-0.274299	0.961467	-0.829622	-0.532489	-0.167878
199	3902802													8.010716	-0.131072	5.530651	0.558670	-0.800374	-0.217462	-0.018847	-0.274378	0.961437	-0.829176	-0.533028	-0.168372
200	3902968													8.064590	-0.193482	5.525666	0.559225	-0.800103	-0.217032	-0.019303	-0.274291	0.961453	-0.828791	-0.533479	-0.168835
201	3903135													8.135009	-0.174492	5.626980	0.559557	-0.799991	-0.216588	-0.019831	-0.274179	0.961474	-0.828554	-0.533705	-0.169283
202	3903302													8.061708	-0.176144	5.636834	0.559723	-0.799962	-0.216269	-0.020308	-0.274143	0.961475	-0.828431	-0.533767	-0.169689
203	3903468													8.031077	-0.225920	5.597157	0.559892	-0.799910	-0.216020	-0.020662	-0.274114	0.961475	-0.828308	-0.533859	-0.170002
204	3903635													8.002665	-0.230401	5.490017	0.560083	-0.799766	-0.216058	-0.020833	-0.274316	0.961414	-0.828175	-0.533970	-0.170301
205	3903802													8.129743	-0.183150	5.481840	0.560089	-0.799715	-0.216231	-0.020957	-0.274607	0.961328	-0.828167	-0.533898	-0.170564
206	3903968													8.087962	-0.166623	5.554739	0.559853	-0.799838	-0.216388	-0.021127	-0.274845	0.961256	-0.828323	-0.533590	-0.170771
207	3904135													7.974480	-0.120742	5.531441	0.559362	-0.800084	-0.216746	-0.021129	-0.275156	0.961167	-0.828654	-0.533061	-0.170817
208	3904302													7.968061	-0.156885	5.446423	0.558783	-0.800282	-0.217509	-0.020808	-0.275723	0.961012	-0.829053	-0.532472	-0.170721
209	3904468													8.102702	-0.153064	5.415687	0.558029	-0.800522	-0.218561	-0.020196	-0.276407	0.960828	-0.829576	-0.531756	-0.170411
210	3904635													8.167192	-0.124269	5.580806	0.556744	-0.801127	-0.219618	-0.019674	-0.277024	0.960662	-0.830451	-0.530521	-0.169993
211	3904802													8.012374	-0.078398	5.530118	0.555139	-0.801953	-0.220662	-0.019215	-0.277591	0.960507	-0.831535	-0.528975	-0.169511
212	3904968													8.016936	-0.145896	5.381329	0.553337	-0.802875	-0.221835	-0.018618	-0.278177	0.960349	-0.832750	-0.527266	-0.168874
213	3905135													8.345199	-0.149222	5.465600	0.551057	-0.804063	-0.223201	-0.017958	-0.278842	0.960169	-0.834275	-0.525099	-0.168097
214	3905302													8.197942	-0.041686	5.587676	0.547983	-0.805836	-0.224375	-0.017526	-0.279235	0.960063	-0.836306	-0.522166	-0.167139
215	3905468													8.072847	-0.077716	5.504510	0.544570	-0.807885	-0.225311	-0.017255	-0.279373	0.960028	-0.838538	-0.518915	-0.166078
216	3905635													8.070725	-0.130336	5.367134	0.540960	-0.809936	-0.226638	-0.016651	-0.279732	0.959934	-0.840883	-0.515512	-0.164810
217	3905802													8.186411	-0.083843	5.306883	0.537264	-0.811989	-0.228081	-0.015871	-0.280111	0.959836	-0.843265	-0.512066	-0.163381
218	3905968													8.239845	-0.031562	5.279659	0.533456	-0.814100	-0.229492	-0.015011	-0.280392	0.959768	-0.845695	-0.508549	-0.161797
219	3906135													8.222587	-0.055286	5.329888	0.529535	-0.816443	-0.230245	-0.014544	-0.280122	0.959854	-0.848163	-0.504928	-0.160208
220	3906302													8.153449	-0.172166	5.254734	0.525208	-0.819087	-0.230766	-0.014221	-0.279588	0.960015	-0.850855	-0.500926	-0.158490
221	3906468													8.211231	-0.212828	5.200099	0.520392	-0.821930	-0.231567	-0.013792	-0.279234	0.960124	-0.853816	-0.496447	-0.156647
222	3906635													8.265596	-0.137710	5.080173	0.515142	-0.824913	-0.232697	-0.013196	-0.279093	0.960173	-0.857003	-0.491555	-0.154658
223	3906802													8.251272	-0.133106	4.991748	0.509702	-0.827779	-0.234491	-0.012145	-0.279448	0.960084	-0.860265	-0.486508	-0.152489
224	3906968													8.321255	-0.074786	4.961028	0.504094	-0.830551	-0.236800	-0.010729	-0.280186	0.959886	-0.863582	-0.481332	-0.150152
225	3907135													8.436055	-0.080055	4.955864	0.498105	-0.833519	-0.239035	-0.009376	-0.280828	0.959712	-0.867066	-0.475797	-0.147696
226	3907302													8.493559	-0.048551	4.964392	0.491410	-0.836800	-0.241415	-0.007980	-0.281508	0.959526	-0.870892	-0.469594	-0.145014
227	3907468													8.467630	-0.072288	4.823865	0.484010	-0.840276	-0.244275	-0.006390	-0.282538	0.959235	-0.875039	-0.462718	-0.142121
228	3907635													8.363605	-0.086070	4.641903	0.476611	-0.843666	-0.247124	-0.004677	-0.283535	0.958951	-0.879102	-0.455891	-0.139082
229	3907802													8.396186	-0.017412	4.468370	0.469585	-0.846739	-0.250045	-0.002894	-0.284688	0.958616	-0.882882	-0.449429	-0.136135
230	3907968													8.925200	0.045829	4.426870	0.462254	-0.849772	-0.253395	-0.000979	-0.286247	0.958155	-0.886747	-0.442663	-0.133150
231	3908135													8.764563	0.107561	4.629344	0.453930	-0.853431	-0.256130	0.000597	-0.287160	0.957883	-0.891037	-0.434965	-0.129840
232	3908302													8.719280	0.132214	4.586527	0.444612	-0.857434	-0.259087	0.002218	-0.288195	0.957569	-0.895720	-0.426322	-0.126233
233	3908468													8.736896	0.079543	4.495064	0.435269	-0.861364	-0.261903	0.003808	-0.289143	0.957278	-0.900292	-0.417671	-0.122574
234	3908635													8.816726	0.050208	4.260644	0.426507	-0.865009	-0.264294	0.005119	-0.289891	0.957046	-0.904470	-0.409539	-0.119212
235	3908802													8.989940	0.140094	4.193461	0.418077	-0.868359	-0.266765	0.006440	-0.290820	0.956756	-0.908389	-0.401716	-0.115993
236	3908968													9.043295	0.145344	4.161005	0.409540	-0.871920	-0.268387	0.007275	-0.291059	0.956677	-0.912263	-0.393751	-0.112857
237	3909135													9.091212	0.235059	4.149538	0.400622	-0.875908	-0.268862	0.007484	-0.290302	0.956906	-0.916213	-0.385370	-0.109746
238	3909302													9.221731	0.340274	4.039620	0.392139	-0.879924	-0.268257	0.007229	-0.288656	0.957405	-0.919878	-0.377375	-0.106832
239	3909468													9.020647	0.163100	3.805308	0.384669	-0.883502	-0.267307	0.006921	-0.286821	0.957959	-0.923029	-0.370347	-0.104216
240	3909635													9.082322	-0.031608	3.609009	0.377953	-0.886632	-0.266525	0.006641	-0.285275	0.958423	-0.925801	-0.364009	-0.101933
241	3909802													9.237153	0.146993	3.560742	0.371478	-0.889488	-0.266111	0.006265	-0.284213	0.958741	-0.928420	-0.357819	-0.100007
242	3909968													9.120539	0.124860	3.664505	0.364609	-0.892377	-0.265937	0.006051	-0.283321	0.959006	-0.931141	-0.351271	-0.097902
243	3910135													9.060523	0.081880	3.631614	0.357076	-0.895216	-0.266618	0.006533	-0.283034	0.959088	-0.934053	-0.344209	-0.095216
244	3910302													9.215230	0.000852	3.468881	0.349829	-0.897776	-0.267616	0.007332	-0.283034	0.959082	-0.936785	-0.337476	-0.092431
245	3910468													9.302835	0.028170	3.293220	0.343386	-0.900014	-0.268442	0.007881	-0.283051	0.959073	-0.939161	-0.331448	-0.090103
246	3910635													9.384421	0.071276	3.298575	0.337669	-0.902227	-0.268265	0.007710	-0.282344	0.959282	-0.941233	-0.325988	-0.088382
247	3910802													9.247799	0.138286	3.300246	0.331486	-0.904763	-0.267434	0.007301	-0.280992	0.959682	-0.943432	-0.320073	-0.086539
248	3910968													9.253536	0.091380	3.198375	0.324413	-0.907542	-0.266690	0.007067	-0.279605	0.960089	-0.945889	-0.313350	-0.084294
249	3911135													9.404668	0.136092	3.086315	0.317925	-0.910011	-0.266089	0.007097	-0.278358	0.960451	-0.948089	-0.307240	-0.082039
250	3911302													9.381529	0.069291	3.089312	0.312349	-0.911998	-0.265889	0.007303	-0.277579	0.960675	-0.949939	-0.302008	-0.080041
251	3911468													9.498374	0.098433	3.021713	0.307534	-0.913638	-0.265872	0.007329	-0.277130	0.960804	-0.951509	-0.297428	-0.078531
252	3911635													9.344753	0.086866	3.088078	0.303068	-0.915255	-0.265437	0.007057	-0.276374	0.961024	-0.952943	-0.293129	-0.077301
253	3911802													9.314278	0.079919	3.069203	0.298113	-0.916972	-0.265125	0.006849	-0.275692	0.961222	-0.954506	-0.288368	-0.075907
254	3911968													9.444940	0.148007	2.954470	0.293966	-0.918312	-0.265119	0.006741	-0.275375	0.961313	-0.955792	-0.284381	-0.074761
255	3912135													9.398763	0.143048	3.007982	0.290412	-0.919369	-0.265369	0.006680	-0.275367	0.961316	-0.956878	-0.280951	-0.073829
256	3912302													9.272056	0.216767	3.076983	0.286210	-0.920645	-0.265514	0.006548	-0.275220	0.961359	-0.958145	-0.276889	-0.072743
257	3912468													9.211052	0.116287	2.924129	0.280651	-0.922376	-0.265439	0.006375	-0.274757	0.961493	-0.959789	-0.271537	-0.071230
258	3912635													9.587495	0.013713	2.514311	0.275558	-0.923919	-0.265407	0.006407	-0.274325	0.961616	-0.961263	-0.266681	-0.069673
259	3912802													9.543962	0.160752	2.544644	0.271607	-0.924916	-0.266006	0.006439	-0.274644	0.961524	-0.962387	-0.262870	-0.068640
260	3912968													9.516265	0.147429	2.650896	0.268709	-0.925590	-0.266606	0.006407	-0.275062	0.961405	-0.963200	-0.260046	-0.067982
261	3913135													9.453710	0.144121	2.756099	0.266173	-0.926159	-0.267173	0.006151	-0.275534	0.961272	-0.963906	-0.257508	-0.067643
262	3913302													9.323171	0.163624	2.892850	0.262881	-0.927029	-0.267415	0.005637	-0.275683	0.961232	-0.964812	-0.254197	-0.067246
263	3913468													9.403785	0.078750	2.612344	0.258073	-0.928567	-0.266762	0.004995	-0.274829	0.961480	-0.966112	-0.249465	-0.066288
264	3913635													9.612628	0.118065	2.306875	0.253788	-0.929817	-0.266518	0.004426	-0.274420	0.961600	-0.967250	-0.245222	-0.065530
265	3913802													9.606165	0.128817	2.419961	0.250826	-0.930625	-0.266500	0.003909	-0.274325	0.961629	-0.968024	-0.242244	-0.065171
266	3913968													9.486863	0.158993	2.561903	0.248271	-0.931266	-0.266656	0.003280	-0.274465	0.961592	-0.968685	-0.239610	-0.065087
267	3914135													9.442316	0.119756	2.587754	0.246064	-0.931858	-0.266633	0.002646	-0.274444	0.961599	-0.969250	-0.237320	-0.065065
268	3914302													9.464886	0.100596	2.629285	0.244254	-0.932364	-0.266527	0.002053	-0.274354	0.961627	-0.969709	-0.235428	-0.065098
269	3914468													9.500976	0.076402	2.575758	0.242436	-0.932869	-0.266422	0.001562	-0.274239	0.961660	-0.970166	-0.233558	-0.065029
270	3914635													9.514338	0.040256	2.557756	0.240652	-0.933338	-0.266395	0.001197	-0.274175	0.961679	-0.970611	-0.231749	-0.064864
271	3914802													9.465576	0.051722	2.555822	0.238703	-0.933856	-0.266333	0.000996	-0.274025	0.961722	-0.971092	-0.229831	-0.064481
272	3914968													9.502023	0.071884	2.519175	0.236342	-0.934472	-0.266281	0.000876	-0.273839	0.961775	-0.971670	-0.227541	-0.063901
273	3915135													9.574511	-0.022178	2.389248	0.233663	-0.935249	-0.265916	0.000857	-0.273288	0.961932	-0.972317	-0.224995	-0.063056
274	3915302													9.689132	-0.023569	2.220293	0.231740	-0.935920	-0.265235	0.001116	-0.272402	0.962183	-0.972777	-0.223273	-0.062082
275	3915468													9.559524	-0.010170	2.277569	0.230193	-0.936482	-0.264598	0.001426	-0.271575	0.962416	-0.973144	-0.221919	-0.061179
276	3915635													9.564947	-0.029025	2.268917	0.228226	-0.937009	-0.264438	0.001769	-0.271207	0.962519	-0.973607	-0.220140	-0.060239
277	3915802													9.613828	0.015133	2.200093	0.226199	-0.937469	-0.264547	0.001987	-0.271142	0.962537	-0.974079	-0.218251	-0.059469
278	3915968													9.609637	0.018840	2.141289	0.224040	-0.937868	-0.264973	0.002279	-0.271379	0.962470	-0.974577	-0.216236	-0.058662
279	3916135													9.677935	0.035416	2.047763	0.221900	-0.938265	-0.265366	0.002641	-0.271572	0.962415	-0.975066	-0.214261	-0.057784
280	3916302													9.699059	0.075535	2.025806	0.219974	-0.938649	-0.265612	0.003085	-0.271610	0.962402	-0.975501	-0.212523	-0.056851
281	3916468													9.659610	0.022879	1.987080	0.217897	-0.939121	-0.265656	0.003493	-0.271445	0.962448	-0.975966	-0.210642	-0.055867
282	3916635													9.647983	-0.011215	1.938198	0.215877	-0.939594	-0.265631	0.003903	-0.271213	0.962511	-0.976413	-0.208821	-0.054881
283	3916802													9.711083	0.018229	1.961622	0.214050	-0.939997	-0.265685	0.004351	-0.271069	0.962550	-0.976813	-0.207190	-0.053932
284	3916968													9.679294	0.067852	2.014081	0.212081	-0.940401	-0.265834	0.005006	-0.270973	0.962574	-0.977239	-0.205475	-0.052760
285	3917135													9.613963	0.018251	2.091295	0.210232	-0.940779	-0.265965	0.005715	-0.270858	0.962602	-0.977635	-0.203889	-0.051566
286	3917302													9.561983	0.016213	2.173138	0.208236	-0.941177	-0.266126	0.006191	-0.270817	0.962611	-0.978059	-0.202097	-0.050567
287	3917469													9.605609	0.036314	2.200837	0.206047	-0.941650	-0.266159	0.006655	-0.270641	0.962657	-0.978520	-0.200124	-0.049498
288	3917635													9.596273	0.015037	2.195193	0.203696	-0.942134	-0.266254	0.007105	-0.270526	0.962686	-0.979008	-0.197988	-0.048411
289	3917802													9.595872	0.047422	2.200504	0.201333	-0.942582	-0.266465	0.007561	-0.270532	0.962681	-0.979494	-0.195835	-0.047340
290	3917969													9.573691	0.051083	2.159191	0.198869	-0.943030	-0.266732	0.007970	-0.270603	0.962658	-0.979994	-0.193568	-0.046299
291	3918135													9.633825	0.094678	2.083901	0.196451	-0.943452	-0.267031	0.008341	-0.270720	0.962622	-0.980478	-0.191335	-0.045314
292	3918302													9.681722	0.123688	2.004588	0.194387	-0.943784	-0.267366	0.008689	-0.270898	0.962569	-0.980886	-0.189434	-0.044458
293	3918469													9.729324	0.156382	1.910994	0.192712	-0.944033	-0.267701	0.008982	-0.271106	0.962508	-0.981214	-0.187891	-0.043766
294	3918635													9.665861	0.161306	1.898426	0.191422	-0.944182	-0.268101	0.009235	-0.271408	0.962420	-0.981464	-0.186705	-0.043234
295	3918802													9.691334	0.209895	1.891996	0.190248	-0.944301	-0.268517	0.009435	-0.271741	0.962324	-0.981691	-0.185614	-0.042789
296	3918969													9.789348	0.189370	1.727209	0.189193	-0.944427	-0.268820	0.009481	-0.271994	0.962252	-0.981894	-0.184600	-0.042505
297	3919135													9.769011	0.209931	1.729549	0.188433	-0.944501	-0.269093	0.009468	-0.272242	0.962182	-0.982040	-0.183854	-0.042357
298	3919302													9.737809	0.211867	1.686180	0.187781	-0.944556	-0.269356	0.009504	-0.272475	0.962116	-0.982165	-0.183227	-0.042188
299	3919469													9.752507	0.180042	1.648042	0.187157	-0.944613	-0.269588	0.009518	-0.272681	0.962058	-0.982284	-0.182622	-0.042043
300	3919635													9.761711	0.188926	1.616120	0.186743	-0.944629	-0.269820	0.009420	-0.272917	0.961992	-0.982364	-0.182187	-0.042067
301	3919802													9.759470	0.163518	1.618178	0.186435	-0.944651	-0.269958	0.009325	-0.273062	0.961951	-0.982423	-0.181859	-0.042099
302	3919969													9.732459	0.175192	1.616548	0.186240	-0.944614	-0.270221	0.009281	-0.273329	0.961876	-0.982461	-0.181647	-0.042138
303	3920135													9.717795	0.223506	1.643090	0.186347	-0.944536	-0.270419	0.009218	-0.273547	0.961815	-0.982441	-0.181724	-0.042268
304	3920302													9.676727	0.199979	1.779309	0.186640	-0.944458	-0.270489	0.009124	-0.273648	0.961787	-0.982386	-0.181976	-0.042457
305	3920469													9.673330	0.183142	1.825618	0.186990	-0.944392	-0.270479	0.009042	-0.273670	0.961781	-0.982320	-0.182290	-0.042634
306	3920635													9.695955	0.141293	1.858541	0.187501	-0.944284	-0.270502	0.008922	-0.273738	0.961763	-0.982224	-0.182745	-0.042902
307	3920802													9.661261	0.131828	1.915861	0.188162	-0.944161	-0.270473	0.008747	-0.273770	0.961755	-0.982099	-0.183331	-0.043254
308	3920969													9.648087	0.093926	1.961315	0.188823	-0.944035	-0.270449	0.008562	-0.273810	0.961746	-0.981974	-0.183915	-0.043619
309	3921135													9.659045	0.097643	1.987485	0.189606	-0.943874	-0.270466	0.008354	-0.273902	0.961721	-0.981825	-0.184608	-0.044049
310	3921302													9.608194	0.106190	2.016989	0.190357	-0.943736	-0.270419	0.008078	-0.273940	0.961713	-0.981682	-0.185253	-0.044523
311	3921469													9.613008	0.067354	1.984786	0.191079	-0.943637	-0.270254	0.007781	-0.273862	0.961738	-0.981544	-0.185871	-0.044987
312	3921635													9.620675	0.078076	1.999510	0.191768	-0.943517	-0.270188	0.007526	-0.273875	0.961736	-0.981411	-0.186464	-0.045419
313	3921802													9.647496	0.039629	1.931749	0.192485	-0.943370	-0.270190	0.007322	-0.273950	0.961716	-0.981273	-0.187094	-0.045824
314	3921969													9.641901	0.033237	1.915430	0.193369	-0.943175	-0.270239	0.007169	-0.274072	0.961682	-0.981100	-0.187897	-0.046236
315	3922135													9.661508	0.022106	1.889220	0.194192	-0.942988	-0.270302	0.007032	-0.274202	0.961646	-0.980938	-0.188645	-0.046617
316	3922302													9.684441	0.036776	1.869522	0.195198	-0.942751	-0.270403	0.006944	-0.274371	0.961599	-0.980739	-0.189580	-0.047011
317	3922469													9.653570	0.043709	1.891992	0.196257	-0.942506	-0.270492	0.006846	-0.274533	0.961553	-0.980529	-0.190563	-0.047427
318	3922635													9.676317	0.039049	1.866449	0.197314	-0.942253	-0.270605	0.006780	-0.274713	0.961502	-0.980317	-0.191552	-0.047816
319	3922802													9.693463	0.051667	1.885129	0.198515	-0.941961	-0.270741	0.006777	-0.274913	0.961445	-0.980074	-0.192696	-0.048191
320	3922969													9.636578	0.073757	1.905312	0.199762	-0.941652	-0.270900	0.006756	-0.275142	0.961380	-0.979821	-0.193877	-0.048601
321	3923135													9.638726	0.066065	1.924284	0.201025	-0.941324	-0.271104	0.006777	-0.275411	0.961303	-0.979563	-0.195083	-0.048985
322	3923302													9.630014	0.071060	1.996946	0.202307	-0.940951	-0.271446	0.006820	-0.275817	0.961186	-0.979298	-0.196306	-0.049382
323	3923469													9.617410	0.095409	2.035245	0.203574	-0.940574	-0.271804	0.006888	-0.276235	0.961065	-0.979035	-0.197520	-0.049756
324	3923635													9.608685	0.086044	2.065097	0.204884	-0.940189	-0.272152	0.006958	-0.276644	0.960947	-0.978762	-0.198776	-0.050138
325	3923802													9.585542	0.071707	2.114813	0.206186	-0.939788	-0.272555	0.007052	-0.277106	0.960814	-0.978487	-0.200029	-0.050508
326	3923969													9.587570	0.089596	2.151441	0.207506	-0.939381	-0.272957	0.007175	-0.277561	0.960681	-0.978207	-0.201305	-0.050855
327	3924135													9.636334	0.114745	2.162158	0.208786	-0.938941	-0.273492	0.007341	-0.278143	0.960512	-0.977934	-0.202549	-0.051179
328	3924302													9.631302	0.091433	2.071247	0.210115	-0.938469	-0.274093	0.007423	-0.278812	0.960317	-0.977648	-0.203812	-0.051616
329	3924469													9.572243	0.116959	2.131904	0.211747	-0.937995	-0.274460	0.007425	-0.279276	0.960182	-0.977296	-0.205353	-0.052171
330	3924635													9.640205	0.141784	2.142152	0.213413	-0.937540	-0.274723	0.007559	-0.279609	0.960084	-0.976933	-0.206971	-0.052585
331	3924802													9.592214	0.157441	2.162043	0.214818	-0.937078	-0.275207	0.007932	-0.280102	0.959937	-0.976622	-0.208394	-0.052738
332	3924969													9.637835	0.117476	2.182584	0.216244	-0.936580	-0.275785	0.008260	-0.280703	0.959759	-0.976304	-0.209820	-0.052964
333	3925135													9.633914	0.145748	2.159684	0.217749	-0.936079	-0.276298	0.008474	-0.281267	0.959592	-0.975968	-0.211292	-0.053314
334	3925302													9.559315	0.137259	2.197956	0.219256	-0.935646	-0.276573	0.008645	-0.281597	0.959494	-0.975629	-0.212766	-0.053653
335	3925469													9.550484	0.082084	2.151359	0.220147	-0.935431	-0.276593	0.008815	-0.281630	0.959483	-0.975427	-0.213665	-0.053754
336	3925635													9.661076	0.091722	2.078535	0.221202	-0.935127	-0.276781	0.009002	-0.281841	0.959419	-0.975186	-0.214717	-0.053926
337	3925802													9.588770	0.075199	2.150001	0.222314	-0.934724	-0.277249	0.009232	-0.282335	0.959272	-0.974931	-0.215819	-0.054138
338	3925969													9.572340	0.080261	2.171445	0.223615	-0.934280	-0.277700	0.009459	-0.282822	0.959126	-0.974632	-0.217102	-0.054406
339	3926135													9.596511	0.097176	2.213447	0.225044	-0.933778	-0.278235	0.009757	-0.283386	0.958956	-0.974300	-0.218522	-0.054664
340	3926302													9.628794	0.104118	2.209738	0.226595	-0.933242	-0.278773	0.010055	-0.283961	0.958783	-0.973937	-0.220058	-0.054960
341	3926469													9.587800	0.107317	2.301884	0.228129	-0.932671	-0.279431	0.010385	-0.284651	0.958575	-0.973575	-0.221581	-0.055251
342	3926635													9.524607	0.106713	2.298330	0.229167	-0.932230	-0.280053	0.010588	-0.285305	0.958378	-0.973329	-0.222594	-0.055512
343	3926802													9.590067	0.094112	2.275002	0.229896	-0.932071	-0.279986	0.010535	-0.285292	0.958383	-0.973158	-0.223278	-0.055768
344	3926969													9.588825	0.117396	2.269704	0.230916	-0.931833	-0.279939	0.010555	-0.285299	0.958381	-0.972916	-0.224260	-0.056045
345	3927135													9.576726	0.079279	2.298478	0.232105	-0.931507	-0.280039	0.010671	-0.285446	0.958336	-0.972632	-0.225423	-0.056313
346	3927302													9.567934	0.090554	2.336997	0.233354	-0.931080	-0.280422	0.010671	-0.285914	0.958196	-0.972333	-0.226591	-0.056783
347	3927469													9.595424	0.116705	2.292925	0.234658	-0.930735	-0.280477	0.010571	-0.286073	0.958149	-0.972020	-0.227803	-0.057291
348	3927635													9.609605	0.117691	2.274902	0.236037	-0.930240	-0.280962	0.010572	-0.286656	0.957975	-0.971687	-0.229088	-0.057827
349	3927802													9.592455	0.102975	2.224972	0.237630	-0.929582	-0.281798	0.010674	-0.287592	0.957694	-0.971297	-0.230584	-0.058418
350	3927969													9.558782	0.118120	2.320994	0.239104	-0.928795	-0.283140	0.010818	-0.289032	0.957258	-0.970934	-0.231947	-0.059061
351	3928135													9.576078	0.157468	2.352588	0.240688	-0.928063	-0.284199	0.010956	-0.290190	0.956906	-0.970541	-0.233430	-0.059678
352	3928302													9.591917	0.125318	2.376756	0.242593	-0.927279	-0.285134	0.011109	-0.291240	0.956586	-0.970064	-0.235229	-0.060352
353	3928469													9.581688	0.117276	2.410036	0.244856	-0.926410	-0.286026	0.011268	-0.292267	0.956270	-0.969494	-0.237371	-0.061124
354	3928635													9.611029	0.151124	2.494509	0.247504	-0.925518	-0.286632	0.011332	-0.293051	0.956030	-0.968821	-0.239869	-0.062044
355	3928802													9.564723	0.205368	2.598958	0.250469	-0.924754	-0.286524	0.011144	-0.293184	0.955991	-0.968060	-0.242640	-0.063128
356	3928969													9.551590	0.229150	2.640172	0.253666	-0.924137	-0.285701	0.010636	-0.292679	0.956152	-0.967233	-0.245582	-0.064414
357	3929135													9.480336	0.194467	2.512255	0.256857	-0.923498	-0.284914	0.010237	-0.292188	0.956306	-0.966395	-0.248550	-0.065597
358	3929302													9.538732	0.153094	2.502682	0.260040	-0.922792	-0.284313	0.009948	-0.291866	0.956407	-0.965547	-0.251533	-0.066717
359	3929469													9.554604	0.165218	2.610322	0.263767	-0.921793	-0.284121	0.009740	-0.291992	0.956371	-0.964537	-0.255027	-0.068039
360	3929635													9.596843	0.205595	2.625305	0.267999	-0.920665	-0.283817	0.009516	-0.292049	0.956356	-0.963372	-0.259003	-0.069508
361	3929802													9.582333	0.174850	2.667311	0.273248	-0.919329	-0.283144	0.009264	-0.291817	0.956429	-0.961899	-0.263965	-0.071222
362	3929969													9.562857	0.078068	2.666176	0.279125	-0.917923	-0.281968	0.009007	-0.291123	0.956643	-0.960213	-0.269562	-0.072992
363	3930135													9.651165	0.005957	2.753066	0.285623	-0.916354	-0.280561	0.008878	-0.290214	0.956921	-0.958301	-0.275810	-0.074757
364	3930302													9.668577	-0.064709	2.807884	0.292889	-0.914624	-0.278709	0.009124	-0.288805	0.957345	-0.956103	-0.282938	-0.076243
365	3930469													9.701672	-0.044196	2.761033	0.301017	-0.912393	-0.277357	0.010302	-0.287718	0.957660	-0.953563	-0.291130	-0.077209
366	3930635													9.693649	-0.035952	2.736325	0.310332	-0.909651	-0.276096	0.012131	-0.286623	0.957967	-0.950551	-0.300637	-0.077913
367	3930802													9.515820	0.073233	2.884117	0.320537	-0.906126	-0.276027	0.014532	-0.286664	0.957921	-0.947124	-0.311061	-0.078719
368	3930969													9.448739	0.261716	2.818454	0.330362	-0.902738	-0.275547	0.016382	-0.286410	0.957967	-0.943712	-0.320990	-0.079830
369	3931135													9.473067	0.379127	2.828426	0.339660	-0.899618	-0.274444	0.017635	-0.285649	0.958172	-0.940383	-0.330292	-0.081159
370	3931302													9.425994	0.349706	3.040508	0.348914	-0.896467	-0.273141	0.018645	-0.284760	0.958418	-0.936969	-0.339498	-0.082642
371	3931469													9.228092	0.320739	3.196926	0.358058	-0.893205	-0.271989	0.019446	-0.284106	0.958596	-0.933497	-0.348523	-0.084357
372	3931635													9.100272	0.356398	3.399160	0.367417	-0.889773	-0.270757	0.019894	-0.283534	0.958756	-0.929843	-0.357650	-0.086475
373	3931802													8.991373	0.215036	3.516077	0.376735	-0.886327	-0.269249	0.019835	-0.282879	0.958950	-0.926109	-0.366611	-0.088990
374	3931969													9.043516	0.191880	3.654519	0.385728	-0.882904	-0.267758	0.019605	-0.282308	0.959123	-0.922404	-0.375210	-0.091585
375	3932135													9.029245	0.206534	3.925246	0.394031	-0.879843	-0.265734	0.019250	-0.281162	0.959467	-0.918895	-0.383176	-0.093849
376	3932302													8.975986	0.221934	4.084117	0.401522	-0.877086	-0.263629	0.018785	-0.279904	0.959844	-0.915657	-0.390351	-0.095911
377	3932469													8.834550	0.221908	4.254046	0.408560	-0.874621	-0.260991	0.017816	-0.278249	0.960344	-0.912557	-0.397008	-0.098099
378	3932635													8.786156	0.143793	4.363853	0.415561	-0.872098	-0.258368	0.016681	-0.276702	0.960811	-0.909412	-0.403586	-0.100440
379	3932802													8.712455	0.148443	4.409830	0.422717	-0.869414	-0.255794	0.015522	-0.275264	0.961243	-0.906129	-0.410304	-0.102864
380	3932969													8.689932	0.095495	4.370569	0.429937	-0.866567	-0.253409	0.014522	-0.274000	0.961620	-0.902742	-0.417116	-0.105218
381	3933135													8.722242	0.093733	4.480660	0.437411	-0.863597	-0.250744	0.013393	-0.272545	0.962050	-0.899162	-0.424169	-0.107648
382	3933302													8.694673	0.158322	4.535039	0.445001	-0.860616	-0.247617	0.011956	-0.270770	0.962570	-0.895450	-0.431305	-0.110204
383	3933469													8.685459	0.096033	4.604284	0.452567	-0.857602	-0.244341	0.010464	-0.268882	0.963116	-0.891669	-0.438431	-0.112713
384	3933635													8.501683	0.057167	4.670880	0.460316	-0.854179	-0.241843	0.009333	-0.267749	0.963443	-0.887706	-0.445745	-0.115277
385	3933802													8.490003	0.055820	4.559635	0.468815	-0.850094	-0.239903	0.008479	-0.267257	0.963588	-0.883256	-0.453778	-0.118086
386	3933969													8.549953	0.010283	4.544401	0.478103	-0.845347	-0.238340	0.007755	-0.267290	0.963585	-0.878269	-0.462541	-0.121237
387	3934136													8.692809	0.038607	4.635239	0.487702	-0.840315	-0.236680	0.006924	-0.267376	0.963567	-0.872983	-0.471572	-0.124581
388	3934302													8.739465	0.056663	4.691381	0.496955	-0.835329	-0.235079	0.006120	-0.267517	0.963534	-0.867755	-0.480271	-0.127832
389	3934469													8.563982	0.087608	4.785089	0.506180	-0.830093	-0.233939	0.005632	-0.268069	0.963383	-0.862410	-0.488963	-0.131016
390	3934636													8.506207	0.053118	4.801909	0.515709	-0.824531	-0.232793	0.005136	-0.268732	0.963201	-0.856748	-0.497927	-0.134353
391	3934802													8.394682	0.088406	4.892550	0.525701	-0.818430	-0.231972	0.004772	-0.269851	0.962890	-0.850656	-0.507299	-0.137955
392	3934969													8.498475	0.114452	5.013657	0.535921	-0.812135	-0.230705	0.004385	-0.270579	0.962688	-0.844257	-0.516936	-0.141448
393	3935136													8.452144	0.037118	5.094961	0.546252	-0.805664	-0.229161	0.004069	-0.271031	0.962562	-0.837611	-0.526734	-0.144773
394	3935302													8.329285	0.072523	5.339794	0.556390	-0.799205	-0.227380	0.003671	-0.271281	0.962493	-0.830913	-0.536356	-0.148004
395	3935469													8.308418	0.046781	5.280682	0.566282	-0.792713	-0.225680	0.003305	-0.271627	0.962397	-0.824205	-0.545734	-0.151197
396	3935636													8.165582	0.045281	5.362616	0.576229	-0.785883	-0.224385	0.003198	-0.272378	0.962185	-0.817282	-0.555156	-0.154439
397	3935802													8.085707	0.014325	5.435546	0.586242	-0.778767	-0.223255	0.003227	-0.273330	0.961915	-0.810129	-0.564636	-0.157724
398	3935969													8.071229	0.034569	5.733430	0.596105	-0.771726	-0.221581	0.002922	-0.273886	0.961758	-0.802901	-0.573956	-0.161010
399	3936136													7.932067	0.040188	5.734575	0.605523	-0.764988	-0.219399	0.002340	-0.273973	0.961734	-0.795825	-0.582865	-0.164107
400	3936302													7.818352	0.079440	5.926925	0.614692	-0.758251	-0.217276	0.001824	-0.274095	0.961701	-0.788765	-0.591546	-0.167101
401	3936469													7.689284	0.066569	5.975222	0.623549	-0.751531	-0.215381	0.001497	-0.274351	0.961629	-0.781783	-0.599944	-0.169946
402	3936636													7.637370	0.062567	6.068166	0.632057	-0.744867	-0.213725	0.001282	-0.274796	0.961502	-0.774921	-0.607998	-0.172731
403	3936802													7.571957	0.025458	6.196485	0.639957	-0.738708	-0.211577	0.000612	-0.274854	0.961486	-0.768410	-0.615439	-0.175443
404	3936969													7.379339	-0.065829	6.469584	0.647210	-0.733030	-0.209253	-0.000263	-0.274712	0.961527	-0.762312	-0.622254	-0.177989
405	3937136													7.193886	-0.215634	6.640466	0.653956	-0.727733	-0.206750	-0.001227	-0.274306	0.961642	-0.756531	-0.628618	-0.180277
406	3937302													7.191970	-0.273748	6.644016	0.660105	-0.722780	-0.204573	-0.001866	-0.273916	0.961752	-0.751171	-0.634475	-0.182162
407	3937469													7.122674	-0.170552	6.649975	0.665452	-0.718230	-0.203271	-0.001776	-0.273843	0.961773	-0.746439	-0.639653	-0.183504
408	3937636													7.035189	-0.041494	6.669446	0.669889	-0.714315	-0.202491	-0.001304	-0.273861	0.961769	-0.742460	-0.644015	-0.184387
409	3937802													6.922799	0.001600	6.721911	0.673507	-0.710925	-0.202421	-0.000395	-0.274191	0.961675	-0.739181	-0.647615	-0.184951
410	3937969													6.837593	0.069901	6.768941	0.676462	-0.708018	-0.202754	0.000769	-0.274624	0.961551	-0.736477	-0.650609	-0.185228
411	3938136													6.766796	-0.038089	6.780945	0.679073	-0.705607	-0.202433	0.001544	-0.274394	0.961616	-0.734069	-0.653320	-0.185244
412	3938302													6.919802	-0.079962	6.785981	0.681394	-0.703593	-0.201640	0.001946	-0.273754	0.961798	-0.731914	-0.655756	-0.185165
413	3938469													6.975373	0.017588	6.804283	0.683433	-0.701788	-0.201030	0.002405	-0.273212	0.961951	-0.730010	-0.657912	-0.185034
414	3938636													7.114878	0.018219	6.792120	0.685340	-0.700097	-0.200434	0.002905	-0.272606	0.962121	-0.728218	-0.659962	-0.184794
415	3938802													7.099704	0.015282	6.764879	0.687181	-0.698406	-0.200029	0.003580	-0.272079	0.962268	-0.726478	-0.661968	-0.184467
416	3938969													7.089612	0.037123	6.751957	0.689094	-0.696615	-0.199693	0.004240	-0.271682	0.962378	-0.724659	-0.664016	-0.184261
417	3939136													7.151590	0.083423	6.815290	0.691054	-0.694827	-0.199148	0.004627	-0.271264	0.962494	-0.722789	-0.666056	-0.184243
418	3939302													7.133431	0.125806	6.831927	0.692963	-0.693142	-0.198386	0.004811	-0.270712	0.962648	-0.720957	-0.668034	-0.184258
419	3939469													7.194111	0.124581	6.744015	0.694869	-0.691500	-0.197445	0.004806	-0.270087	0.962824	-0.719120	-0.669985	-0.184352
420	3939636													7.245778	0.213643	6.690394	0.696719	-0.689934	-0.196400	0.004693	-0.269399	0.963017	-0.717329	-0.671874	-0.184458
421	3939802													7.257028	0.132908	6.689554	0.698360	-0.688580	-0.195324	0.004548	-0.268621	0.963235	-0.715732	-0.673573	-0.184463
422	3939969													7.207093	0.176409	6.784113	0.699871	-0.687321	-0.194347	0.004404	-0.267935	0.963427	-0.714256	-0.675130	-0.184493
423	3940136													7.157727	0.165967	6.805894	0.701391	-0.686063	-0.193309	0.004196	-0.267226	0.963625	-0.712765	-0.676689	-0.184551
424	3940302													7.113659	0.076126	6.856446	0.703077	-0.684630	-0.192262	0.003964	-0.266589	0.963802	-0.711103	-0.678389	-0.184719
425	3940469													7.128942	0.073312	6.927546	0.704800	-0.683183	-0.191096	0.003660	-0.265869	0.964002	-0.709397	-0.680128	-0.184884
426	3940636													7.038589	0.046804	6.926093	0.706490	-0.681780	-0.189862	0.003177	-0.265214	0.964184	-0.707716	-0.681790	-0.185205
427	3940802													6.912374	0.073443	6.914244	0.708321	-0.680111	-0.189023	0.002872	-0.265001	0.964244	-0.705884	-0.683538	-0.185753
428	3940969													6.898172	-0.000833	6.915502	0.710236	-0.678410	-0.187949	0.002424	-0.264628	0.964347	-0.703959	-0.685370	-0.186304
429	3941136													6.888948	-0.026055	6.996377	0.712075	-0.676769	-0.186906	0.001850	-0.264400	0.964411	-0.702101	-0.687079	-0.187020
430	3941302													6.760002	0.023562	7.047668	0.713841	-0.675146	-0.186036	0.001293	-0.264378	0.964418	-0.700307	-0.688681	-0.187851
431	3941469													6.674403	-0.024165	7.087962	0.715574	-0.673470	-0.185452	0.000950	-0.264547	0.964372	-0.698536	-0.690256	-0.188663
432	3941636													6.680607	-0.056883	7.079156	0.717269	-0.671822	-0.184880	0.000650	-0.264684	0.964335	-0.696796	-0.691808	-0.189413
433	3941802													6.735518	-0.040780	7.156231	0.718729	-0.670405	-0.184351	0.000382	-0.264761	0.964314	-0.695290	-0.693151	-0.190035
434	3941969													6.670795	0.030020	7.215958	0.719899	-0.669193	-0.184192	0.000228	-0.265148	0.964208	-0.694079	-0.694174	-0.190728
435	3942136													6.621002	-0.001830	7.189896	0.720863	-0.668176	-0.184115	0.000077	-0.265571	0.964091	-0.693078	-0.694992	-0.191389
436	3942302													6.638562	0.050338	7.181838	0.721696	-0.667275	-0.184117	-0.000039	-0.266023	0.963967	-0.692210	-0.695684	-0.192014
437	3942469													6.637737	0.046510	7.167280	0.722385	-0.666670	-0.183609	-0.000508	-0.266037	0.963963	-0.691491	-0.696258	-0.192520
438	3942636													6.701409	0.000596	7.205267	0.722887	-0.666283	-0.183035	-0.001061	-0.265967	0.963982	-0.690966	-0.696656	-0.192971
439	3942802													6.662218	0.036414	7.166790	0.723228	-0.666001	-0.182714	-0.001422	-0.266004	0.963971	-0.690608	-0.696911	-0.193328
440	3942969													6.715404	-0.029476	7.153284	0.723496	-0.665755	-0.182547	-0.001633	-0.266084	0.963948	-0.690327	-0.697115	-0.193598
441	3943136													6.719651	0.004752	7.180537	0.723616	-0.665627	-0.182540	-0.001699	-0.266190	0.963919	-0.690201	-0.697197	-0.193751
442	3943302													6.703822	0.001817	7.166018	0.723682	-0.665560	-0.182524	-0.001702	-0.266197	0.963917	-0.690132	-0.697258	-0.193775
443	3943469													6.769270	0.002650	7.137902	0.723770	-0.665478	-0.182474	-0.001670	-0.266128	0.963936	-0.690040	-0.697363	-0.193726
444	3943636													6.725723	0.023142	7.164845	0.723791	-0.665462	-0.182446	-0.001665	-0.266091	0.963947	-0.690017	-0.697392	-0.193702
445	3943802													6.776215	0.013017	7.125164	0.723819	-0.665452	-0.182373	-0.001739	-0.266071	0.963952	-0.689988	-0.697410	-0.193745
446	3943969													6.804164	-0.037947	7.093938	0.723799	-0.665542	-0.182122	-0.002055	-0.266018	0.963966	-0.690008	-0.697343	-0.193911
447	3944136													6.746247	-0.012759	7.136439	0.723646	-0.665754	-0.181956	-0.002403	-0.266067	0.963951	-0.690167	-0.697123	-0.194138
448	3944302													6.757455	-0.026118	7.089950	0.723300	-0.666153	-0.181872	-0.002788	-0.266194	0.963915	-0.690529	-0.696693	-0.194395
449	3944469													6.762563	-0.057864	7.027925	0.722572	-0.666905	-0.182008	-0.003044	-0.266352	0.963871	-0.691289	-0.695912	-0.194489
450	3944636													6.844209	-0.064641	7.081715	0.721369	-0.668128	-0.182296	-0.003303	-0.266540	0.963818	-0.692543	-0.694666	-0.194481
451	3944802													6.755260	-0.029446	7.161369	0.719559	-0.669882	-0.183013	-0.003481	-0.267020	0.963685	-0.694423	-0.692791	-0.194469
452	3944969													6.668609	-0.031043	7.143598	0.717301	-0.672033	-0.183987	-0.003612	-0.267643	0.963511	-0.696754	-0.690463	-0.194408
453	3945136													6.630369	-0.036941	7.062886	0.714715	-0.674463	-0.185153	-0.003691	-0.268358	0.963312	-0.699406	-0.687811	-0.194289
454	3945302													6.667593	-0.052294	6.971288	0.711943	-0.676989	-0.186609	-0.003662	-0.269310	0.963046	-0.702228	-0.684951	-0.194213
455	3945469													6.793319	-0.027288	6.981452	0.708882	-0.679662	-0.188537	-0.003388	-0.270584	0.962691	-0.705319	-0.681795	-0.194115
456	3945636													6.708739	-0.002538	6.985575	0.705383	-0.682681	-0.190742	-0.002978	-0.271948	0.962307	-0.708820	-0.678227	-0.193861
457	3945802													6.740463	-0.007966	6.955541	0.701371	-0.686096	-0.193261	-0.002282	-0.273291	0.961929	-0.712792	-0.674228	-0.193244
458	3945969													6.828797	-0.058056	6.929065	0.696885	-0.689985	-0.195631	-0.001662	-0.274330	0.961634	-0.717181	-0.669823	-0.192324
459	3946136													6.912826	0.036948	6.956255	0.692036	-0.694269	-0.197679	-0.001427	-0.275161	0.961397	-0.721862	-0.665039	-0.191412
460	3946302													6.945719	0.032734	6.867285	0.686884	-0.698876	-0.199407	-0.001622	-0.275849	0.961200	-0.726766	-0.659909	-0.190610
461	3946469													7.056718	0.014450	6.780077	0.681571	-0.703499	-0.201371	-0.001857	-0.276851	0.960911	-0.731750	-0.654555	-0.190000
462	3946636													7.095512	-0.047999	6.712905	0.675834	-0.708436	-0.203388	-0.002050	-0.277752	0.960650	-0.737051	-0.648823	-0.189167
463	3946802													7.191659	-0.144522	6.588219	0.669682	-0.713575	-0.205756	-0.001825	-0.278638	0.960395	-0.742645	-0.642784	-0.187901
464	3946969													7.243896	-0.101176	6.512807	0.663107	-0.718809	-0.208813	-0.000992	-0.279810	0.960055	-0.748524	-0.636412	-0.186257
465	3947136													7.336089	-0.086771	6.449080	0.656196	-0.724132	-0.212225	0.000081	-0.281178	0.959656	-0.754590	-0.629740	-0.184449
466	3947302													7.378265	-0.011592	6.433424	0.648771	-0.729876	-0.215353	0.000720	-0.282404	0.959295	-0.760983	-0.622519	-0.182689
467	3947469													7.496797	-0.027606	6.331762	0.640847	-0.735968	-0.218327	0.001301	-0.283361	0.959013	-0.767667	-0.614864	-0.180634
468	3947636													7.549004	0.066878	6.238507	0.632515	-0.742196	-0.221519	0.002146	-0.284317	0.958728	-0.774545	-0.606885	-0.178242
469	3947802													7.663523	0.054264	6.159156	0.623670	-0.748720	-0.224620	0.002875	-0.285154	0.958477	-0.781683	-0.598419	-0.175689
470	3947969													7.688868	0.036385	6.082967	0.614360	-0.755469	-0.227659	0.003388	-0.286003	0.958223	-0.789019	-0.589465	-0.173149
471	3948136													7.748960	0.001857	5.903599	0.604490	-0.762467	-0.230729	0.003971	-0.286750	0.957997	-0.796603	-0.580016	-0.170309
472	3948302													7.805100	0.050927	5.850104	0.594097	-0.769595	-0.234037	0.004800	-0.287552	0.957753	-0.804379	-0.570121	-0.167139
473	3948469													7.877785	0.095223	5.730538	0.583063	-0.777116	-0.236915	0.005338	-0.287943	0.957633	-0.812410	-0.559624	-0.163740
474	3948636													8.046041	0.093066	5.624370	0.571567	-0.784767	-0.239693	0.005788	-0.288247	0.957539	-0.820535	-0.548684	-0.160210
475	3948802													8.018852	-0.010976	5.482936	0.559701	-0.792422	-0.242494	0.006217	-0.288598	0.957430	-0.828671	-0.537382	-0.156602
476	3948969													8.204315	0.002636	5.327698	0.547436	-0.799821	-0.246173	0.007217	-0.289644	0.957107	-0.836817	-0.525731	-0.152789
477	3949136													8.302635	0.174116	5.296838	0.535611	-0.806794	-0.249408	0.007935	-0.290523	0.956835	-0.844427	-0.514471	-0.149205
478	3949302													8.381235	0.121134	5.267526	0.523998	-0.813461	-0.252403	0.008430	-0.291378	0.956571	-0.851678	-0.503369	-0.145824
479	3949469													8.408190	0.014023	5.162429	0.512957	-0.819288	-0.256207	0.009201	-0.293201	0.956007	-0.858365	-0.492747	-0.142861
480	3949636													8.399856	-0.043452	5.115976	0.502473	-0.824614	-0.259870	0.009708	-0.295169	0.955396	-0.864538	-0.482584	-0.140309
481	3949802													8.471981	0.250386	5.079632	0.491625	-0.830508	-0.261842	0.009191	-0.295723	0.955229	-0.870759	-0.472021	-0.137751
482	3949969													8.581909	0.207140	4.832860	0.480290	-0.836725	-0.263084	0.008372	-0.295557	0.955288	-0.877070	-0.461018	-0.134948
483	3950136													8.741096	-0.156264	4.560346	0.470173	-0.842214	-0.263842	0.007864	-0.294936	0.955485	-0.882539	-0.451318	-0.132048
484	3950302													8.804155	-0.036915	4.571333	0.460783	-0.846975	-0.265164	0.007870	-0.294861	0.955508	-0.887478	-0.442369	-0.129202
485	3950469													8.702881	-0.008495	4.551106	0.451758	-0.851571	-0.265972	0.007712	-0.294390	0.955654	-0.892107	-0.433776	-0.126426
486	3950636													8.699864	0.146929	4.469033	0.442127	-0.856440	-0.266524	0.007261	-0.293717	0.955865	-0.896923	-0.424549	-0.123641
487	3950803													8.789970	0.133855	4.244902	0.431985	-0.861621	-0.266454	0.006544	-0.292440	0.956261	-0.901857	-0.414835	-0.120691
488	3950969													8.909801	0.058767	4.062763	0.422564	-0.866298	-0.266395	0.006026	-0.291235	0.956633	-0.906313	-0.405844	-0.117845
489	3951136													9.055200	0.111268	4.095914	0.414378	-0.870119	-0.266802	0.005887	-0.290587	0.956831	-0.910086	-0.398060	-0.115291
490	3951303													8.996624	0.085537	4.014384	0.406600	-0.873662	-0.267193	0.005891	-0.289947	0.957025	-0.913587	-0.390700	-0.112746
491	3951469													8.965624	0.039439	4.023134	0.398668	-0.877207	-0.267527	0.005964	-0.289226	0.957242	-0.917076	-0.383218	-0.110073
492	3951636													8.985190	0.105421	3.946951	0.390218	-0.880996	-0.267535	0.005746	-0.288235	0.957542	-0.920705	-0.375188	-0.107412
493	3951803													9.194289	0.100634	3.653211	0.382585	-0.884407	-0.267305	0.005433	-0.287158	0.957868	-0.923904	-0.367918	-0.105058
494	3951969													9.108485	0.033483	3.695723	0.375751	-0.887377	-0.267159	0.005223	-0.286251	0.958140	-0.926706	-0.361418	-0.102924
495	3952136													9.122780	0.063501	3.594345	0.368949	-0.890136	-0.267460	0.005209	-0.285777	0.958282	-0.929435	-0.354950	-0.100801
496	3952303													9.155767	-0.007200	3.604803	0.362187	-0.892926	-0.267403	0.005171	-0.284951	0.958528	-0.932091	-0.348549	-0.098588
497	3952469													9.043901	0.027384	3.657826	0.354799	-0.896046	-0.266868	0.005009	-0.283612	0.958926	-0.934929	-0.341563	-0.096137
498	3952636													9.265240	0.009483	3.407716	0.347832	-0.898940	-0.266309	0.004775	-0.282343	0.959302	-0.937545	-0.334947	-0.093916
499	3952803													9.333294	-0.040077	3.292725	0.342062	-0.901277	-0.265883	0.004619	-0.281336	0.959598	-0.939666	-0.329470	-0.092071
500	3952969													9.250084	-0.006011	3.321626	0.337070	-0.903175	-0.265816	0.004659	-0.280735	0.959774	-0.941468	-0.324750	-0.090419
501	3953136													9.264968	0.045668	3.316036	0.331784	-0.905020	-0.266193	0.004818	-0.280547	0.959828	-0.943343	-0.319739	-0.088720
502	3953303													9.301458	0.023888	3.230623	0.325991	-0.906989	-0.266648	0.004983	-0.280403	0.959869	-0.945360	-0.314237	-0.086889
503	3953469													9.189556	0.073514	3.169773	0.318323	-0.909526	-0.267269	0.004983	-0.280325	0.959892	-0.947969	-0.306888	-0.084701
504	3953636													9.615969	0.052873	2.748818	0.311836	-0.911952	-0.266649	0.004865	-0.279106	0.960248	-0.950124	-0.300737	-0.082598
505	3953803													9.507314	0.062627	2.810901	0.306976	-0.913816	-0.265905	0.004802	-0.277904	0.960597	-0.951705	-0.296157	-0.080921
506	3953969													9.445243	0.050754	2.836575	0.302964	-0.915327	-0.265312	0.004825	-0.276919	0.960881	-0.952990	-0.292392	-0.079480
507	3954136													9.388319	0.006961	2.939121	0.299548	-0.916557	-0.264941	0.004962	-0.276192	0.961090	-0.954068	-0.289207	-0.078185
508	3954303													9.357060	0.034877	3.010042	0.296212	-0.917632	-0.264973	0.005239	-0.275858	0.961184	-0.955108	-0.286103	-0.076905
509	3954469													9.383601	0.029285	2.954846	0.292861	-0.918674	-0.265087	0.005501	-0.275619	0.961251	-0.956139	-0.282972	-0.075664
510	3954636													9.419889	0.041986	2.893205	0.290219	-0.919504	-0.265112	0.005825	-0.275333	0.961331	-0.956943	-0.280541	-0.074550
511	3954803													9.371101	0.032015	2.898345	0.287859	-0.920232	-0.265160	0.006208	-0.275081	0.961401	-0.957653	-0.278394	-0.073472
512	3954969													9.374138	-0.001706	2.846076	0.285625	-0.920951	-0.265082	0.006590	-0.274711	0.961504	-0.958319	-0.276376	-0.072395
513	3955136													9.366152	0.021200	2.878351	0.283410	-0.921675	-0.264940	0.007046	-0.274259	0.961630	-0.958973	-0.274402	-0.071233
514	3955303													9.398831	0.072794	2.929861	0.280867	-0.922446	-0.264965	0.007805	-0.273874	0.961734	-0.959715	-0.272187	-0.069722
515	3955469													9.414793	0.092623	2.919677	0.277820	-0.923331	-0.265097	0.008605	-0.273557	0.961817	-0.960595	-0.269493	-0.068054
516	3955636													9.574126	0.076768	2.854287	0.274478	-0.924275	-0.265286	0.009119	-0.273368	0.961866	-0.961550	-0.266431	-0.066605
517	3955803													9.653760	0.098182	2.708051	0.271011	-0.925113	-0.265931	0.009170	-0.273776	0.961750	-0.962533	-0.263083	-0.065713
518	3955969													9.623784	0.045555	2.599278	0.267791	-0.925946	-0.266295	0.009184	-0.273923	0.961708	-0.963433	-0.259982	-0.064850
519	3956136													9.620316	0.076081	2.463404	0.264452	-0.926687	-0.267051	0.009416	-0.274415	0.961565	-0.964353	-0.256803	-0.063844
520	3956303													9.649731	0.102333	2.281892	0.261478	-0.927374	-0.267594	0.009523	-0.274747	0.961469	-0.965162	-0.253952	-0.063009
521	3956469													9.607559	0.055921	2.257529	0.258868	-0.927943	-0.268160	0.009492	-0.275167	0.961350	-0.965866	-0.251408	-0.062424
522	3956636													9.566310	0.087606	2.284759	0.256247	-0.928464	-0.268873	0.009413	-0.275750	0.961183	-0.966565	-0.248831	-0.061920
523	3956803													9.672203	0.141048	2.186178	0.253729	-0.929037	-0.269279	0.009266	-0.276042	0.961101	-0.967231	-0.246354	-0.061432
524	3956969													9.677696	0.167161	2.194970	0.251812	-0.929493	-0.269506	0.009074	-0.276199	0.961058	-0.967734	-0.244451	-0.061116
525	3957136													9.640245	0.131966	2.242276	0.250285	-0.929881	-0.269590	0.008857	-0.276242	0.961047	-0.968132	-0.242924	-0.060903
526	3957303													9.592515	0.129536	2.334131	0.248941	-0.930238	-0.269601	0.008632	-0.276222	0.961055	-0.968480	-0.241573	-0.060734
527	3957469													9.588543	0.086759	2.362530	0.247742	-0.930581	-0.269523	0.008384	-0.276126	0.961085	-0.968790	-0.240361	-0.060606
528	3957636													9.550400	0.101922	2.403833	0.246417	-0.930969	-0.269398	0.008255	-0.275943	0.961138	-0.969129	-0.239064	-0.060312
529	3957803													9.522995	0.070090	2.430568	0.244989	-0.931364	-0.269337	0.008255	-0.275789	0.961183	-0.969491	-0.237702	-0.059877
530	3957969													9.546971	0.056692	2.461171	0.243624	-0.931796	-0.269077	0.008263	-0.275432	0.961285	-0.969834	-0.236416	-0.059402
531	3958136													9.557043	0.065362	2.439946	0.242370	-0.932190	-0.268848	0.008270	-0.275115	0.961376	-0.970149	-0.235232	-0.058971
532	3958303													9.604127	0.031848	2.372345	0.241517	-0.932436	-0.268760	0.008333	-0.274956	0.961421	-0.970361	-0.234439	-0.058637
533	3958469													9.574511	0.040311	2.343855	0.241090	-0.932567	-0.268689	0.008419	-0.274835	0.961454	-0.970466	-0.234059	-0.058409
534	3958636													9.562773	0.049044	2.351218	0.240828	-0.932629	-0.268711	0.008551	-0.274810	0.961461	-0.970530	-0.233844	-0.058207
535	3958803													9.502954	0.057767	2.410809	0.240606	-0.932608	-0.268981	0.008705	-0.275038	0.961394	-0.970584	-0.233658	-0.058057
536	3958969													9.550413	0.085660	2.391678	0.240173	-0.932658	-0.269196	0.008800	-0.275209	0.961344	-0.970690	-0.233258	-0.057891
537	3959136													9.603124	0.072281	2.313406	0.239788	-0.932728	-0.269295	0.008847	-0.275277	0.961324	-0.970785	-0.232896	-0.057756
538	3959303													9.621254	0.073481	2.275059	0.239632	-0.932732	-0.269420	0.008839	-0.275398	0.961290	-0.970824	-0.232737	-0.057749
539	3959469													9.624716	0.078028	2.276973	0.239658	-0.932685	-0.269558	0.008836	-0.275543	0.961248	-0.970817	-0.232753	-0.057795
540	3959636													9.593927	0.097344	2.262274	0.239573	-0.932669	-0.269691	0.008834	-0.275674	0.961210	-0.970838	-0.232662	-0.057804
541	3959803													9.604868	0.094720	2.229470	0.239596	-0.932632	-0.269798	0.008833	-0.275786	0.961178	-0.970832	-0.232678	-0.057840
542	3959969													9.579110	0.092877	2.295038	0.239781	-0.932549	-0.269921	0.008793	-0.275935	0.961136	-0.970787	-0.232836	-0.057964
543	3960136													9.591928	0.090081	2.242757	0.239932	-0.932502	-0.269948	0.008708	-0.275992	0.961120	-0.970751	-0.232954	-0.058099
544	3960303													9.633512	0.037779	2.228303	0.240459	-0.932333	-0.270063	0.008640	-0.276159	0.961073	-0.970621	-0.233432	-0.058350
545	3960469													9.559812	0.057738	2.301507	0.241256	-0.932098	-0.270166	0.008649	-0.276313	0.961029	-0.970423	-0.234190	-0.058601
546	3960636													9.513082	0.076875	2.392260	0.241974	-0.931886	-0.270254	0.008709	-0.276434	0.960993	-0.970244	-0.234889	-0.058775
547	3960803													9.533016	0.056289	2.385602	0.242541	-0.931732	-0.270274	0.008772	-0.276475	0.960981	-0.970101	-0.235449	-0.058883
548	3960969													9.561869	0.066306	2.412401	0.243171	-0.931548	-0.270343	0.008811	-0.276576	0.960952	-0.969943	-0.236058	-0.059047
549	3961136													9.511170	0.085886	2.438614	0.243860	-0.931352	-0.270400	0.008790	-0.276684	0.960921	-0.969771	-0.236706	-0.059286
550	3961303													9.527575	0.092635	2.447688	0.244543	-0.931159	-0.270446	0.008743	-0.276785	0.960892	-0.969599	-0.237344	-0.059545
551	3961469													9.514743	0.075563	2.474027	0.245318	-0.930960	-0.270430	0.008725	-0.276822	0.960882	-0.969403	-0.238081	-0.059787
552	3961636													9.498865	0.086002	2.461980	0.246013	-0.930745	-0.270537	0.008789	-0.276962	0.960841	-0.969227	-0.238757	-0.059956
553	3961803													9.511177	0.107361	2.479221	0.246637	-0.930501	-0.270810	0.008864	-0.277265	0.960753	-0.969067	-0.239358	-0.060136
554	3961969													9.523544	0.118096	2.435290	0.247310	-0.930278	-0.270963	0.008966	-0.277440	0.960701	-0.968895	-0.240021	-0.060273
555	3962136													9.526953	0.111208	2.420625	0.247910	-0.930086	-0.271074	0.009030	-0.277578	0.960661	-0.968741	-0.240605	-0.060416
556	3962303													9.567575	0.115408	2.410067	0.248703	-0.929839	-0.271193	0.009020	-0.277755	0.960610	-0.968538	-0.241353	-0.060692
557	3962469													9.531992	0.121985	2.420738	0.249672	-0.929543	-0.271320	0.008935	-0.277970	0.960548	-0.968289	-0.242247	-0.061096
558	3962636													9.559391	0.106246	2.431837	0.250736	-0.929227	-0.271421	0.008845	-0.278167	0.960492	-0.968015	-0.243231	-0.061528
559	3962803													9.555401	0.086512	2.436684	0.251878	-0.928910	-0.271446	0.008629	-0.278322	0.960449	-0.967720	-0.244259	-0.062087
560	3962969													9.492690	0.065706	2.437474	0.253190	-0.928581	-0.271352	0.008312	-0.278392	0.960431	-0.967381	-0.245427	-0.062767
561	3963136													9.597436	0.091102	2.415468	0.254678	-0.928218	-0.271203	0.008148	-0.278381	0.960436	-0.966992	-0.246812	-0.063334
562	3963303													9.625496	0.021897	2.464833	0.256291	-0.927746	-0.271296	0.008156	-0.278585	0.960377	-0.966565	-0.248349	-0.063832
563	3963469													9.567801	0.051101	2.500922	0.258251	-0.927101	-0.271643	0.008138	-0.279083	0.960232	-0.966044	-0.250192	-0.064529
564	3963636													9.593415	0.006796	2.538308	0.260657	-0.926414	-0.271690	0.007978	-0.279342	0.960159	-0.965398	-0.252440	-0.065421
565	3963803													9.674921	-0.022464	2.531197	0.263537	-0.925714	-0.271296	0.007736	-0.279201	0.960201	-0.964618	-0.255147	-0.066419
566	3963969													9.553282	0.015350	2.611450	0.267018	-0.924702	-0.271345	0.007405	-0.279591	0.960091	-0.963663	-0.258371	-0.067809
567	3964136													9.566913	0.032253	2.733960	0.271149	-0.923399	-0.271685	0.006961	-0.280371	0.959867	-0.962512	-0.262158	-0.069595
568	3964303													9.563636	0.089523	2.771685	0.276215	-0.921783	-0.272069	0.006625	-0.281250	0.959612	-0.961073	-0.266862	-0.071579
569	3964469													9.522717	0.150385	2.862778	0.282460	-0.919901	-0.272025	0.006339	-0.281776	0.959459	-0.959258	-0.272733	-0.073759
570	3964636													9.397175	0.147648	3.006533	0.288837	-0.918190	-0.271110	0.005991	-0.281440	0.959560	-0.957359	-0.278781	-0.075789
571	3964803													9.386313	0.061742	2.841445	0.294359	-0.916935	-0.269412	0.005649	-0.280228	0.959917	-0.955678	-0.284082	-0.077308
572	3964969													9.471719	-0.001793	2.746814	0.300461	-0.915026	-0.269167	0.005829	-0.280440	0.959854	-0.953776	-0.289967	-0.078928
573	3965136													9.323302	0.035009	2.925580	0.306296	-0.913045	-0.269316	0.005826	-0.281111	0.959658	-0.951919	-0.295508	-0.080784
574	3965303													9.362223	0.026515	2.903181	0.311570	-0.911396	-0.268852	0.005603	-0.281169	0.959642	-0.950207	-0.300502	-0.082497
575	3965469													9.276160	0.084228	3.023242	0.315770	-0.910062	-0.268472	0.005451	-0.281204	0.959633	-0.948820	-0.304486	-0.083835
576	3965636													9.434155	0.042280	2.944726	0.319568	-0.908819	-0.268187	0.005566	-0.281223	0.959626	-0.947547	-0.308158	-0.084811
577	3965803													9.531048	-0.013361	2.926741	0.324114	-0.907201	-0.268211	0.005942	-0.281557	0.959526	-0.945999	-0.312590	-0.085866
578	3965969													9.528316	0.016147	3.075495	0.329677	-0.905016	-0.268809	0.006506	-0.282543	0.959233	-0.944071	-0.317986	-0.087260
579	3966136													9.363400	0.025938	3.259602	0.335566	-0.902543	-0.269837	0.007060	-0.284028	0.958790	-0.941990	-0.323642	-0.088938
580	3966303													9.390219	0.010974	3.178811	0.341303	-0.900114	-0.270753	0.007559	-0.285411	0.958375	-0.939923	-0.329143	-0.090607
581	3966469													9.188755	0.000109	3.305327	0.346370	-0.898141	-0.270869	0.008157	-0.285848	0.958240	-0.938062	-0.334115	-0.091683
582	3966636													9.154372	0.041158	3.193449	0.350438	-0.896389	-0.271442	0.009014	-0.286579	0.958014	-0.936543	-0.338171	-0.092348
583	3966803													9.318950	0.136950	3.257853	0.355262	-0.894162	-0.272513	0.009748	-0.287971	0.957589	-0.934716	-0.342852	-0.093589
584	3966969													9.222417	0.158344	3.506167	0.361695	-0.891252	-0.273582	0.010199	-0.289650	0.957078	-0.932241	-0.348960	-0.095675
585	3967136													9.080567	0.114263	3.653234	0.368809	-0.887992	-0.274682	0.010497	-0.291517	0.956508	-0.929446	-0.355652	-0.098192
586	3967303													9.194078	0.154789	3.706199	0.376255	-0.884624	-0.275451	0.010607	-0.293165	0.956003	-0.926456	-0.362622	-0.100922
587	3967470													9.112895	0.172266	3.720558	0.383575	-0.881463	-0.275488	0.010417	-0.294157	0.955700	-0.923451	-0.369453	-0.103649
588	3967636													9.101315	0.151152	3.753377	0.390864	-0.878363	-0.275143	0.010484	-0.294655	0.955546	-0.920389	-0.376373	-0.105961
589	3967803													9.017181	0.153666	3.914794	0.398715	-0.874984	-0.274644	0.010685	-0.295026	0.955429	-0.917012	-0.383879	-0.108282
590	3967970													8.910164	0.179954	4.139881	0.407158	-0.871337	-0.273850	0.010821	-0.295206	0.955372	-0.913294	-0.391951	-0.110767
591	3968136													8.807735	0.152569	4.213026	0.415580	-0.867571	-0.273154	0.010903	-0.295542	0.955267	-0.909491	-0.399969	-0.113362
592	3968303													8.995638	0.132189	4.106272	0.424123	-0.863573	-0.272694	0.011127	-0.296126	0.955084	-0.905536	-0.408108	-0.115985
593	3968470													9.018471	0.139052	4.324698	0.433317	-0.859176	-0.272127	0.011326	-0.296731	0.954894	-0.901170	-0.416854	-0.118847
594	3968636													8.951402	0.160464	4.370582	0.443347	-0.854440	-0.270881	0.011275	-0.296864	0.954853	-0.896279	-0.426386	-0.121980
595	3968803													8.991319	0.077789	4.376729	0.454351	-0.849175	-0.269195	0.011175	-0.296730	0.954896	-0.890752	-0.436867	-0.125330
596	3968970													8.860616	0.048031	4.444008	0.466426	-0.843115	-0.267587	0.011174	-0.296868	0.954853	-0.884490	-0.448359	-0.129046
597	3969136													8.656141	0.110087	4.571314	0.478836	-0.836663	-0.265915	0.010983	-0.297165	0.954763	-0.877836	-0.460095	-0.133104
598	3969303													8.624565	0.106998	4.717668	0.491624	-0.829773	-0.264163	0.010560	-0.297651	0.954616	-0.870744	-0.472102	-0.137570
599	3969470													8.664165	0.166650	4.945645	0.505307	-0.822288	-0.261738	0.009890	-0.297772	0.954586	-0.862883	-0.484948	-0.142334
600	3969636													8.584752	0.218508	5.072799	0.519619	-0.814312	-0.258634	0.009060	-0.297440	0.954697	-0.854350	-0.498422	-0.147178
601	3969803													8.565666	0.068331	5.245901	0.534551	-0.805748	-0.255001	0.008283	-0.296719	0.954929	-0.845096	-0.512570	-0.151938
602	3969970													8.431134	-0.069811	5.199996	0.549325	-0.796667	-0.252120	0.007923	-0.296740	0.954925	-0.835571	-0.526562	-0.156695
603	3970136													8.414547	0.007333	5.153035	0.564511	-0.787051	-0.248751	0.007289	-0.296596	0.954975	-0.825393	-0.540908	-0.161695
604	3970303													8.122520	0.046025	5.201048	0.579732	-0.777092	-0.245029	0.006372	-0.296387	0.955047	-0.814782	-0.555233	-0.166873
605	3970470													7.901714	0.020904	5.298380	0.594473	-0.767114	-0.241118	0.005243	-0.296152	0.955127	-0.804098	-0.569061	-0.172032
606	3970636													7.762860	0.013093	5.405988	0.608413	-0.757361	-0.237146	0.004068	-0.295835	0.955230	-0.793610	-0.582139	-0.176909
607	3970803													7.724098	-0.016364	5.637102	0.621318	-0.748073	-0.233135	0.002966	-0.295286	0.955404	-0.783553	-0.594301	-0.181248
608	3970970													7.704064	0.019026	5.856816	0.632991	-0.739399	-0.229372	0.002012	-0.294714	0.955584	-0.774156	-0.605337	-0.185063
609	3971136													7.640389	-0.053538	6.086370	0.643458	-0.731534	-0.225431	0.000842	-0.293819	0.955861	-0.765481	-0.615246	-0.188444
610	3971303													7.572560	-0.073813	6.247219	0.652641	-0.724409	-0.222018	-0.000118	-0.293125	0.956074	-0.757667	-0.623947	-0.191391
611	3971470													7.464087	-0.074144	6.399854	0.660622	-0.718000	-0.219212	-0.000762	-0.292644	0.956221	-0.750718	-0.631534	-0.193874
612	3971636													7.271193	0.009660	6.533994	0.667555	-0.712280	-0.216858	-0.001234	-0.292315	0.956321	-0.744560	-0.638129	-0.196015
613	3971803													7.147450	-0.000069	6.633525	0.673398	-0.707476	-0.214506	-0.001826	-0.291746	0.956494	-0.739278	-0.643710	-0.197753
614	3971970													7.033733	-0.024681	6.747717	0.678289	-0.703453	-0.212317	-0.002424	-0.291088	0.956693	-0.734791	-0.648400	-0.199147
615	3972136													6.966218	-0.026594	6.772438	0.682234	-0.700201	-0.210416	-0.002977	-0.290452	0.956885	-0.731128	-0.652193	-0.200240
616	3972303													6.960496	-0.009933	6.856898	0.685356	-0.697615	-0.208857	-0.003412	-0.289883	0.957056	-0.728200	-0.655211	-0.201053
617	3972470													6.852252	-0.055236	6.914271	0.687854	-0.695487	-0.207735	-0.003624	-0.289483	0.957176	-0.725840	-0.657645	-0.201643
618	3972636													6.745350	-0.079059	6.923571	0.690117	-0.693493	-0.206897	-0.003672	-0.289240	0.957249	-0.723688	-0.659855	-0.202156
619	3972803													6.661422	-0.127605	6.935426	0.692436	-0.691450	-0.205982	-0.003866	-0.289052	0.957306	-0.721469	-0.662077	-0.202823
620	3972970													6.651000	-0.081553	6.981843	0.694982	-0.689173	-0.205040	-0.004217	-0.289064	0.957300	-0.719015	-0.664442	-0.203801
621	3973136													6.774181	-0.040662	7.024124	0.697661	-0.686778	-0.203976	-0.004732	-0.289123	0.957280	-0.716413	-0.666892	-0.204960
622	3973303													6.824459	-0.066918	7.059234	0.700397	-0.684354	-0.202740	-0.005379	-0.289100	0.957284	-0.713733	-0.669388	-0.206166
623	3973470													6.836186	-0.058584	7.049401	0.703223	-0.681770	-0.201662	-0.005895	-0.289225	0.957243	-0.710945	-0.671967	-0.207408
624	3973636													6.806380	-0.067322	6.994803	0.706004	-0.679211	-0.200577	-0.006459	-0.289381	0.957192	-0.708179	-0.674486	-0.208691
625	3973803													6.848463	-0.119209	7.010481	0.708625	-0.676813	-0.199437	-0.007157	-0.289535	0.957141	-0.705549	-0.676826	-0.210016
626	3973970													6.902165	-0.047378	6.941200	0.710921	-0.674643	-0.198613	-0.007712	-0.289874	0.957034	-0.703229	-0.678844	-0.211280
627	3974136													6.877520	-0.059723	6.996141	0.712901	-0.672757	-0.197913	-0.008196	-0.290197	0.956932	-0.701217	-0.680576	-0.212396
628	3974303													6.913782	-0.074137	6.979890	0.714555	-0.671199	-0.197240	-0.008663	-0.290410	0.956863	-0.699526	-0.682023	-0.213328
629	3974470													6.901721	-0.070844	6.954839	0.716042	-0.669772	-0.196698	-0.009099	-0.290710	0.956768	-0.697998	-0.683296	-0.214255
630	3974636													6.943308	-0.061471	7.067809	0.717428	-0.668431	-0.196207	-0.009554	-0.291065	0.956656	-0.696568	-0.684457	-0.215204
631	3974803													6.909208	-0.096333	7.091830	0.718698	-0.667215	-0.195695	-0.010046	-0.291380	0.956555	-0.695249	-0.685508	-0.216117
632	3974970													6.966840	-0.066925	7.072679	0.719803	-0.666115	-0.195384	-0.010346	-0.291724	0.956447	-0.694102	-0.686431	-0.216876
633	3975136													6.876938	-0.107142	7.096961	0.720805	-0.665105	-0.195129	-0.010578	-0.292037	0.956348	-0.693057	-0.687277	-0.217537
634	3975303													6.806385	-0.069720	7.034146	0.721857	-0.664050	-0.194836	-0.010752	-0.292266	0.956277	-0.691959	-0.688200	-0.218114
635	3975470													6.795259	-0.099201	7.058218	0.722938	-0.662998	-0.194406	-0.010999	-0.292383	0.956238	-0.690825	-0.689163	-0.218668
636	3975636													6.787931	-0.140343	7.058327	0.724021	-0.662006	-0.193756	-0.011455	-0.292398	0.956228	-0.689683	-0.690110	-0.219286
637	3975803													6.732739	-0.137629	7.119209	0.725125	-0.660966	-0.193179	-0.011823	-0.292440	0.956211	-0.688516	-0.691088	-0.219870
638	3975970													6.641649	-0.138026	7.118378	0.726322	-0.659795	-0.192684	-0.012064	-0.292521	0.956183	-0.687249	-0.692172	-0.220425
639	3976136													6.710601	-0.153307	7.118052	0.727748	-0.658442	-0.191929	-0.012481	-0.292512	0.956181	-0.685731	-0.693463	-0.221092
640	3976303													6.701785	-0.148622	7.120043	0.729258	-0.656950	-0.191310	-0.012783	-0.292627	0.956141	-0.684120	-0.694828	-0.221798
641	3976470													6.772869	-0.153942	7.181963	0.730811	-0.655394	-0.190721	-0.013012	-0.292737	0.956105	-0.682456	-0.696250	-0.222463
642	3976636													6.679713	-0.198653	7.229990	0.732333	-0.653896	-0.190023	-0.013321	-0.292761	0.956093	-0.680817	-0.697647	-0.223109
643	3976803													6.660577	-0.184953	7.144630	0.733956	-0.652227	-0.189494	-0.013513	-0.292964	0.956028	-0.679062	-0.699122	-0.223837
644	3976970													6.667110	-0.196911	7.207237	0.735599	-0.650459	-0.189200	-0.013538	-0.293356	0.955908	-0.677282	-0.700603	-0.224598
645	3977136													6.719386	-0.185705	7.226302	0.737179	-0.648842	-0.188606	-0.013787	-0.293514	0.955855	-0.675557	-0.702036	-0.225318
646	3977303													6.674598	-0.174720	7.255829	0.738673	-0.647244	-0.188245	-0.013849	-0.293783	0.955772	-0.673921	-0.703396	-0.225974
647	3977470													6.642783	-0.157161	7.314678	0.740053	-0.645741	-0.187991	-0.013843	-0.294086	0.955679	-0.672406	-0.704650	-0.226578
648	3977636													6.541524	-0.146709	7.310796	0.741415	-0.644280	-0.187636	-0.013912	-0.294314	0.955607	-0.670903	-0.705891	-0.227172
649	3977803													6.559800	-0.115516	7.239511	0.742881	-0.642706	-0.187237	-0.014032	-0.294587	0.955522	-0.669276	-0.707212	-0.227861
650	3977970													6.586778	-0.074082	7.270481	0.744306	-0.641173	-0.186831	-0.014149	-0.294831	0.955445	-0.667689	-0.708500	-0.228516
651	3978136													6.554059	-0.087674	7.369653	0.745551	-0.639815	-0.186524	-0.014197	-0.295061	0.955373	-0.666298	-0.709631	-0.229066
652	3978303													6.495131	-0.154203	7.396819	0.746625	-0.638660	-0.186185	-0.014238	-0.295152	0.955344	-0.665093	-0.710633	-0.229461
653	3978470													6.392015	-0.222370	7.418525	0.747515	-0.637686	-0.185948	-0.014213	-0.295231	0.955320	-0.664093	-0.711474	-0.229753
654	3978636													6.444549	-0.185588	7.429257	0.748214	-0.636919	-0.185765	-0.014202	-0.295307	0.955297	-0.663305	-0.712129	-0.229998
655	3978803													6.335773	-0.172072	7.449369	0.748723	-0.636271	-0.185939	-0.014019	-0.295636	0.955198	-0.662735	-0.712572	-0.230270
656	3978970													6.393891	-0.169571	7.433185	0.749173	-0.635724	-0.185998	-0.013979	-0.295917	0.955111	-0.662227	-0.712943	-0.230579
657	3979136													6.380692	-0.121151	7.430520	0.749574	-0.635234	-0.186057	-0.013889	-0.296119	0.955050	-0.661775	-0.713296	-0.230785
658	3979303													6.427648	-0.133847	7.424332	0.749901	-0.634948	-0.185713	-0.014092	-0.295992	0.955086	-0.661400	-0.713603	-0.230913
659	3979470													6.377038	-0.160640	7.408644	0.750077	-0.634809	-0.185479	-0.014300	-0.295956	0.955094	-0.661196	-0.713742	-0.231067
660	3979636													6.305017	-0.142017	7.371174	0.750262	-0.634700	-0.185103	-0.014632	-0.295847	0.955123	-0.660979	-0.713884	-0.231249
661	3979803													6.402412	-0.153364	7.366040	0.750535	-0.634522	-0.184607	-0.014968	-0.295607	0.955192	-0.660661	-0.714142	-0.231361
662	3979970													6.551133	-0.097210	7.403976	0.750784	-0.634313	-0.184311	-0.015122	-0.295460	0.955235	-0.660374	-0.714388	-0.231419
663	3980136													6.526289	-0.110340	7.497823	0.750807	-0.634361	-0.184050	-0.015317	-0.295290	0.955285	-0.660344	-0.714416	-0.231422
664	3980303													6.369526	-0.141221	7.495855	0.750800	-0.634479	-0.183672	-0.015645	-0.295072	0.955347	-0.660344	-0.714401	-0.231466
665	3980470													6.370959	-0.155883	7.363358	0.750958	-0.634386	-0.183349	-0.015828	-0.294866	0.955408	-0.660160	-0.714569	-0.231473
666	3980636													6.515571	-0.184325	7.340169	0.751086	-0.634263	-0.183251	-0.015780	-0.294734	0.955449	-0.660016	-0.714732	-0.231379
667	3980803													6.494042	-0.196406	7.405297	0.751032	-0.634394	-0.183015	-0.015871	-0.294450	0.955535	-0.660075	-0.714733	-0.231210
668	3980970													6.516512	-0.157822	7.384176	0.750719	-0.634750	-0.183066	-0.015919	-0.294413	0.955546	-0.660430	-0.714432	-0.231126
669	3981136													6.500751	-0.150252	7.418380	0.750200	-0.635328	-0.183190	-0.016081	-0.294500	0.955516	-0.661016	-0.713882	-0.231151
670	3981303													6.469956	-0.139376	7.322956	0.749422	-0.636224	-0.183265	-0.016389	-0.294538	0.955499	-0.661890	-0.713068	-0.231160
671	3981470													6.484872	-0.152889	7.326427	0.748085	-0.637722	-0.183522	-0.016694	-0.294551	0.955490	-0.663393	-0.711724	-0.230995
672	3981636													6.509262	-0.097452	7.364555	0.746121	-0.639843	-0.184134	-0.016884	-0.294650	0.955456	-0.665597	-0.709777	-0.230647
673	3981803													6.437643	-0.134041	7.402805	0.743470	-0.642638	-0.185118	-0.017014	-0.294891	0.955380	-0.668553	-0.707146	-0.230176
674	3981970													6.377483	-0.192372	7.362754	0.740217	-0.645935	-0.186676	-0.016914	-0.295440	0.955211	-0.672156	-0.703906	-0.229615
675	3982136													6.382819	-0.254507	7.271978	0.736434	-0.649667	-0.188674	-0.016667	-0.296232	0.954971	-0.676304	-0.700128	-0.228984
676	3982303													6.273532	-0.196566	7.253097	0.732227	-0.653625	-0.191358	-0.016003	-0.297405	0.954617	-0.680872	-0.695935	-0.228228
677	3982470													6.255661	-0.193500	7.159853	0.727446	-0.657992	-0.194597	-0.015076	-0.298858	0.954178	-0.685999	-0.691180	-0.227323
678	3982636													6.569855	-0.191625	7.191742	0.721919	-0.663122	-0.197742	-0.014298	-0.299997	0.953833	-0.691830	-0.685763	-0.226055
679	3982803													6.598701	-0.207106	7.239559	0.715393	-0.669065	-0.201406	-0.013252	-0.301190	0.953472	-0.698597	-0.679438	-0.224336
680	3982970													6.550199	-0.170406	7.161098	0.707950	-0.675766	-0.205298	-0.012254	-0.302391	0.953105	-0.706157	-0.672235	-0.222358
681	3983136													6.598616	-0.184981	7.049547	0.699865	-0.682953	-0.209198	-0.011302	-0.303434	0.952786	-0.714186	-0.664457	-0.220081
682	3983303													6.666365	-0.140418	6.871280	0.691386	-0.690140	-0.213758	-0.009858	-0.304849	0.952350	-0.722418	-0.656334	-0.217572
683	3983470													7.033628	-0.119050	6.838726	0.682347	-0.697441	-0.219041	-0.007775	-0.306540	0.951826	-0.730987	-0.647772	-0.214589
684	3983636													7.082607	-0.142109	6.776679	0.672566	-0.704861	-0.225446	-0.004995	-0.308959	0.951062	-0.740020	-0.638527	-0.211316
685	3983803													7.202165	-0.151801	6.660715	0.662303	-0.712219	-0.232591	-0.001984	-0.312104	0.950046	-0.749234	-0.628757	-0.208120
686	3983970													7.201654	0.087977	6.651383	0.651926	-0.719692	-0.238822	-0.000034	-0.314979	0.949099	-0.758282	-0.618734	-0.205368
687	3984137													7.335591	0.072385	6.417763	0.641461	-0.727442	-0.243630	0.000523	-0.317161	0.948371	-0.767156	-0.608471	-0.203066
688	3984303													7.523674	0.091651	6.203916	0.630798	-0.735356	-0.247680	0.000497	-0.318814	0.947817	-0.775947	-0.598004	-0.200742
689	3984470													7.678921	0.044624	6.040855	0.619505	-0.743399	-0.252134	0.000848	-0.320559	0.947228	-0.784993	-0.587026	-0.197958
690	3984637													7.783514	0.141287	5.989326	0.607411	-0.751789	-0.256641	0.001253	-0.322161	0.946684	-0.794387	-0.575348	-0.194742
691	3984803													7.836821	0.157902	5.917478	0.595065	-0.760219	-0.260701	0.001413	-0.323394	0.946263	-0.803676	-0.563457	-0.191366
692	3984970													7.871397	0.126640	5.767315	0.582024	-0.768964	-0.264466	0.001192	-0.324420	0.945912	-0.813171	-0.550859	-0.187904
693	3985137													8.115602	0.025134	5.557979	0.568233	-0.777980	-0.268063	0.000938	-0.325154	0.945661	-0.822867	-0.537607	-0.184034
694	3985303													8.265748	0.027828	5.431118	0.554278	-0.786953	-0.271073	0.000821	-0.325161	0.945658	-0.832331	-0.524380	-0.179583
695	3985470													8.291081	-0.013006	5.334411	0.540335	-0.795652	-0.273817	0.000857	-0.324891	0.945751	-0.841450	-0.511257	-0.174868
696	3985637													8.409053	-0.055913	5.211567	0.527213	-0.803704	-0.275872	0.000869	-0.324147	0.946006	-0.849733	-0.498987	-0.170196
697	3985803													8.313262	-0.123433	5.068889	0.514123	-0.811538	-0.277638	0.000979	-0.323139	0.946351	-0.857716	-0.486813	-0.165339
698	3985970													8.456961	-0.136001	4.950358	0.500641	-0.819260	-0.279593	0.001306	-0.322269	0.946647	-0.865654	-0.474295	-0.160270
699	3986137													8.585133	-0.085671	4.869103	0.487828	-0.826491	-0.280957	0.001532	-0.321040	0.947064	-0.872938	-0.462435	-0.155346
700	3986303													8.596437	-0.084349	4.766566	0.475851	-0.833270	-0.281474	0.001624	-0.319196	0.947687	-0.879525	-0.451415	-0.150536
701	3986470													8.630878	-0.066333	4.635735	0.464394	-0.839591	-0.281825	0.001781	-0.317334	0.948312	-0.885627	-0.440892	-0.145873
702	3986637													8.679118	-0.083406	4.482492	0.453063	-0.845591	-0.282328	0.001944	-0.315758	0.948838	-0.891476	-0.430432	-0.141415
703	3986803													8.692275	-0.131844	4.457379	0.441683	-0.851550	-0.282452	0.001695	-0.314032	0.949411	-0.897170	-0.419817	-0.137259
704	3986970													8.961218	0.042001	4.190786	0.431109	-0.856948	-0.282464	0.001390	-0.312418	0.949944	-0.902299	-0.409922	-0.133495
705	3987137													8.948428	-0.082682	4.066164	0.421302	-0.861902	-0.282189	0.001115	-0.310658	0.950521	-0.906920	-0.400771	-0.129920
706	3987303													8.985899	-0.046113	3.990583	0.411453	-0.866639	-0.282211	0.001114	-0.309157	0.951010	-0.911430	-0.391611	-0.126238
707	3987470													9.095375	-0.026461	3.800157	0.401292	-0.871206	-0.282780	0.001222	-0.308219	0.951315	-0.915949	-0.382101	-0.122622
708	3987637													9.112967	-0.028509	3.788894	0.390817	-0.875778	-0.283326	0.001240	-0.307305	0.951610	-0.920467	-0.372257	-0.119014
709	3987803													9.422166	-0.034727	3.595113	0.381600	-0.879803	-0.283424	0.001333	-0.306103	0.951997	-0.924327	-0.363660	-0.115636
710	3987970													9.331056	-0.003932	3.559447	0.373544	-0.883109	-0.283871	0.001509	-0.305444	0.952209	-0.927611	-0.356120	-0.112765
711	3988137													9.227842	-0.001895	3.561526	0.366135	-0.886257	-0.283715	0.001486	-0.304328	0.952566	-0.930560	-0.349190	-0.110108
712	3988303													9.209710	0.102135	3.510138	0.357712	-0.889800	-0.283369	0.001447	-0.302919	0.953015	-0.933831	-0.341315	-0.107070
713	3988470													9.340460	0.102844	3.143306	0.348847	-0.893410	-0.283063	0.001378	-0.301547	0.953450	-0.937178	-0.332999	-0.103963
714	3988637													9.398732	0.096636	3.059484	0.341432	-0.896174	-0.283364	0.001468	-0.300973	0.953632	-0.939905	-0.326017	-0.101446
715	3988803													9.293263	0.101898	3.223649	0.335083	-0.898433	-0.283791	0.001585	-0.300666	0.953728	-0.942187	-0.320028	-0.099324
716	3988970													9.276587	0.135798	3.357450	0.328990	-0.900617	-0.283998	0.001608	-0.300204	0.953874	-0.944332	-0.314271	-0.097316
717	3989137													9.363063	0.101761	3.133092	0.322759	-0.903043	-0.283443	0.001455	-0.298997	0.954253	-0.946480	-0.308406	-0.095190
718	3989303													9.372360	0.107654	3.161442	0.316812	-0.905260	-0.283080	0.001156	-0.298085	0.954539	-0.948488	-0.302736	-0.093390
719	3989470													9.398417	0.070139	2.849396	0.310828	-0.907395	-0.282879	0.000907	-0.297338	0.954772	-0.950466	-0.297026	-0.091598
720	3989637													9.511979	-0.055206	2.815952	0.306754	-0.908947	-0.282343	0.001052	-0.296321	0.955088	-0.951788	-0.293274	-0.089942
721	3989803													9.274670	-0.025556	3.090248	0.302987	-0.910302	-0.282044	0.001264	-0.295571	0.955320	-0.952994	-0.289806	-0.088404
722	3989970													9.285287	-0.018053	3.092107	0.298779	-0.911883	-0.281424	0.001333	-0.294495	0.955652	-0.954321	-0.285904	-0.086774
723	3990137													9.237691	-0.053730	3.014730	0.292565	-0.913899	-0.281415	0.001215	-0.293936	0.955824	-0.956245	-0.279983	-0.084885
724	3990303													9.713760	-0.004774	2.540222	0.288160	-0.915263	-0.281526	0.001209	-0.293649	0.955913	-0.957582	-0.275796	-0.083511
725	3990470													9.535030	0.042532	2.592817	0.285625	-0.916136	-0.281272	0.001336	-0.293117	0.956076	-0.958341	-0.273455	-0.082497
726	3990637													9.443284	-0.020732	2.757961	0.283476	-0.917025	-0.280547	0.001539	-0.292112	0.956383	-0.958978	-0.271543	-0.081396
727	3990803													9.395133	-0.030218	2.842141	0.281062	-0.917937	-0.279993	0.001913	-0.291217	0.956655	-0.959688	-0.269415	-0.080094
728	3990970													9.423272	-0.046822	2.819973	0.278435	-0.918834	-0.279674	0.002174	-0.290585	0.956847	-0.960453	-0.267028	-0.078911
729	3991137													9.441901	-0.040468	2.828258	0.276008	-0.919628	-0.279471	0.002208	-0.290159	0.956976	-0.961153	-0.264750	-0.078056
730	3991303													9.462270	-0.060953	2.728362	0.273844	-0.920322	-0.279316	0.002319	-0.289785	0.957089	-0.961771	-0.262741	-0.077222
731	3991470													9.455710	-0.046872	2.724238	0.272061	-0.920906	-0.279132	0.002594	-0.289371	0.957213	-0.962277	-0.261144	-0.076338
732	3991637													9.443706	-0.045550	2.750519	0.270344	-0.921482	-0.278901	0.003052	-0.288866	0.957365	-0.962759	-0.259669	-0.075281
733	3991803													9.445947	-0.047725	2.728782	0.268317	-0.922089	-0.278850	0.003573	-0.288510	0.957470	-0.963324	-0.257902	-0.074117
734	3991970													9.499275	-0.028563	2.693765	0.266058	-0.922775	-0.278745	0.003982	-0.288113	0.957588	-0.963949	-0.255884	-0.072980
735	3992137													9.525920	0.073450	2.600055	0.263532	-0.923535	-0.278628	0.004246	-0.287725	0.957704	-0.964641	-0.253568	-0.071903
736	3992303													9.622507	0.176996	2.477037	0.261104	-0.924176	-0.278788	0.004311	-0.287688	0.957715	-0.965301	-0.251265	-0.071133
737	3992470													9.652666	0.203974	2.441384	0.258967	-0.924728	-0.278951	0.004181	-0.287727	0.957703	-0.965877	-0.249179	-0.070646
738	3992637													9.618790	0.113962	2.406857	0.257168	-0.925262	-0.278845	0.004017	-0.287524	0.957765	-0.966358	-0.247427	-0.070225
739	3992803													9.580436	0.072732	2.449310	0.255425	-0.925709	-0.278964	0.003863	-0.287555	0.957756	-0.966821	-0.245712	-0.069873
740	3992970													9.635036	0.071253	2.433580	0.253616	-0.926119	-0.279254	0.003615	-0.287783	0.957689	-0.967298	-0.243895	-0.069638
741	3993137													9.659884	0.048655	2.369766	0.251899	-0.926546	-0.279392	0.003355	-0.287864	0.957665	-0.967748	-0.242173	-0.069404
742	3993303													9.590436	-0.008155	2.354767	0.250318	-0.926944	-0.279491	0.003169	-0.287895	0.957657	-0.968159	-0.240604	-0.069127
743	3993470													9.656710	-0.022175	2.292702	0.248868	-0.927268	-0.279710	0.003136	-0.288024	0.957618	-0.968532	-0.239198	-0.068772
744	3993637													9.685443	0.001747	2.281810	0.247648	-0.927569	-0.279797	0.003095	-0.288034	0.957615	-0.968845	-0.238018	-0.068461
745	3993803													9.569762	0.072897	2.280985	0.246775	-0.927767	-0.279912	0.002955	-0.288123	0.957589	-0.969068	-0.237136	-0.068360
746	3993970													9.599668	0.077141	2.313391	0.246009	-0.927947	-0.279988	0.002769	-0.288192	0.957569	-0.969264	-0.236346	-0.068329
747	3994137													9.574399	0.082543	2.388663	0.245527	-0.928089	-0.279942	0.002562	-0.288159	0.957579	-0.969386	-0.235829	-0.068373
748	3994303													9.482238	0.078140	2.453334	0.244552	-0.928360	-0.279898	0.002382	-0.288087	0.957601	-0.969633	-0.234850	-0.068240
749	3994470													9.597023	0.028809	2.374128	0.243379	-0.928654	-0.279944	0.002254	-0.288080	0.957604	-0.969929	-0.233691	-0.068020
750	3994637													9.643042	-0.022707	2.342212	0.242467	-0.928979	-0.279656	0.002101	-0.287754	0.957702	-0.970158	-0.232798	-0.067819
751	3994803													9.610109	-0.000298	2.339838	0.241809	-0.929272	-0.279251	0.001991	-0.287316	0.957834	-0.970322	-0.232169	-0.067625
752	3994970													9.548716	0.004747	2.341067	0.241362	-0.929512	-0.278840	0.001822	-0.286900	0.957959	-0.970434	-0.231722	-0.067554
753	3995137													9.551370	-0.002568	2.340019	0.240858	-0.929695	-0.278666	0.001631	-0.286731	0.958010	-0.970559	-0.231199	-0.067545
754	3995303													9.510270	0.012377	2.372133	0.240281	-0.929857	-0.278623	0.001473	-0.286682	0.958025	-0.970702	-0.230606	-0.067515
755	3995470													9.497923	-0.004138	2.337027	0.239369	-0.930138	-0.278472	0.001368	-0.286487	0.958083	-0.970928	-0.229716	-0.067304
756	3995637													9.562568	-0.015151	2.278935	0.238593	-0.930357	-0.278404	0.001365	-0.286362	0.958120	-0.971119	-0.228981	-0.067054
757	3995803													9.576424	-0.015097	2.328288	0.237943	-0.930464	-0.278604	0.001382	-0.286518	0.958074	-0.971278	-0.228352	-0.066889
758	3995970													9.571549	-0.007287	2.308100	0.237511	-0.930484	-0.278905	0.001517	-0.286765	0.958000	-0.971384	-0.227959	-0.066698
759	3996137													9.563054	-0.007772	2.322111	0.237387	-0.930378	-0.279364	0.001666	-0.287194	0.957871	-0.971414	-0.227851	-0.066626
760	3996303													9.520428	-0.024843	2.318470	0.237324	-0.930140	-0.280208	0.001908	-0.288002	0.957628	-0.971429	-0.227803	-0.066575
761	3996470													9.535410	-0.023037	2.354404	0.237242	-0.929900	-0.281073	0.002148	-0.288830	0.957378	-0.971448	-0.227734	-0.066525
762	3996637													9.564179	-0.046752	2.306404	0.237316	-0.929737	-0.281551	0.002292	-0.289294	0.957237	-0.971430	-0.227813	-0.066523
763	3996803													9.508460	-0.058278	2.321370	0.237607	-0.929577	-0.281833	0.002372	-0.289587	0.957149	-0.971359	-0.228094	-0.066603
764	3996970													9.623670	-0.004887	2.308336	0.238036	-0.929331	-0.282282	0.002596	-0.290026	0.957015	-0.971253	-0.228537	-0.066624
765	3997137													9.651774	0.008274	2.329429	0.238839	-0.928996	-0.282705	0.003013	-0.290420	0.956895	-0.971054	-0.229396	-0.066565
766	3997303													9.547194	-0.021599	2.401295	0.240042	-0.928625	-0.282904	0.003316	-0.290639	0.956827	-0.970757	-0.230617	-0.066687
767	3997470													9.459287	-0.005369	2.467619	0.241167	-0.928293	-0.283038	0.003426	-0.290830	0.956768	-0.970478	-0.231711	-0.066958
768	3997637													9.497987	0.042533	2.429655	0.241979	-0.928133	-0.282870	0.003357	-0.290732	0.956799	-0.970276	-0.232475	-0.067235
769	3997803													9.495797	0.022266	2.423311	0.242617	-0.928015	-0.282711	0.003340	-0.290617	0.956834	-0.970116	-0.233088	-0.067409
770	3997970													9.488336	0.042350	2.402242	0.243029	-0.927878	-0.282805	0.003512	-0.290702	0.956807	-0.970013	-0.233525	-0.067391
771	3998137													9.451795	0.104239	2.389825	0.243157	-0.927816	-0.282898	0.003904	-0.290713	0.956802	-0.969979	-0.233758	-0.067067
772	3998303													9.504754	0.124404	2.391095	0.243057	-0.927853	-0.282865	0.004655	-0.290490	0.956867	-0.970001	-0.233890	-0.066286
773	3998470													9.507357	0.168644	2.380112	0.242664	-0.927953	-0.282874	0.005616	-0.290241	0.956937	-0.970094	-0.233803	-0.065220
774	3998637													9.596898	0.089135	2.324992	0.242160	-0.928185	-0.282545	0.006566	-0.289638	0.957114	-0.970214	-0.233629	-0.064044
775	3998803													9.559394	0.080302	2.296602	0.241739	-0.928283	-0.282582	0.007380	-0.289452	0.957164	-0.970313	-0.233470	-0.063122
776	3998970													9.551968	0.149115	2.338490	0.241369	-0.928324	-0.282765	0.007943	-0.289480	0.957151	-0.970401	-0.233273	-0.062498
777	3999137													9.521614	0.065720	2.330772	0.240727	-0.928430	-0.282965	0.008449	-0.289522	0.957134	-0.970556	-0.232799	-0.061852
778	3999303													9.530844	0.065045	2.385982	0.239849	-0.928551	-0.283313	0.009046	-0.289681	0.957081	-0.970768	-0.232118	-0.061080
779	3999470													9.580228	0.052668	2.368040	0.238961	-0.928664	-0.283692	0.009731	-0.289851	0.957022	-0.970980	-0.231452	-0.060226
780	3999637													9.511146	-0.003551	2.335315	0.238158	-0.928664	-0.284365	0.010199	-0.290382	0.956857	-0.971173	-0.230784	-0.059685
781	3999803													9.567847	0.066157	2.338509	0.237506	-0.928598	-0.285125	0.010458	-0.291062	0.956647	-0.971330	-0.230191	-0.059417
782	3999970													9.598183	0.087115	2.317917	0.237051	-0.928533	-0.285716	0.010518	-0.291628	0.956474	-0.971440	-0.229738	-0.059364
783	4000137													9.580511	0.097547	2.365520	0.236850	-0.928451	-0.286148	0.010458	-0.292075	0.956338	-0.971490	-0.229501	-0.059468
784	4000303													9.539506	0.081749	2.356016	0.236721	-0.928387	-0.286462	0.010411	-0.292401	0.956239	-0.971522	-0.229344	-0.059552
785	4000470													9.561095	0.092503	2.354249	0.236616	-0.928376	-0.286584	0.010308	-0.292544	0.956196	-0.971549	-0.229205	-0.059651
786	4000637													9.598311	0.075796	2.295591	0.236489	-0.928470	-0.286384	0.010132	-0.292372	0.956251	-0.971581	-0.229045	-0.059735
787	4000804													9.574430	0.108699	2.313365	0.236431	-0.928555	-0.286159	0.009913	-0.292188	0.956310	-0.971598	-0.228938	-0.059877
788	4000970													9.534698	0.108860	2.344769	0.236419	-0.928662	-0.285820	0.009587	-0.291915	0.956396	-0.971604	-0.228850	-0.060111
789	4001137													9.578900	0.117141	2.333049	0.236156	-0.928875	-0.285345	0.009308	-0.291475	0.956533	-0.971671	-0.228547	-0.060188
790	4001304													9.574734	0.143452	2.306815	0.235973	-0.929059	-0.284896	0.009111	-0.291047	0.956665	-0.971717	-0.228343	-0.060215
791	4001470													9.563040	0.153154	2.271370	0.235693	-0.929256	-0.284486	0.008937	-0.290648	0.956788	-0.971786	-0.228051	-0.060199
792	4001637													9.569754	0.119812	2.250753	0.235482	-0.929408	-0.284164	0.008771	-0.290342	0.956883	-0.971839	-0.227822	-0.060219
793	4001804													9.582210	0.123653	2.243660	0.235393	-0.929507	-0.283914	0.008650	-0.290107	0.956955	-0.971862	-0.227716	-0.060249
794	4001970													9.586403	0.094662	2.240987	0.235432	-0.929581	-0.283639	0.008543	-0.289852	0.957033	-0.971853	-0.227739	-0.060299
795	4002137													9.562139	0.070666	2.271067	0.235505	-0.929639	-0.283389	0.008470	-0.289616	0.957105	-0.971836	-0.227803	-0.060332
796	4002304													9.579107	0.076270	2.272791	0.235565	-0.929667	-0.283246	0.008477	-0.289471	0.957149	-0.971822	-0.227872	-0.060308
797	4002470													9.553206	0.079953	2.304892	0.235630	-0.929622	-0.283340	0.008563	-0.289552	0.957124	-0.971805	-0.227953	-0.060267
798	4002637													9.565322	0.048652	2.301121	0.235544	-0.929575	-0.283566	0.008658	-0.289757	0.957061	-0.971825	-0.227885	-0.060202
799	4002804													9.579556	0.035288	2.305541	0.235568	-0.929506	-0.283772	0.008760	-0.289946	0.957003	-0.971818	-0.227925	-0.060160
800	4002970													9.562536	0.064261	2.318982	0.235693	-0.929420	-0.283950	0.008830	-0.290122	0.956949	-0.971787	-0.228054	-0.060173
801	4003137													9.526115	0.071646	2.327596	0.235818	-0.929382	-0.283970	0.008889	-0.290136	0.956944	-0.971757	-0.228189	-0.060158
802	4003304													9.536621	0.057931	2.326556	0.235962	-0.929352	-0.283950	0.008921	-0.290117	0.956950	-0.971721	-0.228336	-0.060166
803	4003470													9.535810	0.031928	2.363877	0.236087	-0.929331	-0.283912	0.008955	-0.290078	0.956961	-0.971691	-0.228469	-0.060161
804	4003637													9.563391	0.076490	2.307780	0.236122	-0.929259	-0.284119	0.008966	-0.290291	0.956897	-0.971682	-0.228491	-0.060213
805	4003804													9.573352	0.109115	2.292768	0.236207	-0.929137	-0.284447	0.008862	-0.290659	0.956786	-0.971662	-0.228520	-0.060422
806	4003970													9.533002	0.124506	2.320681	0.236029	-0.929064	-0.284833	0.008670	-0.291090	0.956656	-0.971707	-0.228268	-0.060651
807	4004137													9.517265	-0.045209	2.288551	0.235597	-0.929104	-0.285061	0.008574	-0.291319	0.956588	-0.971813	-0.227814	-0.060667
808	4004304													9.583696	-0.166793	2.288075	0.235242	-0.929143	-0.285228	0.008554	-0.291473	0.956541	-0.971899	-0.227458	-0.060619
809	4004470													9.597416	-0.069828	2.284825	0.235186	-0.928896	-0.286077	0.008348	-0.292392	0.956262	-0.971915	-0.227288	-0.061012
810	4004637													9.521351	0.010304	2.359442	0.235210	-0.928521	-0.287272	0.007880	-0.293732	0.955855	-0.971913	-0.227090	-0.061772
811	4004804													9.486090	0.097737	2.368562	0.235023	-0.928170	-0.288556	0.007499	-0.295131	0.955427	-0.971961	-0.226711	-0.062403
812	4004970													9.509146	0.204187	2.411166	0.234697	-0.927993	-0.289389	0.007295	-0.296014	0.955156	-0.972041	-0.226283	-0.062704
813	4005137													9.497858	0.221527	2.390508	0.234180	-0.927987	-0.289828	0.007193	-0.296455	0.955020	-0.972167	-0.225732	-0.062749
814	4005304													9.476235	0.225375	2.347330	0.233509	-0.928134	-0.289897	0.007097	-0.296504	0.955005	-0.972329	-0.225060	-0.062649
815	4005470													9.634482	0.204683	2.285501	0.233002	-0.928334	-0.289665	0.007157	-0.296218	0.955093	-0.972450	-0.224612	-0.062375
816	4005637													9.611459	0.175128	2.269326	0.232605	-0.928564	-0.289247	0.007284	-0.295732	0.955243	-0.972544	-0.224301	-0.062025
817	4005804													9.613250	0.143193	2.301228	0.232620	-0.928728	-0.288709	0.007398	-0.295154	0.955421	-0.972540	-0.224386	-0.061788
818	4005970													9.543283	0.092232	2.311076	0.232734	-0.928870	-0.288159	0.007366	-0.294603	0.955591	-0.972512	-0.224521	-0.061722
819	4006137													9.560493	0.099799	2.348243	0.232813	-0.929025	-0.287594	0.007353	-0.294030	0.955768	-0.972494	-0.224629	-0.061623
820	4006304													9.549090	0.068872	2.275876	0.232796	-0.929201	-0.287040	0.007442	-0.293439	0.955949	-0.972497	-0.224678	-0.061397
821	4006470													9.547467	0.077795	2.268762	0.232682	-0.929361	-0.286612	0.007560	-0.292964	0.956094	-0.972524	-0.224632	-0.061141
822	4006637													9.522995	0.049541	2.229943	0.232475	-0.929498	-0.286337	0.007647	-0.292647	0.956190	-0.972572	-0.224480	-0.060925
823	4006804													9.563871	0.049870	2.215964	0.232283	-0.929543	-0.286348	0.007702	-0.292633	0.956194	-0.972618	-0.224313	-0.060814
824	4006970													9.578334	0.076636	2.227008	0.232139	-0.929592	-0.286303	0.007718	-0.292574	0.956212	-0.972652	-0.224184	-0.060743
825	4007137													9.604738	0.033168	2.200304	0.231962	-0.929660	-0.286227	0.007705	-0.292487	0.956238	-0.972694	-0.224017	-0.060683
826	4007304													9.605003	0.018107	2.219254	0.231863	-0.929689	-0.286212	0.007649	-0.292479	0.956241	-0.972718	-0.223907	-0.060704
827	4007470													9.607817	0.027842	2.241943	0.231797	-0.929719	-0.286170	0.007558	-0.292452	0.956250	-0.972735	-0.223819	-0.060763
828	4007637													9.591287	0.000621	2.220691	0.231670	-0.929787	-0.286052	0.007412	-0.292356	0.956281	-0.972766	-0.223662	-0.060838
829	4007804													9.583499	0.024940	2.288108	0.231521	-0.929861	-0.285933	0.007276	-0.292255	0.956313	-0.972803	-0.223487	-0.060898
830	4007970													9.584991	0.048370	2.237986	0.231216	-0.929959	-0.285858	0.007323	-0.292148	0.956345	-0.972875	-0.223216	-0.060739
831	4008137													9.523013	0.031533	2.219383	0.230819	-0.930085	-0.285769	0.007325	-0.292030	0.956381	-0.972969	-0.222844	-0.060593
832	4008304													9.566514	0.080224	2.258833	0.230551	-0.930171	-0.285706	0.007252	-0.291965	0.956402	-0.973033	-0.222571	-0.060568
833	4008470													9.608521	0.060664	2.255063	0.230351	-0.930272	-0.285539	0.007159	-0.291802	0.956452	-0.973081	-0.222364	-0.060557
834	4008637													9.558219	0.072179	2.263750	0.230342	-0.930305	-0.285437	0.007109	-0.291708	0.956481	-0.973084	-0.222347	-0.060579
835	4008804													9.537413	0.083562	2.247811	0.230310	-0.930318	-0.285424	0.007094	-0.291696	0.956485	-0.973091	-0.222313	-0.060581
836	4008970													9.575868	0.095657	2.253696	0.230362	-0.930257	-0.285579	0.007122	-0.291852	0.956437	-0.973079	-0.222361	-0.060607
837	4009137													9.558464	0.092999	2.278362	0.230416	-0.930212	-0.285682	0.007164	-0.291953	0.956406	-0.973066	-0.222417	-0.060607
838	4009304													9.584351	0.093046	2.284354	0.230405	-0.930185	-0.285778	0.007234	-0.292034	0.956381	-0.973068	-0.222422	-0.060557
839	4009470													9.580001	0.103667	2.279045	0.230348	-0.930188	-0.285815	0.007339	-0.292044	0.956377	-0.973081	-0.222397	-0.060445
840	4009637													9.566394	0.093194	2.285484	0.230312	-0.930172	-0.285897	0.007472	-0.292097	0.956360	-0.973088	-0.222397	-0.060323
841	4009804													9.580763	0.123665	2.268474	0.230275	-0.930160	-0.285964	0.007594	-0.292134	0.956347	-0.973096	-0.222394	-0.060207
842	4009970													9.549829	0.098596	2.279546	0.230236	-0.930168	-0.285970	0.007780	-0.292096	0.956357	-0.973104	-0.222413	-0.060015
843	4010137													9.539898	0.090067	2.257148	0.230132	-0.930195	-0.285966	0.007973	-0.292042	0.956372	-0.973127	-0.222372	-0.059792
844	4010304													9.579741	0.091079	2.241270	0.230001	-0.930252	-0.285885	0.008130	-0.291914	0.956410	-0.973156	-0.222300	-0.059577
845	4010470													9.566819	0.048712	2.215625	0.229940	-0.930303	-0.285769	0.008232	-0.291767	0.956454	-0.973170	-0.222279	-0.059431
846	4010637													9.572742	0.039575	2.238523	0.229863	-0.930326	-0.285756	0.008261	-0.291743	0.956461	-0.973188	-0.222215	-0.059375
847	4010804													9.609607	0.042717	2.241262	0.229860	-0.930319	-0.285781	0.008212	-0.291779	0.956451	-0.973189	-0.222196	-0.059428
848	4010970													9.568239	0.045651	2.225770	0.229899	-0.930300	-0.285813	0.008113	-0.291837	0.956434	-0.973181	-0.222202	-0.059545
849	4011137													9.569849	0.056653	2.239240	0.229902	-0.930288	-0.285849	0.007999	-0.291900	0.956415	-0.973181	-0.222168	-0.059667
850	4011304													9.581253	0.053431	2.242020	0.229908	-0.930289	-0.285839	0.007877	-0.291918	0.956411	-0.973180	-0.222138	-0.059786
851	4011470													9.578903	0.068674	2.242166	0.229840	-0.930315	-0.285811	0.007716	-0.291922	0.956411	-0.973198	-0.222027	-0.059917
852	4011637													9.582563	0.078763	2.239863	0.229783	-0.930349	-0.285746	0.007561	-0.291887	0.956423	-0.973213	-0.221930	-0.060036
853	4011804													9.568730	0.077707	2.219261	0.229693	-0.930409	-0.285621	0.007386	-0.291793	0.956453	-0.973235	-0.221800	-0.060150
854	4011970													9.577140	0.075807	2.224300	0.229597	-0.930456	-0.285548	0.007177	-0.291759	0.956465	-0.973259	-0.221650	-0.060309
855	4012137													9.582105	0.094542	2.228146	0.229616	-0.930443	-0.285573	0.007048	-0.291815	0.956449	-0.973256	-0.221629	-0.060448
856	4012304													9.567281	0.087300	2.252946	0.229669	-0.930416	-0.285619	0.006962	-0.291886	0.956428	-0.973244	-0.221650	-0.060559
857	4012470													9.565351	0.099620	2.229097	0.229699	-0.930381	-0.285710	0.006949	-0.291984	0.956398	-0.973237	-0.221669	-0.060603
858	4012637													9.569548	0.099107	2.213247	0.229742	-0.930369	-0.285714	0.006937	-0.291994	0.956395	-0.973227	-0.221706	-0.060629
859	4012804													9.602392	0.101214	2.230806	0.229794	-0.930374	-0.285656	0.006961	-0.291932	0.956414	-0.973214	-0.221767	-0.060608
860	4012970													9.586521	0.072214	2.255099	0.229858	-0.930362	-0.285642	0.006988	-0.291915	0.956419	-0.973199	-0.221836	-0.060597
861	4013137													9.592576	0.063079	2.275244	0.230009	-0.930311	-0.285688	0.007026	-0.291964	0.956404	-0.973163	-0.221988	-0.060617
862	4013304													9.550688	0.063739	2.235086	0.230133	-0.930311	-0.285587	0.007046	-0.291863	0.956434	-0.973134	-0.222119	-0.060612
863	4013470													9.552876	0.044964	2.235741	0.230246	-0.930342	-0.285397	0.007071	-0.291669	0.956493	-0.973107	-0.222246	-0.060577
