// Start Time: Unknown
// Update Rate: 60.0Hz
//Filter Profile: human (46.1)
// Option Flags: AHS Disabled ICC Disabled
// Firmware Version: 4.0.2
0	sampleTimeFine	Year	Month	Day	Second	UTC_Nano	UTC_Year	UTC_Month	UTC_Day	UTC_Hour	UTC_Minute	UTC_Second	UTC_Valid	Acc_X	Acc_Y	Acc_Z	Mat[1][1]	Mat[2][1]	Mat[3][1]	Mat[1][2]	Mat[2][2]	Mat[3][2]	Mat[1][3]	Mat[2][3]	Mat[3][3]
0	2792691													-0.181094	-0.092776	0.157756	-0.513120	-0.856888	0.049506	-0.061237	0.094079	0.993680	-0.856130	0.506845	-0.100747
1	2792857													8.493845	-0.659199	-5.037473	-0.513068	-0.857000	0.048089	-0.062965	0.093451	0.993631	-0.856035	0.506772	-0.101908
2	2793024													8.444180	-0.633820	-5.031848	-0.512015	-0.857737	0.046138	-0.065061	0.092283	0.993605	-0.856509	0.505739	-0.103055
3	2793191													8.428486	-0.559918	-5.017529	-0.511034	-0.858469	0.043307	-0.066414	0.089667	0.993755	-0.856991	0.504967	-0.102837
4	2793357													8.330613	-0.476347	-5.035113	-0.510194	-0.858990	0.042876	-0.066436	0.089065	0.993808	-0.857490	0.504186	-0.102508
5	2793524													8.198524	-0.378777	-4.994902	-0.510072	-0.859090	0.042312	-0.065317	0.087737	0.994000	-0.857648	0.504248	-0.100865
6	2793691													8.206529	-0.321376	-5.001761	-0.510516	-0.858849	0.041857	-0.063314	0.086092	0.994273	-0.857534	0.504942	-0.098328
7	2793857													8.169765	-0.314865	-4.970782	-0.511288	-0.858356	0.042538	-0.060858	0.085534	0.994475	-0.857252	0.505874	-0.095970
8	2794024													8.222290	-0.308212	-4.951978	-0.512188	-0.857784	0.043235	-0.058415	0.085014	0.994666	-0.856884	0.506931	-0.093650
9	2794191													8.212447	-0.314855	-4.963099	-0.513045	-0.857220	0.044250	-0.056142	0.084952	0.994802	-0.856524	0.507894	-0.091710
10	2794357													8.256396	-0.324988	-4.983686	-0.513873	-0.856664	0.045391	-0.054120	0.085179	0.994895	-0.856157	0.508793	-0.090134
11	2794691													8.261777	-0.338854	-4.987638	-0.514626	-0.856150	0.046551	-0.052427	0.085611	0.994948	-0.855811	0.509585	-0.088943
12	2794857													8.283909	-0.352610	-5.022132	-0.515313	-0.855674	0.047691	-0.050988	0.086161	0.994976	-0.855484	0.510292	-0.088029
13	2795024													8.325804	-0.400187	-5.025811	-0.515891	-0.855276	0.048577	-0.049815	0.086560	0.995000	-0.855204	0.510892	-0.087261
14	2795191													8.386696	-0.441183	-5.061750	-0.516319	-0.854970	0.049417	-0.048945	0.087068	0.994999	-0.854997	0.511318	-0.086801
15	2795357													8.405516	-0.471658	-5.022499	-0.516518	-0.854804	0.050187	-0.048373	0.087646	0.994977	-0.854909	0.511495	-0.086620
16	2795524													8.395185	-0.517750	-5.025630	-0.516443	-0.854823	0.050629	-0.048115	0.087997	0.994958	-0.854969	0.511403	-0.086575
17	2795691													8.364140	-0.537859	-5.016147	-0.516147	-0.855011	0.050485	-0.048221	0.087858	0.994965	-0.855142	0.511114	-0.086577
18	2795857													8.345761	-0.578628	-5.015385	-0.515706	-0.855298	0.050127	-0.048631	0.087635	0.994965	-0.855384	0.510672	-0.086788
19	2796024													8.313717	-0.525646	-4.992520	-0.515160	-0.855663	0.049517	-0.049208	0.087205	0.994974	-0.855680	0.510134	-0.087029
20	2796191													8.331372	-0.534769	-4.975873	-0.514494	-0.856109	0.048715	-0.049661	0.086464	0.995017	-0.856055	0.509511	-0.087000
21	2796357													8.383838	-0.556947	-4.939927	-0.513641	-0.856665	0.047940	-0.050103	0.085726	0.995058	-0.856541	0.508701	-0.086954
22	2796524													8.364908	-0.540098	-4.913017	-0.512587	-0.857349	0.046980	-0.050586	0.084774	0.995115	-0.857144	0.507707	-0.086824
23	2796691													8.355967	-0.496507	-4.905116	-0.511375	-0.858131	0.045897	-0.051013	0.083627	0.995190	-0.857842	0.506574	-0.086541
24	2796857													8.332272	-0.433835	-4.887707	-0.510063	-0.858955	0.045069	-0.051260	0.082660	0.995259	-0.858608	0.505334	-0.086192
25	2797024													8.376660	-0.423293	-4.877752	-0.508678	-0.859815	0.044322	-0.051357	0.081692	0.995334	-0.859424	0.504028	-0.085712
26	2797191													8.404386	-0.447153	-4.870407	-0.507253	-0.860680	0.043863	-0.051390	0.081015	0.995387	-0.860264	0.502659	-0.085325
27	2797357													8.474585	-0.451582	-4.872441	-0.505734	-0.861593	0.043495	-0.051446	0.080450	0.995430	-0.861154	0.501185	-0.085012
28	2797524													8.499478	-0.495978	-4.828237	-0.504068	-0.862587	0.043128	-0.051578	0.079913	0.995467	-0.862123	0.499558	-0.084772
29	2797691													8.476251	-0.520920	-4.818218	-0.502288	-0.863645	0.042712	-0.051805	0.079362	0.995499	-0.863147	0.497814	-0.084604
30	2797857													8.422196	-0.517656	-4.762146	-0.500447	-0.864737	0.042223	-0.052105	0.078764	0.995531	-0.864198	0.496010	-0.084474
31	2798024													8.396866	-0.498433	-4.772920	-0.498661	-0.865800	0.041566	-0.052419	0.077987	0.995575	-0.865211	0.494276	-0.084273
32	2798191													8.376408	-0.487359	-4.725840	-0.496985	-0.866787	0.041054	-0.052691	0.077366	0.995609	-0.866158	0.492640	-0.084121
33	2798357													8.388428	-0.475688	-4.718544	-0.495385	-0.867722	0.040644	-0.052909	0.076841	0.995639	-0.867061	0.491074	-0.083976
34	2798524													8.371044	-0.505980	-4.679633	-0.493923	-0.868576	0.040202	-0.053164	0.076317	0.995665	-0.867879	0.489645	-0.083872
35	2798691													8.312390	-0.473812	-4.686393	-0.492633	-0.869331	0.039708	-0.053531	0.075814	0.995684	-0.868589	0.488382	-0.083885
36	2798857													8.286777	-0.431353	-4.706651	-0.491677	-0.869892	0.039269	-0.053800	0.075357	0.995704	-0.869114	0.487452	-0.083852
37	2799024													8.321295	-0.442988	-4.724229	-0.491024	-0.870272	0.039001	-0.053967	0.075072	0.995717	-0.869473	0.486816	-0.083828
38	2799191													8.343521	-0.476682	-4.745823	-0.490700	-0.870469	0.038678	-0.054154	0.074772	0.995729	-0.869644	0.486510	-0.083830
39	2799357													8.372190	-0.534994	-4.717400	-0.490572	-0.870561	0.038246	-0.054471	0.074440	0.995737	-0.869697	0.486397	-0.083938
40	2799524													8.416688	-0.544341	-4.760133	-0.490568	-0.870576	0.037946	-0.054862	0.074315	0.995725	-0.869674	0.486389	-0.084218
41	2799691													8.438945	-0.511585	-4.751097	-0.490630	-0.870556	0.037602	-0.055278	0.074162	0.995713	-0.869613	0.486448	-0.084509
42	2799857													8.410448	-0.509493	-4.751707	-0.490732	-0.870512	0.037303	-0.055596	0.074009	0.995707	-0.869535	0.486551	-0.084715
43	2800024													8.380857	-0.495761	-4.754841	-0.490886	-0.870433	0.037124	-0.055777	0.073922	0.995703	-0.869437	0.486706	-0.084837
44	2800191													8.377306	-0.478521	-4.778836	-0.491130	-0.870298	0.037055	-0.055869	0.073923	0.995698	-0.869293	0.486946	-0.084929
45	2800357													8.331767	-0.466262	-4.758044	-0.491455	-0.870107	0.037238	-0.055774	0.074114	0.995689	-0.869115	0.487259	-0.084953
46	2800524													8.346139	-0.449703	-4.768445	-0.491890	-0.869853	0.037425	-0.055515	0.074232	0.995695	-0.868886	0.487695	-0.084803
47	2800691													8.372206	-0.446344	-4.806447	-0.492406	-0.869536	0.037997	-0.055138	0.074734	0.995678	-0.868617	0.488183	-0.084744
48	2800857													8.389778	-0.471083	-4.819351	-0.492939	-0.869196	0.038844	-0.054656	0.075492	0.995647	-0.868345	0.488670	-0.084719
49	2801024													8.380640	-0.488132	-4.831878	-0.493456	-0.868868	0.039615	-0.054140	0.076142	0.995626	-0.868084	0.489153	-0.084613
50	2801191													8.319294	-0.500747	-4.805174	-0.493963	-0.868551	0.040251	-0.053609	0.076628	0.995618	-0.867828	0.489641	-0.084413
51	2801357													8.332277	-0.487485	-4.784188	-0.494464	-0.868228	0.041051	-0.053071	0.077298	0.995595	-0.867577	0.490107	-0.084299
52	2801524													8.351434	-0.480577	-4.804104	-0.494888	-0.867964	0.041530	-0.052518	0.077581	0.995602	-0.867369	0.490530	-0.083978
53	2801691													8.428383	-0.458542	-4.792701	-0.495138	-0.867802	0.041935	-0.051969	0.077764	0.995616	-0.867259	0.490788	-0.083603
54	2801858													8.494722	-0.451209	-4.818871	-0.495142	-0.867773	0.042479	-0.051357	0.078041	0.995626	-0.867293	0.490795	-0.083208
55	2802024													8.510479	-0.453318	-4.796341	-0.494801	-0.867945	0.042931	-0.050839	0.078229	0.995638	-0.867518	0.490461	-0.082834
56	2802191													8.457642	-0.428495	-4.778801	-0.494171	-0.868285	0.043308	-0.050488	0.078395	0.995643	-0.867897	0.489832	-0.082579
57	2802358													8.478854	-0.423333	-4.817538	-0.493365	-0.868728	0.043615	-0.050295	0.078550	0.995641	-0.868367	0.489021	-0.082447
58	2802524													8.444527	-0.363168	-4.788644	-0.492472	-0.869214	0.044018	-0.050106	0.078808	0.995630	-0.868885	0.488115	-0.082363
59	2802691													8.431070	-0.354623	-4.756239	-0.491606	-0.869690	0.044312	-0.049790	0.078873	0.995640	-0.869393	0.487257	-0.082076
60	2802858													8.428347	-0.374611	-4.753018	-0.490793	-0.870120	0.044866	-0.049485	0.079250	0.995626	-0.869870	0.486426	-0.081954
61	2803024													8.400825	-0.404711	-4.732317	-0.490081	-0.870500	0.045290	-0.049283	0.079544	0.995612	-0.870283	0.485699	-0.081884
62	2803191													8.314632	-0.372398	-4.704004	-0.489500	-0.870799	0.045811	-0.049149	0.080003	0.995582	-0.870617	0.485086	-0.081961
63	2803358													8.243600	-0.332284	-4.670373	-0.489187	-0.870956	0.046170	-0.049017	0.080307	0.995564	-0.870800	0.484754	-0.081976
64	2803524													8.223330	-0.316720	-4.664237	-0.489174	-0.870933	0.046747	-0.048754	0.080818	0.995536	-0.870823	0.484711	-0.081996
65	2803691													8.247427	-0.312358	-4.656458	-0.489396	-0.870781	0.047232	-0.048402	0.081201	0.995522	-0.870717	0.484919	-0.081887
66	2803858													8.298554	-0.286934	-4.674473	-0.489808	-0.870505	0.048042	-0.048044	0.081972	0.995476	-0.870505	0.485284	-0.081973
67	2804024													8.446225	-0.265719	-4.683033	-0.490296	-0.870199	0.048619	-0.047644	0.082462	0.995455	-0.870253	0.485751	-0.081890
68	2804191													8.513130	-0.281060	-4.714331	-0.490676	-0.869939	0.049430	-0.047221	0.083194	0.995414	-0.870062	0.486091	-0.081901
69	2804358													8.584311	-0.307347	-4.732538	-0.490863	-0.869785	0.050270	-0.046844	0.083965	0.995367	-0.869976	0.486234	-0.081959
70	2804524													8.637290	-0.352189	-4.752102	-0.490808	-0.869763	0.051177	-0.046552	0.084833	0.995307	-0.870023	0.486122	-0.082126
71	2804691													8.616133	-0.383437	-4.764611	-0.490489	-0.869910	0.051740	-0.046433	0.085376	0.995266	-0.870210	0.485764	-0.082269
72	2804858													8.539557	-0.396866	-4.711853	-0.490031	-0.870143	0.052162	-0.046475	0.085833	0.995225	-0.870465	0.485266	-0.082501
73	2805024													8.440893	-0.409653	-4.687054	-0.489557	-0.870403	0.052273	-0.046665	0.086014	0.995200	-0.870722	0.484768	-0.082726
74	2805191													8.346129	-0.413640	-4.709850	-0.489260	-0.870568	0.052309	-0.047003	0.086212	0.995167	-0.870870	0.484437	-0.083100
75	2805358													8.345371	-0.383511	-4.717087	-0.489252	-0.870586	0.052076	-0.047337	0.086130	0.995159	-0.870857	0.484418	-0.083351
76	2805524													8.369874	-0.365039	-4.695068	-0.489468	-0.870483	0.051781	-0.047651	0.085991	0.995156	-0.870719	0.484629	-0.083570
77	2805691													8.359264	-0.376654	-4.715379	-0.489898	-0.870265	0.051375	-0.048006	0.085772	0.995158	-0.870457	0.485059	-0.083797
78	2805858													8.382470	-0.377289	-4.719132	-0.490490	-0.869958	0.050912	-0.048454	0.085558	0.995154	-0.870099	0.485646	-0.084118
79	2806024													8.392252	-0.371014	-4.741162	-0.491229	-0.869573	0.050368	-0.048984	0.085314	0.995149	-0.869652	0.486379	-0.084504
80	2806191													8.397878	-0.349179	-4.761922	-0.492025	-0.869158	0.049765	-0.049530	0.085017	0.995148	-0.869171	0.487172	-0.084880
81	2806358													8.397002	-0.371639	-4.795733	-0.492907	-0.868687	0.049246	-0.050074	0.084828	0.995137	-0.868640	0.488043	-0.085311
82	2806524													8.425076	-0.414131	-4.775672	-0.493839	-0.868187	0.048731	-0.050629	0.084654	0.995123	-0.868078	0.488963	-0.085761
83	2806691													8.444654	-0.442922	-4.775538	-0.494731	-0.867713	0.048122	-0.051297	0.084435	0.995108	-0.867531	0.489843	-0.086283
84	2806858													8.457646	-0.446750	-4.774508	-0.495529	-0.867298	0.047387	-0.052052	0.084109	0.995096	-0.867030	0.490632	-0.086824
85	2807024													8.447708	-0.462354	-4.795758	-0.496234	-0.866925	0.046822	-0.052817	0.083976	0.995067	-0.866580	0.491314	-0.087460
86	2807191													8.430877	-0.491366	-4.781979	-0.496853	-0.866602	0.046227	-0.053514	0.083761	0.995048	-0.866183	0.491919	-0.087992
87	2807358													8.397396	-0.508301	-4.812903	-0.497378	-0.866343	0.045434	-0.054161	0.083278	0.995053	-0.865842	0.492457	-0.088343
88	2807524													8.377275	-0.524818	-4.820387	-0.497896	-0.866085	0.044683	-0.054746	0.082810	0.995061	-0.865507	0.492991	-0.088645
89	2807691													8.374996	-0.536956	-4.821725	-0.498415	-0.865819	0.044046	-0.055224	0.082411	0.995067	-0.865178	0.493524	-0.088889
90	2807858													8.368836	-0.541945	-4.841521	-0.498925	-0.865552	0.043502	-0.055640	0.082084	0.995071	-0.864857	0.494046	-0.089113
91	2808024													8.359206	-0.534445	-4.835965	-0.499426	-0.865298	0.042811	-0.055968	0.081536	0.995098	-0.864547	0.494581	-0.089151
92	2808191													8.378328	-0.525851	-4.830399	-0.499933	-0.865037	0.042176	-0.056180	0.080987	0.995131	-0.864240	0.495129	-0.089086
93	2808358													8.363050	-0.537364	-4.824048	-0.500404	-0.864797	0.041502	-0.056322	0.080349	0.995174	-0.863958	0.495652	-0.088914
94	2808524													8.367731	-0.521115	-4.843064	-0.500848	-0.864566	0.040938	-0.056390	0.079791	0.995215	-0.863696	0.496143	-0.088716
95	2808691													8.348126	-0.541222	-4.840172	-0.501299	-0.864335	0.040295	-0.056373	0.079095	0.995272	-0.863436	0.496657	-0.088376
96	2808858													8.312046	-0.541413	-4.829342	-0.501722	-0.864119	0.039662	-0.056291	0.078368	0.995334	-0.863195	0.497149	-0.087960
97	2809024													8.335844	-0.534073	-4.861979	-0.502173	-0.863887	0.039006	-0.056172	0.077596	0.995401	-0.862941	0.497673	-0.087492
98	2809191													8.321585	-0.530524	-4.893691	-0.502649	-0.863632	0.038520	-0.056009	0.076998	0.995457	-0.862674	0.498208	-0.087074
99	2809358													8.347923	-0.469875	-4.894742	-0.503180	-0.863349	0.037911	-0.055667	0.076160	0.995541	-0.862387	0.498826	-0.086382
100	2809524													8.389531	-0.478986	-4.879080	-0.503708	-0.863056	0.037578	-0.055156	0.075541	0.995616	-0.862111	0.499428	-0.085653
101	2809691													8.379086	-0.472958	-4.895157	-0.504175	-0.862798	0.037238	-0.054572	0.074863	0.995699	-0.861876	0.499974	-0.084829
102	2809858													8.369636	-0.461637	-4.880484	-0.504621	-0.862549	0.036976	-0.053976	0.074265	0.995777	-0.861652	0.500494	-0.084033
103	2810024													8.354681	-0.470255	-4.872923	-0.505022	-0.862326	0.036703	-0.053431	0.073678	0.995850	-0.861451	0.500965	-0.083284
104	2810191													8.337888	-0.440462	-4.881810	-0.505435	-0.862088	0.036613	-0.052788	0.073246	0.995916	-0.861249	0.501438	-0.082529
105	2810358													8.366044	-0.443368	-4.883212	-0.505824	-0.861868	0.036406	-0.052142	0.072674	0.995992	-0.861060	0.501898	-0.081699
106	2810524													8.352056	-0.439465	-4.885678	-0.506210	-0.861646	0.036316	-0.051492	0.072232	0.996058	-0.860872	0.502344	-0.080932
107	2810691													8.337051	-0.409517	-4.863554	-0.506589	-0.861432	0.036099	-0.050853	0.071650	0.996133	-0.860687	0.502794	-0.080103
108	2810858													8.327007	-0.388291	-4.879942	-0.506964	-0.861218	0.035925	-0.050219	0.071117	0.996203	-0.860503	0.503235	-0.079303
109	2811024													8.316136	-0.358336	-4.862975	-0.507366	-0.860983	0.035887	-0.049521	0.070708	0.996267	-0.860307	0.503695	-0.078512
110	2811191													8.334567	-0.366332	-4.884491	-0.507812	-0.860712	0.036063	-0.048799	0.070536	0.996315	-0.860084	0.504181	-0.077821
111	2811358													8.357506	-0.356722	-4.889014	-0.508295	-0.860418	0.036293	-0.048030	0.070402	0.996362	-0.859842	0.504703	-0.077111
112	2811524													8.389268	-0.334563	-4.900629	-0.508714	-0.860157	0.036611	-0.047304	0.070386	0.996398	-0.859635	0.505150	-0.076495
113	2811691													8.351989	-0.324232	-4.893228	-0.509091	-0.859919	0.036950	-0.046551	0.070376	0.996434	-0.859453	0.505556	-0.075858
114	2811858													8.331549	-0.358344	-4.909572	-0.509444	-0.859695	0.037298	-0.045870	0.070414	0.996463	-0.859281	0.505931	-0.075306
115	2812024													8.259521	-0.280474	-4.892898	-0.509904	-0.859406	0.037666	-0.045177	0.070478	0.996490	-0.859044	0.506413	-0.074762
116	2812191													8.311691	-0.277721	-4.910021	-0.510453	-0.859052	0.038311	-0.044374	0.070808	0.996502	-0.858760	0.506967	-0.074263
117	2812358													8.363565	-0.277727	-4.939440	-0.511007	-0.858699	0.038829	-0.043501	0.070949	0.996531	-0.858475	0.507545	-0.073610
118	2812524													8.328736	-0.248027	-4.920971	-0.511528	-0.858361	0.039449	-0.042713	0.071254	0.996543	-0.858204	0.508075	-0.073112
119	2812691													8.306155	-0.217719	-4.917490	-0.512002	-0.858043	0.040198	-0.041963	0.071726	0.996541	-0.857959	0.508544	-0.072730
120	2812858													8.294240	-0.192858	-4.927418	-0.512492	-0.857718	0.040896	-0.041175	0.072117	0.996546	-0.857704	0.509038	-0.072276
121	2813024													8.283414	-0.206412	-4.935644	-0.512968	-0.857391	0.041760	-0.040383	0.072698	0.996536	-0.857457	0.509505	-0.071915
122	2813191													8.282567	-0.210975	-4.927820	-0.513475	-0.857046	0.042618	-0.039620	0.073291	0.996523	-0.857190	0.510001	-0.071589
123	2813358													8.303864	-0.212656	-4.970227	-0.513987	-0.856698	0.043437	-0.038975	0.073909	0.996503	-0.856912	0.510496	-0.071378
124	2813524													8.317818	-0.222836	-4.962296	-0.514486	-0.856365	0.044074	-0.038462	0.074393	0.996487	-0.856636	0.510984	-0.071212
125	2813691													8.321010	-0.212654	-4.950809	-0.514967	-0.856050	0.044589	-0.038118	0.074833	0.996467	-0.856362	0.511448	-0.071167
126	2813858													8.302239	-0.208398	-4.986537	-0.515421	-0.855757	0.044960	-0.037897	0.075177	0.996450	-0.856099	0.511887	-0.071178
127	2814024													8.303606	-0.237689	-4.983949	-0.515853	-0.855486	0.045158	-0.037837	0.075414	0.996434	-0.855841	0.512305	-0.071272
128	2814191													8.302378	-0.258672	-4.998861	-0.516228	-0.855256	0.045237	-0.037942	0.075604	0.996416	-0.855610	0.512661	-0.071479
129	2814358													8.290849	-0.271037	-4.998288	-0.516566	-0.855066	0.044971	-0.038250	0.075513	0.996411	-0.855393	0.512992	-0.071714
130	2814524													8.305043	-0.271178	-5.002415	-0.516878	-0.854899	0.044545	-0.038767	0.075357	0.996403	-0.855181	0.513292	-0.072092
131	2814691													8.303501	-0.280451	-5.001942	-0.517122	-0.854786	0.043883	-0.039436	0.075011	0.996403	-0.855002	0.513531	-0.072500
132	2814858													8.316593	-0.273688	-5.009420	-0.517298	-0.854719	0.043105	-0.040216	0.074590	0.996403	-0.854860	0.513704	-0.072959
133	2815024													8.311904	-0.279648	-5.001647	-0.517413	-0.854696	0.042176	-0.041070	0.074032	0.996410	-0.854750	0.513823	-0.073407
134	2815191													8.281376	-0.301338	-5.010962	-0.517487	-0.854701	0.041153	-0.041996	0.073403	0.996418	-0.854660	0.513905	-0.073879
135	2815358													8.247532	-0.320016	-4.994127	-0.517498	-0.854742	0.040145	-0.042968	0.072815	0.996419	-0.854605	0.513921	-0.074408
136	2815524													8.259438	-0.350647	-5.010473	-0.517516	-0.854780	0.039093	-0.044037	0.072232	0.996415	-0.854540	0.513939	-0.075023
137	2815691													8.235691	-0.360430	-5.009476	-0.517511	-0.854837	0.037889	-0.045251	0.071558	0.996409	-0.854479	0.513939	-0.075714
138	2815858													8.254416	-0.382081	-5.043266	-0.517567	-0.854852	0.036759	-0.046520	0.071010	0.996390	-0.854377	0.513989	-0.076521
139	2816024													8.260979	-0.322550	-5.032245	-0.517653	-0.854849	0.035610	-0.047722	0.070404	0.996376	-0.854259	0.514078	-0.077240
140	2816191													8.289677	-0.360312	-5.005991	-0.517717	-0.854855	0.034536	-0.048782	0.069796	0.996368	-0.854160	0.514152	-0.077836
141	2816358													8.287237	-0.387149	-5.007416	-0.517728	-0.854880	0.033723	-0.049746	0.069430	0.996346	-0.854098	0.514159	-0.078473
142	2816524													8.267909	-0.398143	-4.996732	-0.517695	-0.854930	0.032948	-0.050573	0.069022	0.996332	-0.854069	0.514130	-0.078969
143	2816691													8.242564	-0.371932	-4.998931	-0.517635	-0.854992	0.032290	-0.051224	0.068640	0.996326	-0.854067	0.514079	-0.079326
144	2816858													8.231058	-0.362396	-4.999324	-0.517609	-0.855019	0.031988	-0.051667	0.068553	0.996309	-0.854056	0.514045	-0.079660
145	2817024													8.215733	-0.383003	-5.016443	-0.517582	-0.855038	0.031917	-0.051850	0.068577	0.996298	-0.854061	0.514010	-0.079828
146	2817191													8.231396	-0.382525	-5.005903	-0.517582	-0.855038	0.031925	-0.051840	0.068580	0.996298	-0.854062	0.514011	-0.079821
147	2817358													8.229793	-0.366535	-5.032443	-0.517618	-0.855007	0.032151	-0.051699	0.068763	0.996293	-0.854048	0.514037	-0.079795
148	2817524													8.227319	-0.341623	-5.029709	-0.517729	-0.854923	0.032616	-0.051452	0.069167	0.996277	-0.853996	0.514124	-0.079798
149	2817691													8.251613	-0.344141	-5.035926	-0.517886	-0.854806	0.033168	-0.051136	0.069637	0.996261	-0.853920	0.514254	-0.079775
150	2817858													8.228061	-0.344209	-5.048553	-0.518096	-0.854650	0.033905	-0.050779	0.070305	0.996232	-0.853814	0.514422	-0.079823
151	2818024													8.247217	-0.355515	-5.045446	-0.518363	-0.854456	0.034707	-0.050435	0.071061	0.996196	-0.853672	0.514641	-0.079930
152	2818191													8.255004	-0.352391	-5.057972	-0.518625	-0.854266	0.035458	-0.050125	0.071778	0.996160	-0.853531	0.514857	-0.080046
153	2818358													8.235142	-0.386890	-5.064854	-0.518904	-0.854069	0.036115	-0.049991	0.072494	0.996115	-0.853369	0.515083	-0.080314
154	2818525													8.204699	-0.389400	-5.068134	-0.519201	-0.853869	0.036595	-0.050037	0.073115	0.996068	-0.853186	0.515328	-0.080686
155	2818691													8.200800	-0.356446	-5.045608	-0.519524	-0.853648	0.037139	-0.050020	0.073775	0.996020	-0.852990	0.515599	-0.081027
156	2818858													8.210785	-0.397118	-5.046629	-0.519899	-0.853396	0.037691	-0.049930	0.074405	0.995977	-0.852768	0.515925	-0.081293
157	2819025													8.257773	-0.437678	-5.067703	-0.520244	-0.853169	0.038053	-0.049884	0.074839	0.995947	-0.852559	0.516238	-0.081494
158	2819191													8.260679	-0.438473	-5.051499	-0.520515	-0.852994	0.038281	-0.049944	0.075173	0.995919	-0.852390	0.516479	-0.081731
159	2819358													8.269308	-0.413520	-5.052583	-0.520709	-0.852871	0.038385	-0.050081	0.075398	0.995895	-0.852264	0.516649	-0.081973
160	2819525													8.237800	-0.387557	-5.038593	-0.520818	-0.852802	0.038436	-0.050169	0.075524	0.995881	-0.852192	0.516744	-0.082119
161	2819691													8.231016	-0.405953	-5.063401	-0.520920	-0.852743	0.038367	-0.050210	0.075480	0.995882	-0.852127	0.516849	-0.082135
162	2819858													8.259602	-0.402756	-5.076437	-0.520977	-0.852709	0.038345	-0.050228	0.075471	0.995882	-0.852091	0.516906	-0.082149
163	2820025													8.260528	-0.379911	-5.050030	-0.521012	-0.852695	0.038184	-0.050237	0.075292	0.995895	-0.852070	0.516955	-0.082065
164	2820191													8.281219	-0.359040	-5.030905	-0.520991	-0.852711	0.038102	-0.050252	0.075203	0.995901	-0.852081	0.516941	-0.082031
165	2820358													8.245564	-0.339586	-5.042817	-0.520937	-0.852746	0.038071	-0.050285	0.075181	0.995901	-0.852113	0.516887	-0.082045
166	2820525													8.220951	-0.339574	-5.017121	-0.520924	-0.852757	0.037988	-0.050364	0.075131	0.995901	-0.852116	0.516876	-0.082086
167	2820691													8.232893	-0.334175	-5.017072	-0.520923	-0.852753	0.038107	-0.050536	0.075374	0.995874	-0.852107	0.516848	-0.082359
168	2820858													8.295941	-0.356881	-5.057355	-0.521007	-0.852696	0.038232	-0.050675	0.075613	0.995849	-0.852047	0.516907	-0.082605
169	2821025													8.265877	-0.377301	-5.049049	-0.521062	-0.852659	0.038315	-0.050830	0.075811	0.995826	-0.852004	0.516939	-0.082843
170	2821191													8.197168	-0.390660	-5.033904	-0.521201	-0.852569	0.038417	-0.050970	0.076031	0.995802	-0.851910	0.517055	-0.083082
171	2821358													8.153038	-0.407978	-5.023921	-0.521483	-0.852392	0.038522	-0.051155	0.076297	0.995772	-0.851727	0.517308	-0.083392
172	2821525													8.143691	-0.420759	-5.051115	-0.521923	-0.852124	0.038488	-0.051311	0.076403	0.995756	-0.851448	0.517733	-0.083600
173	2821691													8.181021	-0.439175	-5.052425	-0.522444	-0.851809	0.038377	-0.051507	0.076453	0.995742	-0.851116	0.518243	-0.083816
174	2821858													8.224474	-0.438631	-5.049848	-0.522967	-0.851498	0.038178	-0.051669	0.076378	0.995739	-0.850786	0.518766	-0.083939
175	2822025													8.232322	-0.432958	-5.074778	-0.523413	-0.851235	0.037912	-0.051834	0.076220	0.995743	-0.850501	0.519220	-0.084017
176	2822191													8.248569	-0.413972	-5.068233	-0.523735	-0.851050	0.037636	-0.051986	0.076027	0.995750	-0.850294	0.519552	-0.084060
177	2822358													8.254322	-0.422827	-5.105421	-0.523929	-0.850941	0.037401	-0.052156	0.075878	0.995752	-0.850164	0.519753	-0.084136
178	2822525													8.232649	-0.417089	-5.112882	-0.524001	-0.850913	0.037011	-0.052440	0.075604	0.995758	-0.850102	0.519837	-0.084238
179	2822691													8.228917	-0.454214	-5.117466	-0.524019	-0.850919	0.036636	-0.052863	0.075426	0.995749	-0.850065	0.519854	-0.084507
180	2822858													8.237830	-0.379400	-5.114175	-0.523981	-0.850963	0.036139	-0.053205	0.075049	0.995759	-0.850067	0.519836	-0.084600
181	2823025													8.281878	-0.397701	-5.117688	-0.523875	-0.851041	0.035848	-0.053386	0.074807	0.995768	-0.850121	0.519744	-0.084623
182	2823191													8.285000	-0.431646	-5.097246	-0.523624	-0.851205	0.035612	-0.053533	0.074591	0.995776	-0.850266	0.519506	-0.084625
183	2823358													8.271364	-0.424562	-5.073422	-0.523181	-0.851483	0.035462	-0.053689	0.074460	0.995778	-0.850529	0.519068	-0.084672
184	2823525													8.220213	-0.401494	-5.047241	-0.522654	-0.851817	0.035218	-0.053826	0.074197	0.995790	-0.850844	0.518558	-0.084629
185	2823691													8.188130	-0.383591	-5.052488	-0.522178	-0.852113	0.035125	-0.053898	0.074076	0.995795	-0.851132	0.518089	-0.084608
186	2823858													8.190721	-0.397637	-5.055176	-0.521724	-0.852392	0.035091	-0.053924	0.074000	0.995799	-0.851408	0.517640	-0.084572
187	2824025													8.178868	-0.429301	-5.029455	-0.521359	-0.852612	0.035164	-0.053938	0.074052	0.995795	-0.851631	0.517270	-0.084596
188	2824191													8.183804	-0.427495	-5.033613	-0.521093	-0.852771	0.035270	-0.053992	0.074177	0.995782	-0.851790	0.516991	-0.084696
189	2824358													8.191733	-0.421329	-5.023614	-0.520946	-0.852861	0.035266	-0.054039	0.074185	0.995779	-0.851877	0.516841	-0.084734
190	2824525													8.196803	-0.414168	-5.027797	-0.520920	-0.852875	0.035309	-0.054047	0.074236	0.995775	-0.851893	0.516811	-0.084766
191	2824691													8.201270	-0.415624	-5.071406	-0.521045	-0.852799	0.035301	-0.054041	0.074238	0.995775	-0.851817	0.516936	-0.084767
192	2824858													8.216381	-0.427759	-5.022937	-0.521289	-0.852648	0.035348	-0.054054	0.074329	0.995768	-0.851667	0.517172	-0.084835
193	2825025													8.246669	-0.420901	-5.026042	-0.521615	-0.852450	0.035300	-0.054069	0.074320	0.995768	-0.851466	0.517499	-0.084858
194	2825191													8.250030	-0.417152	-5.034273	-0.521924	-0.852263	0.035263	-0.054136	0.074353	0.995761	-0.851272	0.517803	-0.084945
195	2825358													8.251794	-0.462345	-5.036858	-0.522235	-0.852077	0.035145	-0.054284	0.074341	0.995754	-0.851072	0.518110	-0.085077
196	2825525													8.186771	-0.439627	-5.045434	-0.522512	-0.851917	0.034926	-0.054565	0.074289	0.995743	-0.850884	0.518381	-0.085302
197	2825691													8.198399	-0.418647	-5.054441	-0.522862	-0.851709	0.034755	-0.054689	0.074206	0.995742	-0.850661	0.518735	-0.085379
198	2825858													8.235542	-0.441226	-5.043100	-0.523187	-0.851515	0.034610	-0.054724	0.074095	0.995749	-0.850459	0.519069	-0.085364
199	2826025													8.260036	-0.493220	-5.055724	-0.523439	-0.851367	0.034443	-0.054831	0.073996	0.995750	-0.850297	0.519326	-0.085414
200	2826191													8.276396	-0.471561	-5.069035	-0.523596	-0.851278	0.034249	-0.055032	0.073910	0.995745	-0.850188	0.519483	-0.085546
201	2826358													8.226679	-0.433964	-5.064480	-0.523674	-0.851239	0.034035	-0.055242	0.073796	0.995742	-0.850126	0.519564	-0.085669
202	2826525													8.225588	-0.447237	-5.069896	-0.523713	-0.851218	0.033955	-0.055291	0.073738	0.995744	-0.850099	0.519606	-0.085682
203	2826691													8.210786	-0.448649	-5.054225	-0.523760	-0.851191	0.033892	-0.055222	0.073627	0.995756	-0.850074	0.519666	-0.085568
204	2826858													8.212860	-0.445724	-5.070300	-0.523803	-0.851166	0.033859	-0.055105	0.073522	0.995770	-0.850055	0.519722	-0.085414
205	2827025													8.216436	-0.430776	-5.082241	-0.523875	-0.851121	0.033884	-0.054989	0.073489	0.995779	-0.850018	0.519801	-0.085302
206	2827191													8.231285	-0.400839	-5.085946	-0.523907	-0.851100	0.033905	-0.054812	0.073410	0.995794	-0.850010	0.519845	-0.085110
207	2827358													8.201366	-0.387092	-5.094769	-0.523929	-0.851079	0.034097	-0.054581	0.073495	0.995801	-0.850011	0.519868	-0.084960
208	2827525													8.196374	-0.401554	-5.087543	-0.523985	-0.851038	0.034254	-0.054317	0.073525	0.995813	-0.849994	0.519931	-0.084752
209	2827691													8.216986	-0.416330	-5.099028	-0.524051	-0.850986	0.034549	-0.054051	0.073715	0.995814	-0.849970	0.519990	-0.084627
210	2827858													8.207686	-0.433703	-5.084788	-0.524120	-0.850930	0.034869	-0.053872	0.073987	0.995803	-0.849939	0.520042	-0.084620
211	2828025													8.216460	-0.430810	-5.103877	-0.524170	-0.850890	0.035092	-0.053741	0.074174	0.995796	-0.849916	0.520081	-0.084608
212	2828191													8.214759	-0.445711	-5.100862	-0.524204	-0.850862	0.035280	-0.053585	0.074302	0.995795	-0.849905	0.520109	-0.084543
213	2828358													8.205443	-0.458195	-5.103695	-0.524245	-0.850838	0.035240	-0.053443	0.074174	0.995812	-0.849889	0.520166	-0.084357
214	2828525													8.206955	-0.453638	-5.079695	-0.524282	-0.850817	0.035207	-0.053320	0.074063	0.995827	-0.849874	0.520217	-0.084195
215	2828691													8.217885	-0.422289	-5.097050	-0.524284	-0.850816	0.035195	-0.053180	0.073965	0.995842	-0.849881	0.520232	-0.084025
216	2828858													8.239671	-0.416846	-5.092494	-0.524258	-0.850831	0.035224	-0.053026	0.073901	0.995855	-0.849907	0.520217	-0.083859
217	2829025													8.230251	-0.401984	-5.088957	-0.524182	-0.850881	0.035145	-0.052898	0.073721	0.995875	-0.849962	0.520161	-0.083653
218	2829191													8.234414	-0.380512	-5.095183	-0.524071	-0.850952	0.035078	-0.052824	0.073585	0.995889	-0.850035	0.520063	-0.083515
219	2829358													8.215554	-0.397155	-5.058873	-0.523924	-0.851044	0.035042	-0.052807	0.073515	0.995895	-0.850126	0.519923	-0.083457
220	2829525													8.218816	-0.423661	-5.067078	-0.523748	-0.851154	0.035002	-0.052831	0.073464	0.995898	-0.850233	0.519751	-0.083444
221	2829691													8.188447	-0.451534	-5.078401	-0.523568	-0.851267	0.034951	-0.052965	0.073465	0.995890	-0.850336	0.519565	-0.083551
222	2829858													8.204209	-0.445341	-5.106941	-0.523442	-0.851353	0.034750	-0.053203	0.073361	0.995885	-0.850399	0.519439	-0.083694
223	2830025													8.219485	-0.399674	-5.074571	-0.523357	-0.851410	0.034613	-0.053248	0.073218	0.995893	-0.850448	0.519364	-0.083655
224	2830191													8.257713	-0.424821	-5.081333	-0.523246	-0.851480	0.034568	-0.053152	0.073094	0.995908	-0.850523	0.519267	-0.083504
225	2830358													8.271549	-0.439308	-5.072782	-0.523076	-0.851584	0.034588	-0.053059	0.073041	0.995916	-0.850633	0.519104	-0.083391
226	2830525													8.255382	-0.437965	-5.044391	-0.522820	-0.851744	0.034524	-0.052983	0.072890	0.995932	-0.850795	0.518863	-0.083236
227	2830691													8.225877	-0.374539	-5.042992	-0.522522	-0.851928	0.034483	-0.052919	0.072769	0.995944	-0.850982	0.518577	-0.083107
228	2830858													8.211736	-0.374921	-5.061487	-0.522220	-0.852113	0.034502	-0.052783	0.072675	0.995958	-0.851176	0.518288	-0.082929
229	2831025													8.219746	-0.418073	-5.041928	-0.521943	-0.852274	0.034688	-0.052596	0.072747	0.995963	-0.851357	0.518012	-0.082796
230	2831191													8.241362	-0.436164	-5.036779	-0.521653	-0.852448	0.034780	-0.052500	0.072763	0.995967	-0.851541	0.517723	-0.082710
231	2831358													8.234914	-0.435564	-5.037829	-0.521385	-0.852607	0.034914	-0.052439	0.072851	0.995963	-0.851709	0.517449	-0.082693
232	2831525													8.225171	-0.458877	-5.039137	-0.521143	-0.852754	0.034947	-0.052397	0.072838	0.995966	-0.851860	0.517209	-0.082641
233	2831691													8.209825	-0.438924	-5.025196	-0.520951	-0.852873	0.034891	-0.052353	0.072723	0.995977	-0.851979	0.517029	-0.082536
234	2831858													8.215137	-0.416700	-5.016404	-0.520825	-0.852953	0.034830	-0.052320	0.072618	0.995987	-0.852059	0.516912	-0.082448
235	2832025													8.223131	-0.409004	-5.033926	-0.520774	-0.852988	0.034721	-0.052277	0.072459	0.996000	-0.852092	0.516876	-0.082327
236	2832191													8.254418	-0.405338	-5.015444	-0.520762	-0.853003	0.034546	-0.052229	0.072224	0.996020	-0.852103	0.516885	-0.082163
237	2832358													8.231735	-0.406754	-5.003901	-0.520758	-0.853006	0.034522	-0.052196	0.072175	0.996025	-0.852107	0.516886	-0.082110
238	2832525													8.236506	-0.450304	-5.036376	-0.520775	-0.853001	0.034402	-0.052263	0.072078	0.996029	-0.852093	0.516909	-0.082117
239	2832691													8.139488	-0.381644	-5.018573	-0.520915	-0.852921	0.034258	-0.052400	0.072009	0.996027	-0.851999	0.517050	-0.082204
240	2832858													8.193841	-0.406322	-5.029806	-0.521213	-0.852742	0.034180	-0.052355	0.071925	0.996035	-0.851819	0.517357	-0.082133
241	2833025													8.245616	-0.457116	-5.045473	-0.521546	-0.852538	0.034173	-0.052288	0.071912	0.996039	-0.851619	0.517694	-0.082083
242	2833191													8.274343	-0.482914	-5.043749	-0.521842	-0.852358	0.034164	-0.052301	0.071943	0.996037	-0.851437	0.517987	-0.082122
243	2833358													8.273843	-0.467158	-5.052950	-0.522036	-0.852244	0.034031	-0.052373	0.071854	0.996039	-0.851314	0.518186	-0.082145
244	2833525													8.256524	-0.422631	-5.051528	-0.522174	-0.852164	0.033908	-0.052396	0.071739	0.996046	-0.851228	0.518333	-0.082110
245	2833691													8.212313	-0.429134	-5.048135	-0.522277	-0.852107	0.033779	-0.052351	0.071573	0.996061	-0.851168	0.518451	-0.081990
246	2833858													8.240343	-0.429367	-5.068881	-0.522408	-0.852028	0.033737	-0.052199	0.071445	0.996078	-0.851097	0.518598	-0.081799
247	2834025													8.226714	-0.434001	-5.049036	-0.522540	-0.851952	0.033608	-0.052045	0.071215	0.996102	-0.851025	0.518754	-0.081552
248	2834191													8.243736	-0.402055	-5.051889	-0.522645	-0.851890	0.033565	-0.051920	0.071101	0.996117	-0.850968	0.518873	-0.081390
249	2834358													8.249623	-0.391534	-5.023527	-0.522711	-0.851851	0.033521	-0.051810	0.070990	0.996131	-0.850934	0.518952	-0.081241
250	2834525													8.225077	-0.377154	-5.027843	-0.522740	-0.851830	0.033592	-0.051667	0.070990	0.996138	-0.850925	0.518986	-0.081120
251	2834691													8.223049	-0.392317	-5.050048	-0.522769	-0.851808	0.033690	-0.051551	0.071036	0.996141	-0.850914	0.519015	-0.081047
252	2834858													8.212803	-0.410785	-5.038697	-0.522821	-0.851774	0.033757	-0.051457	0.071063	0.996144	-0.850888	0.519068	-0.080983
253	2835025													8.234232	-0.434309	-5.052598	-0.522849	-0.851756	0.033782	-0.051410	0.071067	0.996146	-0.850874	0.519097	-0.080946
254	2835192													8.217749	-0.435565	-5.057471	-0.522881	-0.851738	0.033735	-0.051416	0.071019	0.996149	-0.850854	0.519132	-0.080928
255	2835358													8.215918	-0.435772	-5.067940	-0.522931	-0.851709	0.033695	-0.051416	0.070978	0.996152	-0.850823	0.519186	-0.080908
256	2835525													8.212488	-0.437964	-5.067668	-0.523015	-0.851662	0.033579	-0.051400	0.070841	0.996162	-0.850772	0.519282	-0.080827
257	2835692													8.216217	-0.430178	-5.059821	-0.523130	-0.851596	0.033463	-0.051398	0.070717	0.996171	-0.850702	0.519407	-0.080765
258	2835858													8.226032	-0.428371	-5.036862	-0.523249	-0.851530	0.033282	-0.051414	0.070528	0.996184	-0.850628	0.519541	-0.080684
259	2836025													8.219791	-0.406545	-5.058195	-0.523364	-0.851466	0.033099	-0.051449	0.070349	0.996195	-0.850555	0.519669	-0.080625
260	2836192													8.225967	-0.401286	-5.061410	-0.523446	-0.851422	0.032926	-0.051468	0.070167	0.996207	-0.850503	0.519766	-0.080549
261	2836358													8.209870	-0.416123	-5.079205	-0.523525	-0.851380	0.032753	-0.051539	0.070017	0.996213	-0.850450	0.519855	-0.080535
262	2836525													8.218989	-0.392402	-5.067966	-0.523595	-0.851342	0.032621	-0.051612	0.069915	0.996217	-0.850402	0.519931	-0.080547
263	2836692													8.205153	-0.418327	-5.094775	-0.523666	-0.851300	0.032584	-0.051676	0.069919	0.996213	-0.850355	0.519999	-0.080606
264	2836858													8.214179	-0.443615	-5.065476	-0.523746	-0.851255	0.032472	-0.051766	0.069852	0.996213	-0.850300	0.520082	-0.080651
265	2837025													8.180992	-0.475061	-5.083562	-0.523843	-0.851202	0.032292	-0.051962	0.069771	0.996209	-0.850228	0.520179	-0.080779
266	2837192													8.201698	-0.409809	-5.092811	-0.523994	-0.851120	0.032000	-0.052210	0.069598	0.996208	-0.850120	0.520337	-0.080906
267	2837358													8.233496	-0.424073	-5.080532	-0.524167	-0.851024	0.031747	-0.052262	0.069352	0.996222	-0.850011	0.520527	-0.080828
268	2837525													8.266672	-0.458098	-5.076970	-0.524299	-0.850947	0.031610	-0.052214	0.069178	0.996237	-0.849932	0.520676	-0.080702
269	2837692													8.265044	-0.460283	-5.063151	-0.524331	-0.850934	0.031427	-0.052229	0.068977	0.996250	-0.849911	0.520723	-0.080610
270	2837858													8.228083	-0.425345	-5.068079	-0.524269	-0.850983	0.031140	-0.052282	0.068666	0.996269	-0.849946	0.520685	-0.080490
271	2838025													8.210700	-0.393951	-5.064832	-0.524187	-0.851039	0.031002	-0.052262	0.068483	0.996282	-0.849998	0.520618	-0.080375
272	2838192													8.209194	-0.404019	-5.062926	-0.524088	-0.851101	0.030970	-0.052171	0.068379	0.996294	-0.850065	0.520530	-0.080239
273	2838358													8.220041	-0.430261	-5.051983	-0.523948	-0.851188	0.030938	-0.052087	0.068275	0.996306	-0.850156	0.520401	-0.080109
274	2838525													8.210765	-0.441794	-5.072528	-0.523843	-0.851253	0.030921	-0.052062	0.068228	0.996310	-0.850222	0.520301	-0.080059
275	2838692													8.210148	-0.443789	-5.047346	-0.523712	-0.851334	0.030923	-0.052101	0.068240	0.996308	-0.850301	0.520167	-0.080094
276	2838858													8.213687	-0.431010	-5.066691	-0.523623	-0.851389	0.030908	-0.052116	0.068222	0.996308	-0.850354	0.520079	-0.080094
277	2839025													8.196163	-0.441544	-5.063652	-0.523573	-0.851424	0.030798	-0.052111	0.068084	0.996318	-0.850386	0.520040	-0.080016
278	2839192													8.206459	-0.446338	-5.060980	-0.523538	-0.851448	0.030730	-0.052170	0.068037	0.996318	-0.850404	0.520007	-0.080040
279	2839358													8.221357	-0.448932	-5.061338	-0.523560	-0.851440	0.030567	-0.052220	0.067879	0.996326	-0.850387	0.520040	-0.080001
280	2839525													8.224172	-0.419135	-5.064360	-0.523585	-0.851429	0.030462	-0.052254	0.067780	0.996331	-0.850370	0.520072	-0.079979
281	2839692													8.206472	-0.445220	-5.066014	-0.523589	-0.851430	0.030355	-0.052321	0.067696	0.996333	-0.850363	0.520081	-0.079993
282	2839858													8.174247	-0.475662	-5.080551	-0.523628	-0.851413	0.030159	-0.052458	0.067554	0.996336	-0.850331	0.520127	-0.080036
283	2840025													8.141648	-0.397537	-5.067614	-0.523776	-0.851329	0.029976	-0.052555	0.067416	0.996340	-0.850233	0.520283	-0.080052
284	2840192													8.185338	-0.438172	-5.088305	-0.523997	-0.851193	0.029950	-0.052490	0.067370	0.996346	-0.850101	0.520511	-0.079981
285	2840358													8.218123	-0.459464	-5.087862	-0.524221	-0.851055	0.029962	-0.052402	0.067355	0.996352	-0.849968	0.520739	-0.079906
286	2840525													8.239098	-0.470037	-5.104084	-0.524475	-0.850901	0.029903	-0.052353	0.067284	0.996359	-0.849815	0.521000	-0.079836
287	2840692													8.222803	-0.435967	-5.083987	-0.524621	-0.850812	0.029864	-0.052329	0.067240	0.996364	-0.849726	0.521150	-0.079797
288	2840858													8.205317	-0.417111	-5.103998	-0.524772	-0.850719	0.029860	-0.052255	0.067206	0.996370	-0.849637	0.521307	-0.079722
289	2841025													8.190549	-0.426022	-5.095121	-0.524921	-0.850621	0.030013	-0.052060	0.067283	0.996375	-0.849557	0.521456	-0.079602
290	2841192													8.211287	-0.441912	-5.086969	-0.525068	-0.850527	0.030133	-0.051820	0.067292	0.996387	-0.849481	0.521609	-0.079407
291	2841358													8.237158	-0.437045	-5.099182	-0.525179	-0.850452	0.030294	-0.051576	0.067343	0.996396	-0.849427	0.521724	-0.079230
292	2841525													8.249448	-0.419295	-5.087112	-0.525217	-0.850421	0.030525	-0.051349	0.067477	0.996399	-0.849418	0.521758	-0.079108
293	2841692													8.227172	-0.407722	-5.094637	-0.525172	-0.850437	0.030836	-0.051095	0.067681	0.996398	-0.849461	0.521705	-0.078997
294	2841858													8.207811	-0.389775	-5.081936	-0.525098	-0.850470	0.031191	-0.050823	0.067922	0.996395	-0.849523	0.521620	-0.078889
295	2842025													8.215561	-0.427081	-5.072176	-0.525059	-0.850480	0.031567	-0.050544	0.068188	0.996391	-0.849563	0.521569	-0.078789
296	2842192													8.208699	-0.433170	-5.093949	-0.525028	-0.850486	0.031930	-0.050330	0.068478	0.996382	-0.849595	0.521522	-0.078758
297	2842358													8.209241	-0.444675	-5.076817	-0.524989	-0.850500	0.032192	-0.050220	0.068713	0.996372	-0.849626	0.521468	-0.078786
298	2842525													8.204913	-0.443604	-5.070743	-0.524930	-0.850527	0.032435	-0.050173	0.068962	0.996357	-0.849665	0.521390	-0.078874
299	2842692													8.197556	-0.452912	-5.094702	-0.524886	-0.850549	0.032562	-0.050135	0.069082	0.996350	-0.849694	0.521338	-0.078902
300	2842858													8.195802	-0.460712	-5.075479	-0.524856	-0.850566	0.032600	-0.050132	0.069123	0.996348	-0.849713	0.521305	-0.078920
301	2843025													8.194921	-0.448564	-5.081344	-0.524876	-0.850557	0.032537	-0.050122	0.069044	0.996354	-0.849702	0.521331	-0.078871
302	2843192													8.206369	-0.446135	-5.061614	-0.524913	-0.850539	0.032411	-0.050097	0.068885	0.996366	-0.849681	0.521381	-0.078768
303	2843358													8.206734	-0.424954	-5.082077	-0.524989	-0.850496	0.032312	-0.050052	0.068750	0.996378	-0.849636	0.521469	-0.078662
304	2843525													8.220425	-0.412834	-5.057008	-0.525072	-0.850450	0.032167	-0.050011	0.068564	0.996392	-0.849587	0.521569	-0.078533
305	2843692													8.216938	-0.389038	-5.096614	-0.525125	-0.850420	0.032087	-0.050000	0.068469	0.996400	-0.849555	0.521630	-0.078475
306	2843858													8.227868	-0.390346	-5.100644	-0.525173	-0.850392	0.032030	-0.049998	0.068406	0.996404	-0.849525	0.521683	-0.078443
307	2844025													8.215019	-0.401619	-5.069582	-0.525224	-0.850360	0.032073	-0.049980	0.068451	0.996402	-0.849495	0.521731	-0.078453
308	2844192													8.211744	-0.438173	-5.067221	-0.525304	-0.850309	0.032088	-0.049964	0.068468	0.996401	-0.849446	0.521811	-0.078452
309	2844358													8.159584	-0.446731	-5.071979	-0.525379	-0.850262	0.032102	-0.050011	0.068520	0.996395	-0.849397	0.521880	-0.078521
310	2844525													8.178749	-0.485260	-5.087236	-0.525564	-0.850152	0.032009	-0.050151	0.068519	0.996388	-0.849275	0.522061	-0.078647
311	2844692													8.171305	-0.405535	-5.085398	-0.525813	-0.849999	0.031958	-0.050133	0.068475	0.996392	-0.849121	0.522314	-0.078618
312	2844858													8.227375	-0.429074	-5.063018	-0.526067	-0.849841	0.031984	-0.049904	0.068392	0.996410	-0.848977	0.522582	-0.078389
313	2845025													8.251058	-0.450709	-5.071491	-0.526245	-0.849730	0.032029	-0.049647	0.068306	0.996428	-0.848883	0.522775	-0.078132
314	2845192													8.258178	-0.450799	-5.072507	-0.526303	-0.849692	0.032079	-0.049440	0.068243	0.996443	-0.848859	0.522844	-0.077925
315	2845358													8.229558	-0.397925	-5.074570	-0.526243	-0.849728	0.032107	-0.049254	0.068154	0.996458	-0.848906	0.522798	-0.077719
316	2845525													8.208944	-0.380633	-5.068212	-0.526158	-0.849775	0.032243	-0.049015	0.068158	0.996470	-0.848973	0.522720	-0.077513
317	2845692													8.214368	-0.384565	-5.058003	-0.526054	-0.849832	0.032447	-0.048750	0.068223	0.996478	-0.849052	0.522620	-0.077318
318	2845858													8.212301	-0.415130	-5.059662	-0.525955	-0.849885	0.032649	-0.048528	0.068313	0.996483	-0.849127	0.522521	-0.077173
319	2846025													8.203282	-0.424401	-5.055366	-0.525879	-0.849927	0.032810	-0.048418	0.068425	0.996481	-0.849180	0.522439	-0.077135
320	2846192													8.196608	-0.413876	-5.070176	-0.525821	-0.849959	0.032898	-0.048346	0.068477	0.996481	-0.849220	0.522380	-0.077099
321	2846358													8.193361	-0.413495	-5.070419	-0.525857	-0.849933	0.032987	-0.048275	0.068543	0.996480	-0.849202	0.522413	-0.077074
322	2846525													8.170099	-0.427815	-5.102175	-0.525991	-0.849852	0.032958	-0.048196	0.068474	0.996488	-0.849124	0.522555	-0.076977
323	2846692													8.192948	-0.418189	-5.090382	-0.526194	-0.849728	0.032888	-0.048131	0.068374	0.996498	-0.849001	0.522768	-0.076876
324	2846858													8.206651	-0.431536	-5.086302	-0.526433	-0.849583	0.032809	-0.048086	0.068279	0.996507	-0.848856	0.523017	-0.076797
325	2847025													8.207291	-0.425788	-5.090895	-0.526645	-0.849456	0.032709	-0.048053	0.068163	0.996516	-0.848726	0.523238	-0.076716
326	2847192													8.185242	-0.441032	-5.099684	-0.526896	-0.849306	0.032565	-0.048101	0.068050	0.996522	-0.848567	0.523497	-0.076708
327	2847358													8.119321	-0.399622	-5.102084	-0.527209	-0.849119	0.032363	-0.048207	0.067913	0.996526	-0.848367	0.523817	-0.076738
328	2847525													8.155167	-0.385713	-5.109854	-0.527632	-0.848860	0.032259	-0.048131	0.067788	0.996538	-0.848108	0.524253	-0.076624
329	2847692													8.200243	-0.417899	-5.147229	-0.528088	-0.848579	0.032193	-0.047975	0.067662	0.996554	-0.847833	0.524724	-0.076442
330	2847858													8.236480	-0.419945	-5.148964	-0.528480	-0.848339	0.032104	-0.047896	0.067551	0.996565	-0.847594	0.525127	-0.076332
331	2848025													8.222256	-0.408768	-5.147385	-0.528775	-0.848161	0.031950	-0.047925	0.067419	0.996573	-0.847408	0.525432	-0.076297
332	2848192													8.197094	-0.364485	-5.134341	-0.529014	-0.848015	0.031855	-0.047947	0.067346	0.996577	-0.847257	0.525676	-0.076287
333	2848358													8.195368	-0.372138	-5.124012	-0.529223	-0.847885	0.031831	-0.047830	0.067268	0.996588	-0.847133	0.525895	-0.076154
334	2848525													8.174709	-0.410030	-5.121175	-0.529419	-0.847761	0.031896	-0.047641	0.067247	0.996598	-0.847022	0.526099	-0.075990
335	2848692													8.191699	-0.406182	-5.157141	-0.529600	-0.847645	0.031953	-0.047449	0.067214	0.996610	-0.846919	0.526289	-0.075816
336	2848858													8.216466	-0.396967	-5.153122	-0.529741	-0.847555	0.032008	-0.047277	0.067187	0.996620	-0.846841	0.526437	-0.075662
337	2849025													8.210264	-0.369236	-5.136281	-0.529823	-0.847499	0.032130	-0.047084	0.067219	0.996627	-0.846800	0.526523	-0.075518
338	2849192													8.162650	-0.360271	-5.145859	-0.529902	-0.847443	0.032318	-0.046852	0.067304	0.996632	-0.846764	0.526603	-0.075369
339	2849358													8.178653	-0.365119	-5.135205	-0.529962	-0.847397	0.032531	-0.046615	0.067413	0.996636	-0.846739	0.526662	-0.075228
340	2849525													8.194354	-0.390820	-5.137537	-0.530007	-0.847362	0.032709	-0.046430	0.067513	0.996637	-0.846721	0.526706	-0.075125
341	2849692													8.194128	-0.391014	-5.147013	-0.530018	-0.847347	0.032929	-0.046312	0.067699	0.996630	-0.846721	0.526707	-0.075123
342	2849858													8.181323	-0.422410	-5.167699	-0.529998	-0.847355	0.033041	-0.046312	0.067828	0.996622	-0.846733	0.526677	-0.075191
343	2850025													8.177218	-0.425842	-5.142182	-0.529987	-0.847362	0.033040	-0.046360	0.067856	0.996617	-0.846738	0.526662	-0.075246
344	2850192													8.172272	-0.425040	-5.138124	-0.529980	-0.847372	0.032888	-0.046471	0.067745	0.996620	-0.846736	0.526660	-0.075282
345	2850358													8.172329	-0.422561	-5.148913	-0.529990	-0.847375	0.032649	-0.046622	0.067560	0.996625	-0.846721	0.526679	-0.075313
346	2850525													8.177964	-0.437395	-5.145330	-0.529999	-0.847382	0.032318	-0.046798	0.067281	0.996636	-0.846706	0.526704	-0.075315
347	2850692													8.184621	-0.419104	-5.138515	-0.530023	-0.847382	0.031940	-0.046965	0.066943	0.996651	-0.846682	0.526748	-0.075278
348	2850858													8.194223	-0.392463	-5.140162	-0.530007	-0.847405	0.031576	-0.047170	0.066640	0.996661	-0.846681	0.526748	-0.075292
349	2851025													8.190734	-0.383907	-5.134799	-0.529978	-0.847434	0.031283	-0.047374	0.066419	0.996667	-0.846687	0.526729	-0.075347
350	2851192													8.191659	-0.348625	-5.112168	-0.529908	-0.847487	0.031038	-0.047573	0.066247	0.996669	-0.846720	0.526666	-0.075422
351	2851358													8.185864	-0.365821	-5.125049	-0.529825	-0.847543	0.030922	-0.047706	0.066185	0.996666	-0.846764	0.526583	-0.075500
352	2851525													8.150035	-0.405237	-5.103354	-0.529790	-0.847566	0.030908	-0.047774	0.066207	0.996662	-0.846782	0.526545	-0.075568
353	2851692													8.135190	-0.453025	-5.115620	-0.529780	-0.847572	0.030901	-0.047887	0.066268	0.996652	-0.846782	0.526527	-0.075695
354	2851859													8.144428	-0.464191	-5.156824	-0.529874	-0.847516	0.030821	-0.048091	0.066311	0.996639	-0.846712	0.526611	-0.075894
355	2852025													8.179888	-0.394958	-5.148589	-0.530023	-0.847424	0.030773	-0.048153	0.066309	0.996637	-0.846615	0.526759	-0.075951
356	2852192													8.216984	-0.434534	-5.141731	-0.530150	-0.847344	0.030818	-0.048009	0.066285	0.996645	-0.846544	0.526892	-0.075821
357	2852359													8.229671	-0.459242	-5.150407	-0.530199	-0.847313	0.030822	-0.047869	0.066208	0.996657	-0.846521	0.526951	-0.075664
358	2852525													8.214905	-0.429113	-5.122796	-0.530155	-0.847342	0.030768	-0.047758	0.066071	0.996671	-0.846555	0.526921	-0.075495
359	2852692													8.162213	-0.389446	-5.116268	-0.530036	-0.847414	0.030836	-0.047609	0.066045	0.996680	-0.846637	0.526809	-0.075351
360	2852859													8.172539	-0.350912	-5.108169	-0.529904	-0.847491	0.030995	-0.047353	0.066060	0.996691	-0.846735	0.526683	-0.075137
361	2853025													8.176206	-0.391224	-5.126160	-0.529752	-0.847578	0.031228	-0.047095	0.066158	0.996697	-0.846844	0.526531	-0.074964
362	2853192													8.192193	-0.407344	-5.132368	-0.529596	-0.847665	0.031505	-0.046932	0.066366	0.996691	-0.846951	0.526365	-0.074930
363	2853359													8.182391	-0.407061	-5.108958	-0.529434	-0.847759	0.031684	-0.046854	0.066510	0.996685	-0.847056	0.526195	-0.074934
364	2853525													8.169062	-0.390378	-5.126433	-0.529291	-0.847841	0.031888	-0.046790	0.066697	0.996676	-0.847149	0.526040	-0.074973
365	2853692													8.183201	-0.411532	-5.124676	-0.529189	-0.847899	0.032041	-0.046754	0.066842	0.996668	-0.847215	0.525928	-0.075014
366	2853859													8.175767	-0.433896	-5.156137	-0.529127	-0.847935	0.032109	-0.046721	0.066896	0.996665	-0.847256	0.525862	-0.075012
367	2854025													8.194643	-0.449604	-5.140830	-0.529131	-0.847933	0.032099	-0.046753	0.066904	0.996663	-0.847251	0.525865	-0.075045
368	2854192													8.203784	-0.451897	-5.123328	-0.529121	-0.847943	0.032004	-0.046780	0.066808	0.996669	-0.847256	0.525861	-0.075016
369	2854359													8.164928	-0.452701	-5.118085	-0.529084	-0.847972	0.031833	-0.046831	0.066635	0.996678	-0.847276	0.525835	-0.074967
370	2854525													8.157240	-0.467654	-5.131793	-0.529040	-0.848011	0.031541	-0.046998	0.066391	0.996686	-0.847295	0.525804	-0.074978
371	2854692													8.139143	-0.370881	-5.142284	-0.529068	-0.848000	0.031342	-0.047056	0.066196	0.996696	-0.847274	0.525846	-0.074926
372	2854859													8.162901	-0.397775	-5.163603	-0.529119	-0.847973	0.031241	-0.046952	0.066018	0.996713	-0.847248	0.525913	-0.074746
373	2855025													8.182594	-0.394033	-5.128911	-0.529142	-0.847959	0.031209	-0.046816	0.065899	0.996727	-0.847241	0.525949	-0.074568
374	2855192													8.225860	-0.402892	-5.146105	-0.529065	-0.848010	0.031150	-0.046704	0.065752	0.996742	-0.847295	0.525886	-0.074393
375	2855359													8.218483	-0.374481	-5.147767	-0.528853	-0.848142	0.031126	-0.046670	0.065681	0.996749	-0.847429	0.525681	-0.074318
376	2855525													8.190359	-0.355789	-5.142241	-0.528572	-0.848314	0.031217	-0.046534	0.065674	0.996756	-0.847612	0.525404	-0.074189
377	2855692													8.190200	-0.384553	-5.148191	-0.528221	-0.848526	0.031391	-0.046325	0.065713	0.996763	-0.847842	0.525057	-0.074019
378	2855859													8.195866	-0.390762	-5.142251	-0.527825	-0.848765	0.031588	-0.046084	0.065755	0.996771	-0.848102	0.524665	-0.073821
379	2856025													8.223744	-0.412201	-5.142887	-0.527364	-0.849043	0.031832	-0.045860	0.065855	0.996775	-0.848401	0.524204	-0.073667
380	2856192													8.219482	-0.390118	-5.155633	-0.526790	-0.849391	0.032043	-0.045646	0.065913	0.996781	-0.848769	0.523632	-0.073494
381	2856359													8.207337	-0.372566	-5.132492	-0.526081	-0.849820	0.032305	-0.045393	0.065992	0.996787	-0.849222	0.522925	-0.073294
382	2856525													8.190641	-0.379984	-5.142322	-0.525332	-0.850274	0.032558	-0.045150	0.066063	0.996793	-0.849699	0.522177	-0.073095
383	2856692													8.204985	-0.375090	-5.142193	-0.524509	-0.850773	0.032793	-0.044945	0.066131	0.996798	-0.850218	0.521355	-0.072925
384	2856859													8.228695	-0.391071	-5.114618	-0.523592	-0.851328	0.033045	-0.044794	0.066241	0.996798	-0.850791	0.520435	-0.072818
385	2857025													8.256508	-0.367969	-5.138498	-0.522538	-0.851968	0.033245	-0.044651	0.066282	0.996801	-0.851446	0.519382	-0.072676
386	2857192													8.276983	-0.377450	-5.164461	-0.521262	-0.852737	0.033554	-0.044453	0.066396	0.996803	-0.852238	0.518103	-0.072517
387	2857359													8.308764	-0.393136	-5.180092	-0.519742	-0.853651	0.033894	-0.044209	0.066495	0.996807	-0.853179	0.516584	-0.072300
388	2857525													8.306955	-0.389949	-5.175076	-0.517951	-0.854728	0.034170	-0.043994	0.066510	0.996815	-0.854279	0.514798	-0.072052
389	2857692													8.327843	-0.369720	-5.166435	-0.515873	-0.855970	0.034492	-0.043748	0.066534	0.996825	-0.855547	0.512726	-0.071770
390	2857859													8.345444	-0.347330	-5.148722	-0.513449	-0.857411	0.034890	-0.043429	0.066570	0.996836	-0.857020	0.510309	-0.071417
391	2858025													8.339958	-0.345917	-5.133572	-0.510689	-0.859038	0.035365	-0.043017	0.066612	0.996851	-0.858689	0.507560	-0.070972
392	2858192													8.377303	-0.347235	-5.098950	-0.507562	-0.860861	0.036027	-0.042618	0.066846	0.996853	-0.860560	0.504429	-0.070617
393	2858359													8.394469	-0.351675	-5.081386	-0.504023	-0.862910	0.036697	-0.042285	0.067091	0.996850	-0.862655	0.500884	-0.070303
394	2858525													8.415705	-0.329516	-5.063856	-0.500142	-0.865131	0.037502	-0.041976	0.067478	0.996837	-0.864925	0.496987	-0.070063
395	2858692													8.411082	-0.332365	-5.016639	-0.495898	-0.867532	0.038371	-0.041663	0.067905	0.996821	-0.867381	0.492723	-0.069818
396	2858859													8.413024	-0.376230	-4.976940	-0.491340	-0.870082	0.039270	-0.041376	0.068355	0.996803	-0.869984	0.488145	-0.069586
397	2859025													8.424975	-0.408488	-4.956369	-0.486487	-0.872763	0.040191	-0.041210	0.068873	0.996774	-0.872715	0.483262	-0.069472
398	2859192													8.457775	-0.388486	-4.910375	-0.481388	-0.875548	0.040990	-0.041144	0.069286	0.996748	-0.875541	0.478136	-0.069377
399	2859359													8.511112	-0.347895	-4.844348	-0.475997	-0.878453	0.041791	-0.040992	0.069629	0.996730	-0.878491	0.472728	-0.069153
400	2859525													8.548322	-0.379940	-4.783473	-0.470265	-0.881495	0.042623	-0.040731	0.069923	0.996720	-0.881585	0.466987	-0.068787
401	2859692													8.613316	-0.375128	-4.743958	-0.464130	-0.884704	0.043390	-0.040538	0.070151	0.996712	-0.884839	0.460845	-0.068424
402	2859859													8.648816	-0.350769	-4.695618	-0.457563	-0.888080	0.044151	-0.040372	0.070352	0.996705	-0.888260	0.454273	-0.068044
403	2860025													8.654248	-0.312761	-4.613594	-0.450523	-0.891634	0.044921	-0.040222	0.070537	0.996698	-0.891858	0.447229	-0.067642
404	2860192													8.711575	-0.278364	-4.559836	-0.443011	-0.895348	0.045760	-0.040058	0.070760	0.996689	-0.895621	0.439711	-0.067213
405	2860359													8.775247	-0.284082	-4.475519	-0.435007	-0.899214	0.046728	-0.039893	0.071091	0.996672	-0.899543	0.431695	-0.066798
406	2860525													8.814381	-0.306349	-4.392612	-0.426506	-0.903222	0.047781	-0.039815	0.071524	0.996644	-0.903608	0.423173	-0.066467
407	2860692													8.859421	-0.307675	-4.283126	-0.417491	-0.907364	0.048900	-0.039862	0.072050	0.996604	-0.907806	0.414124	-0.066250
408	2860859													8.871891	-0.300934	-4.225789	-0.407999	-0.911609	0.050051	-0.040010	0.072622	0.996557	-0.912105	0.404592	-0.066103
409	2861025													8.924593	-0.355914	-4.099822	-0.398145	-0.915889	0.051267	-0.040254	0.073278	0.996499	-0.916439	0.394688	-0.066044
410	2861192													8.897965	-0.419959	-3.961745	-0.387927	-0.920204	0.052328	-0.040536	0.073753	0.996452	-0.920798	0.384429	-0.065912
411	2861359													8.824090	-0.409881	-3.842050	-0.377715	-0.924396	0.053136	-0.040958	0.074012	0.996416	-0.925016	0.374185	-0.065817
412	2861525													8.902156	-0.464436	-3.701519	-0.367652	-0.928412	0.053692	-0.041609	0.074100	0.996382	-0.929032	0.364088	-0.065874
413	2861692													9.016525	-0.389658	-3.563876	-0.357624	-0.932307	0.053937	-0.042600	0.073984	0.996349	-0.932893	0.354021	-0.066175
414	2861859													8.995507	-0.352994	-3.443101	-0.347602	-0.936078	0.054142	-0.043676	0.073845	0.996313	-0.936624	0.343956	-0.066553
415	2862025													8.951786	-0.324279	-3.315620	-0.337733	-0.939675	0.054285	-0.044769	0.073646	0.996279	-0.940177	0.334046	-0.066941
416	2862192													9.010554	-0.309011	-3.209464	-0.328233	-0.943024	0.054485	-0.045871	0.073526	0.996238	-0.943482	0.324499	-0.067391
417	2862359													9.147109	-0.332061	-3.097862	-0.318912	-0.946200	0.054776	-0.047003	0.073512	0.996186	-0.946618	0.315121	-0.067918
418	2862525													9.236500	-0.379358	-3.002845	-0.309574	-0.949277	0.055110	-0.048171	0.073540	0.996128	-0.949654	0.305721	-0.068494
419	2862692													9.323203	-0.438979	-2.880880	-0.300063	-0.952310	0.055393	-0.049424	0.073511	0.996069	-0.952638	0.296145	-0.069125
420	2862859													9.326074	-0.448421	-2.788349	-0.290377	-0.955296	0.055593	-0.050695	0.073372	0.996015	-0.955569	0.286402	-0.069734
421	2863025													9.354487	-0.443545	-2.670894	-0.280556	-0.958221	0.055686	-0.051941	0.073088	0.995972	-0.958431	0.276534	-0.070277
422	2863192													9.345435	-0.466268	-2.580414	-0.270737	-0.961039	0.055726	-0.053107	0.072710	0.995938	-0.961187	0.266678	-0.070724
423	2863359													9.321733	-0.452067	-2.482573	-0.260946	-0.963746	0.055692	-0.054215	0.072231	0.995913	-0.963830	0.256860	-0.071097
424	2863525													9.327290	-0.449899	-2.386868	-0.251362	-0.966295	0.055602	-0.055280	0.071685	0.995894	-0.966313	0.247256	-0.071436
425	2863692													9.418392	-0.444327	-2.293129	-0.241898	-0.968715	0.055468	-0.056338	0.071091	0.995878	-0.968665	0.237776	-0.071772
426	2863859													9.494890	-0.448899	-2.200208	-0.232429	-0.971036	0.055372	-0.057329	0.070510	0.995862	-0.970922	0.228293	-0.072057
427	2864025													9.581749	-0.458609	-2.120484	-0.222769	-0.973299	0.055345	-0.058251	0.069960	0.995848	-0.973129	0.218620	-0.072281
428	2864192													9.552519	-0.482751	-2.054657	-0.212823	-0.975522	0.055339	-0.059119	0.069388	0.995836	-0.975301	0.208665	-0.072439
429	2864359													9.525497	-0.538411	-1.969350	-0.202759	-0.977665	0.055321	-0.060004	0.068793	0.995825	-0.977389	0.198593	-0.072613
430	2864525													9.544087	-0.578468	-1.881907	-0.192660	-0.979716	0.055127	-0.061083	0.068045	0.995811	-0.979362	0.188486	-0.072953
431	2864692													9.570160	-0.562269	-1.800160	-0.182522	-0.981675	0.054763	-0.062269	0.067129	0.995799	-0.981228	0.178346	-0.073380
432	2864859													9.605844	-0.577168	-1.729213	-0.172354	-0.983535	0.054333	-0.063439	0.066127	0.995793	-0.982990	0.168182	-0.073792
433	2865025													9.625473	-0.605502	-1.665133	-0.162055	-0.985315	0.053780	-0.064555	0.064970	0.995797	-0.984668	0.157902	-0.074136
434	2865192													9.599861	-0.633714	-1.548305	-0.151695	-0.987001	0.053087	-0.065669	0.063654	0.995809	-0.986244	0.147573	-0.074471
435	2865359													9.613310	-0.630810	-1.437430	-0.141329	-0.988583	0.052255	-0.066758	0.062181	0.995830	-0.987709	0.137251	-0.074783
436	2865525													9.651809	-0.617766	-1.354865	-0.131001	-0.990052	0.051336	-0.067807	0.060609	0.995856	-0.989061	0.126977	-0.075072
437	2865692													9.663244	-0.601184	-1.268031	-0.120640	-0.991417	0.050392	-0.068822	0.058994	0.995883	-0.990308	0.116675	-0.075349
438	2865859													9.689816	-0.634725	-1.159018	-0.110326	-0.992663	0.049478	-0.069779	0.057396	0.995910	-0.991443	0.106423	-0.075599
439	2866025													9.733932	-0.648167	-1.048120	-0.099995	-0.993801	0.048579	-0.070690	0.055797	0.995937	-0.992474	0.096155	-0.075831
440	2866192													9.715740	-0.658412	-0.919904	-0.089673	-0.994830	0.047665	-0.071586	0.054172	0.995962	-0.993395	0.085899	-0.076074
441	2866359													9.736875	-0.664372	-0.830172	-0.079406	-0.995744	0.046781	-0.072520	0.052575	0.995980	-0.994201	0.075694	-0.076386
442	2866525													9.673293	-0.678065	-0.716393	-0.069242	-0.996544	0.045898	-0.073439	0.050975	0.995996	-0.994893	0.065594	-0.076715
443	2866692													9.684443	-0.658093	-0.603937	-0.059295	-0.997223	0.045064	-0.074350	0.049430	0.996006	-0.995468	0.055708	-0.077075
444	2866859													9.646934	-0.643835	-0.499601	-0.049631	-0.997782	0.044370	-0.075241	0.048034	0.996008	-0.995930	0.046094	-0.077458
445	2867025													9.703513	-0.660689	-0.379093	-0.040247	-0.998229	0.043803	-0.076126	0.046775	0.996000	-0.996286	0.036751	-0.077874
446	2867192													9.754098	-0.682519	-0.262409	-0.031012	-0.998578	0.043354	-0.077050	0.045634	0.995982	-0.996545	0.027547	-0.078356
447	2867359													9.740210	-0.689414	-0.148801	-0.021853	-0.998836	0.042998	-0.077943	0.044579	0.995961	-0.996718	0.018413	-0.078827
448	2867525													9.738878	-0.687391	-0.049914	-0.012816	-0.999004	0.042745	-0.078775	0.043624	0.995937	-0.996810	0.009397	-0.079256
449	2867692													9.740374	-0.687559	0.027405	-0.003867	-0.999084	0.042628	-0.079548	0.042800	0.995912	-0.996824	0.000460	-0.079640
450	2867859													9.705535	-0.711980	0.119824	0.005006	-0.999080	0.042586	-0.080279	0.042048	0.995885	-0.996760	-0.008405	-0.079994
451	2868025													9.708479	-0.729927	0.202416	0.013693	-0.999000	0.042563	-0.081003	0.041319	0.995857	-0.996620	-0.017084	-0.080356
452	2868192													9.748122	-0.744433	0.290733	0.022245	-0.998846	0.042559	-0.081718	0.040610	0.995828	-0.996407	-0.025630	-0.080721
453	2868359													9.758737	-0.751429	0.361483	0.030692	-0.998622	0.042563	-0.082390	0.039910	0.995801	-0.996127	-0.034070	-0.081051
454	2868526													9.759276	-0.766968	0.427953	0.039072	-0.998330	0.042550	-0.082970	0.039194	0.995781	-0.995786	-0.042438	-0.081300
455	2868692													9.788933	-0.792296	0.472768	0.047403	-0.997973	0.042471	-0.083463	0.038412	0.995770	-0.995383	-0.050747	-0.081473
456	2868859													9.807748	-0.827255	0.521717	0.055789	-0.997547	0.042288	-0.083908	0.037520	0.995767	-0.994911	-0.059101	-0.081608
457	2869026													9.802655	-0.838438	0.574527	0.064260	-0.997052	0.041927	-0.084222	0.036445	0.995780	-0.994373	-0.067520	-0.081632
458	2869192													9.866316	-0.870637	0.640162	0.072895	-0.996481	0.041373	-0.084454	0.035167	0.995807	-0.993757	-0.076083	-0.081593
459	2869359													9.858802	-0.884275	0.679081	0.081771	-0.995824	0.040598	-0.084603	0.033652	0.995846	-0.993054	-0.084866	-0.081498
460	2869526													9.756678	-0.820033	0.762328	0.090803	-0.995079	0.039658	-0.084585	0.031972	0.995903	-0.992270	-0.093785	-0.081265
461	2869692													9.775325	-0.829552	0.825136	0.099875	-0.994249	0.038643	-0.084292	0.030243	0.995982	-0.991423	-0.102730	-0.080786
462	2869859													9.765195	-0.831214	0.909003	0.108995	-0.993333	0.037553	-0.083814	0.028460	0.996075	-0.990503	-0.111714	-0.080153
463	2870026													9.741477	-0.818745	0.997692	0.118164	-0.992329	0.036351	-0.083168	0.026588	0.996181	-0.989505	-0.120735	-0.079388
464	2870192													9.753510	-0.779599	1.087055	0.127364	-0.991236	0.035068	-0.082424	0.024656	0.996292	-0.988425	-0.129782	-0.078561
465	2870359													9.765133	-0.745856	1.173466	0.136602	-0.990049	0.033816	-0.081519	0.022785	0.996411	-0.987266	-0.138869	-0.077595
466	2870526													9.747676	-0.712032	1.240008	0.145926	-0.988757	0.032626	-0.080437	0.021012	0.996538	-0.986020	-0.148045	-0.076466
467	2870692													9.707152	-0.698962	1.367671	0.155244	-0.987373	0.031532	-0.079239	0.019370	0.996667	-0.984693	-0.157226	-0.075231
468	2870859													9.703169	-0.681591	1.482291	0.164530	-0.985899	0.030550	-0.078004	0.017870	0.996793	-0.983283	-0.166385	-0.073964
469	2871026													9.735559	-0.636993	1.586139	0.173831	-0.984327	0.029713	-0.076800	0.016530	0.996909	-0.981776	-0.175576	-0.072723
470	2871192													9.742652	-0.601177	1.677899	0.183189	-0.982647	0.029082	-0.075663	0.015401	0.997015	-0.980162	-0.184843	-0.071528
471	2871359													9.686164	-0.578896	1.774735	0.192573	-0.980864	0.028673	-0.074699	0.014482	0.997101	-0.978435	-0.194157	-0.070481
472	2871526													9.628569	-0.567433	1.931711	0.201897	-0.978991	0.028520	-0.073907	0.013807	0.997170	-0.976614	-0.203433	-0.069566
473	2871692													9.548452	-0.610166	2.010180	0.211021	-0.977065	0.028516	-0.073261	0.013281	0.997224	-0.974732	-0.212525	-0.068779
474	2871859													9.522038	-0.608416	2.127884	0.219849	-0.975115	0.028588	-0.072766	0.012831	0.997266	-0.972816	-0.221328	-0.068134
475	2872026													9.513184	-0.606660	2.235482	0.228341	-0.973159	0.028672	-0.072422	0.012390	0.997297	-0.970884	-0.229801	-0.067649
476	2872192													9.506283	-0.632816	2.323239	0.236511	-0.971203	0.028757	-0.072164	0.011956	0.997321	-0.968945	-0.237953	-0.067258
477	2872359													9.502066	-0.661512	2.432850	0.244362	-0.969256	0.028818	-0.071999	0.011501	0.997338	-0.967007	-0.245786	-0.066975
478	2872526													9.526257	-0.674610	2.515733	0.251958	-0.967311	0.028764	-0.071949	0.010916	0.997349	-0.965060	-0.253360	-0.066847
479	2872692													9.505647	-0.660009	2.596949	0.259360	-0.965357	0.028596	-0.072012	0.010196	0.997352	-0.963092	-0.260732	-0.066873
480	2872859													9.464968	-0.654227	2.679352	0.266537	-0.963407	0.028357	-0.072170	0.009389	0.997348	-0.961119	-0.267877	-0.067026
481	2873026													9.428120	-0.656584	2.764467	0.273507	-0.961461	0.028060	-0.072331	0.008531	0.997344	-0.959147	-0.274810	-0.067210
482	2873192													9.452568	-0.679386	2.824997	0.280261	-0.959523	0.027738	-0.072370	0.007694	0.997348	-0.957192	-0.281525	-0.067285
483	2873359													9.420338	-0.668312	2.898385	0.286873	-0.957578	0.027338	-0.072366	0.006794	0.997355	-0.955231	-0.288093	-0.067347
484	2873526													9.418977	-0.654533	2.961003	0.293319	-0.955635	0.026934	-0.072363	0.005899	0.997361	-0.953272	-0.294494	-0.067423
485	2873692													9.370938	-0.642396	3.034680	0.299623	-0.953690	0.026484	-0.072386	0.004955	0.997364	-0.951308	-0.300751	-0.067549
486	2873859													9.415949	-0.672581	3.061563	0.305786	-0.951745	0.026000	-0.072435	0.003974	0.997365	-0.949341	-0.306863	-0.067724
487	2874026													9.397161	-0.689392	3.115944	0.311921	-0.949766	0.025512	-0.072478	0.002988	0.997366	-0.947340	-0.312948	-0.067905
488	2874192													9.414083	-0.705468	3.184002	0.318026	-0.947753	0.024952	-0.072521	0.001923	0.997365	-0.945304	-0.318998	-0.068121
489	2874359													9.378165	-0.675904	3.251466	0.324238	-0.945663	0.024313	-0.072379	0.000826	0.997377	-0.943202	-0.325148	-0.068179
490	2874526													9.323761	-0.681851	3.323172	0.330406	-0.943542	0.023663	-0.072034	-0.000211	0.997402	-0.941086	-0.331252	-0.068037
491	2874692													9.363977	-0.687514	3.389173	0.336565	-0.941382	0.022901	-0.071538	-0.001312	0.997437	-0.938939	-0.337341	-0.067786
492	2874859													9.315371	-0.611997	3.432575	0.342787	-0.939154	0.022049	-0.070927	-0.002470	0.997478	-0.936732	-0.343487	-0.067458
493	2875026													9.296627	-0.555387	3.503948	0.348974	-0.936890	0.021322	-0.070280	-0.003476	0.997521	-0.934493	-0.349608	-0.067058
494	2875192													9.287298	-0.535257	3.542640	0.355238	-0.934545	0.020777	-0.069665	-0.004303	0.997561	-0.932176	-0.355819	-0.066634
495	2875359													9.304889	-0.547272	3.614027	0.361637	-0.932095	0.020431	-0.069187	-0.004977	0.997591	-0.929748	-0.362179	-0.066288
496	2875526													9.240829	-0.587659	3.690655	0.368204	-0.929525	0.020236	-0.068862	-0.005560	0.997611	-0.927192	-0.368717	-0.066056
497	2875692													9.192139	-0.591836	3.785881	0.374897	-0.926849	0.020067	-0.068631	-0.006160	0.997623	-0.924523	-0.375383	-0.065920
498	2875859													9.122461	-0.586370	3.886338	0.381552	-0.924133	0.019898	-0.068369	-0.006747	0.997637	-0.921816	-0.382011	-0.065757
499	2876026													9.072727	-0.585409	3.986283	0.387996	-0.921449	0.019746	-0.068037	-0.007270	0.997656	-0.919146	-0.388430	-0.065513
500	2876192													9.054850	-0.606274	4.063505	0.394088	-0.918864	0.019558	-0.067611	-0.007762	0.997682	-0.916582	-0.394497	-0.065184
501	2876359													9.077029	-0.619420	4.119978	0.399814	-0.916394	0.019257	-0.067083	-0.008302	0.997713	-0.914138	-0.400191	-0.064794
502	2876526													8.965587	-0.558036	4.169172	0.405206	-0.914030	0.018878	-0.066558	-0.008899	0.997743	-0.911799	-0.405548	-0.064442
503	2876692													8.970115	-0.573387	4.202514	0.410035	-0.911882	0.018496	-0.066179	-0.009520	0.997762	-0.909666	-0.410341	-0.064251
504	2876859													8.933177	-0.583006	4.237934	0.414431	-0.909903	0.017986	-0.065933	-0.010307	0.997771	-0.907689	-0.414693	-0.064264
505	2877026													8.874941	-0.539087	4.249401	0.418171	-0.908201	0.017447	-0.065742	-0.011103	0.997775	-0.905986	-0.418388	-0.064350
506	2877192													8.927762	-0.536706	4.232530	0.421361	-0.906734	0.016995	-0.065581	-0.011774	0.997778	-0.904519	-0.421539	-0.064426
507	2877359													8.956237	-0.607371	4.242597	0.424185	-0.905426	0.016472	-0.065464	-0.012517	0.997776	-0.903206	-0.424320	-0.064582
508	2877526													8.989303	-0.618044	4.239042	0.426733	-0.904239	0.015844	-0.065398	-0.013381	0.997770	-0.902010	-0.426817	-0.064845
509	2877692													8.960095	-0.633096	4.223785	0.429144	-0.903110	0.015098	-0.065406	-0.014399	0.997755	-0.900865	-0.429168	-0.065248
510	2877859													8.954594	-0.613312	4.226073	0.431317	-0.902088	0.014252	-0.065349	-0.015482	0.997742	-0.899831	-0.431274	-0.065628
511	2878026													9.011466	-0.651730	4.216515	0.433380	-0.901113	0.013306	-0.065154	-0.016602	0.997737	-0.898853	-0.433266	-0.065907
512	2878192													8.954943	-0.617717	4.197203	0.435395	-0.900156	0.012264	-0.064858	-0.017777	0.997736	-0.897900	-0.435205	-0.066122
513	2878359													8.991501	-0.635258	4.209567	0.437292	-0.899251	0.011128	-0.064417	-0.018978	0.997743	-0.897010	-0.437022	-0.066226
514	2878526													9.087656	-0.651749	4.220835	0.439326	-0.898273	0.009928	-0.063811	-0.020181	0.997758	-0.896058	-0.438975	-0.066186
515	2878692													8.966436	-0.600796	4.229052	0.441494	-0.897221	0.008788	-0.063098	-0.021275	0.997781	-0.895043	-0.441069	-0.066005
516	2878859													8.949704	-0.574525	4.245826	0.443587	-0.896197	0.007831	-0.062309	-0.022122	0.997812	-0.894063	-0.443104	-0.065654
517	2879026													8.985922	-0.580165	4.274025	0.445636	-0.895187	0.006996	-0.061499	-0.022817	0.997846	-0.893099	-0.445106	-0.065221
518	2879192													8.948214	-0.546997	4.317107	0.447727	-0.894148	0.006322	-0.060820	-0.023399	0.997874	-0.892099	-0.447160	-0.064859
519	2879359													8.945350	-0.497148	4.358189	0.449741	-0.893140	0.005791	-0.060338	-0.023912	0.997892	-0.891119	-0.449142	-0.064644
520	2879526													8.978017	-0.482445	4.360368	0.451780	-0.892112	0.005546	-0.059976	-0.024169	0.997907	-0.890111	-0.451168	-0.064424
521	2879692													8.930865	-0.564118	4.422558	0.453928	-0.891022	0.005457	-0.059764	-0.024335	0.997916	-0.889032	-0.453308	-0.064298
522	2879859													8.888103	-0.626547	4.500418	0.456073	-0.889926	0.005377	-0.059682	-0.024557	0.997915	-0.887939	-0.455444	-0.064312
523	2880026													8.877460	-0.629091	4.513532	0.458279	-0.888793	0.005184	-0.059593	-0.024907	0.997912	-0.886808	-0.457631	-0.064380
524	2880192													8.822294	-0.641022	4.521865	0.460499	-0.887647	0.004963	-0.059343	-0.025207	0.997919	-0.885675	-0.459835	-0.064283
525	2880359													8.784035	-0.645446	4.535093	0.462674	-0.886517	0.004635	-0.058963	-0.025556	0.997933	-0.884566	-0.461991	-0.064096
526	2880526													8.819624	-0.547876	4.537070	0.464813	-0.885398	0.004335	-0.058517	-0.025834	0.997952	-0.883473	-0.464115	-0.063819
527	2880692													8.784418	-0.474720	4.564540	0.466994	-0.884251	0.004149	-0.058142	-0.026024	0.997969	-0.882347	-0.466287	-0.063565
528	2880859													8.820308	-0.398304	4.565721	0.469292	-0.883033	0.004285	-0.058032	-0.025999	0.997976	-0.881134	-0.468591	-0.063445
529	2881026													8.889409	-0.449170	4.590551	0.471781	-0.881704	0.004647	-0.058270	-0.025919	0.997964	-0.879788	-0.471091	-0.063605
530	2881192													8.863923	-0.427090	4.645083	0.474612	-0.880180	0.005215	-0.058815	-0.025801	0.997935	-0.878228	-0.473939	-0.064013
531	2881359													8.718236	-0.547258	4.629760	0.477538	-0.878592	0.005775	-0.059407	-0.025730	0.997902	-0.876600	-0.476879	-0.064481
532	2881526													8.709278	-0.623796	4.705148	0.480324	-0.877069	0.006201	-0.059984	-0.025795	0.997866	-0.875038	-0.479671	-0.064999
533	2881692													8.759260	-0.673804	4.732663	0.482933	-0.875633	0.006473	-0.060489	-0.025985	0.997831	-0.873566	-0.482277	-0.065515
534	2881859													8.741337	-0.654651	4.806979	0.485456	-0.874237	0.006517	-0.060811	-0.026329	0.997802	-0.872143	-0.484786	-0.065945
535	2882026													8.697341	-0.728102	4.886550	0.487723	-0.872975	0.006415	-0.060891	-0.026688	0.997788	-0.870873	-0.487034	-0.066173
536	2882192													8.716390	-0.677370	4.921598	0.489827	-0.871798	0.006069	-0.060730	-0.027176	0.997784	-0.869702	-0.489110	-0.066256
537	2882359													8.670729	-0.628470	4.948095	0.491646	-0.870777	0.005627	-0.060267	-0.027580	0.997801	-0.868707	-0.490904	-0.066039
538	2882526													8.652435	-0.587101	4.950373	0.493205	-0.869898	0.005141	-0.059581	-0.027883	0.997834	-0.867870	-0.492443	-0.065581
539	2882692													8.676431	-0.552511	5.010465	0.494457	-0.869189	0.004737	-0.058859	-0.028045	0.997872	-0.867207	-0.493684	-0.065026
540	2882859													8.694020	-0.519532	4.993485	0.495560	-0.868563	0.004404	-0.058172	-0.028131	0.997910	-0.866624	-0.494780	-0.064466
541	2883026													8.713336	-0.486036	5.006560	0.496605	-0.867966	0.004208	-0.057625	-0.028132	0.997942	-0.866062	-0.495825	-0.063987
542	2883192													8.636904	-0.483833	4.975912	0.497560	-0.867419	0.004211	-0.057189	-0.027960	0.997972	-0.865542	-0.496792	-0.063519
543	2883359													8.688156	-0.507848	5.011246	0.498310	-0.866988	0.004262	-0.056839	-0.027763	0.997997	-0.865134	-0.497554	-0.063113
544	2883526													8.638712	-0.457278	4.987268	0.499023	-0.866577	0.004404	-0.056534	-0.027483	0.998022	-0.864743	-0.498285	-0.062706
545	2883692													8.635559	-0.439424	5.012561	0.499539	-0.866279	0.004663	-0.056429	-0.027168	0.998037	-0.864452	-0.498821	-0.062454
546	2883859													8.673244	-0.486050	4.982744	0.500044	-0.865986	0.004898	-0.056511	-0.026986	0.998037	-0.864154	-0.499339	-0.062432
547	2884026													8.665520	-0.506875	4.997964	0.500626	-0.865648	0.005089	-0.056702	-0.026924	0.998028	-0.863804	-0.499928	-0.062563
548	2884192													8.642570	-0.552678	4.976275	0.501290	-0.865263	0.005210	-0.056910	-0.026961	0.998015	-0.863406	-0.500592	-0.062757
549	2884359													8.629116	-0.629152	4.978258	0.501901	-0.864909	0.005184	-0.057117	-0.027163	0.997998	-0.863037	-0.501193	-0.063034
550	2884526													8.629285	-0.559609	5.004686	0.502404	-0.864618	0.005053	-0.057105	-0.027350	0.997994	-0.862745	-0.501685	-0.063114
551	2884692													8.637098	-0.568600	5.055337	0.502810	-0.864383	0.004942	-0.056946	-0.027420	0.998001	-0.862519	-0.502086	-0.063010
552	2884859													8.630845	-0.589170	5.075103	0.503104	-0.864213	0.004805	-0.056768	-0.027499	0.998009	-0.862360	-0.502375	-0.062894
553	2885026													8.676837	-0.535380	5.088109	0.503248	-0.864129	0.004683	-0.056636	-0.027574	0.998014	-0.862284	-0.502514	-0.062817
554	2885193													8.629871	-0.535262	5.108723	0.503248	-0.864129	0.004690	-0.056497	-0.027486	0.998024	-0.862293	-0.502519	-0.062653
555	2885359													8.617179	-0.541766	5.151994	0.502968	-0.864292	0.004784	-0.056289	-0.027233	0.998043	-0.862470	-0.502253	-0.062347
556	2885526													8.617457	-0.531229	5.145696	0.502403	-0.864619	0.004920	-0.055983	-0.026851	0.998071	-0.862819	-0.501710	-0.061894
557	2885693													8.622120	-0.487428	5.149230	0.501573	-0.865101	0.005067	-0.055702	-0.026449	0.998097	-0.863320	-0.500900	-0.061454
558	2885859													8.630899	-0.516014	5.138961	0.500468	-0.865739	0.005288	-0.055407	-0.025934	0.998127	-0.863980	-0.499824	-0.060947
559	2886026													8.627975	-0.541820	5.092796	0.499171	-0.866486	0.005534	-0.055133	-0.025386	0.998156	-0.864748	-0.498556	-0.060444
560	2886193													8.594918	-0.574544	5.021510	0.497811	-0.867267	0.005623	-0.054745	-0.024951	0.998189	-0.865556	-0.497218	-0.059899
561	2886359													8.639637	-0.524805	4.978418	0.496267	-0.868152	0.005549	-0.054356	-0.024691	0.998216	-0.866467	-0.495684	-0.059443
562	2886526													8.673663	-0.416393	4.998672	0.494645	-0.869077	0.005555	-0.054025	-0.024368	0.998242	-0.867414	-0.494075	-0.059005
563	2886693													8.558349	-0.297717	4.968867	0.492819	-0.870111	0.005962	-0.053789	-0.023625	0.998273	-0.868467	-0.492289	-0.058445
564	2886859													8.553314	-0.162600	4.969783	0.490417	-0.871459	0.007076	-0.053995	-0.022279	0.998293	-0.869814	-0.489962	-0.057981
565	2887026													8.700441	-0.177606	5.003570	0.487469	-0.873094	0.008998	-0.054959	-0.020397	0.998280	-0.871409	-0.487126	-0.057927
566	2887193													8.768909	-0.313005	4.990861	0.484155	-0.874905	0.011667	-0.056661	-0.018043	0.998230	-0.873146	-0.483959	-0.058308
567	2887359													8.741295	-0.475248	4.889358	0.480732	-0.876749	0.014430	-0.058783	-0.015803	0.998146	-0.874895	-0.480689	-0.059135
568	2887526													8.565899	-0.541500	4.835030	0.476875	-0.878805	0.017104	-0.061122	-0.013743	0.998036	-0.876844	-0.476983	-0.060268
569	2887693													8.600540	-0.638586	4.779248	0.472238	-0.881255	0.019515	-0.063462	-0.011908	0.997913	-0.879183	-0.472491	-0.061550
570	2887859													8.883201	-0.764277	4.724988	0.467287	-0.883845	0.021462	-0.065560	-0.010433	0.997794	-0.881672	-0.467663	-0.062820
571	2888026													8.948860	-0.754211	4.643659	0.462620	-0.886261	0.022882	-0.067320	-0.009381	0.997687	-0.883997	-0.463090	-0.064003
572	2888193													8.916297	-0.696537	4.557268	0.458125	-0.888562	0.024055	-0.068797	-0.008464	0.997595	-0.886221	-0.458678	-0.065008
573	2888359													8.811387	-0.679165	4.509630	0.453713	-0.890793	0.025141	-0.069899	-0.007448	0.997526	-0.888402	-0.454348	-0.065644
574	2888526													8.606289	-0.655940	4.504306	0.448736	-0.893279	0.026248	-0.070857	-0.006285	0.997467	-0.890851	-0.449459	-0.066115
575	2888693													8.708570	-0.811587	4.493519	0.442730	-0.896240	0.027275	-0.071801	-0.005114	0.997406	-0.893776	-0.443540	-0.066615
576	2888859													9.058346	-0.724487	4.435502	0.436440	-0.899300	0.027931	-0.072700	-0.004306	0.997345	-0.896791	-0.437312	-0.067258
577	2889026													9.092240	-0.622518	4.362358	0.430485	-0.902141	0.028723	-0.073317	-0.003233	0.997303	-0.899615	-0.431430	-0.067534
578	2889193													9.019331	-0.741413	4.258891	0.424719	-0.904841	0.029613	-0.073744	-0.001977	0.997275	-0.902317	-0.425746	-0.067566
579	2889359													8.839272	-0.799977	4.209270	0.418822	-0.907560	0.030385	-0.074116	-0.000816	0.997249	-0.905039	-0.419922	-0.067606
580	2889526													8.845371	-0.772943	4.184994	0.412453	-0.910454	0.030923	-0.074503	0.000119	0.997221	-0.907927	-0.413610	-0.067783
581	2889693													8.981085	-0.703692	4.115150	0.405743	-0.913448	0.031402	-0.074740	0.001083	0.997202	-0.910926	-0.406955	-0.067832
582	2889859													9.050201	-0.728966	4.028385	0.399066	-0.916367	0.031908	-0.074680	0.002201	0.997205	-0.913876	-0.400334	-0.067555
583	2890026													9.095215	-0.743908	3.942117	0.392479	-0.919190	0.032395	-0.074427	0.003366	0.997221	-0.916745	-0.393799	-0.067092
584	2890193													9.053841	-0.746269	3.903075	0.385963	-0.921930	0.032832	-0.074155	0.004469	0.997237	-0.919529	-0.387331	-0.066641
585	2890359													9.148000	-0.744569	3.780421	0.379375	-0.924653	0.033034	-0.073935	0.005293	0.997249	-0.922284	-0.380774	-0.066356
586	2890526													9.156216	-0.664818	3.709688	0.372778	-0.927328	0.033150	-0.073736	0.006009	0.997260	-0.924986	-0.374200	-0.066137
587	2890693													9.200091	-0.628158	3.660929	0.366061	-0.929995	0.033286	-0.073599	0.006723	0.997265	-0.927676	-0.367510	-0.065986
588	2890859													9.297129	-0.666888	3.580623	0.359337	-0.932605	0.033529	-0.073532	0.007521	0.997265	-0.930306	-0.360820	-0.065874
589	2891026													9.218637	-0.680812	3.529074	0.352539	-0.935189	0.033733	-0.073588	0.008231	0.997255	-0.932899	-0.354053	-0.065917
590	2891193													9.278852	-0.676941	3.456361	0.345476	-0.937814	0.033937	-0.073790	0.008904	0.997234	-0.935522	-0.347025	-0.066125
591	2891359													9.294834	-0.699327	3.356523	0.338229	-0.940441	0.034234	-0.073986	0.009691	0.997212	-0.938151	-0.339819	-0.066302
592	2891526													9.236401	-0.733945	3.271238	0.330616	-0.943132	0.034582	-0.074106	0.010586	0.997194	-0.940852	-0.332251	-0.066392
593	2891693													9.348678	-0.764541	3.206334	0.322639	-0.945875	0.035001	-0.074068	0.011635	0.997185	-0.943620	-0.324324	-0.066305
594	2891859													9.409986	-0.763994	3.127001	0.314536	-0.948588	0.035315	-0.073951	0.012603	0.997182	-0.946361	-0.316261	-0.066185
595	2892026													9.400918	-0.745026	3.050684	0.306330	-0.951259	0.035602	-0.073741	0.013574	0.997185	-0.949065	-0.308093	-0.065988
596	2892193													9.376745	-0.719039	2.971243	0.297887	-0.953929	0.035820	-0.073450	0.014508	0.997193	-0.951771	-0.299682	-0.065745
597	2892359													9.365425	-0.680358	2.897774	0.289055	-0.956632	0.036096	-0.073096	0.015540	0.997204	-0.954518	-0.290885	-0.065434
598	2892526													9.433986	-0.698826	2.817201	0.279855	-0.959352	0.036400	-0.072664	0.016640	0.997218	-0.957289	-0.281721	-0.065053
599	2892693													9.434071	-0.666758	2.702907	0.270400	-0.962050	0.036653	-0.072202	0.017700	0.997233	-0.960037	-0.272298	-0.064676
600	2892859													9.496227	-0.677700	2.614779	0.260653	-0.964727	0.036913	-0.071811	0.018755	0.997242	-0.962758	-0.262584	-0.064390
601	2893026													9.561893	-0.600145	2.511631	0.250900	-0.967299	0.037166	-0.071524	0.019764	0.997243	-0.965367	-0.252866	-0.064227
602	2893193													9.536590	-0.556067	2.421748	0.241137	-0.969763	0.037575	-0.071348	0.020898	0.997233	-0.967865	-0.243151	-0.064151
603	2893359													9.562986	-0.581325	2.302840	0.231338	-0.972126	0.038135	-0.071239	0.022166	0.997213	-0.970262	-0.233409	-0.064126
604	2893526													9.594673	-0.596705	2.204469	0.221493	-0.974390	0.038784	-0.071246	0.023496	0.997182	-0.972556	-0.223632	-0.064217
605	2893693													9.623035	-0.641401	2.112377	0.211688	-0.976542	0.039422	-0.071388	0.024779	0.997141	-0.974727	-0.213897	-0.064468
606	2893859													9.662662	-0.653552	2.038100	0.201970	-0.978575	0.039987	-0.071671	0.025951	0.997091	-0.976766	-0.204248	-0.064894
607	2894026													9.629725	-0.661605	1.964557	0.192287	-0.980504	0.040474	-0.071991	0.027038	0.997039	-0.978695	-0.194632	-0.065388
608	2894193													9.667573	-0.670925	1.855605	0.182628	-0.982329	0.040942	-0.072266	0.028118	0.996989	-0.980523	-0.185037	-0.065854
609	2894359													9.674775	-0.663455	1.763428	0.173076	-0.984039	0.041376	-0.072462	0.029174	0.996944	-0.982239	-0.175545	-0.066257
610	2894526													9.661327	-0.669449	1.678492	0.163482	-0.985661	0.041793	-0.072591	0.030230	0.996904	-0.983872	-0.166010	-0.066608
611	2894693													9.701172	-0.685987	1.603549	0.153819	-0.987200	0.042143	-0.072673	0.031232	0.996867	-0.985423	-0.156400	-0.066938
612	2894859													9.737297	-0.686888	1.496730	0.144197	-0.988636	0.042497	-0.072756	0.032237	0.996829	-0.986871	-0.146832	-0.067280
613	2895026													9.678989	-0.640170	1.401463	0.134505	-0.989985	0.042880	-0.072782	0.033286	0.996792	-0.988236	-0.137194	-0.067576
614	2895193													9.653742	-0.659601	1.291602	0.124542	-0.991267	0.043350	-0.072721	0.034453	0.996757	-0.989546	-0.127290	-0.067795
615	2895359													9.760149	-0.704585	1.178952	0.114365	-0.992470	0.043870	-0.072694	0.035681	0.996716	-0.990776	-0.117179	-0.068066
616	2895526													9.755475	-0.753824	1.066522	0.104115	-0.993579	0.044278	-0.072728	0.036795	0.996673	-0.991903	-0.106989	-0.068430
617	2895693													9.741659	-0.701585	0.998487	0.093730	-0.994598	0.044596	-0.072760	0.037831	0.996632	-0.992935	-0.096659	-0.068821
618	2895859													9.792789	-0.698344	0.903962	0.083262	-0.995514	0.044939	-0.072712	0.038907	0.996594	-0.993871	-0.086246	-0.069146
619	2896026													9.797802	-0.755147	0.783039	0.072812	-0.996323	0.045153	-0.072687	0.039852	0.996558	-0.994693	-0.075844	-0.069518
620	2896193													9.733202	-0.732252	0.663008	0.062309	-0.997033	0.045196	-0.072640	0.040633	0.996530	-0.995410	-0.065376	-0.069893
621	2896359													9.769093	-0.704231	0.580613	0.051757	-0.997637	0.045191	-0.072483	0.041380	0.996511	-0.996026	-0.054852	-0.070170
622	2896526													9.711600	-0.681578	0.464661	0.041158	-0.998131	0.045163	-0.072135	0.042115	0.996505	-0.996545	-0.044272	-0.070267
623	2896693													9.770650	-0.679878	0.341947	0.030443	-0.998518	0.045109	-0.071643	0.042834	0.996510	-0.996966	-0.033569	-0.070233
624	2896859													9.841852	-0.710744	0.245106	0.019855	-0.998789	0.045004	-0.071138	0.043488	0.996518	-0.997269	-0.022988	-0.070188
625	2897026													9.837087	-0.688572	0.135770	0.009490	-0.998951	0.044802	-0.070719	0.044022	0.996524	-0.997451	-0.012626	-0.070227
626	2897193													9.777115	-0.632124	0.047130	-0.000791	-0.999004	0.044607	-0.070333	0.044552	0.996528	-0.997523	-0.002349	-0.070299
627	2897359													9.754223	-0.610159	-0.034708	-0.011065	-0.998949	0.044489	-0.069970	0.045156	0.996527	-0.997488	0.007914	-0.070396
628	2897526													9.797132	-0.625180	-0.152015	-0.021269	-0.998785	0.044465	-0.069634	0.045847	0.996519	-0.997346	0.018099	-0.070524
629	2897693													9.802170	-0.653329	-0.244473	-0.031331	-0.998520	0.044450	-0.069347	0.046536	0.996507	-0.997101	0.028139	-0.070702
630	2897859													9.837300	-0.632091	-0.347469	-0.041188	-0.998162	0.044450	-0.069125	0.047227	0.996489	-0.996757	0.037971	-0.070943
631	2898026													9.826955	-0.629889	-0.499679	-0.050714	-0.997721	0.044517	-0.068943	0.047965	0.996467	-0.996331	0.047466	-0.071218
632	2898193													9.833982	-0.685433	-0.622347	-0.059889	-0.997212	0.044523	-0.068842	0.048623	0.996442	-0.995828	0.056610	-0.071562
633	2898359													9.851597	-0.613448	-0.714444	-0.068719	-0.996642	0.044517	-0.068773	0.049248	0.996416	-0.995263	0.065411	-0.071926
634	2898526													9.835117	-0.606403	-0.788109	-0.077114	-0.996021	0.044672	-0.068670	0.050005	0.996385	-0.994655	0.073768	-0.072253
635	2898693													9.764566	-0.631163	-0.855118	-0.085265	-0.995345	0.044926	-0.068569	0.050845	0.996350	-0.993996	0.081873	-0.072585
636	2898859													9.707147	-0.648197	-0.944888	-0.093336	-0.994607	0.045230	-0.068494	0.051735	0.996309	-0.993276	0.089894	-0.072953
637	2899026													9.698379	-0.668135	-1.023377	-0.101378	-0.993807	0.045491	-0.068461	0.052588	0.996267	-0.992490	0.097885	-0.073368
638	2899193													9.695545	-0.641036	-1.110352	-0.109363	-0.992949	0.045731	-0.068432	0.053419	0.996225	-0.991643	0.105820	-0.073792
639	2899359													9.733971	-0.662030	-1.168808	-0.117332	-0.992028	0.045977	-0.068278	0.054246	0.996191	-0.990743	0.113746	-0.074098
640	2899526													9.705763	-0.666851	-1.243822	-0.125219	-0.991052	0.046220	-0.067979	0.055048	0.996167	-0.989797	0.121597	-0.074264
641	2899693													9.604853	-0.699024	-1.275008	-0.133152	-0.990011	0.046353	-0.067563	0.055728	0.996157	-0.988790	0.129508	-0.074308
642	2899859													9.591288	-0.680220	-1.373438	-0.141273	-0.988886	0.046335	-0.067081	0.056259	0.996160	-0.987695	0.137622	-0.074283
643	2900026													9.599250	-0.648107	-1.454181	-0.149535	-0.987674	0.046264	-0.066483	0.056728	0.996174	-0.986519	0.145887	-0.074147
644	2900193													9.593656	-0.647208	-1.509327	-0.157920	-0.986373	0.046142	-0.065787	0.057134	0.996197	-0.985258	0.154284	-0.073913
645	2900359													9.563908	-0.665258	-1.558320	-0.166505	-0.984971	0.045910	-0.065099	0.057439	0.996224	-0.983889	0.162888	-0.073684
646	2900526													9.548746	-0.655942	-1.651229	-0.175263	-0.983469	0.045518	-0.064458	0.057597	0.996257	-0.982409	0.171673	-0.073488
647	2900693													9.572756	-0.626935	-1.706714	-0.184143	-0.981867	0.045042	-0.063830	0.057674	0.996293	-0.980825	0.180586	-0.073293
648	2900859													9.518252	-0.613298	-1.803915	-0.193119	-0.980165	0.044512	-0.063189	0.057696	0.996332	-0.979138	0.189598	-0.073077
649	2901026													9.448362	-0.611733	-1.857817	-0.202313	-0.978336	0.043916	-0.062543	0.057659	0.996375	-0.977322	0.198833	-0.072853
650	2901193													9.375912	-0.596146	-1.929078	-0.211927	-0.976327	0.043267	-0.061810	0.057574	0.996426	-0.975329	0.208496	-0.072548
651	2901359													9.344781	-0.609779	-2.015427	-0.221966	-0.974124	0.042579	-0.061012	0.057459	0.996482	-0.973144	0.218587	-0.072187
652	2901526													9.328724	-0.610069	-2.143578	-0.232427	-0.971716	0.041774	-0.060171	0.057234	0.996546	-0.970751	0.229110	-0.071772
653	2901693													9.314594	-0.604798	-2.307842	-0.243219	-0.969110	0.040871	-0.059358	0.056928	0.996612	-0.968153	0.239969	-0.071370
654	2901860													9.370838	-0.582522	-2.449366	-0.254149	-0.966341	0.039922	-0.058565	0.056578	0.996679	-0.965390	0.250967	-0.070973
655	2902026													9.398225	-0.570503	-2.571757	-0.265009	-0.963458	0.038966	-0.057791	0.056209	0.996745	-0.962513	0.261894	-0.070575
656	2902193													9.433194	-0.544848	-2.675605	-0.275680	-0.960497	0.038029	-0.057082	0.055850	0.996806	-0.959553	0.272629	-0.070223
657	2902360													9.380196	-0.591827	-2.814899	-0.286096	-0.957481	0.037149	-0.056486	0.055555	0.996857	-0.956535	0.283098	-0.069978
658	2902526													9.287219	-0.543517	-2.919533	-0.296320	-0.954401	0.036236	-0.056038	0.055249	0.996899	-0.953443	0.293371	-0.069854
659	2902693													9.326804	-0.465878	-2.996668	-0.306303	-0.951270	0.035554	-0.055464	0.055120	0.996938	-0.950317	0.303393	-0.069645
660	2902860													9.334731	-0.526505	-3.091528	-0.315949	-0.948128	0.035051	-0.054872	0.055142	0.996970	-0.947188	0.313069	-0.069448
661	2903026													9.291118	-0.537211	-3.156493	-0.325212	-0.945007	0.034626	-0.054355	0.055237	0.996993	-0.944078	0.322352	-0.069329
662	2903193													9.203296	-0.514442	-3.231337	-0.334187	-0.941885	0.034244	-0.053959	0.055393	0.997006	-0.940961	0.331338	-0.069334
663	2903360													9.092469	-0.444616	-3.302255	-0.343012	-0.938717	0.033968	-0.053648	0.055681	0.997006	-0.937798	0.340162	-0.069460
664	2903526													9.026748	-0.436129	-3.389378	-0.351790	-0.935465	0.033904	-0.053303	0.056179	0.996997	-0.934560	0.348926	-0.069626
665	2903693													8.908001	-0.423097	-3.494388	-0.360546	-0.932122	0.033995	-0.052872	0.056811	0.996984	-0.931242	0.357661	-0.069766
666	2903860													8.845643	-0.468991	-3.572803	-0.369427	-0.928630	0.034191	-0.052422	0.057561	0.996965	-0.927780	0.366514	-0.069945
667	2904026													8.784625	-0.451833	-3.674853	-0.378519	-0.924956	0.034345	-0.052089	0.058334	0.996937	-0.924127	0.375571	-0.070261
668	2904193													8.799441	-0.441037	-3.788474	-0.387837	-0.921083	0.034465	-0.051923	0.059165	0.996897	-0.920264	0.384844	-0.070772
669	2904360													8.822488	-0.449166	-3.916199	-0.397263	-0.917053	0.034590	-0.051896	0.060081	0.996844	-0.916236	0.394214	-0.071460
670	2904526													8.881866	-0.487302	-4.009083	-0.406712	-0.912899	0.034650	-0.052031	0.061015	0.996780	-0.912073	0.403600	-0.072315
671	2904693													8.859674	-0.511779	-4.102549	-0.416013	-0.908701	0.034579	-0.052324	0.061882	0.996711	-0.907852	0.412835	-0.073291
672	2904860													8.833691	-0.532358	-4.150176	-0.425085	-0.904499	0.034405	-0.052684	0.062670	0.996643	-0.903619	0.421846	-0.074292
673	2905026													8.793281	-0.575085	-4.260207	-0.433967	-0.900282	0.034123	-0.053071	0.063355	0.996579	-0.899364	0.430672	-0.075273
674	2905193													8.784020	-0.619372	-4.339824	-0.442613	-0.896082	0.033634	-0.053515	0.063837	0.996524	-0.895114	0.439275	-0.076209
675	2905360													8.745306	-0.558895	-4.410751	-0.450939	-0.891944	0.033019	-0.053884	0.064131	0.996486	-0.890927	0.447575	-0.076981
676	2905526													8.741264	-0.554912	-4.490448	-0.458895	-0.887899	0.032417	-0.054006	0.064293	0.996469	-0.886847	0.455524	-0.077456
677	2905693													8.707023	-0.598986	-4.554913	-0.466446	-0.883978	0.031789	-0.053949	0.064302	0.996471	-0.882903	0.463085	-0.077683
678	2905860													8.636813	-0.602239	-4.612649	-0.473556	-0.880215	0.031075	-0.053779	0.064113	0.996493	-0.879120	0.470224	-0.077698
679	2906026													8.597787	-0.575777	-4.669795	-0.480273	-0.876595	0.030320	-0.053553	0.063809	0.996524	-0.875483	0.476980	-0.077590
680	2906193													8.556220	-0.541219	-4.725298	-0.486615	-0.873118	0.029510	-0.053230	0.063350	0.996571	-0.871993	0.483376	-0.077303
681	2906360													8.496060	-0.485957	-4.757126	-0.492620	-0.869773	0.028640	-0.052848	0.062749	0.996629	-0.868638	0.489446	-0.076877
682	2906526													8.485776	-0.479643	-4.805575	-0.498358	-0.866525	0.027820	-0.052376	0.062122	0.996693	-0.865388	0.495253	-0.076344
683	2906693													8.465789	-0.496561	-4.819598	-0.503808	-0.863393	0.027020	-0.051889	0.061473	0.996759	-0.862256	0.500774	-0.075771
684	2906860													8.453506	-0.462246	-4.890292	-0.508956	-0.860392	0.026249	-0.051444	0.060842	0.996821	-0.859254	0.505987	-0.075228
685	2907026													8.406467	-0.433474	-4.910295	-0.513849	-0.857499	0.025578	-0.050995	0.060294	0.996877	-0.856364	0.510940	-0.074710
686	2907193													8.324863	-0.423199	-4.931112	-0.518581	-0.854662	0.025041	-0.050516	0.059861	0.996928	-0.853535	0.515723	-0.074217
687	2907360													8.239889	-0.483959	-4.972087	-0.523280	-0.851808	0.024522	-0.050091	0.059473	0.996972	-0.850688	0.520467	-0.073789
688	2907526													8.199148	-0.535462	-5.034217	-0.528050	-0.848877	0.023899	-0.049847	0.059077	0.997008	-0.847749	0.525279	-0.073510
689	2907693													8.171347	-0.568314	-5.076805	-0.532961	-0.845825	0.023091	-0.049783	0.058588	0.997040	-0.844674	0.530234	-0.073332
690	2907860													8.160151	-0.564820	-5.103807	-0.537965	-0.842680	0.022021	-0.049921	0.057925	0.997072	-0.841488	0.535290	-0.073229
691	2908026													8.206183	-0.486408	-5.151175	-0.542957	-0.839502	0.020834	-0.050101	0.057149	0.997108	-0.838264	0.540343	-0.073089
692	2908193													8.165648	-0.466931	-5.205222	-0.547838	-0.836351	0.019735	-0.050203	0.056413	0.997145	-0.835077	0.545283	-0.072892
693	2908360													8.111922	-0.454513	-5.251996	-0.552661	-0.833198	0.018631	-0.050335	0.055685	0.997179	-0.831885	0.550164	-0.072714
694	2908526													8.014468	-0.437421	-5.300123	-0.557497	-0.829992	0.017631	-0.050467	0.055081	0.997206	-0.828644	0.555049	-0.072594
695	2908693													7.974295	-0.434617	-5.357578	-0.562387	-0.826705	0.016721	-0.050634	0.054615	0.997223	-0.825322	0.559979	-0.072574
696	2908860													7.935922	-0.429349	-5.403049	-0.567420	-0.823274	0.015966	-0.050853	0.054388	0.997224	-0.821857	0.565033	-0.072727
697	2909026													7.891694	-0.414117	-5.461388	-0.572520	-0.819747	0.015357	-0.051115	0.054381	0.997211	-0.818296	0.570139	-0.073036
698	2909193													7.907495	-0.414373	-5.540132	-0.577687	-0.816122	0.014946	-0.051389	0.054637	0.997183	-0.814639	0.575291	-0.073503
699	2909360													7.884308	-0.457089	-5.577207	-0.582801	-0.812482	0.014680	-0.051691	0.055094	0.997142	-0.810969	0.580377	-0.074107
700	2909526													7.841553	-0.527127	-5.645229	-0.587834	-0.808853	0.014454	-0.052080	0.055667	0.997090	-0.807304	0.585371	-0.074848
701	2909693													7.765460	-0.560586	-5.714739	-0.592817	-0.805213	0.014116	-0.052638	0.056232	0.997029	-0.803615	0.590313	-0.075720
702	2909860													7.701428	-0.532416	-5.775240	-0.597779	-0.801543	0.013776	-0.053245	0.056845	0.996962	-0.799891	0.595229	-0.076659
703	2910026													7.673258	-0.517142	-5.799459	-0.602676	-0.797872	0.013487	-0.053686	0.057404	0.996907	-0.796178	0.600088	-0.077430
704	2910193													7.683276	-0.534974	-5.900578	-0.607511	-0.794201	0.013261	-0.053949	0.057912	0.996863	-0.792477	0.604889	-0.078029
705	2910360													7.684663	-0.575089	-5.916048	-0.612190	-0.790603	0.013048	-0.054103	0.058346	0.996829	-0.788858	0.609543	-0.078493
706	2910526													7.657256	-0.598516	-5.989583	-0.616628	-0.787151	0.012783	-0.054200	0.058646	0.996806	-0.785387	0.613965	-0.078826
707	2910693													7.614677	-0.590284	-6.004996	-0.620828	-0.783848	0.012461	-0.054287	0.058843	0.996790	-0.782065	0.618159	-0.079084
708	2910860													7.549061	-0.570823	-6.073775	-0.624841	-0.780657	0.012146	-0.054307	0.058976	0.996781	-0.778861	0.622171	-0.079246
709	2911026													7.487290	-0.561359	-6.122788	-0.628694	-0.777563	0.011851	-0.054241	0.059049	0.996780	-0.775759	0.626027	-0.079300
710	2911193													7.462576	-0.560757	-6.155744	-0.632413	-0.774545	0.011541	-0.054237	0.059136	0.996775	-0.772730	0.629748	-0.079408
711	2911360													7.456069	-0.521366	-6.189337	-0.635929	-0.771665	0.011312	-0.054176	0.059259	0.996771	-0.769844	0.633263	-0.079490
712	2911526													7.383205	-0.530583	-6.214510	-0.639286	-0.768889	0.011125	-0.054161	0.059454	0.996761	-0.767060	0.636612	-0.079652
713	2911693													7.327746	-0.534085	-6.273988	-0.642534	-0.766179	0.010964	-0.054187	0.059706	0.996744	-0.764339	0.639848	-0.079881
714	2911860													7.319816	-0.537493	-6.302130	-0.645695	-0.763519	0.010817	-0.054253	0.060001	0.996723	-0.761666	0.642992	-0.080165
715	2912026													7.272915	-0.562742	-6.334446	-0.648765	-0.760915	0.010635	-0.054393	0.060307	0.996697	-0.759043	0.646043	-0.080513
716	2912193													7.261488	-0.556600	-6.358536	-0.651743	-0.758368	0.010429	-0.054536	0.060574	0.996673	-0.756477	0.649006	-0.080837
717	2912360													7.240363	-0.568473	-6.400936	-0.654582	-0.755922	0.010219	-0.054659	0.060805	0.996652	-0.754012	0.651832	-0.081120
718	2912526													7.197276	-0.611938	-6.438569	-0.657270	-0.753589	0.009935	-0.054847	0.060976	0.996631	-0.751656	0.654511	-0.081410
719	2912693													7.156138	-0.557294	-6.441425	-0.659858	-0.751329	0.009603	-0.055010	0.061051	0.996618	-0.749374	0.657098	-0.081615
720	2912860													7.194247	-0.568728	-6.465645	-0.662325	-0.749158	0.009358	-0.054983	0.061060	0.996619	-0.747197	0.659571	-0.081632
721	2913026													7.192029	-0.599996	-6.500187	-0.664610	-0.747135	0.009143	-0.054905	0.061037	0.996624	-0.745171	0.661864	-0.081587
722	2913193													7.169526	-0.617754	-6.544298	-0.666685	-0.745286	0.008872	-0.054845	0.060925	0.996634	-0.743319	0.663955	-0.081493
723	2913360													7.147869	-0.573580	-6.543230	-0.668552	-0.743617	0.008557	-0.054801	0.060738	0.996648	-0.741644	0.665842	-0.081357
724	2913526													7.157386	-0.551845	-6.563739	-0.670165	-0.742166	0.008277	-0.054678	0.060489	0.996670	-0.740196	0.667481	-0.081117
725	2913693													7.150047	-0.573814	-6.603455	-0.671514	-0.740948	0.008067	-0.054442	0.060192	0.996701	-0.738989	0.668859	-0.080758
726	2913860													7.150069	-0.566935	-6.624828	-0.672621	-0.739946	0.007868	-0.054167	0.059837	0.996737	-0.738002	0.670000	-0.080328
727	2914026													7.167401	-0.545114	-6.636159	-0.673426	-0.739214	0.007690	-0.053902	0.059474	0.996774	-0.737287	0.670839	-0.079896
728	2914193													7.214579	-0.591848	-6.637359	-0.673871	-0.738811	0.007527	-0.053669	0.059107	0.996808	-0.736897	0.671316	-0.079482
729	2914360													7.253089	-0.639048	-6.669233	-0.673880	-0.738805	0.007242	-0.053664	0.058720	0.996831	-0.736889	0.671356	-0.079217
730	2914526													7.210478	-0.591295	-6.674190	-0.673426	-0.739223	0.006883	-0.053781	0.058276	0.996851	-0.737296	0.670935	-0.079001
731	2914693													7.142751	-0.546183	-6.623746	-0.672586	-0.739990	0.006577	-0.053864	0.057818	0.996873	-0.738056	0.670129	-0.078747
732	2914860													7.101986	-0.531056	-6.607389	-0.671460	-0.741013	0.006406	-0.053825	0.057391	0.996900	-0.739083	0.669034	-0.078421
733	2915026													7.070121	-0.525064	-6.571190	-0.670163	-0.742187	0.006308	-0.053709	0.056970	0.996930	-0.740268	0.667767	-0.078041
734	2915193													7.030336	-0.520554	-6.545183	-0.668766	-0.743446	0.006280	-0.053543	0.056586	0.996961	-0.741542	0.666398	-0.077649
735	2915360													7.014774	-0.501525	-6.497561	-0.667366	-0.744703	0.006282	-0.053396	0.056261	0.996987	-0.742813	0.665020	-0.077311
736	2915526													7.005092	-0.491345	-6.471631	-0.666020	-0.745907	0.006308	-0.053240	0.055969	0.997012	-0.744031	0.663694	-0.076988
737	2915693													7.029218	-0.507954	-6.460980	-0.664810	-0.746986	0.006325	-0.053148	0.055744	0.997030	-0.745120	0.662499	-0.076760
738	2915860													7.029787	-0.498521	-6.428833	-0.663761	-0.747918	0.006317	-0.053112	0.055558	0.997042	-0.746057	0.661462	-0.076601
739	2916026													7.040547	-0.512756	-6.420909	-0.662872	-0.748706	0.006265	-0.053155	0.055403	0.997048	-0.746843	0.660582	-0.076522
740	2916193													7.057961	-0.500263	-6.399566	-0.662152	-0.749344	0.006154	-0.053263	0.055254	0.997051	-0.747474	0.659872	-0.076499
741	2916360													7.088155	-0.496723	-6.385288	-0.661639	-0.749798	0.006044	-0.053359	0.055122	0.997053	-0.747921	0.659367	-0.076479
742	2916526													7.136448	-0.522887	-6.408101	-0.661223	-0.750166	0.005915	-0.053494	0.055013	0.997052	-0.748280	0.658957	-0.076506
743	2916693													7.167872	-0.515196	-6.383770	-0.660873	-0.750475	0.005757	-0.053671	0.054911	0.997048	-0.748576	0.658613	-0.076569
744	2916860													7.165679	-0.488962	-6.385001	-0.660543	-0.750767	0.005652	-0.053758	0.054804	0.997049	-0.748861	0.658290	-0.076560
745	2917026													7.201501	-0.491887	-6.356299	-0.660212	-0.751059	0.005578	-0.053842	0.054735	0.997048	-0.749147	0.657963	-0.076576
746	2917193													7.191096	-0.556511	-6.362338	-0.659840	-0.751385	0.005514	-0.053923	0.054671	0.997047	-0.749468	0.657595	-0.076591
747	2917360													7.184385	-0.570023	-6.358073	-0.659477	-0.751706	0.005303	-0.054145	0.054535	0.997043	-0.749773	0.657239	-0.076666
748	2917526													7.255407	-0.497442	-6.379577	-0.659064	-0.752070	0.005150	-0.054263	0.054380	0.997045	-0.750127	0.656837	-0.076649
749	2917693													7.309586	-0.541763	-6.345666	-0.658516	-0.752549	0.005081	-0.054269	0.054220	0.997053	-0.750607	0.656300	-0.076545
750	2917860													7.324069	-0.553156	-6.352866	-0.657798	-0.753178	0.005028	-0.054254	0.054039	0.997064	-0.751238	0.655594	-0.076410
751	2918026													7.318594	-0.562703	-6.322644	-0.656909	-0.753954	0.004929	-0.054271	0.053803	0.997076	-0.752014	0.654720	-0.076261
752	2918193													7.279085	-0.522896	-6.302067	-0.655899	-0.754833	0.004842	-0.054245	0.053531	0.997092	-0.752897	0.653729	-0.076057
753	2918360													7.286804	-0.504505	-6.304205	-0.654783	-0.755802	0.004801	-0.054154	0.053250	0.997112	-0.753875	0.652631	-0.075797
754	2918527													7.315957	-0.519944	-6.306690	-0.653569	-0.756851	0.004819	-0.053985	0.052967	0.997136	-0.754939	0.651437	-0.075477
755	2918693													7.331989	-0.556846	-6.298146	-0.652231	-0.758004	0.004836	-0.053825	0.052676	0.997160	-0.756106	0.650119	-0.075156
756	2918860													7.356437	-0.530180	-6.316511	-0.650714	-0.759307	0.004822	-0.053701	0.052354	0.997184	-0.757421	0.648623	-0.074843
757	2919027													7.331752	-0.505490	-6.325277	-0.649036	-0.760742	0.004825	-0.053571	0.052029	0.997208	-0.758869	0.646966	-0.074523
758	2919193													7.333675	-0.485647	-6.367895	-0.647161	-0.762337	0.004920	-0.053363	0.051736	0.997234	-0.760483	0.645108	-0.074162
759	2919360													7.379195	-0.476288	-6.391052	-0.645035	-0.764136	0.005099	-0.053119	0.051494	0.997260	-0.762305	0.642996	-0.073806
760	2919527													7.471110	-0.510449	-6.430716	-0.642529	-0.766243	0.005319	-0.052857	0.051246	0.997286	-0.764436	0.640504	-0.073428
761	2919693													7.539100	-0.531321	-6.425955	-0.639477	-0.768790	0.005583	-0.052646	0.051033	0.997308	-0.767006	0.637462	-0.073109
762	2919860													7.557828	-0.523507	-6.394978	-0.635785	-0.771844	0.005845	-0.052492	0.050792	0.997329	-0.770080	0.633779	-0.072808
763	2920027													7.540754	-0.560556	-6.377005	-0.631456	-0.775387	0.006107	-0.052427	0.050550	0.997345	-0.773637	0.629459	-0.072571
764	2920193													7.458597	-0.484456	-6.298310	-0.626638	-0.779284	0.006385	-0.052421	0.050324	0.997356	-0.777545	0.624647	-0.072386
765	2920360													7.463653	-0.481927	-6.264235	-0.621484	-0.783397	0.006805	-0.052297	0.050151	0.997371	-0.781679	0.619495	-0.072137
766	2920527													7.506660	-0.512652	-6.247883	-0.616033	-0.787686	0.007313	-0.052158	0.050051	0.997384	-0.785991	0.614040	-0.071917
767	2920693													7.534459	-0.550983	-6.168638	-0.610303	-0.792130	0.007798	-0.052109	0.049966	0.997391	-0.790452	0.608304	-0.071771
768	2920860													7.552583	-0.522871	-6.077168	-0.604350	-0.796676	0.008232	-0.052196	0.049902	0.997389	-0.795007	0.602342	-0.071741
769	2921027													7.616017	-0.504303	-5.999074	-0.598198	-0.801301	0.008679	-0.052314	0.049857	0.997385	-0.799639	0.596180	-0.071743
770	2921193													7.675717	-0.507255	-5.940734	-0.591882	-0.805973	0.009095	-0.052442	0.049766	0.997383	-0.804316	0.589857	-0.071723
771	2921360													7.778082	-0.509200	-5.857323	-0.585401	-0.810688	0.009555	-0.052572	0.049718	0.997379	-0.809038	0.583364	-0.071724
772	2921527													7.841833	-0.524359	-5.757709	-0.578719	-0.815465	0.010010	-0.052747	0.049677	0.997372	-0.813819	0.576670	-0.071762
773	2921693													7.872526	-0.529438	-5.670313	-0.571888	-0.820266	0.010399	-0.053007	0.049601	0.997361	-0.818617	0.569828	-0.071847
774	2921860													7.866400	-0.509272	-5.589777	-0.564937	-0.825064	0.010778	-0.053343	0.049553	0.997346	-0.823408	0.562863	-0.072006
775	2922027													7.839464	-0.477547	-5.487104	-0.558060	-0.829725	0.011186	-0.053663	0.049538	0.997330	-0.828064	0.555969	-0.072171
776	2922193													7.831203	-0.490431	-5.371058	-0.551394	-0.834164	0.011607	-0.053974	0.049554	0.997312	-0.832497	0.549285	-0.072347
777	2922360													7.917742	-0.506694	-5.275483	-0.544915	-0.838405	0.012028	-0.054364	0.049640	0.997287	-0.836727	0.542782	-0.072629
778	2922527													8.003896	-0.553339	-5.172634	-0.538589	-0.842477	0.012445	-0.054837	0.049788	0.997253	-0.840782	0.536427	-0.073014
779	2922693													8.087789	-0.559710	-5.125768	-0.532361	-0.846423	0.012673	-0.055519	0.049850	0.997212	-0.844695	0.530173	-0.073530
780	2922860													8.187471	-0.582077	-5.061523	-0.526162	-0.850288	0.012787	-0.056347	0.049864	0.997165	-0.848516	0.523950	-0.074147
781	2923027													8.268270	-0.589672	-4.990604	-0.519899	-0.854132	0.012801	-0.057260	0.049798	0.997117	-0.852307	0.517667	-0.074798
782	2923193													8.307210	-0.560713	-4.980359	-0.513484	-0.858004	0.012787	-0.058140	0.049654	0.997073	-0.856127	0.511238	-0.075381
783	2923360													8.326110	-0.577184	-4.885216	-0.506965	-0.861871	0.012792	-0.058925	0.049459	0.997036	-0.859950	0.504709	-0.075860
784	2923527													8.377030	-0.608965	-4.820377	-0.500321	-0.865745	0.012808	-0.059667	0.049232	0.997004	-0.863782	0.498057	-0.076288
785	2923693													8.464547	-0.627525	-4.783085	-0.493494	-0.869654	0.012849	-0.060348	0.048976	0.996975	-0.867653	0.491226	-0.076651
786	2923860													8.539624	-0.639090	-4.751685	-0.486400	-0.873643	0.012801	-0.061024	0.048583	0.996953	-0.871603	0.484137	-0.076944
787	2924027													8.586505	-0.617938	-4.673245	-0.478952	-0.877748	0.012735	-0.061720	0.048142	0.996932	-0.875668	0.476697	-0.077232
788	2924193													8.580245	-0.610158	-4.615794	-0.471190	-0.881939	0.012759	-0.062342	0.047729	0.996913	-0.879826	0.468940	-0.077471
789	2924360													8.563853	-0.612971	-4.554940	-0.463076	-0.886225	0.012893	-0.062868	0.047354	0.996898	-0.884086	0.460829	-0.077644
790	2924527													8.561209	-0.648411	-4.508682	-0.454693	-0.890552	0.013118	-0.063332	0.047020	0.996884	-0.888394	0.452445	-0.077780
791	2924693													8.636928	-0.675226	-4.488348	-0.446060	-0.894904	0.013313	-0.063866	0.046664	0.996867	-0.892721	0.443812	-0.077969
792	2924860													8.737588	-0.650823	-4.423345	-0.437119	-0.899303	0.013445	-0.064400	0.046206	0.996854	-0.897095	0.434878	-0.078113
793	2925027													8.846119	-0.637339	-4.347167	-0.427728	-0.903803	0.013702	-0.064822	0.045790	0.996846	-0.901580	0.425491	-0.078172
794	2925193													8.924530	-0.692574	-4.276887	-0.417744	-0.908457	0.014007	-0.065192	0.045347	0.996842	-0.906223	0.415512	-0.078167
795	2925360													8.923496	-0.673639	-4.209825	-0.407060	-0.913289	0.014331	-0.065557	0.044861	0.996840	-0.911046	0.404835	-0.078133
796	2925527													8.942322	-0.667442	-4.124846	-0.395685	-0.918268	0.014730	-0.065773	0.044333	0.996849	-0.916028	0.393470	-0.077939
797	2925693													8.956788	-0.655235	-4.064208	-0.383525	-0.923405	0.015211	-0.065847	0.043771	0.996869	-0.921180	0.381322	-0.077591
798	2925860													9.021289	-0.659156	-3.967056	-0.370508	-0.928695	0.015777	-0.065778	0.043179	0.996900	-0.926497	0.368322	-0.077086
799	2926027													9.226320	-0.662654	-3.816643	-0.356722	-0.934066	0.016455	-0.065639	0.042630	0.996932	-0.931902	0.354547	-0.076518
800	2926193													9.315323	-0.680499	-3.648649	-0.341998	-0.939544	0.017151	-0.065594	0.042076	0.996959	-0.937408	0.339833	-0.076019
801	2926360													9.182675	-0.633927	-3.403310	-0.326756	-0.944941	0.017789	-0.065788	0.041518	0.996969	-0.942816	0.324596	-0.075733
802	2926527													9.028462	-0.646867	-3.196129	-0.311463	-0.950081	0.018334	-0.066260	0.040961	0.996961	-0.947945	0.309301	-0.075710
803	2926693													8.944147	-0.646725	-3.005982	-0.296620	-0.954810	0.018819	-0.066925	0.040440	0.996938	-0.952648	0.294452	-0.075896
804	2926860													8.870353	-0.658416	-2.829990	-0.282548	-0.959062	0.019129	-0.067790	0.039855	0.996903	-0.956855	0.280377	-0.076275
805	2927027													8.904316	-0.635488	-2.636712	-0.269491	-0.962810	0.019259	-0.068804	0.039199	0.996860	-0.960542	0.267319	-0.076809
806	2927193													9.020770	-0.682769	-2.481978	-0.257522	-0.966079	0.019325	-0.069881	0.038567	0.996809	-0.963742	0.255350	-0.077443
807	2927360													9.233222	-0.707384	-2.333455	-0.246461	-0.968960	0.019311	-0.070990	0.037922	0.996756	-0.966549	0.244291	-0.078132
808	2927527													9.305009	-0.676625	-2.192008	-0.235942	-0.971575	0.019306	-0.072017	0.037294	0.996706	-0.969095	0.233775	-0.078769
809	2927693													9.332917	-0.715062	-2.110584	-0.225910	-0.973957	0.019322	-0.072890	0.036680	0.996665	-0.971417	0.223748	-0.079278
810	2927860													9.387144	-0.727902	-2.023533	-0.216315	-0.976132	0.019337	-0.073714	0.036078	0.996627	-0.973537	0.214160	-0.079759
811	2928027													9.459805	-0.758510	-1.924148	-0.206937	-0.978163	0.019345	-0.074523	0.035475	0.996588	-0.975512	0.204790	-0.080236
812	2928193													9.512487	-0.747756	-1.868116	-0.197589	-0.980094	0.019335	-0.075236	0.034828	0.996557	-0.977393	0.195454	-0.080620
813	2928360													9.614079	-0.766509	-1.813884	-0.188030	-0.981972	0.019373	-0.075818	0.034178	0.996536	-0.979233	0.185910	-0.080877
814	2928527													9.670901	-0.773466	-1.745647	-0.178046	-0.983830	0.019438	-0.076262	0.033490	0.996525	-0.981063	0.175945	-0.080992
815	2928693													9.737581	-0.778256	-1.697603	-0.167452	-0.985686	0.019546	-0.076579	0.032770	0.996525	-0.982902	0.165374	-0.080970
816	2928860													9.728886	-0.798056	-1.615681	-0.156109	-0.987544	0.019678	-0.076780	0.031994	0.996535	-0.984751	0.154057	-0.080818
817	2929027													9.687071	-0.805900	-1.528639	-0.144002	-0.989380	0.019778	-0.076862	0.031108	0.996556	-0.986588	0.141986	-0.080525
818	2929193													9.781656	-0.809428	-1.460994	-0.131138	-0.991165	0.019845	-0.076889	0.030126	0.996584	-0.988378	0.129165	-0.080160
819	2929360													9.882961	-0.816580	-1.371264	-0.117204	-0.992909	0.019872	-0.076808	0.029013	0.996624	-0.990133	0.115282	-0.079664
820	2929527													9.916542	-0.817206	-1.267980	-0.102041	-0.994583	0.019800	-0.076632	0.027704	0.996675	-0.991824	0.100185	-0.079044
821	2929693													9.844827	-0.781818	-1.124993	-0.085731	-0.996124	0.019662	-0.076376	0.026247	0.996734	-0.993387	0.083949	-0.078330
822	2929860													9.686346	-0.785754	-0.917925	-0.068814	-0.997440	0.019434	-0.076184	0.024677	0.996788	-0.994716	0.067112	-0.077688
823	2930027													9.760351	-0.721750	-0.716103	-0.051693	-0.998480	0.019122	-0.076188	0.023035	0.996827	-0.995753	0.050072	-0.077263
824	2930193													9.755799	-0.708119	-0.510575	-0.034398	-0.999231	0.018809	-0.076302	0.021391	0.996855	-0.996491	0.032855	-0.076979
825	2930360													9.761270	-0.697774	-0.323215	-0.017113	-0.999682	0.018537	-0.076480	0.019794	0.996875	-0.996924	0.015642	-0.076795
826	2930527													9.537694	-0.688502	-0.133283	-0.000052	-0.999832	0.018313	-0.076697	0.018263	0.996887	-0.997054	-0.001352	-0.076685
827	2930693													9.438728	-0.684542	0.084014	0.016037	-0.999706	0.018186	-0.077104	0.016898	0.996880	-0.996894	-0.017389	-0.076811
828	2930860													9.591639	-0.714324	0.276498	0.031195	-0.999349	0.018146	-0.077590	0.015679	0.996862	-0.996497	-0.032505	-0.077050
829	2931027													9.681483	-0.692574	0.432634	0.045667	-0.998790	0.018224	-0.078041	0.014620	0.996843	-0.995904	-0.046945	-0.077279
830	2931193													9.652071	-0.749164	0.582201	0.059592	-0.998053	0.018415	-0.078340	0.013714	0.996832	-0.995144	-0.060846	-0.077371
831	2931360													9.607557	-0.743022	0.749193	0.072817	-0.997171	0.018640	-0.078628	0.012891	0.996821	-0.994241	-0.074051	-0.077467
832	2931527													9.640965	-0.733921	0.872211	0.085300	-0.996176	0.018907	-0.078816	0.012170	0.996815	-0.993233	-0.086519	-0.077476
833	2931693													9.621345	-0.769585	0.988921	0.097252	-0.995074	0.019253	-0.078852	0.011580	0.996819	-0.992131	-0.098461	-0.077337
834	2931860													9.634238	-0.818394	1.109952	0.108641	-0.993889	0.019558	-0.078836	0.010999	0.996827	-0.990950	-0.109838	-0.077159
835	2932027													9.640014	-0.853458	1.225972	0.119549	-0.992633	0.019686	-0.078765	0.010283	0.996840	-0.989699	-0.120722	-0.076955
836	2932193													9.677794	-0.851080	1.291618	0.130123	-0.991305	0.019573	-0.078571	0.009369	0.996864	-0.988380	-0.131253	-0.076669
837	2932360													9.691885	-0.828705	1.417008	0.140558	-0.989884	0.019330	-0.078151	0.008370	0.996906	-0.986983	-0.141633	-0.076184
838	2932527													9.639825	-0.855154	1.532675	0.150975	-0.988357	0.018899	-0.077508	0.007224	0.996966	-0.985494	-0.151982	-0.075515
839	2932693													9.601682	-0.830199	1.650908	0.161256	-0.986743	0.018289	-0.076696	0.005946	0.997037	-0.983928	-0.162181	-0.074720
840	2932860													9.611633	-0.785841	1.761762	0.171417	-0.985044	0.017476	-0.075766	0.004505	0.997115	-0.982281	-0.172247	-0.073860
841	2933027													9.554361	-0.749238	1.892545	0.181350	-0.983279	0.016572	-0.074773	0.003015	0.997196	-0.980572	-0.182081	-0.072976
842	2933193													9.551697	-0.700650	1.966253	0.190977	-0.981470	0.015632	-0.073732	0.001537	0.997277	-0.978821	-0.191610	-0.072072
843	2933360													9.569334	-0.686540	2.064281	0.200353	-0.979613	0.014698	-0.072708	0.000094	0.997353	-0.977022	-0.200892	-0.071207
844	2933527													9.585363	-0.659720	2.174210	0.209435	-0.977726	0.013761	-0.071728	-0.001327	0.997423	-0.975188	-0.209882	-0.070408
845	2933693													9.598710	-0.642791	2.285841	0.218296	-0.975797	0.012898	-0.070780	-0.002649	0.997488	-0.973312	-0.218660	-0.069645
846	2933860													9.557780	-0.631485	2.354467	0.226891	-0.973845	0.012087	-0.069912	-0.003907	0.997545	-0.971408	-0.227179	-0.068970
847	2934027													9.521421	-0.614973	2.446933	0.235128	-0.971898	0.011347	-0.069149	-0.005083	0.997593	-0.969501	-0.235347	-0.068401
848	2934193													9.494978	-0.600809	2.491746	0.242943	-0.969982	0.010686	-0.068454	-0.006155	0.997635	-0.967622	-0.243100	-0.067895
849	2934360													9.488954	-0.601206	2.564749	0.250329	-0.968108	0.010133	-0.067752	-0.007076	0.997677	-0.965787	-0.250434	-0.067363
850	2934527													9.463850	-0.619764	2.583838	0.257377	-0.966263	0.009630	-0.067032	-0.007911	0.997719	-0.963983	-0.257436	-0.066807
851	2934693													9.524014	-0.701851	2.582250	0.264129	-0.964445	0.009048	-0.066350	-0.008810	0.997758	-0.962203	-0.264137	-0.066318
852	2934860													9.516205	-0.714814	2.626409	0.270835	-0.962591	0.008188	-0.065667	-0.009989	0.997792	-0.960383	-0.270775	-0.065916
853	2935027													9.486891	-0.722318	2.667063	0.277537	-0.960688	0.007166	-0.064916	-0.011310	0.997827	-0.958519	-0.277399	-0.065503
854	2935194													9.492132	-0.723565	2.716427	0.284241	-0.958735	0.005943	-0.064137	-0.012830	0.997859	-0.956605	-0.284013	-0.065137
855	2935360													9.544915	-0.677462	2.780000	0.291099	-0.956682	0.004623	-0.063246	-0.014422	0.997894	-0.954600	-0.290779	-0.064704
856	2935527													9.512405	-0.639996	2.846008	0.298192	-0.954500	0.003281	-0.062238	-0.016014	0.997933	-0.952475	-0.297780	-0.064181
857	2935694													9.470776	-0.594220	2.929531	0.305381	-0.952228	0.002034	-0.061135	-0.017474	0.997977	-0.950266	-0.304888	-0.063550
858	2935860													9.470045	-0.558422	3.050763	0.312610	-0.949881	0.000947	-0.059984	-0.018746	0.998023	-0.947986	-0.312048	-0.062838
859	2936027													9.400505	-0.551486	3.137213	0.319888	-0.947455	-0.000052	-0.058852	-0.019925	0.998068	-0.945626	-0.319267	-0.062133
860	2936194													9.360020	-0.553411	3.231991	0.327034	-0.945012	-0.000968	-0.057780	-0.021018	0.998108	-0.943244	-0.326360	-0.061476
861	2936360													9.350011	-0.519252	3.303414	0.334092	-0.942538	-0.001867	-0.056833	-0.022122	0.998139	-0.940825	-0.333364	-0.060958
