// Start Time: Unknown
// Update Rate: 60.0Hz
//Filter Profile: human (46.1)
// Option Flags: AHS Disabled ICC Disabled
// Firmware Version: 4.0.2
0	sampleTimeFine	Year	Month	Day	Second	UTC_Nano	UTC_Year	UTC_Month	UTC_Day	UTC_Hour	UTC_Minute	UTC_Second	UTC_Valid	Acc_X	Acc_Y	Acc_Z	Mat[1][1]	Mat[2][1]	Mat[3][1]	Mat[1][2]	Mat[2][2]	Mat[3][2]	Mat[1][3]	Mat[2][3]	Mat[3][3]
0	1531619													0.041300	0.025292	-0.285353	0.499192	-0.825253	-0.264129	-0.059842	-0.336933	0.939625	-0.864422	-0.453248	-0.217579
1	1531785													8.487248	-0.609783	4.909825	0.499268	-0.824900	-0.265088	-0.060165	-0.338216	0.939143	-0.864356	-0.452936	-0.218490
2	1531952													8.491078	-0.612690	4.898921	0.499350	-0.825082	-0.264368	-0.060667	-0.337682	0.939303	-0.864274	-0.453002	-0.218677
3	1532119													8.515093	-0.611496	4.903116	0.499252	-0.825011	-0.264773	-0.061165	-0.338376	0.939021	-0.864295	-0.452613	-0.219397
4	1532285													8.494293	-0.601987	4.886858	0.499108	-0.825267	-0.264247	-0.061537	-0.337930	0.939157	-0.864352	-0.452480	-0.219448
5	1532452													8.466463	-0.617472	4.916563	0.498915	-0.825316	-0.264458	-0.061763	-0.338234	0.939033	-0.864447	-0.452164	-0.219724
6	1532619													8.452695	-0.612905	4.907676	0.498878	-0.825348	-0.264428	-0.061987	-0.338305	0.938993	-0.864453	-0.452052	-0.219934
7	1532785													8.465776	-0.643918	4.905494	0.498954	-0.825334	-0.264326	-0.062122	-0.338282	0.938992	-0.864399	-0.452093	-0.220058
8	1532952													8.479816	-0.618487	4.904704	0.498995	-0.825330	-0.264263	-0.062329	-0.338331	0.938961	-0.864361	-0.452065	-0.220267
9	1533119													8.479673	-0.613573	4.902175	0.499017	-0.825354	-0.264146	-0.062559	-0.338325	0.938948	-0.864331	-0.452026	-0.220463
10	1533285													8.447968	-0.591126	4.890842	0.499015	-0.825414	-0.263960	-0.062729	-0.338201	0.938981	-0.864320	-0.452008	-0.220545
11	1533452													8.519384	-0.584728	4.911424	0.499032	-0.825410	-0.263942	-0.062821	-0.338233	0.938963	-0.864304	-0.451991	-0.220642
12	1533619													8.521144	-0.607512	4.916917	0.499067	-0.825390	-0.263938	-0.062809	-0.338233	0.938964	-0.864284	-0.452028	-0.220643
13	1533785													8.498621	-0.589881	4.852988	0.499015	-0.825475	-0.263770	-0.062734	-0.337987	0.939058	-0.864320	-0.452057	-0.220446
14	1533952													8.569698	-0.611628	4.850949	0.499123	-0.825358	-0.263934	-0.062642	-0.338157	0.939003	-0.864264	-0.452144	-0.220484
15	1534119													8.431088	-0.602450	4.976660	0.499398	-0.825109	-0.264190	-0.062556	-0.338483	0.938891	-0.864111	-0.452354	-0.220654
16	1534285													8.557492	-0.591042	4.907863	0.499233	-0.825178	-0.264288	-0.062540	-0.338539	0.938872	-0.864208	-0.452187	-0.220616
17	1534452													8.544574	-0.604440	4.892951	0.499592	-0.824876	-0.264551	-0.062509	-0.338926	0.938734	-0.864003	-0.452447	-0.220887
18	1534619													8.393420	-0.602045	4.999375	0.499764	-0.824731	-0.264680	-0.062535	-0.339136	0.938656	-0.863901	-0.452554	-0.221063
19	1534785													8.396202	-0.586021	4.980271	0.499600	-0.824892	-0.264487	-0.062575	-0.338890	0.938743	-0.863993	-0.452445	-0.220927
20	1534952													8.421010	-0.590575	4.931086	0.499596	-0.824899	-0.264471	-0.062621	-0.338895	0.938738	-0.863992	-0.452429	-0.220967
21	1535119													8.427490	-0.589996	4.929533	0.499628	-0.824887	-0.264448	-0.062677	-0.338908	0.938730	-0.863970	-0.452441	-0.221029
22	1535285													8.460001	-0.620773	4.944858	0.499567	-0.824941	-0.264396	-0.062766	-0.338877	0.938735	-0.863998	-0.452366	-0.221070
23	1535452													8.456357	-0.634183	4.921462	0.499536	-0.824981	-0.264330	-0.062833	-0.338828	0.938748	-0.864012	-0.452329	-0.221093
24	1535619													8.452803	-0.617536	4.906724	0.499520	-0.824987	-0.264341	-0.062923	-0.338883	0.938722	-0.864014	-0.452277	-0.221190
25	1535785													8.481809	-0.628826	4.929595	0.499501	-0.825049	-0.264185	-0.063058	-0.338770	0.938754	-0.864015	-0.452249	-0.221242
26	1535952													8.477010	-0.631279	4.939991	0.499529	-0.825073	-0.264057	-0.063159	-0.338685	0.938777	-0.863992	-0.452269	-0.221294
27	1536119													8.457988	-0.617890	4.956094	0.499433	-0.825132	-0.264052	-0.063235	-0.338692	0.938770	-0.864042	-0.452155	-0.221331
28	1536285													8.512753	-0.590182	4.924230	0.499198	-0.825256	-0.264110	-0.063406	-0.338779	0.938727	-0.864165	-0.451864	-0.221444
29	1536452													8.554571	-0.611015	4.873638	0.499122	-0.825295	-0.264132	-0.063501	-0.338832	0.938701	-0.864202	-0.451754	-0.221526
30	1536619													8.450256	-0.596797	4.931712	0.499053	-0.825324	-0.264171	-0.063514	-0.338862	0.938690	-0.864241	-0.451677	-0.221530
31	1536785													8.551634	-0.606959	4.862651	0.498731	-0.825447	-0.264395	-0.063510	-0.339022	0.938632	-0.864427	-0.451333	-0.221505
32	1536952													8.548580	-0.605470	4.887159	0.498776	-0.825448	-0.264306	-0.063579	-0.338969	0.938647	-0.864396	-0.451371	-0.221551
33	1537119													8.498510	-0.634072	4.930845	0.498577	-0.825587	-0.264249	-0.063712	-0.338916	0.938657	-0.864501	-0.451157	-0.221576
34	1537285													8.502226	-0.623270	4.903401	0.498283	-0.825783	-0.264189	-0.063807	-0.338811	0.938688	-0.864663	-0.450875	-0.221515
35	1537452													8.463894	-0.592505	4.903109	0.498075	-0.825876	-0.264291	-0.063842	-0.338885	0.938659	-0.864781	-0.450649	-0.221516
36	1537619													8.475471	-0.595759	4.904507	0.497808	-0.826121	-0.264028	-0.063919	-0.338549	0.938775	-0.864928	-0.450454	-0.221338
37	1537785													8.520082	-0.615862	4.889037	0.497516	-0.826353	-0.263851	-0.063955	-0.338282	0.938869	-0.865094	-0.450228	-0.221151
38	1537952													8.514565	-0.637478	4.841805	0.497243	-0.826505	-0.263891	-0.063954	-0.338247	0.938882	-0.865251	-0.449976	-0.221049
39	1538119													8.529214	-0.609304	4.865634	0.496947	-0.826630	-0.264057	-0.063904	-0.338323	0.938858	-0.865425	-0.449688	-0.220954
40	1538285													8.520950	-0.613762	4.850578	0.496691	-0.826787	-0.264050	-0.063870	-0.338224	0.938896	-0.865574	-0.449476	-0.220799
41	1538452													8.517796	-0.605964	4.866078	0.496499	-0.826924	-0.263982	-0.063849	-0.338081	0.938949	-0.865686	-0.449332	-0.220655
42	1538619													8.522264	-0.581083	4.886798	0.496354	-0.827037	-0.263899	-0.063848	-0.337944	0.938998	-0.865769	-0.449226	-0.220545
43	1538785													8.494101	-0.617682	4.884899	0.496223	-0.827111	-0.263913	-0.063842	-0.337919	0.939007	-0.865845	-0.449108	-0.220488
44	1538952													8.500800	-0.611709	4.865203	0.496039	-0.827217	-0.263929	-0.063840	-0.337882	0.939021	-0.865950	-0.448942	-0.220412
45	1539119													8.504133	-0.622374	4.880853	0.495873	-0.827306	-0.263960	-0.063894	-0.337898	0.939011	-0.866041	-0.448765	-0.220414
46	1539285													8.482449	-0.601739	4.837059	0.495746	-0.827374	-0.263984	-0.064009	-0.337948	0.938985	-0.866106	-0.448601	-0.220496
47	1539452													8.472239	-0.605030	4.886244	0.495630	-0.827506	-0.263788	-0.064113	-0.337746	0.939051	-0.866164	-0.448509	-0.220451
48	1539619													8.478740	-0.597652	4.906088	0.495505	-0.827584	-0.263780	-0.064144	-0.337717	0.939059	-0.866233	-0.448389	-0.220425
49	1539785													8.464235	-0.618008	4.867064	0.495396	-0.827645	-0.263792	-0.064162	-0.337708	0.939061	-0.866295	-0.448282	-0.220403
50	1539952													8.575700	-0.600003	4.767681	0.495271	-0.827679	-0.263919	-0.064169	-0.337820	0.939021	-0.866365	-0.448135	-0.220424
51	1540119													8.485850	-0.632665	4.909109	0.495549	-0.827491	-0.263986	-0.064119	-0.337951	0.938977	-0.866210	-0.448383	-0.220529
52	1540285													8.522688	-0.587153	4.930060	0.495374	-0.827570	-0.264070	-0.064106	-0.337988	0.938965	-0.866311	-0.448210	-0.220483
53	1540452													8.597400	-0.593465	4.920743	0.495432	-0.827590	-0.263898	-0.064084	-0.337798	0.939034	-0.866279	-0.448316	-0.220391
54	1540619													8.430272	-0.567722	4.972618	0.495656	-0.827500	-0.263760	-0.064159	-0.337745	0.939048	-0.866146	-0.448523	-0.220497
55	1540785													8.393363	-0.576029	4.976800	0.495328	-0.827781	-0.263492	-0.064332	-0.337437	0.939147	-0.866321	-0.448235	-0.220395
56	1540952													8.452593	-0.579367	4.878003	0.494983	-0.828043	-0.263318	-0.064446	-0.337198	0.939225	-0.866509	-0.447931	-0.220272
57	1541119													8.465020	-0.596718	4.850758	0.494774	-0.828252	-0.263055	-0.064604	-0.336922	0.939314	-0.866617	-0.447754	-0.220208
58	1541285													8.498473	-0.618305	4.861245	0.494492	-0.828516	-0.262753	-0.064820	-0.336609	0.939411	-0.866762	-0.447499	-0.220154
59	1541452													8.524990	-0.650989	4.866012	0.494272	-0.828760	-0.262397	-0.065054	-0.336262	0.939519	-0.866870	-0.447307	-0.220119
60	1541619													8.496584	-0.649258	4.908998	0.494119	-0.828967	-0.262032	-0.065237	-0.335899	0.939636	-0.866943	-0.447198	-0.220053
61	1541785													8.493381	-0.644833	4.878835	0.493878	-0.829167	-0.261851	-0.065405	-0.335711	0.939692	-0.867068	-0.446967	-0.220032
62	1541952													8.489027	-0.644902	4.889446	0.493710	-0.829289	-0.261781	-0.065546	-0.335657	0.939701	-0.867153	-0.446781	-0.220074
63	1542119													8.490485	-0.668530	4.913089	0.493505	-0.829423	-0.261746	-0.065631	-0.335601	0.939715	-0.867263	-0.446575	-0.220056
64	1542285													8.514836	-0.648600	4.856209	0.493155	-0.829575	-0.261923	-0.065756	-0.335766	0.939647	-0.867453	-0.446169	-0.220134
65	1542452													8.542013	-0.655728	4.776091	0.492976	-0.829684	-0.261913	-0.065871	-0.335763	0.939641	-0.867546	-0.445968	-0.220175
66	1542619													8.460897	-0.607522	4.908144	0.492910	-0.829733	-0.261881	-0.065887	-0.335716	0.939656	-0.867582	-0.445912	-0.220146
67	1542785													8.571764	-0.605937	4.809298	0.492477	-0.829991	-0.261882	-0.065914	-0.335607	0.939693	-0.867826	-0.445515	-0.219987
68	1542952													8.571338	-0.605580	4.798156	0.492457	-0.830023	-0.261818	-0.065936	-0.335539	0.939716	-0.867835	-0.445507	-0.219967
69	1543119													8.494557	-0.627978	4.860866	0.492346	-0.830124	-0.261704	-0.065948	-0.335385	0.939770	-0.867898	-0.445433	-0.219871
70	1543285													8.531026	-0.634742	4.848222	0.492060	-0.830306	-0.261664	-0.066023	-0.335296	0.939797	-0.868054	-0.445161	-0.219805
71	1543452													8.524411	-0.622893	4.821570	0.491939	-0.830414	-0.261550	-0.066036	-0.335139	0.939852	-0.868122	-0.445077	-0.219705
72	1543619													8.508977	-0.605617	4.836703	0.491806	-0.830567	-0.261315	-0.066102	-0.334869	0.939943	-0.868192	-0.444996	-0.219592
73	1543785													8.527569	-0.629298	4.817201	0.491657	-0.830689	-0.261206	-0.066167	-0.334736	0.939986	-0.868271	-0.444867	-0.219540
74	1543952													8.538507	-0.631944	4.805918	0.491566	-0.830801	-0.261024	-0.066185	-0.334513	0.940064	-0.868322	-0.444828	-0.219421
75	1544119													8.549646	-0.628232	4.827501	0.491477	-0.830868	-0.260976	-0.066149	-0.334415	0.940102	-0.868375	-0.444775	-0.219318
76	1544285													8.546839	-0.629488	4.820467	0.491424	-0.830911	-0.260938	-0.066134	-0.334349	0.940126	-0.868406	-0.444744	-0.219259
77	1544452													8.516076	-0.622893	4.819376	0.491398	-0.830936	-0.260908	-0.066102	-0.334292	0.940149	-0.868423	-0.444741	-0.219197
78	1544619													8.511237	-0.612561	4.843347	0.491355	-0.831018	-0.260729	-0.066072	-0.334061	0.940233	-0.868450	-0.444761	-0.219050
79	1544785													8.509099	-0.616588	4.850467	0.491363	-0.831043	-0.260634	-0.066005	-0.333921	0.940287	-0.868450	-0.444820	-0.218929
80	1544952													8.506077	-0.619281	4.855953	0.491346	-0.831129	-0.260390	-0.065942	-0.333608	0.940403	-0.868465	-0.444892	-0.218723
81	1545119													8.529823	-0.627664	4.824826	0.491298	-0.831193	-0.260277	-0.065894	-0.333443	0.940465	-0.868495	-0.444898	-0.218590
82	1545285													8.527077	-0.627091	4.855151	0.491387	-0.831159	-0.260219	-0.065855	-0.333382	0.940489	-0.868448	-0.445008	-0.218555
83	1545452													8.510279	-0.603038	4.832053	0.491522	-0.831123	-0.260078	-0.065785	-0.333225	0.940550	-0.868377	-0.445192	-0.218462
84	1545619													8.529225	-0.623104	4.825334	0.491613	-0.831122	-0.259911	-0.065752	-0.333045	0.940616	-0.868328	-0.445329	-0.218377
85	1545786													8.582698	-0.612594	4.776820	0.491786	-0.831050	-0.259814	-0.065741	-0.332979	0.940640	-0.868231	-0.445513	-0.218388
86	1545952													8.481147	-0.625206	4.879897	0.492266	-0.830827	-0.259617	-0.065698	-0.332871	0.940681	-0.867962	-0.446009	-0.218444
87	1546119													8.500058	-0.585375	4.929173	0.492340	-0.830817	-0.259508	-0.065644	-0.332740	0.940731	-0.867924	-0.446124	-0.218359
88	1546286													8.544026	-0.600526	4.863402	0.492670	-0.830619	-0.259513	-0.065552	-0.332793	0.940719	-0.867744	-0.446453	-0.218406
89	1546452													8.422940	-0.604424	4.927080	0.493137	-0.830375	-0.259408	-0.065479	-0.332770	0.940732	-0.867484	-0.446924	-0.218474
90	1546619													8.407676	-0.605442	4.947283	0.493131	-0.830387	-0.259384	-0.065403	-0.332702	0.940761	-0.867493	-0.446954	-0.218375
91	1546786													8.459736	-0.603296	4.864425	0.493110	-0.830385	-0.259429	-0.065303	-0.332694	0.940771	-0.867513	-0.446962	-0.218281
92	1546952													8.470902	-0.591314	4.885055	0.493190	-0.830347	-0.259398	-0.065217	-0.332638	0.940797	-0.867474	-0.447074	-0.218207
93	1547119													8.490128	-0.615990	4.895637	0.493260	-0.830313	-0.259373	-0.065156	-0.332599	0.940815	-0.867438	-0.447167	-0.218158
94	1547286													8.499976	-0.633311	4.903574	0.493356	-0.830290	-0.259267	-0.065109	-0.332481	0.940860	-0.867387	-0.447298	-0.218091
95	1547452													8.478501	-0.608749	4.912257	0.493437	-0.830259	-0.259210	-0.065120	-0.332446	0.940872	-0.867340	-0.447381	-0.218108
96	1547619													8.492845	-0.621212	4.862787	0.493486	-0.830271	-0.259080	-0.065164	-0.332334	0.940908	-0.867309	-0.447442	-0.218106
97	1547786													8.512093	-0.622739	4.898660	0.493562	-0.830252	-0.258993	-0.065179	-0.332266	0.940931	-0.867265	-0.447527	-0.218108
98	1547952													8.497126	-0.600481	4.899199	0.493599	-0.830287	-0.258812	-0.065171	-0.332067	0.941002	-0.867244	-0.447610	-0.218018
99	1548119													8.530434	-0.580231	4.849148	0.493515	-0.830360	-0.258738	-0.065237	-0.331993	0.941023	-0.867287	-0.447530	-0.218014
100	1548286													8.552527	-0.619939	4.811884	0.493679	-0.830254	-0.258764	-0.065268	-0.332086	0.940988	-0.867191	-0.447657	-0.218133
101	1548452													8.474442	-0.549341	4.932480	0.493809	-0.830284	-0.258420	-0.065242	-0.331720	0.941119	-0.867119	-0.447874	-0.217975
102	1548786													8.567948	-0.565077	4.839441	0.493813	-0.830203	-0.258675	-0.065123	-0.331947	0.941047	-0.867126	-0.447855	-0.217985
103	1548952													8.505067	-0.584447	4.878622	0.493861	-0.830227	-0.258502	-0.065146	-0.331778	0.941105	-0.867097	-0.447935	-0.217938
104	1549119													8.505920	-0.589478	4.874990	0.493778	-0.830314	-0.258384	-0.065174	-0.331634	0.941154	-0.867142	-0.447881	-0.217868
105	1549286													8.494905	-0.581441	4.860825	0.493818	-0.830320	-0.258286	-0.065168	-0.331532	0.941191	-0.867120	-0.447945	-0.217827
106	1549452													8.475103	-0.568292	4.849702	0.493842	-0.830400	-0.257983	-0.065215	-0.331219	0.941297	-0.867102	-0.448028	-0.217725
107	1549619													8.515500	-0.593718	4.867526	0.493831	-0.830502	-0.257678	-0.065265	-0.330896	0.941408	-0.867105	-0.448079	-0.217609
108	1549786													8.525850	-0.608066	4.849366	0.493845	-0.830594	-0.257353	-0.065351	-0.330577	0.941514	-0.867091	-0.448144	-0.217534
109	1549952													8.550215	-0.637595	4.840171	0.493848	-0.830695	-0.257021	-0.065414	-0.330233	0.941630	-0.867085	-0.448209	-0.217424
110	1550119													8.536745	-0.639254	4.860810	0.493909	-0.830721	-0.256821	-0.065447	-0.330041	0.941695	-0.867047	-0.448304	-0.217379
111	1550286													8.500838	-0.623916	4.867011	0.493994	-0.830781	-0.256463	-0.065521	-0.329698	0.941810	-0.866993	-0.448444	-0.217302
112	1550452													8.500903	-0.616760	4.859100	0.494077	-0.830803	-0.256232	-0.065598	-0.329499	0.941874	-0.866940	-0.448550	-0.217297
113	1550619													8.536747	-0.625179	4.845883	0.494189	-0.830802	-0.256019	-0.065676	-0.329329	0.941928	-0.866870	-0.448677	-0.217314
114	1550786													8.521134	-0.578266	4.866181	0.494170	-0.830872	-0.255828	-0.065776	-0.329160	0.941980	-0.866873	-0.448671	-0.217313
115	1550952													8.499454	-0.571464	4.859490	0.494200	-0.830950	-0.255515	-0.065922	-0.328889	0.942065	-0.866845	-0.448724	-0.217314
116	1551119													8.496036	-0.574192	4.882442	0.494345	-0.830938	-0.255274	-0.065994	-0.328694	0.942128	-0.866757	-0.448889	-0.217325
117	1551286													8.498257	-0.585357	4.870737	0.494446	-0.830980	-0.254942	-0.066033	-0.328367	0.942239	-0.866696	-0.449052	-0.217232
118	1551452													8.538306	-0.582425	4.802957	0.494474	-0.831011	-0.254787	-0.066040	-0.328202	0.942296	-0.866680	-0.449115	-0.217167
119	1551619													8.555641	-0.615366	4.832915	0.494902	-0.830854	-0.254468	-0.066097	-0.327992	0.942365	-0.866431	-0.449559	-0.217241
120	1551786													8.471155	-0.576794	4.927303	0.495211	-0.830777	-0.254119	-0.066149	-0.327711	0.942460	-0.866251	-0.449906	-0.217241
121	1551952													8.597954	-0.596697	4.848811	0.495307	-0.830782	-0.253913	-0.066178	-0.327519	0.942524	-0.866194	-0.450035	-0.217202
122	1552119													8.526540	-0.614735	4.922452	0.495935	-0.830469	-0.253712	-0.066199	-0.327481	0.942536	-0.865833	-0.450641	-0.217386
123	1552286													8.419419	-0.631787	4.969615	0.496170	-0.830413	-0.253434	-0.066309	-0.327290	0.942595	-0.865689	-0.450883	-0.217455
124	1552452													8.467326	-0.618684	4.925714	0.496108	-0.830520	-0.253208	-0.066404	-0.327065	0.942666	-0.865718	-0.450850	-0.217409
125	1552619													8.476780	-0.621634	4.922256	0.496225	-0.830526	-0.252958	-0.066496	-0.326862	0.942730	-0.865644	-0.450985	-0.217423
126	1552786													8.440876	-0.635471	4.910494	0.496303	-0.830553	-0.252715	-0.066597	-0.326662	0.942792	-0.865591	-0.451080	-0.217435
127	1552952													8.464390	-0.645513	4.893886	0.496335	-0.830622	-0.252425	-0.066709	-0.326400	0.942875	-0.865564	-0.451143	-0.217414
128	1553119													8.462831	-0.651726	4.896996	0.496434	-0.830626	-0.252218	-0.066792	-0.326237	0.942926	-0.865501	-0.451254	-0.217434
129	1553286													8.469319	-0.628054	4.905178	0.496524	-0.830607	-0.252104	-0.066867	-0.326172	0.942942	-0.865444	-0.451336	-0.217493
130	1553452													8.462034	-0.637560	4.918335	0.496649	-0.830564	-0.252000	-0.066897	-0.326105	0.942964	-0.865370	-0.451464	-0.217522
131	1553619													8.442528	-0.624717	4.951162	0.496730	-0.830591	-0.251749	-0.066953	-0.325872	0.943040	-0.865319	-0.451581	-0.217481
132	1553786													8.462608	-0.624867	4.942247	0.496724	-0.830624	-0.251655	-0.067023	-0.325800	0.943060	-0.865317	-0.451574	-0.217503
133	1553952													8.510441	-0.603593	4.888744	0.496687	-0.830662	-0.251600	-0.067118	-0.325777	0.943061	-0.865331	-0.451519	-0.217562
134	1554119													8.477154	-0.627830	4.919737	0.496885	-0.830520	-0.251676	-0.067095	-0.325908	0.943018	-0.865219	-0.451686	-0.217662
135	1554286													8.456282	-0.568002	4.948105	0.496866	-0.830552	-0.251611	-0.067050	-0.325805	0.943056	-0.865233	-0.451702	-0.217570
136	1554452													8.563568	-0.583684	4.868524	0.496815	-0.830573	-0.251643	-0.066944	-0.325772	0.943075	-0.865271	-0.451688	-0.217450
137	1554619													8.513859	-0.607776	4.913805	0.497010	-0.830486	-0.251544	-0.066944	-0.325715	0.943095	-0.865159	-0.451888	-0.217480
138	1554786													8.503314	-0.603288	4.927849	0.496915	-0.830535	-0.251571	-0.066943	-0.325718	0.943094	-0.865214	-0.451796	-0.217452
139	1554952													8.518819	-0.596894	4.912925	0.496870	-0.830556	-0.251588	-0.066980	-0.325743	0.943083	-0.865236	-0.451738	-0.217483
140	1555119													8.453986	-0.599258	4.917575	0.496937	-0.830588	-0.251350	-0.066985	-0.325495	0.943168	-0.865197	-0.451859	-0.217387
141	1555286													8.440518	-0.616860	4.905459	0.496848	-0.830691	-0.251186	-0.067028	-0.325307	0.943230	-0.865245	-0.451805	-0.217308
142	1555452													8.493281	-0.631530	4.897390	0.496750	-0.830781	-0.251081	-0.067048	-0.325170	0.943276	-0.865300	-0.451738	-0.217230
143	1555619													8.522543	-0.641996	4.903942	0.496723	-0.830790	-0.251108	-0.067048	-0.325192	0.943268	-0.865316	-0.451706	-0.217233
144	1555786													8.490318	-0.633074	4.918861	0.496757	-0.830748	-0.251177	-0.067058	-0.325286	0.943235	-0.865295	-0.451715	-0.217297
145	1555952													8.472466	-0.623266	4.909158	0.496784	-0.830724	-0.251203	-0.067080	-0.325335	0.943217	-0.865278	-0.451724	-0.217346
146	1556119													8.473141	-0.628199	4.927782	0.496828	-0.830721	-0.251128	-0.067178	-0.325313	0.943217	-0.865245	-0.451746	-0.217430
147	1556286													8.480372	-0.621030	4.929201	0.496854	-0.830726	-0.251060	-0.067276	-0.325294	0.943217	-0.865223	-0.451751	-0.217511
148	1556452													8.482349	-0.636065	4.939167	0.496849	-0.830717	-0.251099	-0.067334	-0.325368	0.943187	-0.865221	-0.451713	-0.217594
149	1556619													8.484186	-0.607931	4.896516	0.496824	-0.830716	-0.251152	-0.067415	-0.325463	0.943149	-0.865229	-0.451648	-0.217701
150	1556786													8.460347	-0.605426	4.879810	0.496834	-0.830727	-0.251095	-0.067528	-0.325460	0.943142	-0.865214	-0.451629	-0.217796
151	1556952													8.484969	-0.619907	4.922725	0.496923	-0.830691	-0.251038	-0.067596	-0.325457	0.943138	-0.865158	-0.451698	-0.217879
152	1557119													8.505304	-0.615469	4.918747	0.496952	-0.830680	-0.251017	-0.067571	-0.325428	0.943149	-0.865143	-0.451739	-0.217852
153	1557286													8.544299	-0.572179	4.847152	0.496842	-0.830729	-0.251073	-0.067547	-0.325447	0.943144	-0.865208	-0.451635	-0.217809
154	1557452													8.537657	-0.616565	4.860248	0.497151	-0.830480	-0.251283	-0.067434	-0.325715	0.943060	-0.865039	-0.451899	-0.217932
155	1557619													8.453224	-0.576993	4.935484	0.497375	-0.830292	-0.251462	-0.067296	-0.325911	0.943002	-0.864921	-0.452104	-0.217976
156	1557786													8.568749	-0.598824	4.857059	0.497356	-0.830246	-0.251652	-0.067138	-0.326038	0.942970	-0.864945	-0.452097	-0.217898
157	1557952													8.496996	-0.600101	4.935184	0.497811	-0.829944	-0.251748	-0.067043	-0.326228	0.942911	-0.864690	-0.452514	-0.218042
158	1558119													8.402928	-0.593819	4.972880	0.497863	-0.829922	-0.251718	-0.067068	-0.326221	0.942911	-0.864659	-0.452558	-0.218075
159	1558286													8.456892	-0.599820	4.886069	0.497648	-0.830070	-0.251656	-0.067073	-0.326092	0.942955	-0.864782	-0.452380	-0.217955
160	1558452													8.435862	-0.597516	4.906807	0.497651	-0.830104	-0.251538	-0.067052	-0.325947	0.943007	-0.864782	-0.452423	-0.217868
161	1558619													8.437236	-0.622382	4.915322	0.497574	-0.830201	-0.251368	-0.067110	-0.325763	0.943067	-0.864822	-0.452376	-0.217806
162	1558786													8.487762	-0.643621	4.921426	0.497495	-0.830292	-0.251224	-0.067153	-0.325600	0.943120	-0.864863	-0.452327	-0.217741
163	1558952													8.464396	-0.642104	4.921244	0.497496	-0.830336	-0.251078	-0.067211	-0.325465	0.943162	-0.864858	-0.452344	-0.217726
164	1559119													8.475014	-0.637992	4.903717	0.497471	-0.830376	-0.250992	-0.067258	-0.325384	0.943187	-0.864869	-0.452327	-0.217719
165	1559286													8.497149	-0.644425	4.913902	0.497489	-0.830392	-0.250907	-0.067321	-0.325325	0.943203	-0.864854	-0.452341	-0.217749
166	1559452													8.476377	-0.652297	4.927620	0.497509	-0.830401	-0.250837	-0.067369	-0.325276	0.943216	-0.864839	-0.452360	-0.217771
167	1559619													8.477414	-0.640963	4.921937	0.497455	-0.830436	-0.250828	-0.067388	-0.325261	0.943220	-0.864869	-0.452307	-0.217764
168	1559786													8.513802	-0.622184	4.892340	0.497383	-0.830493	-0.250782	-0.067487	-0.325240	0.943220	-0.864902	-0.452217	-0.217817
169	1559952													8.489692	-0.626559	4.891615	0.497532	-0.830405	-0.250777	-0.067512	-0.325290	0.943201	-0.864814	-0.452342	-0.217905
170	1560119													8.442245	-0.558146	4.959005	0.497490	-0.830469	-0.250649	-0.067490	-0.325121	0.943261	-0.864841	-0.452346	-0.217793
171	1560286													8.525707	-0.588740	4.874700	0.497385	-0.830527	-0.250666	-0.067382	-0.325054	0.943292	-0.864909	-0.452289	-0.217639
172	1560452													8.503599	-0.597948	4.930476	0.497602	-0.830394	-0.250675	-0.067338	-0.325104	0.943278	-0.864788	-0.452497	-0.217690
173	1560619													8.499935	-0.574098	4.924152	0.497533	-0.830418	-0.250734	-0.067292	-0.325126	0.943273	-0.864831	-0.452437	-0.217641
174	1560786													8.514850	-0.600917	4.915880	0.497451	-0.830484	-0.250676	-0.067283	-0.325032	0.943306	-0.864879	-0.452382	-0.217565
175	1560952													8.460033	-0.589745	4.911813	0.497450	-0.830536	-0.250505	-0.067287	-0.324840	0.943372	-0.864879	-0.452425	-0.217476
176	1561119													8.470100	-0.601218	4.891558	0.497394	-0.830638	-0.250279	-0.067316	-0.324583	0.943459	-0.864909	-0.452423	-0.217360
177	1561286													8.488775	-0.639136	4.885854	0.497375	-0.830709	-0.250081	-0.067337	-0.324363	0.943533	-0.864919	-0.452450	-0.217267
178	1561452													8.479427	-0.625146	4.901171	0.497336	-0.830768	-0.249962	-0.067309	-0.324202	0.943590	-0.864943	-0.452457	-0.217155
179	1561619													8.499338	-0.622682	4.887144	0.497275	-0.830818	-0.249915	-0.067254	-0.324103	0.943628	-0.864982	-0.452435	-0.217045
180	1561786													8.502976	-0.612325	4.906202	0.497293	-0.830818	-0.249883	-0.067233	-0.324060	0.943644	-0.864974	-0.452467	-0.217011
181	1561952													8.472579	-0.605463	4.929297	0.497246	-0.830849	-0.249871	-0.067223	-0.324029	0.943656	-0.865001	-0.452432	-0.216974
182	1562119													8.480936	-0.614010	4.933303	0.497231	-0.830862	-0.249860	-0.067224	-0.324012	0.943661	-0.865010	-0.452421	-0.216963
183	1562286													8.495624	-0.618059	4.900528	0.497238	-0.830856	-0.249866	-0.067243	-0.324030	0.943654	-0.865005	-0.452419	-0.216989
184	1562453													8.503187	-0.614543	4.905816	0.497239	-0.830864	-0.249837	-0.067285	-0.324020	0.943654	-0.865001	-0.452411	-0.217020
185	1562619													8.482539	-0.606650	4.888829	0.497240	-0.830900	-0.249714	-0.067398	-0.323940	0.943674	-0.864991	-0.452402	-0.217077
186	1562786													8.453933	-0.604386	4.891844	0.497206	-0.830980	-0.249518	-0.067549	-0.323786	0.943716	-0.864999	-0.452366	-0.217120
187	1562953													8.496825	-0.619503	4.913119	0.497266	-0.830980	-0.249397	-0.067658	-0.323724	0.943729	-0.864956	-0.452411	-0.217200
188	1563119													8.481977	-0.635463	4.925685	0.497324	-0.830975	-0.249297	-0.067721	-0.323659	0.943747	-0.864918	-0.452465	-0.217238
189	1563286													8.494515	-0.598984	4.860484	0.497209	-0.831055	-0.249261	-0.067790	-0.323622	0.943755	-0.864979	-0.452346	-0.217245
190	1563453													8.511842	-0.639179	4.851137	0.497455	-0.830916	-0.249234	-0.067845	-0.323690	0.943728	-0.864833	-0.452553	-0.217395
191	1563619													8.433481	-0.599696	4.980673	0.497668	-0.830803	-0.249186	-0.067853	-0.323700	0.943724	-0.864710	-0.452753	-0.217467
192	1563786													8.589913	-0.625333	4.860008	0.497667	-0.830777	-0.249272	-0.067828	-0.323785	0.943696	-0.864712	-0.452739	-0.217487
193	1563953													8.502216	-0.634732	4.929595	0.498102	-0.830486	-0.249373	-0.067797	-0.324007	0.943622	-0.864464	-0.453113	-0.217693
194	1564119													8.372889	-0.614324	4.985478	0.498120	-0.830492	-0.249320	-0.067880	-0.323995	0.943620	-0.864447	-0.453112	-0.217762
195	1564286													8.437918	-0.617592	4.922828	0.497925	-0.830644	-0.249201	-0.067914	-0.323823	0.943677	-0.864557	-0.452957	-0.217652
196	1564453													8.448869	-0.611113	4.910848	0.497986	-0.830653	-0.249047	-0.067914	-0.323665	0.943731	-0.864521	-0.453051	-0.217594
197	1564619													8.451017	-0.625693	4.945001	0.497967	-0.830708	-0.248904	-0.067954	-0.323518	0.943779	-0.864530	-0.453056	-0.217551
198	1564786													8.460824	-0.643778	4.921054	0.497897	-0.830785	-0.248786	-0.067983	-0.323380	0.943824	-0.864567	-0.453014	-0.217490
199	1564953													8.461042	-0.635728	4.917238	0.497895	-0.830808	-0.248712	-0.067997	-0.323302	0.943850	-0.864567	-0.453027	-0.217463
200	1565119													8.445900	-0.648288	4.940752	0.497923	-0.830828	-0.248592	-0.068021	-0.323187	0.943887	-0.864549	-0.453074	-0.217436
201	1565286													8.469410	-0.641032	4.923472	0.497942	-0.830858	-0.248452	-0.068026	-0.323036	0.943939	-0.864538	-0.453126	-0.217373
202	1565453													8.470508	-0.634298	4.959595	0.497957	-0.830866	-0.248395	-0.067982	-0.322952	0.943971	-0.864533	-0.453170	-0.217300
203	1565619													8.460877	-0.629362	4.943742	0.497912	-0.830897	-0.248383	-0.067909	-0.322887	0.943998	-0.864565	-0.453160	-0.217195
204	1565786													8.503836	-0.637491	4.885911	0.497822	-0.830965	-0.248336	-0.067920	-0.322814	0.944022	-0.864615	-0.453088	-0.217143
205	1565953													8.481563	-0.641112	4.893145	0.497992	-0.830843	-0.248404	-0.067849	-0.322903	0.943997	-0.864523	-0.453249	-0.217175
206	1566119													8.456139	-0.586591	4.936486	0.497891	-0.830921	-0.248343	-0.067812	-0.322785	0.944040	-0.864584	-0.453189	-0.217058
207	1566286													8.537150	-0.599015	4.885836	0.497892	-0.830903	-0.248401	-0.067693	-0.322789	0.944047	-0.864593	-0.453219	-0.216960
208	1566453													8.491218	-0.621774	4.935680	0.498114	-0.830785	-0.248352	-0.067655	-0.322776	0.944054	-0.864468	-0.453445	-0.216986
209	1566619													8.495038	-0.584815	4.888009	0.497961	-0.830878	-0.248347	-0.067669	-0.322734	0.944068	-0.864555	-0.453303	-0.216933
210	1566786													8.508974	-0.609590	4.897898	0.497956	-0.830917	-0.248228	-0.067642	-0.322583	0.944121	-0.864560	-0.453341	-0.216837
211	1566953													8.465208	-0.583655	4.920986	0.498019	-0.830918	-0.248096	-0.067625	-0.322443	0.944170	-0.864525	-0.453437	-0.216773
212	1567119													8.474217	-0.607308	4.886884	0.497965	-0.831019	-0.247869	-0.067657	-0.322186	0.944256	-0.864554	-0.453436	-0.216661
213	1567286													8.489459	-0.617364	4.880690	0.497934	-0.831066	-0.247771	-0.067615	-0.322044	0.944307	-0.864575	-0.453450	-0.216549
214	1567453													8.502343	-0.632424	4.886944	0.498006	-0.831043	-0.247704	-0.067556	-0.321957	0.944341	-0.864538	-0.453554	-0.216479
215	1567619													8.497047	-0.615766	4.895910	0.498063	-0.831022	-0.247659	-0.067479	-0.321882	0.944372	-0.864511	-0.453645	-0.216395
216	1567786													8.509253	-0.617110	4.905365	0.498094	-0.831013	-0.247629	-0.067445	-0.321839	0.944389	-0.864496	-0.453693	-0.216353
217	1567953													8.475951	-0.624155	4.927327	0.498160	-0.831012	-0.247498	-0.067474	-0.321724	0.944426	-0.864456	-0.453776	-0.216342
218	1568119													8.473902	-0.611725	4.903474	0.498220	-0.831021	-0.247348	-0.067490	-0.321578	0.944475	-0.864420	-0.453863	-0.216302
219	1568286													8.489741	-0.611485	4.917632	0.498321	-0.830992	-0.247241	-0.067532	-0.321508	0.944496	-0.864358	-0.453965	-0.216333
220	1568453													8.509425	-0.620916	4.949903	0.498395	-0.830984	-0.247119	-0.067583	-0.321418	0.944523	-0.864312	-0.454045	-0.216354
221	1568619													8.476826	-0.620454	4.917911	0.498484	-0.830995	-0.246904	-0.067673	-0.321245	0.944575	-0.864254	-0.454146	-0.216372
222	1568786													8.480028	-0.612089	4.911799	0.498593	-0.831013	-0.246620	-0.067815	-0.321029	0.944638	-0.864179	-0.454266	-0.216418
223	1568953													8.475412	-0.627253	4.938780	0.498822	-0.830960	-0.246337	-0.067946	-0.320840	0.944693	-0.864037	-0.454496	-0.216502
224	1569119													8.479305	-0.632250	4.916546	0.499029	-0.830932	-0.246011	-0.068048	-0.320583	0.944773	-0.863909	-0.454729	-0.216523
225	1569286													8.513848	-0.603764	4.867737	0.499101	-0.830966	-0.245752	-0.068187	-0.320382	0.944831	-0.863857	-0.454809	-0.216564
226	1569453													8.499483	-0.649546	4.880101	0.499664	-0.830710	-0.245473	-0.068289	-0.320279	0.944859	-0.863523	-0.455348	-0.216760
227	1569619													8.427670	-0.619255	5.012193	0.500304	-0.830466	-0.244995	-0.068362	-0.319956	0.944963	-0.863147	-0.456020	-0.216847
228	1569786													8.565993	-0.616522	4.932285	0.500823	-0.830306	-0.244475	-0.068439	-0.319554	0.945093	-0.862839	-0.456593	-0.216865
229	1569953													8.501461	-0.656125	5.012495	0.501916	-0.829839	-0.243819	-0.068512	-0.319159	0.945222	-0.862199	-0.457717	-0.217045
230	1570119													8.346155	-0.635528	5.072326	0.502754	-0.829519	-0.243181	-0.068620	-0.318730	0.945359	-0.861702	-0.458596	-0.217164
231	1570286													8.363836	-0.635534	5.035625	0.503261	-0.829399	-0.242539	-0.068642	-0.318155	0.945550	-0.861404	-0.459211	-0.217047
232	1570453													8.373914	-0.631697	4.996336	0.504052	-0.829076	-0.241999	-0.068512	-0.317697	0.945714	-0.860951	-0.460109	-0.216937
233	1570619													8.407149	-0.655094	4.991956	0.504954	-0.828648	-0.241586	-0.068402	-0.317426	0.945813	-0.860432	-0.461067	-0.216967
234	1570786													8.449811	-0.655257	5.022712	0.505761	-0.828269	-0.241197	-0.068356	-0.317190	0.945895	-0.859961	-0.461909	-0.217040
235	1570953													8.435960	-0.659435	5.009935	0.506655	-0.827837	-0.240805	-0.068362	-0.317003	0.945957	-0.859434	-0.462812	-0.217204
236	1571119													8.431097	-0.615570	5.006449	0.507664	-0.827352	-0.240343	-0.068376	-0.316775	0.946033	-0.858837	-0.463833	-0.217387
237	1571286													8.432815	-0.616663	5.033346	0.508866	-0.826749	-0.239877	-0.068311	-0.316555	0.946111	-0.858131	-0.465057	-0.217560
238	1571453													8.375339	-0.617544	5.115997	0.510060	-0.826166	-0.239350	-0.068287	-0.316285	0.946203	-0.857424	-0.466276	-0.217741
239	1571619													8.398899	-0.615667	5.070444	0.511196	-0.825714	-0.238485	-0.068329	-0.315648	0.946413	-0.856744	-0.467507	-0.217778
240	1571786													8.454119	-0.608804	4.993397	0.512662	-0.825108	-0.237434	-0.068484	-0.314955	0.946633	-0.855855	-0.469042	-0.217972
241	1571953													8.380439	-0.634740	5.092700	0.514639	-0.824223	-0.236228	-0.068565	-0.314194	0.946879	-0.854661	-0.471104	-0.218210
242	1572119													8.215829	-0.570623	5.196854	0.516145	-0.823708	-0.234733	-0.068772	-0.313033	0.947249	-0.853736	-0.472775	-0.218218
243	1572286													8.677367	-0.578059	5.034410	0.517743	-0.823179	-0.233064	-0.069002	-0.311710	0.947669	-0.852749	-0.474567	-0.218186
244	1572453													8.321569	-0.566348	5.154644	0.520319	-0.822094	-0.231150	-0.069373	-0.310472	0.948048	-0.851150	-0.477252	-0.218576
245	1572619													8.440788	-0.518236	4.935240	0.522058	-0.821663	-0.228747	-0.070157	-0.308656	0.948583	-0.850020	-0.479167	-0.218782
246	1572786													8.646502	-0.590702	4.811299	0.524907	-0.820576	-0.226117	-0.070968	-0.306925	0.949084	-0.848196	-0.482133	-0.219341
247	1572953													8.506115	-0.627380	5.108742	0.528482	-0.818946	-0.223681	-0.071615	-0.305548	0.949480	-0.845918	-0.485764	-0.220126
248	1573119													8.471918	-0.623937	5.278433	0.531764	-0.817354	-0.221717	-0.072113	-0.304551	0.949762	-0.843816	-0.489061	-0.220892
249	1573286													8.415160	-0.637067	5.307520	0.535413	-0.815478	-0.219837	-0.072638	-0.303784	0.949968	-0.841461	-0.492656	-0.221885
250	1573453													8.372004	-0.627595	5.250281	0.539186	-0.813604	-0.217546	-0.073175	-0.302593	0.950307	-0.839002	-0.496473	-0.222690
251	1573619													8.683687	-0.616755	5.007721	0.543403	-0.811447	-0.215095	-0.073504	-0.301235	0.950713	-0.836248	-0.500810	-0.223336
252	1573786													8.986780	-0.621488	5.008040	0.549071	-0.808537	-0.211634	-0.073469	-0.298931	0.951442	-0.832541	-0.506861	-0.223537
253	1573953													8.650453	-0.530401	5.404057	0.556313	-0.804656	-0.207472	-0.074000	-0.296654	0.952114	-0.827671	-0.514320	-0.224577
254	1574119													8.257215	-0.709820	5.420894	0.563528	-0.800894	-0.202495	-0.075423	-0.293979	0.952831	-0.822647	-0.521675	-0.226071
255	1574286													7.705815	-0.802505	5.808300	0.570709	-0.796833	-0.198364	-0.076984	-0.292424	0.953185	-0.817536	-0.528721	-0.228232
256	1574453													8.155863	-0.749316	5.422881	0.577692	-0.792717	-0.194606	-0.078372	-0.291179	0.953453	-0.812484	-0.535551	-0.230338
257	1574619													8.401174	-0.679251	5.162964	0.585445	-0.787842	-0.191205	-0.079740	-0.290663	0.953497	-0.806781	-0.542973	-0.232990
258	1574786													8.378305	-0.755965	5.520126	0.595600	-0.781094	-0.187491	-0.081123	-0.290701	0.953369	-0.799174	-0.552617	-0.236506
259	1574953													7.552147	-0.835586	6.075786	0.606388	-0.773775	-0.183210	-0.082644	-0.290483	0.953304	-0.790863	-0.562931	-0.240093
260	1575119													7.394719	-0.760812	6.216526	0.615832	-0.767215	-0.179254	-0.084392	-0.290439	0.953165	-0.783345	-0.571861	-0.243608
261	1575286													7.618778	-0.867806	6.118963	0.624952	-0.760746	-0.175215	-0.086283	-0.290380	0.953014	-0.775880	-0.580470	-0.247112
262	1575453													7.676175	-0.816895	6.107619	0.634087	-0.754071	-0.171204	-0.088198	-0.290489	0.952805	-0.768215	-0.589062	-0.250703
263	1575619													7.733322	-0.856464	6.047456	0.643695	-0.746827	-0.167052	-0.090140	-0.290759	0.952541	-0.759955	-0.598088	-0.254479
264	1575786													7.542406	-0.837162	6.174035	0.653936	-0.738784	-0.162991	-0.091851	-0.291375	0.952189	-0.750953	-0.607700	-0.258399
265	1575953													7.294601	-0.844676	6.423073	0.663890	-0.730789	-0.158734	-0.093561	-0.291758	0.951905	-0.741954	-0.617109	-0.262069
266	1576119													7.092733	-0.871799	6.499228	0.673127	-0.723161	-0.154723	-0.095213	-0.292223	0.951599	-0.733372	-0.625815	-0.265557
267	1576286													7.040908	-0.873233	6.569278	0.681428	-0.716173	-0.150840	-0.096847	-0.292519	0.951343	-0.725449	-0.633663	-0.268690
268	1576453													7.073215	-0.953248	6.526365	0.689070	-0.709564	-0.147314	-0.098423	-0.293024	0.951026	-0.717980	-0.640824	-0.271752
269	1576619													6.774966	-1.009506	6.672018	0.696476	-0.702937	-0.144227	-0.099814	-0.293938	0.950599	-0.710605	-0.647673	-0.274883
270	1576786													6.777160	-1.038671	6.721931	0.702925	-0.696987	-0.141793	-0.100974	-0.295122	0.950109	-0.704060	-0.653538	-0.277827
271	1576953													6.692124	-0.974763	6.859943	0.708799	-0.691380	-0.139989	-0.101870	-0.296694	0.949524	-0.698016	-0.658761	-0.280727
272	1577119													6.561191	-1.003162	7.087132	0.714110	-0.686198	-0.138488	-0.102725	-0.298408	0.948894	-0.692456	-0.663389	-0.283586
273	1577286													6.358110	-1.136014	7.250452	0.718721	-0.681548	-0.137597	-0.103360	-0.300427	0.948188	-0.687574	-0.667260	-0.286368
274	1577453													6.416941	-1.023960	7.238914	0.722219	-0.677910	-0.137253	-0.103680	-0.302304	0.947556	-0.683850	-0.670112	-0.288615
275	1577619													6.496986	-1.021234	7.282295	0.725540	-0.674366	-0.137198	-0.103836	-0.304356	0.946882	-0.680302	-0.672754	-0.290846
276	1577786													6.456042	-1.027186	7.266701	0.728302	-0.671369	-0.137256	-0.103845	-0.306118	0.946313	-0.677342	-0.674949	-0.292664
277	1577953													6.487660	-1.052797	7.222416	0.730951	-0.668461	-0.137370	-0.103565	-0.307622	0.945856	-0.674525	-0.677148	-0.294086
278	1578119													6.415753	-0.972433	7.375710	0.733355	-0.665715	-0.137893	-0.103036	-0.309322	0.945359	-0.671993	-0.679076	-0.295435
279	1578286													6.346920	-0.993319	7.366187	0.735370	-0.663470	-0.137979	-0.102698	-0.310367	0.945053	-0.669839	-0.680794	-0.296372
280	1578453													6.357142	-1.063015	7.271016	0.737003	-0.661641	-0.138054	-0.102311	-0.311111	0.944850	-0.668102	-0.682233	-0.296983
281	1578619													6.442214	-1.019799	7.296894	0.738817	-0.659572	-0.138258	-0.101706	-0.311939	0.944643	-0.666188	-0.683856	-0.297548
282	1578786													6.314077	-0.959756	7.367516	0.740349	-0.657902	-0.138017	-0.101478	-0.312342	0.944534	-0.664519	-0.685280	-0.298004
283	1578953													6.427533	-1.031182	7.240565	0.741732	-0.656357	-0.137947	-0.101096	-0.312739	0.944444	-0.663034	-0.686578	-0.298323
284	1579120													6.397910	-1.007888	7.326005	0.743285	-0.654595	-0.137960	-0.100591	-0.313243	0.944331	-0.661369	-0.688029	-0.298675
285	1579286													6.345635	-0.985956	7.350822	0.744647	-0.653072	-0.137832	-0.100251	-0.313594	0.944250	-0.659887	-0.689315	-0.298988
286	1579453													6.427627	-1.035327	7.330614	0.746018	-0.651573	-0.137514	-0.099910	-0.313677	0.944259	-0.658388	-0.690695	-0.299108
287	1579620													6.391576	-1.084095	7.430279	0.747680	-0.649731	-0.137201	-0.099478	-0.313867	0.944241	-0.656566	-0.692342	-0.299306
288	1579786													6.235143	-0.984129	7.510176	0.749074	-0.648132	-0.137162	-0.098985	-0.314213	0.944178	-0.655050	-0.693682	-0.299524
289	1579953													6.312073	-0.931529	7.495328	0.750206	-0.646883	-0.136870	-0.098702	-0.314244	0.944197	-0.653795	-0.694833	-0.299597
290	1580120													6.281748	-1.006886	7.426179	0.751163	-0.645872	-0.136395	-0.098543	-0.314022	0.944288	-0.652720	-0.695873	-0.299528
291	1580286													6.321399	-0.962577	7.449899	0.752135	-0.644760	-0.136296	-0.098176	-0.314139	0.944287	-0.651655	-0.696851	-0.299575
292	1580453													6.189063	-0.871665	7.552065	0.752962	-0.643786	-0.136337	-0.097935	-0.314499	0.944192	-0.650735	-0.697589	-0.299855
293	1580620													6.194344	-0.922481	7.480011	0.753367	-0.643331	-0.136247	-0.097901	-0.314605	0.944161	-0.650272	-0.697961	-0.299996
294	1580786													6.315835	-0.932883	7.419307	0.753804	-0.642786	-0.136404	-0.097678	-0.314891	0.944088	-0.649799	-0.698334	-0.300152
295	1580953													6.285154	-0.872611	7.445218	0.754283	-0.642163	-0.136687	-0.097464	-0.315403	0.943939	-0.649274	-0.698676	-0.300491
296	1581120													6.246657	-0.904612	7.531395	0.754501	-0.641856	-0.136927	-0.097311	-0.315740	0.943843	-0.649045	-0.698806	-0.300686
297	1581286													6.246907	-0.934289	7.518406	0.754322	-0.642038	-0.137061	-0.097338	-0.315842	0.943806	-0.649249	-0.698592	-0.300741
298	1581453													6.205170	-0.901897	7.500728	0.753781	-0.642614	-0.137337	-0.097314	-0.315856	0.943804	-0.649880	-0.698056	-0.300621
299	1581620													6.365232	-0.907915	7.436980	0.753000	-0.643478	-0.137574	-0.097366	-0.315729	0.943841	-0.650777	-0.697317	-0.300397
300	1581786													6.074939	-0.984586	7.682064	0.752127	-0.644468	-0.137718	-0.097505	-0.315498	0.943903	-0.651765	-0.696507	-0.300134
301	1581953													6.095241	-0.986413	7.507311	0.750600	-0.646140	-0.138211	-0.097620	-0.315316	0.943952	-0.653506	-0.695038	-0.299753
302	1582120													6.253246	-0.794156	7.295834	0.748654	-0.648187	-0.139181	-0.097656	-0.315468	0.943898	-0.655730	-0.693061	-0.299475
303	1582286													6.487792	-0.757380	7.325776	0.746781	-0.650128	-0.140188	-0.097699	-0.315738	0.943803	-0.657855	-0.691117	-0.299304
304	1582453													6.307429	-0.802642	7.568225	0.744276	-0.652791	-0.141128	-0.097942	-0.315707	0.943788	-0.660651	-0.688617	-0.298909
305	1582620													6.146704	-0.859848	7.507347	0.740889	-0.656383	-0.142283	-0.098166	-0.315405	0.943866	-0.664414	-0.685333	-0.298115
306	1582786													6.064519	-0.874592	7.418355	0.736829	-0.660675	-0.143497	-0.098524	-0.314913	0.943993	-0.668862	-0.681423	-0.297129
307	1582953													6.369684	-0.869646	7.161698	0.732208	-0.665475	-0.144959	-0.098780	-0.314349	0.944154	-0.673879	-0.676999	-0.295904
308	1583120													6.758795	-0.831514	7.001081	0.727479	-0.670311	-0.146488	-0.098948	-0.313759	0.944333	-0.678958	-0.672487	-0.294579
309	1583286													6.787377	-0.898012	6.999298	0.722647	-0.675130	-0.148260	-0.099004	-0.313376	0.944454	-0.684090	-0.667829	-0.293301
310	1583453													6.655187	-0.886228	7.141610	0.717266	-0.680370	-0.150420	-0.098951	-0.313140	0.944538	-0.689738	-0.662601	-0.291928
311	1583620													6.691140	-0.878716	7.082048	0.711512	-0.685942	-0.152424	-0.099085	-0.312696	0.944671	-0.695652	-0.657042	-0.290453
312	1583786													6.713103	-0.952148	7.097007	0.705490	-0.691685	-0.154452	-0.099218	-0.312177	0.944829	-0.701740	-0.651243	-0.288865
313	1583953													6.787185	-0.991033	7.030326	0.699285	-0.697476	-0.156616	-0.099256	-0.311705	0.944981	-0.707919	-0.645266	-0.287199
314	1584120													6.870533	-0.979660	6.886512	0.692807	-0.703423	-0.158791	-0.099294	-0.311155	0.945158	-0.714254	-0.639045	-0.285416
315	1584286													6.942693	-1.015404	6.741788	0.686089	-0.709469	-0.161043	-0.099214	-0.310535	0.945370	-0.720720	-0.632631	-0.283444
316	1584453													7.081655	-0.990349	6.618747	0.679174	-0.715531	-0.163520	-0.098877	-0.309949	0.945598	-0.727287	-0.626057	-0.281259
317	1584620													7.197773	-0.947047	6.641584	0.672781	-0.720980	-0.165990	-0.098354	-0.309526	0.945791	-0.733275	-0.619985	-0.279154
318	1584786													7.171823	-0.932295	6.680580	0.666361	-0.726369	-0.168381	-0.097866	-0.309073	0.945989	-0.739179	-0.613891	-0.277041
319	1584953													7.223186	-0.910870	6.505569	0.659520	-0.732046	-0.170708	-0.097517	-0.308506	0.946211	-0.745334	-0.607398	-0.274853
320	1585120													7.333302	-0.899059	6.296358	0.652778	-0.737633	-0.172563	-0.097409	-0.307630	0.946507	-0.751261	-0.601050	-0.272666
321	1585286													7.517446	-0.933458	6.287474	0.646166	-0.742906	-0.174813	-0.097129	-0.307241	0.946662	-0.756991	-0.594722	-0.270686
322	1585453													7.445840	-0.962420	6.401213	0.639936	-0.747808	-0.176822	-0.096803	-0.306728	0.946862	-0.762307	-0.588813	-0.268677
323	1585620													7.383340	-0.965973	6.430788	0.633398	-0.752966	-0.178463	-0.096605	-0.305762	0.947194	-0.767773	-0.582710	-0.266409
324	1585786													7.511076	-0.956730	6.187552	0.626396	-0.758420	-0.180077	-0.096411	-0.304620	0.947582	-0.773520	-0.576200	-0.263932
325	1585953													7.645483	-0.958880	5.984208	0.619254	-0.763859	-0.181779	-0.096058	-0.303470	0.947987	-0.779293	-0.569584	-0.261300
326	1586120													7.872035	-0.985144	6.031616	0.612636	-0.768713	-0.183733	-0.095545	-0.302792	0.948255	-0.784569	-0.563380	-0.258948
327	1586286													7.753041	-0.994300	6.072582	0.606899	-0.772823	-0.185522	-0.095065	-0.302338	0.948448	-0.789073	-0.557975	-0.256957
328	1586453													7.773942	-0.967320	5.809071	0.601089	-0.776874	-0.187508	-0.094513	-0.302081	0.948586	-0.793574	-0.552463	-0.255002
329	1586620													7.897105	-0.978866	5.761499	0.595962	-0.780323	-0.189541	-0.093711	-0.302008	0.948688	-0.797526	-0.547620	-0.253110
330	1586786													7.858219	-0.940621	5.925101	0.590653	-0.783757	-0.191972	-0.092611	-0.302177	0.948743	-0.801594	-0.542599	-0.251066
331	1586953													7.976380	-0.867933	5.848107	0.585316	-0.787143	-0.194454	-0.091574	-0.302471	0.948749	-0.805618	-0.537511	-0.249123
332	1587120													7.954927	-0.809753	5.639171	0.580462	-0.790287	-0.196241	-0.090882	-0.302367	0.948849	-0.809200	-0.532936	-0.247335
333	1587286													7.985347	-0.829450	5.661855	0.575509	-0.793431	-0.198132	-0.090222	-0.302398	0.948902	-0.812803	-0.528226	-0.245618
334	1587453													7.983461	-0.850143	5.643338	0.570233	-0.796743	-0.200088	-0.089541	-0.302401	0.948966	-0.816589	-0.523215	-0.243780
335	1587620													8.059355	-0.862500	5.537080	0.565175	-0.799861	-0.201988	-0.088914	-0.302476	0.949001	-0.820166	-0.518392	-0.242071
336	1587786													8.053613	-0.838235	5.505939	0.560675	-0.802722	-0.203179	-0.088579	-0.302111	0.949148	-0.823285	-0.514166	-0.240491
337	1587953													8.070774	-0.838465	5.503958	0.556253	-0.805433	-0.204596	-0.088175	-0.302016	0.949216	-0.826322	-0.509964	-0.239016
338	1588120													8.130366	-0.806652	5.480656	0.551655	-0.808156	-0.206301	-0.087724	-0.302188	0.949203	-0.829446	-0.505535	-0.237598
339	1588286													8.213479	-0.834539	5.356829	0.547342	-0.810631	-0.208072	-0.087240	-0.302529	0.949139	-0.832350	-0.501351	-0.236306
340	1588453													8.212242	-0.867826	5.347535	0.543485	-0.812862	-0.209474	-0.086802	-0.302632	0.949147	-0.834919	-0.497664	-0.235034
341	1588620													8.204082	-0.837879	5.345392	0.539777	-0.815012	-0.210703	-0.086455	-0.302646	0.949174	-0.837357	-0.494126	-0.233824
342	1588786													8.241169	-0.775940	5.190063	0.536059	-0.817233	-0.211593	-0.086365	-0.302425	0.949252	-0.839751	-0.490581	-0.232698
343	1588953													8.366169	-0.806798	5.112202	0.532463	-0.819342	-0.212515	-0.086194	-0.302243	0.949326	-0.842053	-0.487163	-0.231556
344	1589120													8.389213	-0.821482	5.144001	0.529449	-0.821000	-0.213641	-0.085819	-0.302375	0.949318	-0.843990	-0.484281	-0.230549
345	1589286													8.436368	-0.796262	5.217971	0.526713	-0.822513	-0.214583	-0.085581	-0.302466	0.949310	-0.845724	-0.481649	-0.229704
346	1589453													8.346410	-0.811845	5.213503	0.524209	-0.823942	-0.215232	-0.085452	-0.302359	0.949356	-0.847292	-0.479269	-0.228907
347	1589620													8.342084	-0.788407	5.016690	0.521631	-0.825400	-0.215907	-0.085202	-0.302196	0.949430	-0.848906	-0.476857	-0.227961
348	1589786													8.481047	-0.794233	4.944561	0.519642	-0.826423	-0.216789	-0.084874	-0.302414	0.949391	-0.850158	-0.474943	-0.227289
349	1589953													8.440289	-0.794194	5.076312	0.518097	-0.827136	-0.217763	-0.084609	-0.302910	0.949256	-0.851127	-0.473382	-0.226920
350	1590120													8.341382	-0.804891	5.085096	0.516093	-0.828065	-0.218991	-0.084255	-0.303511	0.949096	-0.852379	-0.471370	-0.226408
351	1590286													8.401030	-0.757949	4.980069	0.513713	-0.829218	-0.220219	-0.083772	-0.303930	0.949004	-0.853862	-0.469068	-0.225597
352	1590453													8.533804	-0.796071	4.959710	0.512175	-0.829913	-0.221181	-0.083263	-0.304287	0.948935	-0.854836	-0.467604	-0.224949
353	1590620													8.458565	-0.768431	5.058961	0.511262	-0.830429	-0.221357	-0.083006	-0.304073	0.949026	-0.855407	-0.466827	-0.224391
354	1590786													8.404713	-0.770846	4.954231	0.510126	-0.830940	-0.222059	-0.082577	-0.304302	0.948990	-0.856126	-0.465767	-0.223849
355	1590953													8.361768	-0.736522	4.943112	0.508442	-0.831772	-0.222806	-0.082343	-0.304525	0.948938	-0.857150	-0.464134	-0.223324
356	1591120													8.539348	-0.755419	4.769088	0.507284	-0.832342	-0.223315	-0.082195	-0.304682	0.948901	-0.857850	-0.463007	-0.222975
357	1591286													8.579607	-0.762960	4.944531	0.507192	-0.832331	-0.223566	-0.082108	-0.304894	0.948840	-0.857913	-0.462887	-0.222981
358	1591453													8.491886	-0.761165	5.094799	0.507118	-0.832301	-0.223843	-0.082038	-0.305150	0.948764	-0.857963	-0.462772	-0.223028
359	1591620													8.313679	-0.756245	5.144220	0.506423	-0.832591	-0.224340	-0.081941	-0.305458	0.948673	-0.858383	-0.462048	-0.222915
360	1591786													8.317350	-0.767223	4.904681	0.505010	-0.833392	-0.224549	-0.081981	-0.305301	0.948721	-0.859212	-0.460704	-0.222502
361	1591953													8.509281	-0.805383	4.777285	0.504304	-0.833785	-0.224676	-0.081955	-0.305223	0.948748	-0.859628	-0.460044	-0.222258
362	1592120													8.526507	-0.804549	4.984683	0.504326	-0.833750	-0.224760	-0.081924	-0.305308	0.948723	-0.859619	-0.460052	-0.222279
363	1592286													8.468332	-0.776091	5.007254	0.504149	-0.833810	-0.224932	-0.081958	-0.305471	0.948668	-0.859719	-0.459835	-0.222341
364	1592453													8.359204	-0.795569	5.006671	0.503327	-0.834174	-0.225421	-0.081847	-0.305726	0.948595	-0.860211	-0.459004	-0.222155
365	1592620													8.486548	-0.779386	4.875504	0.502697	-0.834453	-0.225797	-0.081672	-0.305875	0.948562	-0.860596	-0.458398	-0.221914
366	1592786													8.574372	-0.777925	4.906206	0.502978	-0.834229	-0.225999	-0.081510	-0.306102	0.948503	-0.860447	-0.458655	-0.221961
367	1592953													8.461140	-0.755728	5.040630	0.503577	-0.833898	-0.225884	-0.081489	-0.306136	0.948494	-0.860099	-0.459233	-0.222117
368	1593120													8.358516	-0.749888	4.988255	0.503590	-0.833928	-0.225745	-0.081523	-0.305999	0.948535	-0.860088	-0.459269	-0.222082
369	1593286													8.380685	-0.751490	4.933641	0.503087	-0.834155	-0.226030	-0.081398	-0.306109	0.948510	-0.860394	-0.458785	-0.221898
370	1593453													8.344892	-0.752180	5.127784	0.502341	-0.834433	-0.226660	-0.081150	-0.306475	0.948413	-0.860853	-0.458033	-0.221669
371	1593620													8.433127	-0.759714	4.908352	0.501347	-0.834984	-0.226830	-0.081104	-0.306353	0.948457	-0.861437	-0.457109	-0.221310
372	1593786													8.569030	-0.769938	4.787812	0.500934	-0.835204	-0.226935	-0.080967	-0.306278	0.948493	-0.861690	-0.456758	-0.221049
373	1593953													8.545193	-0.769280	4.929942	0.500940	-0.835156	-0.227100	-0.080851	-0.306406	0.948461	-0.861698	-0.456761	-0.221014
374	1594120													8.445638	-0.784963	4.955744	0.500959	-0.835138	-0.227123	-0.080858	-0.306442	0.948449	-0.861686	-0.456769	-0.221042
375	1594286													8.366131	-0.782177	4.953681	0.500618	-0.835289	-0.227318	-0.080831	-0.306550	0.948416	-0.861886	-0.456420	-0.220982
376	1594453													8.406962	-0.765320	4.992122	0.499805	-0.835613	-0.227917	-0.080638	-0.306891	0.948322	-0.862376	-0.455598	-0.220768
377	1594620													8.523621	-0.754593	4.832372	0.499073	-0.835927	-0.228368	-0.080557	-0.307147	0.948246	-0.862808	-0.454847	-0.220629
378	1594786													8.608690	-0.801378	4.758859	0.498811	-0.836009	-0.228641	-0.080510	-0.307357	0.948182	-0.862963	-0.454556	-0.220620
379	1594953													8.482835	-0.763130	4.935559	0.498881	-0.835922	-0.228805	-0.080438	-0.307525	0.948134	-0.862929	-0.454602	-0.220658
380	1595120													8.466047	-0.728590	4.963290	0.498583	-0.836150	-0.228623	-0.080532	-0.307282	0.948205	-0.863093	-0.454347	-0.220542
381	1595286													8.520338	-0.735683	4.877610	0.498437	-0.836250	-0.228574	-0.080526	-0.307180	0.948238	-0.863178	-0.454231	-0.220449
382	1595453													8.485505	-0.753056	4.889808	0.498578	-0.836157	-0.228606	-0.080508	-0.307249	0.948218	-0.863098	-0.454356	-0.220505
383	1595620													8.492930	-0.732841	4.873064	0.498486	-0.836197	-0.228660	-0.080565	-0.307313	0.948192	-0.863146	-0.454239	-0.220559
384	1595787													8.527826	-0.762569	4.855195	0.498466	-0.836237	-0.228558	-0.080664	-0.307243	0.948206	-0.863148	-0.454212	-0.220605
385	1595953													8.467636	-0.757589	4.919323	0.498634	-0.836270	-0.228072	-0.080879	-0.306854	0.948314	-0.863031	-0.454415	-0.220644
386	1596120													8.426482	-0.749494	4.861682	0.498513	-0.836472	-0.227595	-0.081065	-0.306376	0.948453	-0.863084	-0.454366	-0.220541
387	1596287													8.502269	-0.759625	4.799462	0.498279	-0.836653	-0.227441	-0.081154	-0.306181	0.948508	-0.863210	-0.454164	-0.220461
388	1596453													8.540915	-0.779817	4.816304	0.498349	-0.836646	-0.227317	-0.081228	-0.306099	0.948528	-0.863163	-0.454233	-0.220503
389	1596620													8.470257	-0.763574	4.909084	0.498318	-0.836641	-0.227400	-0.081215	-0.306177	0.948504	-0.863182	-0.454189	-0.220522
390	1596787													8.527409	-0.764443	4.812210	0.497935	-0.836841	-0.227503	-0.081190	-0.306170	0.948508	-0.863405	-0.453825	-0.220396
391	1596953													8.584943	-0.775443	4.826665	0.498088	-0.836722	-0.227607	-0.081121	-0.306296	0.948474	-0.863324	-0.453959	-0.220438
392	1597120													8.549947	-0.784839	4.910898	0.498734	-0.836372	-0.227477	-0.081059	-0.306304	0.948476	-0.862956	-0.454598	-0.220560
393	1597287													8.454723	-0.789742	4.974278	0.499432	-0.836039	-0.227170	-0.081061	-0.306158	0.948523	-0.862553	-0.455308	-0.220675
394	1597453													8.424006	-0.758774	4.920602	0.499881	-0.835861	-0.226837	-0.081084	-0.305923	0.948597	-0.862290	-0.455793	-0.220700
395	1597620													8.482642	-0.736447	4.930296	0.500384	-0.835622	-0.226610	-0.081071	-0.305804	0.948637	-0.862000	-0.456311	-0.220764
396	1597787													8.476306	-0.751276	4.907897	0.500969	-0.835284	-0.226562	-0.081001	-0.305884	0.948617	-0.861666	-0.456876	-0.220897
397	1597953													8.470037	-0.762831	4.922820	0.501584	-0.834931	-0.226504	-0.080892	-0.305939	0.948608	-0.861319	-0.457484	-0.220993
398	1598120													8.473243	-0.781093	4.917772	0.502296	-0.834520	-0.226438	-0.080769	-0.306007	0.948597	-0.860915	-0.458188	-0.221109
399	1598287													8.482696	-0.779969	4.995875	0.503241	-0.834016	-0.226198	-0.080698	-0.305971	0.948615	-0.860370	-0.459128	-0.221281
400	1598453													8.420856	-0.788139	4.953506	0.504276	-0.833501	-0.225790	-0.080671	-0.305796	0.948673	-0.859766	-0.460179	-0.221445
401	1598620													8.475392	-0.760860	4.881854	0.505188	-0.833077	-0.225318	-0.080647	-0.305514	0.948766	-0.859233	-0.461134	-0.221527
402	1598787													8.494766	-0.814773	4.964430	0.506688	-0.832329	-0.224714	-0.080625	-0.305254	0.948852	-0.858351	-0.462654	-0.221775
403	1598953													8.463162	-0.777856	5.052644	0.508345	-0.831516	-0.223978	-0.080628	-0.304906	0.948963	-0.857371	-0.464342	-0.222041
404	1599120													8.491981	-0.794602	5.032913	0.510197	-0.830541	-0.223386	-0.080599	-0.304762	0.949012	-0.856273	-0.466178	-0.222429
405	1599287													8.377814	-0.799845	5.109063	0.512333	-0.829329	-0.223000	-0.080544	-0.304926	0.948964	-0.855002	-0.468224	-0.223022
406	1599453													8.220514	-0.769702	5.202156	0.513764	-0.828528	-0.222683	-0.080611	-0.305028	0.948925	-0.854136	-0.469573	-0.223501
407	1599620													8.296475	-0.780983	5.073669	0.514422	-0.828287	-0.222061	-0.080831	-0.304634	0.949033	-0.853719	-0.470254	-0.223662
408	1599787													8.455400	-0.773282	5.019829	0.515506	-0.827785	-0.221418	-0.081047	-0.304343	0.949108	-0.853044	-0.471326	-0.223980
409	1599953													8.429663	-0.765966	5.111331	0.516848	-0.827024	-0.221130	-0.081204	-0.304504	0.949043	-0.852217	-0.472555	-0.224541
410	1600120													8.299394	-0.802409	5.160673	0.517468	-0.826746	-0.220723	-0.081480	-0.304377	0.949060	-0.851815	-0.473124	-0.224868
411	1600287													8.415898	-0.768957	4.904310	0.517983	-0.826657	-0.219845	-0.081807	-0.303708	0.949247	-0.851470	-0.473709	-0.224942
412	1600453													8.650924	-0.757351	4.668619	0.519867	-0.825789	-0.218656	-0.082143	-0.303102	0.949411	-0.850289	-0.475607	-0.225405
413	1600620													8.754835	-0.787599	4.851261	0.523648	-0.823685	-0.217569	-0.082501	-0.303209	0.949346	-0.847931	-0.479173	-0.226730
414	1600787													8.525764	-0.818571	5.135590	0.528350	-0.820955	-0.216516	-0.082730	-0.303585	0.949206	-0.844986	-0.483601	-0.228317
415	1600953													8.269710	-0.771312	5.267177	0.532483	-0.818453	-0.215861	-0.082800	-0.304165	0.949014	-0.842381	-0.487461	-0.229730
416	1601120													8.287410	-0.772986	5.207802	0.536168	-0.816254	-0.215066	-0.083017	-0.304540	0.948875	-0.840019	-0.490902	-0.231048
417	1601287													8.220483	-0.762955	5.348999	0.540805	-0.813619	-0.213433	-0.083479	-0.304403	0.948878	-0.836996	-0.495341	-0.232543
418	1601453													8.193714	-0.761100	5.439741	0.545644	-0.810993	-0.211099	-0.084038	-0.303587	0.949090	-0.833793	-0.500125	-0.233805
419	1601620													8.156780	-0.779121	5.423211	0.550502	-0.808333	-0.208677	-0.084610	-0.302697	0.949324	-0.830535	-0.504948	-0.235029
420	1601787													8.049129	-0.803101	5.335986	0.555425	-0.805636	-0.206041	-0.085330	-0.301684	0.949582	-0.827177	-0.509840	-0.236308
421	1601953													8.046243	-0.805802	5.279047	0.559740	-0.803182	-0.203935	-0.085887	-0.301004	0.949747	-0.824205	-0.514096	-0.237467
422	1602120													8.132853	-0.835502	5.372406	0.563721	-0.800773	-0.202439	-0.086347	-0.300886	0.949743	-0.821440	-0.517910	-0.238760
423	1602287													8.219878	-0.822753	5.419137	0.568130	-0.798047	-0.200873	-0.086882	-0.300894	0.949692	-0.818340	-0.522096	-0.240283
424	1602620													7.929973	-0.819264	5.785335	0.578579	-0.791437	-0.197168	-0.087923	-0.300849	0.949610	-0.810874	-0.532088	-0.243650
425	1602787													7.837279	-0.818896	5.640445	0.583332	-0.788450	-0.195116	-0.088577	-0.300541	0.949647	-0.807389	-0.536677	-0.245154
426	1602953													8.063156	-0.843949	5.388290	0.588183	-0.785296	-0.193263	-0.089156	-0.300480	0.949612	-0.803799	-0.541315	-0.246751
427	1603120													8.121684	-0.873627	5.569742	0.593768	-0.781532	-0.191435	-0.089659	-0.300696	0.949496	-0.799625	-0.546616	-0.248615
428	1603287													7.898638	-0.855359	5.926497	0.599559	-0.777574	-0.189495	-0.090281	-0.300969	0.949351	-0.795222	-0.552084	-0.250648
429	1603453													7.664826	-0.843707	6.100561	0.604763	-0.773919	-0.187911	-0.091064	-0.301600	0.949076	-0.791182	-0.556854	-0.252873
430	1603620													7.508099	-0.857322	6.184626	0.609058	-0.770986	-0.186087	-0.091899	-0.301646	0.948981	-0.787783	-0.560883	-0.254573
431	1603787													7.453505	-0.914699	6.217377	0.612473	-0.768699	-0.184333	-0.092799	-0.301494	0.948941	-0.785026	-0.564095	-0.255992
432	1603953													7.487034	-0.888174	6.173508	0.615142	-0.767010	-0.182472	-0.093816	-0.301007	0.948996	-0.782815	-0.566649	-0.257119
433	1604120													7.682926	-0.851019	5.964386	0.617509	-0.765540	-0.180641	-0.094978	-0.300549	0.949026	-0.780808	-0.568875	-0.258301
434	1604287													7.871280	-0.901937	6.025324	0.620771	-0.763323	-0.178833	-0.095996	-0.300397	0.948971	-0.778092	-0.571927	-0.259754
435	1604453													7.534380	-0.906291	6.359776	0.624492	-0.760741	-0.176870	-0.096998	-0.300245	0.948917	-0.774985	-0.575435	-0.261291
436	1604620													7.394719	-0.931785	6.465774	0.627740	-0.758499	-0.174990	-0.097999	-0.300018	0.948886	-0.772229	-0.578505	-0.262666
437	1604787													7.448122	-0.953023	6.341118	0.630817	-0.756376	-0.173108	-0.098901	-0.299655	0.948908	-0.769603	-0.581466	-0.263834
438	1604953													7.697575	-0.913816	5.961594	0.634212	-0.753874	-0.171609	-0.099512	-0.299704	0.948828	-0.766729	-0.584681	-0.265095
439	1605120													8.171850	-0.847957	5.391134	0.639166	-0.750150	-0.169531	-0.100324	-0.299880	0.948687	-0.762497	-0.589361	-0.266931
440	1605287													8.289584	-1.028179	5.797091	0.647550	-0.743516	-0.166921	-0.100812	-0.300712	0.948372	-0.755325	-0.597290	-0.269681
441	1605453													7.538966	-0.959254	6.540823	0.656643	-0.736082	-0.164325	-0.101166	-0.301874	0.947965	-0.747386	-0.605851	-0.272690
442	1605620													6.864749	-0.918441	6.804014	0.664715	-0.729368	-0.161791	-0.101679	-0.302864	0.947594	-0.740146	-0.613429	-0.275480
443	1605787													6.786143	-0.931765	6.865396	0.670813	-0.724299	-0.159375	-0.102407	-0.303305	0.947375	-0.734522	-0.619191	-0.277634
444	1605953													7.138176	-0.969399	6.562356	0.676047	-0.719980	-0.156813	-0.103303	-0.303317	0.947274	-0.729582	-0.624202	-0.279432
445	1606120													7.286856	-0.993639	6.464966	0.681762	-0.715233	-0.153761	-0.104303	-0.303061	0.947246	-0.724101	-0.629758	-0.281217
446	1606287													7.165253	-1.033693	6.643322	0.687890	-0.710035	-0.150524	-0.105308	-0.302827	0.947210	-0.718135	-0.635724	-0.283084
447	1606453													6.950351	-1.018145	6.770864	0.693728	-0.705003	-0.147351	-0.106333	-0.302598	0.947168	-0.712345	-0.641409	-0.284886
448	1606620													7.020575	-0.972235	6.764953	0.698778	-0.700538	-0.144761	-0.107296	-0.302722	0.947020	-0.707246	-0.646224	-0.286700
449	1606787													7.034790	-1.001866	6.747169	0.703716	-0.696025	-0.142594	-0.108133	-0.303287	0.946744	-0.702204	-0.650820	-0.288691
450	1606953													6.850461	-0.984460	6.891222	0.708681	-0.691423	-0.140374	-0.108867	-0.303747	0.946512	-0.697079	-0.655494	-0.290533
451	1607120													6.697598	-1.023418	7.018529	0.713047	-0.687367	-0.138167	-0.109610	-0.303933	0.946367	-0.692495	-0.659660	-0.292061
452	1607287													6.662306	-1.096388	7.042727	0.716642	-0.683967	-0.136431	-0.110188	-0.304194	0.946216	-0.688682	-0.663065	-0.293363
453	1607453													6.735135	-1.138198	6.959821	0.719798	-0.680929	-0.135005	-0.110684	-0.304570	0.946037	-0.685303	-0.666012	-0.294597
454	1607620													6.618965	-1.205965	7.101919	0.723093	-0.677664	-0.133824	-0.110905	-0.305121	0.945834	-0.681790	-0.669084	-0.295787
455	1607787													6.481339	-1.162019	7.258392	0.726079	-0.674615	-0.133057	-0.110854	-0.305819	0.945614	-0.678617	-0.671840	-0.296833
456	1607953													6.360856	-1.076072	7.366822	0.728682	-0.671931	-0.132407	-0.110720	-0.306377	0.945449	-0.675843	-0.674272	-0.297647
457	1608120													6.411695	-1.128482	7.262644	0.730892	-0.669640	-0.131829	-0.110612	-0.306829	0.945315	-0.673470	-0.676342	-0.298329
458	1608287													6.487110	-1.136416	7.266224	0.733302	-0.667080	-0.131425	-0.110295	-0.307453	0.945149	-0.670897	-0.678584	-0.299032
459	1608453													6.358444	-1.139852	7.395491	0.735695	-0.664492	-0.131162	-0.109969	-0.308267	0.944922	-0.668326	-0.680751	-0.299864
460	1608620													6.270528	-1.134105	7.307917	0.737550	-0.662519	-0.130724	-0.109859	-0.308719	0.944788	-0.666297	-0.682467	-0.300479
461	1608787													6.426857	-1.149040	7.187791	0.739435	-0.660537	-0.130103	-0.109805	-0.308995	0.944704	-0.664213	-0.684261	-0.301012
462	1608953													6.473095	-1.103928	7.257768	0.741637	-0.658217	-0.129326	-0.109733	-0.309242	0.944631	-0.661765	-0.686382	-0.301573
463	1609120													6.530763	-1.089713	7.243375	0.743989	-0.655696	-0.128624	-0.109616	-0.309656	0.944509	-0.659140	-0.688605	-0.302255
464	1609287													6.393527	-1.106035	7.303751	0.746428	-0.653012	-0.128147	-0.109429	-0.310390	0.944290	-0.656408	-0.690821	-0.303142
465	1609453													6.325685	-1.028371	7.383966	0.748727	-0.650465	-0.127681	-0.109313	-0.311138	0.944057	-0.653803	-0.692884	-0.304062
466	1609620													6.297902	-1.108657	7.377211	0.750894	-0.648071	-0.127131	-0.109327	-0.311822	0.943830	-0.651311	-0.694817	-0.304997
467	1609787													6.262805	-1.141969	7.432629	0.752897	-0.645801	-0.126833	-0.109148	-0.312570	0.943603	-0.649024	-0.696593	-0.305821
468	1609953													6.238810	-1.062345	7.468282	0.754640	-0.643810	-0.126598	-0.109070	-0.313346	0.943355	-0.647010	-0.698085	-0.306684
469	1610120													6.279903	-1.098590	7.451303	0.756152	-0.642079	-0.126365	-0.109006	-0.313989	0.943148	-0.645253	-0.699389	-0.307414
470	1610287													6.335255	-1.111606	7.475812	0.757751	-0.640171	-0.126473	-0.108674	-0.314911	0.942879	-0.643431	-0.700723	-0.308194
471	1610453													6.201585	-1.004502	7.555849	0.759069	-0.638530	-0.126864	-0.108289	-0.315999	0.942559	-0.641941	-0.701729	-0.309010
472	1610620													6.274301	-1.033187	7.539122	0.760109	-0.637257	-0.127036	-0.108120	-0.316810	0.942307	-0.640738	-0.702520	-0.309710
473	1610787													6.207606	-1.096629	7.524524	0.760985	-0.636153	-0.127327	-0.107805	-0.317522	0.942103	-0.639750	-0.703199	-0.310210
474	1610953													6.279353	-0.992444	7.496624	0.761717	-0.635161	-0.127899	-0.107403	-0.318456	0.941834	-0.638946	-0.703674	-0.310792
475	1611120													6.309416	-0.946635	7.448227	0.762530	-0.634090	-0.128367	-0.107039	-0.319336	0.941577	-0.638037	-0.704241	-0.311376
476	1611287													6.208300	-0.962022	7.488638	0.763504	-0.632830	-0.128793	-0.106730	-0.320336	0.941272	-0.636922	-0.704919	-0.312120
477	1611453													6.256419	-0.938120	7.478044	0.764529	-0.631531	-0.129091	-0.106509	-0.321283	0.940974	-0.635729	-0.705653	-0.312894
478	1611620													6.205238	-0.979842	7.529778	0.765765	-0.630050	-0.129004	-0.106451	-0.321998	0.940737	-0.634250	-0.706650	-0.313644
479	1611787													6.216982	-1.069685	7.520013	0.766904	-0.628682	-0.128907	-0.106378	-0.322616	0.940533	-0.632884	-0.707586	-0.314293
480	1611953													6.285193	-0.966306	7.614168	0.768297	-0.627004	-0.128782	-0.106253	-0.323328	0.940303	-0.631213	-0.708749	-0.315033
481	1612120													5.919521	-0.985356	7.748765	0.769330	-0.625808	-0.128439	-0.106369	-0.323718	0.940155	-0.629934	-0.709628	-0.315613
482	1612287													6.161632	-1.072987	7.488086	0.769879	-0.625163	-0.128284	-0.106411	-0.323947	0.940072	-0.629256	-0.710091	-0.315925
483	1612454													5.946155	-1.024866	7.665546	0.770634	-0.624254	-0.128183	-0.106340	-0.324286	0.939963	-0.628344	-0.710736	-0.316289
484	1612620													6.024437	-0.985155	7.564168	0.770817	-0.624056	-0.128044	-0.106479	-0.324372	0.939918	-0.628095	-0.710870	-0.316480
485	1612787													6.085214	-1.078034	7.573892	0.771149	-0.623742	-0.127571	-0.106753	-0.324222	0.939938	-0.627641	-0.711214	-0.316610
486	1612954													6.100879	-1.170564	7.600685	0.771390	-0.623445	-0.127567	-0.106727	-0.324371	0.939890	-0.627349	-0.711407	-0.316755
487	1613120													6.005599	-0.981495	7.681126	0.771516	-0.623215	-0.127930	-0.106593	-0.324861	0.939736	-0.627216	-0.711385	-0.317066
488	1613287													6.115936	-0.982500	7.606806	0.771427	-0.623272	-0.128189	-0.106578	-0.325167	0.939632	-0.627329	-0.711195	-0.317270
489	1613454													6.130548	-1.105766	7.574183	0.771312	-0.623400	-0.128261	-0.106572	-0.325181	0.939628	-0.627472	-0.711077	-0.317253
490	1613620													6.075121	-1.097295	7.674768	0.771011	-0.623713	-0.128544	-0.106476	-0.325269	0.939608	-0.627857	-0.710762	-0.317197
491	1613787													6.300197	-0.994124	7.479881	0.770606	-0.624147	-0.128865	-0.106463	-0.325431	0.939553	-0.628356	-0.710306	-0.317227
492	1613954													5.996034	-1.023967	7.726007	0.770197	-0.624614	-0.129052	-0.106533	-0.325481	0.939528	-0.628846	-0.709873	-0.317226
493	1614120													6.178289	-1.078860	7.523547	0.769360	-0.625592	-0.129307	-0.106610	-0.325317	0.939576	-0.629857	-0.709087	-0.316980
494	1614287													6.184810	-0.995920	7.548895	0.768443	-0.626665	-0.129564	-0.106773	-0.325193	0.939600	-0.630948	-0.708195	-0.316803
495	1614454													6.146987	-1.018000	7.555073	0.767354	-0.627944	-0.129821	-0.107038	-0.325058	0.939617	-0.632227	-0.707123	-0.316648
496	1614620													6.233644	-1.039906	7.542636	0.766093	-0.629416	-0.130145	-0.107341	-0.324937	0.939624	-0.633703	-0.705869	-0.316494
497	1614787													6.059378	-1.008676	7.561296	0.764382	-0.631405	-0.130565	-0.107648	-0.324633	0.939694	-0.635713	-0.704231	-0.316113
498	1614954													6.127532	-1.037644	7.368488	0.762263	-0.633822	-0.131245	-0.107819	-0.324272	0.939799	-0.638224	-0.702224	-0.315518
499	1615120													6.268313	-1.069079	7.427027	0.760102	-0.636244	-0.132055	-0.107898	-0.323981	0.939891	-0.640783	-0.700165	-0.314908
500	1615287													6.290319	-1.067405	7.553305	0.757694	-0.638846	-0.133324	-0.107680	-0.323875	0.939952	-0.643665	-0.697840	-0.314189
501	1615454													6.260321	-1.054759	7.393349	0.754721	-0.642048	-0.134797	-0.107476	-0.323697	0.940037	-0.647182	-0.694978	-0.313306
502	1615620													6.249887	-0.993779	7.399232	0.751818	-0.645091	-0.136482	-0.107123	-0.323735	0.940064	-0.650610	-0.692137	-0.312494
503	1615787													6.186562	-0.998609	7.407845	0.748208	-0.648828	-0.138591	-0.106796	-0.323945	0.940029	-0.654813	-0.688536	-0.311670
504	1615954													6.448860	-0.994053	7.345671	0.744164	-0.653043	-0.140556	-0.106680	-0.323896	0.940059	-0.659424	-0.684563	-0.310698
505	1616120													6.516031	-1.029655	7.342848	0.740040	-0.657376	-0.142119	-0.106863	-0.323554	0.940156	-0.664019	-0.680566	-0.309692
506	1616287													6.399073	-1.023393	7.262544	0.735368	-0.662211	-0.143909	-0.107087	-0.323246	0.940237	-0.669153	-0.676009	-0.308619
507	1616454													6.460971	-1.008936	7.275018	0.730536	-0.667175	-0.145582	-0.107409	-0.322801	0.940353	-0.674374	-0.671325	-0.307479
508	1616620													6.529124	-1.015919	7.218055	0.725314	-0.672476	-0.147294	-0.107768	-0.322237	0.940505	-0.679931	-0.666288	-0.306194
509	1616787													6.716832	-1.059364	7.158806	0.720210	-0.677556	-0.149048	-0.107939	-0.321664	0.940681	-0.685308	-0.661400	-0.304801
510	1616954													6.649743	-1.100385	7.112318	0.715042	-0.682660	-0.150633	-0.108081	-0.320834	0.940948	-0.690676	-0.656536	-0.303193
511	1617120													6.698857	-1.131426	7.004605	0.709693	-0.687794	-0.152561	-0.107963	-0.320168	0.941189	-0.696189	-0.651485	-0.301478
512	1617287													6.703162	-1.036790	7.019954	0.704508	-0.692630	-0.154699	-0.107678	-0.319777	0.941354	-0.701480	-0.646534	-0.299867
513	1617454													6.779086	-1.030892	6.956469	0.699554	-0.697196	-0.156657	-0.107517	-0.319429	0.941491	-0.706445	-0.641781	-0.298418
514	1617620													6.880548	-1.019261	6.872009	0.694267	-0.702015	-0.158646	-0.107365	-0.318983	0.941659	-0.711664	-0.636730	-0.296832
515	1617787													7.101950	-1.068295	6.660376	0.688936	-0.706758	-0.160812	-0.106933	-0.318542	0.941858	-0.716891	-0.631683	-0.295031
516	1617954													7.002827	-1.016891	6.830272	0.684028	-0.711093	-0.162644	-0.106513	-0.317941	0.942108	-0.721638	-0.627105	-0.293221
517	1618120													6.911993	-1.028451	6.848662	0.678380	-0.716093	-0.164351	-0.106278	-0.316985	0.942457	-0.726984	-0.621878	-0.291141
518	1618287													7.102231	-1.031177	6.651995	0.672139	-0.721570	-0.166031	-0.106079	-0.315767	0.942888	-0.732787	-0.616140	-0.288783
519	1618454													7.258599	-1.047589	6.432016	0.666007	-0.726920	-0.167400	-0.105880	-0.314263	0.943413	-0.738393	-0.610595	-0.286267
520	1618620													7.288650	-1.017123	6.375653	0.660015	-0.732039	-0.168820	-0.105622	-0.312906	0.943893	-0.743791	-0.605152	-0.283842
521	1618787													7.335407	-1.017458	6.486190	0.654224	-0.736878	-0.170298	-0.105392	-0.311801	0.944284	-0.748921	-0.599825	-0.281649
522	1618954													7.339931	-1.061510	6.501411	0.648373	-0.741661	-0.171906	-0.105075	-0.310812	0.944645	-0.754037	-0.594419	-0.279452
523	1619120													7.458511	-1.087859	6.368749	0.642303	-0.746559	-0.173480	-0.104747	-0.309721	0.945040	-0.759259	-0.588831	-0.277135
524	1619287													7.552384	-1.077044	6.158300	0.636496	-0.751199	-0.174851	-0.104484	-0.308592	0.945438	-0.764170	-0.583499	-0.274906
525	1619454													7.513710	-1.060372	6.260976	0.630980	-0.755450	-0.176522	-0.103935	-0.307800	0.945757	-0.768806	-0.578407	-0.272733
526	1619620													7.531971	-1.005703	6.306397	0.624899	-0.759949	-0.178829	-0.103209	-0.307465	0.945946	-0.773854	-0.572664	-0.270568
527	1619787													7.687681	-1.022904	6.030863	0.618776	-0.764408	-0.181101	-0.102607	-0.307205	0.946096	-0.778838	-0.566839	-0.268525
528	1619954													7.639883	-1.062214	5.995055	0.613050	-0.768516	-0.183175	-0.101987	-0.306897	0.946263	-0.783434	-0.561425	-0.266521
529	1620120													7.683760	-1.022083	5.995873	0.606717	-0.772937	-0.185644	-0.101142	-0.306702	0.946416	-0.788457	-0.555430	-0.264258
530	1620287													7.869512	-0.957814	5.877929	0.600459	-0.777172	-0.188288	-0.100254	-0.306768	0.946490	-0.793346	-0.549452	-0.262116
531	1620454													7.863604	-0.927975	5.763906	0.594915	-0.780934	-0.190313	-0.099538	-0.306524	0.946644	-0.797602	-0.544229	-0.260088
532	1620620													7.823319	-0.930896	5.749501	0.589259	-0.784710	-0.192365	-0.098765	-0.306268	0.946808	-0.801885	-0.538917	-0.257973
533	1620787													7.936901	-0.942815	5.768755	0.583173	-0.788637	-0.194836	-0.097804	-0.306262	0.946910	-0.806439	-0.533157	-0.255735
534	1620954													8.062154	-0.965994	5.708769	0.577368	-0.792287	-0.197303	-0.096975	-0.306481	0.946924	-0.810705	-0.527590	-0.253785
535	1621120													7.998303	-0.959259	5.641886	0.572368	-0.795489	-0.198980	-0.096502	-0.306320	0.947025	-0.814299	-0.522844	-0.252094
536	1621287													7.859961	-0.897531	5.587133	0.567523	-0.798555	-0.200568	-0.095920	-0.306063	0.947167	-0.817751	-0.518300	-0.250295
537	1621454													8.001874	-0.866085	5.427848	0.562054	-0.801826	-0.202904	-0.095136	-0.306365	0.947148	-0.821611	-0.513045	-0.248476
538	1621620													8.275615	-0.865024	5.288059	0.557225	-0.804610	-0.205192	-0.094475	-0.306940	0.947028	-0.824970	-0.508322	-0.247050
539	1621787													8.227941	-0.945449	5.361479	0.553355	-0.806989	-0.206318	-0.094109	-0.306683	0.947148	-0.827612	-0.504692	-0.245649
540	1621954													8.209606	-0.904482	5.304302	0.549143	-0.809571	-0.207454	-0.093586	-0.306239	0.947343	-0.830472	-0.500812	-0.243934
541	1622120													8.285169	-0.836453	5.282802	0.544989	-0.811818	-0.209615	-0.092791	-0.306868	0.947218	-0.833293	-0.496773	-0.242569
542	1622287													8.357485	-0.847028	5.250295	0.541082	-0.813988	-0.211314	-0.092465	-0.307334	0.947099	-0.835871	-0.492919	-0.241559
543	1622454													8.397540	-0.871503	5.195035	0.537731	-0.815891	-0.212527	-0.092162	-0.307444	0.947092	-0.838064	-0.489694	-0.240516
544	1622620													8.367039	-0.863155	5.247015	0.534722	-0.817604	-0.213533	-0.091788	-0.307396	0.947145	-0.840028	-0.486859	-0.239417
545	1622787													8.392249	-0.850489	5.209340	0.531885	-0.819308	-0.214088	-0.091617	-0.307006	0.947288	-0.841846	-0.484234	-0.238354
546	1622954													8.335939	-0.899893	5.095508	0.529247	-0.820939	-0.214374	-0.091477	-0.306396	0.947498	-0.843522	-0.481850	-0.237257
547	1623120													8.314474	-0.877880	5.085270	0.526709	-0.822161	-0.215940	-0.090785	-0.306987	0.947374	-0.845184	-0.479386	-0.236332
548	1623287													8.345101	-0.894343	5.223382	0.524358	-0.823195	-0.217711	-0.090205	-0.307944	0.947119	-0.846706	-0.476991	-0.235729
549	1623454													8.300887	-0.905520	5.183256	0.522223	-0.824252	-0.218841	-0.089651	-0.308250	0.947072	-0.848084	-0.474964	-0.234870
550	1623620													8.396047	-0.817974	5.006346	0.520153	-0.825239	-0.220050	-0.088866	-0.308543	0.947050	-0.849437	-0.473056	-0.233825
551	1623787													8.534639	-0.859298	5.035239	0.518970	-0.825782	-0.220805	-0.088300	-0.308722	0.947045	-0.850220	-0.471990	-0.233134
552	1623954													8.373018	-0.827992	5.202607	0.518515	-0.826001	-0.221055	-0.087975	-0.308686	0.947087	-0.850531	-0.471631	-0.232726
553	1624120													8.081702	-0.795408	5.224042	0.516897	-0.826980	-0.221182	-0.087814	-0.308236	0.947248	-0.851531	-0.470207	-0.231947
554	1624287													8.355584	-0.821408	4.824627	0.514478	-0.828220	-0.222182	-0.087257	-0.308323	0.947271	-0.853053	-0.467963	-0.230893
555	1624454													8.625705	-0.849007	4.788535	0.513923	-0.828402	-0.222784	-0.086684	-0.308525	0.947258	-0.853445	-0.467506	-0.230367
556	1624620													8.479422	-0.872804	5.235168	0.514811	-0.827846	-0.222801	-0.086302	-0.308609	0.947266	-0.852949	-0.468435	-0.230320
557	1624787													8.119969	-0.821712	5.469989	0.514458	-0.828150	-0.222485	-0.086207	-0.308087	0.947444	-0.853171	-0.468241	-0.229890
558	1624954													8.214377	-0.799528	5.040481	0.512870	-0.828910	-0.223321	-0.085783	-0.308322	0.947406	-0.854170	-0.466739	-0.229236
559	1625120													8.464703	-0.853659	4.897438	0.512244	-0.829028	-0.224320	-0.085294	-0.309005	0.947228	-0.854594	-0.466078	-0.228997
560	1625287													8.436693	-0.885852	5.119981	0.512489	-0.828764	-0.224735	-0.084919	-0.309350	0.947149	-0.854484	-0.466319	-0.228916
561	1625454													8.361276	-0.846809	5.120507	0.512460	-0.828644	-0.225242	-0.084520	-0.309703	0.947069	-0.854541	-0.466298	-0.228747
562	1625620													8.245169	-0.791708	5.218212	0.511216	-0.828957	-0.226910	-0.083833	-0.310854	0.946753	-0.855354	-0.464973	-0.228407
563	1625787													8.534004	-0.796771	4.782603	0.509676	-0.829571	-0.228127	-0.083397	-0.311538	0.946567	-0.856315	-0.463418	-0.227967
564	1625954													8.584724	-0.800905	4.855194	0.509666	-0.829408	-0.228741	-0.082914	-0.311975	0.946466	-0.856368	-0.463416	-0.227773
565	1626120													8.521906	-0.792308	5.036118	0.509942	-0.829154	-0.229048	-0.082537	-0.312204	0.946423	-0.856240	-0.463715	-0.227642
566	1626287													8.313113	-0.803761	5.227510	0.509785	-0.829260	-0.229013	-0.082307	-0.311992	0.946513	-0.856355	-0.463669	-0.227303
567	1626454													8.307802	-0.777936	5.009593	0.508660	-0.829998	-0.228842	-0.082090	-0.311340	0.946747	-0.857045	-0.462786	-0.226500
568	1626620													8.529742	-0.777515	4.802008	0.507741	-0.830565	-0.228823	-0.081801	-0.310886	0.946921	-0.857617	-0.462073	-0.225791
569	1626787													8.591761	-0.775814	4.922875	0.507411	-0.830647	-0.229258	-0.081421	-0.311078	0.946890	-0.857849	-0.461796	-0.225476
570	1626954													8.426173	-0.782170	5.017327	0.506880	-0.830830	-0.229768	-0.081073	-0.311313	0.946843	-0.858196	-0.461308	-0.225156
571	1627120													8.401247	-0.760049	4.976922	0.506010	-0.831278	-0.230065	-0.080739	-0.311213	0.946904	-0.858740	-0.460568	-0.224594
572	1627287													8.539727	-0.750203	4.862786	0.505190	-0.831754	-0.230149	-0.080391	-0.310878	0.947044	-0.859256	-0.459935	-0.223918
573	1627454													8.620838	-0.730496	4.817494	0.504913	-0.831914	-0.230178	-0.080076	-0.310661	0.947142	-0.859448	-0.459793	-0.223473
574	1627620													8.556184	-0.756650	4.885190	0.504808	-0.831904	-0.230443	-0.079756	-0.310760	0.947136	-0.859539	-0.459743	-0.223223
575	1627787													8.423708	-0.754634	4.982934	0.504374	-0.831955	-0.231211	-0.079445	-0.311340	0.946972	-0.859823	-0.459259	-0.223127
576	1627954													8.445539	-0.755222	4.947703	0.503768	-0.832228	-0.231547	-0.079354	-0.311495	0.946929	-0.860186	-0.458659	-0.222962
577	1628120													8.487039	-0.748936	4.897494	0.503159	-0.832620	-0.231460	-0.079291	-0.311183	0.947036	-0.860548	-0.458157	-0.222594
578	1628287													8.553018	-0.734502	4.843385	0.502572	-0.832991	-0.231405	-0.079260	-0.310931	0.947122	-0.860895	-0.457656	-0.222288
579	1628454													8.570830	-0.746289	4.832487	0.502169	-0.833235	-0.231399	-0.079224	-0.310786	0.947172	-0.861133	-0.457308	-0.222079
580	1628620													8.521619	-0.773026	4.861487	0.502075	-0.833364	-0.231138	-0.079237	-0.310470	0.947275	-0.861187	-0.457288	-0.221912
581	1628787													8.482136	-0.789382	4.944615	0.501847	-0.833669	-0.230532	-0.079148	-0.309667	0.947545	-0.861328	-0.457277	-0.221389
582	1628954													8.481692	-0.801776	4.918430	0.501674	-0.833889	-0.230116	-0.078892	-0.309007	0.947782	-0.861452	-0.457323	-0.220807
583	1629121													8.490665	-0.764540	4.789882	0.501508	-0.834027	-0.229975	-0.078711	-0.308703	0.947896	-0.861565	-0.457276	-0.220464
584	1629287													8.563071	-0.779885	4.778304	0.501507	-0.834038	-0.229938	-0.078623	-0.308614	0.947932	-0.861574	-0.457316	-0.220347
585	1629454													8.496221	-0.770621	4.932320	0.501902	-0.833826	-0.229846	-0.078506	-0.308562	0.947959	-0.861354	-0.457738	-0.220328
586	1629621													8.516552	-0.747402	4.940076	0.502105	-0.833763	-0.229629	-0.078409	-0.308323	0.948045	-0.861245	-0.458013	-0.220185
587	1629787													8.501713	-0.764732	5.003786	0.502527	-0.833609	-0.229266	-0.078349	-0.308000	0.948155	-0.861004	-0.458511	-0.220091
588	1629954													8.400563	-0.735967	4.988126	0.503091	-0.833382	-0.228852	-0.078367	-0.307703	0.948250	-0.860673	-0.459121	-0.220112
589	1630121													8.375930	-0.714406	4.944216	0.503283	-0.833266	-0.228855	-0.078369	-0.307763	0.948230	-0.860561	-0.459293	-0.220194
590	1630287													8.454839	-0.723409	4.885408	0.503362	-0.833160	-0.229063	-0.078338	-0.308007	0.948153	-0.860517	-0.459320	-0.220308
591	1630454													8.398219	-0.734902	4.997470	0.503700	-0.832890	-0.229305	-0.078307	-0.308365	0.948040	-0.860322	-0.459572	-0.220545
592	1630621													8.398052	-0.714599	4.931896	0.503677	-0.832881	-0.229386	-0.078352	-0.308474	0.948001	-0.860332	-0.459513	-0.220629
593	1630787													8.520966	-0.754484	4.875104	0.503916	-0.832710	-0.229482	-0.078429	-0.308694	0.947922	-0.860185	-0.459675	-0.220864
594	1630954													8.512299	-0.767229	4.971988	0.504521	-0.832368	-0.229394	-0.078570	-0.308846	0.947861	-0.859817	-0.460192	-0.221219
595	1631121													8.334695	-0.779545	5.102719	0.504784	-0.832086	-0.229841	-0.078545	-0.309419	0.947676	-0.859665	-0.460319	-0.221546
596	1631287													8.332944	-0.740564	4.954835	0.504025	-0.832397	-0.230377	-0.078631	-0.309853	0.947528	-0.860102	-0.459463	-0.221626
597	1631454													8.556892	-0.784750	4.763570	0.503774	-0.832450	-0.230735	-0.078685	-0.310216	0.947404	-0.860245	-0.459122	-0.221780
598	1631621													8.580120	-0.783532	4.821177	0.504179	-0.832216	-0.230694	-0.078760	-0.310328	0.947361	-0.860000	-0.459470	-0.222006
599	1631787													8.458294	-0.782833	4.944486	0.504188	-0.832320	-0.230300	-0.078769	-0.309887	0.947505	-0.859994	-0.459580	-0.221802
600	1631954													8.417129	-0.717313	4.933548	0.504022	-0.832450	-0.230194	-0.078497	-0.309572	0.947631	-0.860117	-0.459557	-0.221376
601	1632121													8.575693	-0.748424	4.818897	0.504296	-0.832310	-0.230101	-0.078303	-0.309442	0.947689	-0.859974	-0.459898	-0.221223
602	1632287													8.577247	-0.797084	4.907649	0.505425	-0.831729	-0.229721	-0.078227	-0.309300	0.947741	-0.859317	-0.461042	-0.221392
603	1632454													8.485550	-0.783538	4.967731	0.506629	-0.831111	-0.229309	-0.078258	-0.309200	0.947771	-0.858605	-0.462223	-0.221691
604	1632621													8.460433	-0.772257	4.987311	0.507776	-0.830518	-0.228919	-0.078316	-0.309126	0.947791	-0.857922	-0.463337	-0.222010
605	1632787													8.448357	-0.751251	4.993572	0.509269	-0.829687	-0.228613	-0.078348	-0.309236	0.947753	-0.857033	-0.464750	-0.222488
606	1632954													8.392921	-0.754971	5.068313	0.510921	-0.828878	-0.227861	-0.078498	-0.308949	0.947834	-0.856036	-0.466382	-0.222914
607	1633121													8.401170	-0.729099	5.088096	0.512497	-0.828251	-0.226599	-0.078802	-0.308141	0.948071	-0.855066	-0.468027	-0.223189
608	1633287													8.400196	-0.720653	5.050322	0.513838	-0.827857	-0.224996	-0.079252	-0.306953	0.948419	-0.854219	-0.469502	-0.223334
609	1633454													8.443968	-0.727494	4.992466	0.515121	-0.827391	-0.223773	-0.079625	-0.306142	0.948650	-0.853411	-0.470852	-0.223582
610	1633621													8.312934	-0.725905	5.290009	0.516159	-0.827014	-0.222773	-0.080127	-0.305585	0.948788	-0.852736	-0.471875	-0.223996
611	1633787													8.184043	-0.769581	5.216624	0.515761	-0.827271	-0.222739	-0.080560	-0.305665	0.948725	-0.852936	-0.471372	-0.224295
612	1633954													8.315010	-0.741505	4.943798	0.514407	-0.828081	-0.222864	-0.080941	-0.305610	0.948710	-0.853718	-0.469984	-0.224233
613	1634121													8.726082	-0.745937	4.564730	0.514258	-0.828206	-0.222739	-0.081443	-0.305698	0.948639	-0.853760	-0.469705	-0.224659
614	1634287													8.808677	-0.727422	4.752244	0.516509	-0.826920	-0.222311	-0.081973	-0.306182	0.948437	-0.852349	-0.471653	-0.225931
615	1634454													8.462228	-0.728876	5.083367	0.519728	-0.825250	-0.221009	-0.082804	-0.306133	0.948381	-0.850309	-0.474600	-0.227439
616	1634621													8.166379	-0.754849	5.111313	0.521809	-0.824347	-0.219469	-0.083681	-0.305495	0.948510	-0.848948	-0.476576	-0.228392
617	1634787													8.258753	-0.772918	4.983889	0.522772	-0.823696	-0.219625	-0.084045	-0.306177	0.948257	-0.848319	-0.477264	-0.229288
618	1634954													8.489444	-0.851138	4.973488	0.523921	-0.822825	-0.220150	-0.084589	-0.307448	0.947798	-0.847556	-0.477949	-0.230680
619	1635121													8.579370	-0.865749	4.983351	0.526264	-0.821399	-0.219887	-0.085220	-0.308239	0.947484	-0.846040	-0.479888	-0.232215
620	1635287													8.433608	-0.876418	5.104119	0.529597	-0.819527	-0.218865	-0.085802	-0.308452	0.947362	-0.843899	-0.482941	-0.233672
621	1635454													8.203526	-0.834712	5.295632	0.532881	-0.817656	-0.217890	-0.086301	-0.308667	0.947247	-0.841778	-0.485966	-0.235048
622	1635621													8.215843	-0.849725	5.305464	0.535772	-0.815961	-0.217155	-0.086747	-0.309014	0.947093	-0.839895	-0.488589	-0.236343
623	1635787													8.236111	-0.884864	5.296822	0.538867	-0.814091	-0.216515	-0.087105	-0.309494	0.946903	-0.837876	-0.491395	-0.237687
624	1635954													8.205310	-0.884764	5.347636	0.542054	-0.812145	-0.215865	-0.087468	-0.310009	0.946701	-0.835779	-0.494282	-0.239078
625	1636121													8.148185	-0.870768	5.405513	0.545228	-0.810196	-0.215193	-0.087946	-0.310573	0.946472	-0.833662	-0.497118	-0.240587
626	1636287													8.119287	-0.877795	5.500026	0.548436	-0.808189	-0.214591	-0.088375	-0.311213	0.946222	-0.831510	-0.499978	-0.242104
627	1636454													8.116872	-0.863594	5.406678	0.551881	-0.806055	-0.213783	-0.088842	-0.311729	0.946009	-0.829177	-0.503091	-0.243649
628	1636621													8.188354	-0.824590	5.273330	0.555683	-0.803691	-0.212831	-0.089316	-0.312218	0.945803	-0.826583	-0.506557	-0.245277
629	1636787													8.239732	-0.852194	5.365829	0.559944	-0.801091	-0.211462	-0.089988	-0.312518	0.945640	-0.823629	-0.510476	-0.247082
630	1636954													8.174232	-0.910123	5.550058	0.564492	-0.798245	-0.210127	-0.090723	-0.313020	0.945404	-0.820438	-0.514610	-0.249116
631	1637121													7.973620	-0.935389	5.715020	0.569297	-0.795203	-0.208696	-0.091461	-0.313530	0.945163	-0.817029	-0.518991	-0.251222
632	1637287													7.792135	-0.945238	5.811726	0.573936	-0.792235	-0.207269	-0.092095	-0.313945	0.944964	-0.813705	-0.523261	-0.253146
633	1637454													7.844135	-0.895540	5.714043	0.578188	-0.789522	-0.205799	-0.092720	-0.314181	0.944825	-0.810618	-0.527205	-0.254860
634	1637621													8.042820	-0.805452	5.234541	0.582812	-0.786641	-0.203779	-0.093564	-0.314066	0.944780	-0.807203	-0.531562	-0.256643
635	1637787													8.217988	-0.899117	5.415758	0.588324	-0.783105	-0.201549	-0.094454	-0.314095	0.944681	-0.803090	-0.536741	-0.258757
636	1637954													8.000747	-0.974091	6.108550	0.594091	-0.779245	-0.199580	-0.095054	-0.314380	0.944526	-0.798762	-0.542164	-0.260841
637	1638121													7.464448	-1.035705	6.323352	0.599056	-0.775931	-0.197642	-0.095633	-0.314403	0.944460	-0.794975	-0.546884	-0.262549
638	1638287													7.299836	-1.004335	6.098047	0.603055	-0.773159	-0.196340	-0.095898	-0.314615	0.944363	-0.791914	-0.550674	-0.263875
639	1638454													7.704525	-0.961389	5.964183	0.606525	-0.770916	-0.194463	-0.096333	-0.314042	0.944509	-0.789207	-0.554135	-0.264739
640	1638621													8.024439	-0.945149	5.859426	0.610610	-0.768396	-0.191633	-0.097103	-0.312801	0.944842	-0.785956	-0.558322	-0.265613
641	1638787													8.019235	-0.907979	5.907231	0.615198	-0.765277	-0.189427	-0.097730	-0.312451	0.944893	-0.782292	-0.562784	-0.267010
642	1638954													7.781586	-0.882360	5.941759	0.619624	-0.762087	-0.187855	-0.098217	-0.312738	0.944748	-0.778729	-0.566938	-0.268630
643	1639121													7.748889	-0.976916	5.948900	0.624374	-0.758616	-0.186170	-0.098742	-0.313076	0.944581	-0.774859	-0.571389	-0.270383
644	1639287													7.644067	-1.015341	6.099292	0.629763	-0.754566	-0.184468	-0.098940	-0.313460	0.944433	-0.770460	-0.576518	-0.272062
645	1639454													7.625616	-0.955809	6.097798	0.635157	-0.750444	-0.182782	-0.099087	-0.313859	0.944285	-0.766001	-0.581658	-0.273709
646	1639621													7.744323	-0.937289	6.030998	0.640817	-0.746036	-0.181062	-0.099272	-0.314399	0.944086	-0.761248	-0.587012	-0.275532
647	1639787													7.787411	-0.968357	6.181519	0.647718	-0.740583	-0.178880	-0.099474	-0.314982	0.943870	-0.755358	-0.593568	-0.277689
648	1639954													7.715664	-0.939003	6.298901	0.655388	-0.734415	-0.176356	-0.099870	-0.315707	0.943586	-0.748661	-0.600802	-0.280256
649	1640121													7.531193	-0.891733	6.463223	0.663963	-0.727422	-0.173235	-0.100529	-0.316402	0.943284	-0.740977	-0.608890	-0.283206
650	1640287													7.260245	-0.909945	6.603744	0.672724	-0.720241	-0.169398	-0.101533	-0.316647	0.943094	-0.732894	-0.617243	-0.286144
651	1640454													7.180398	-0.936119	6.578990	0.681138	-0.713246	-0.165322	-0.102672	-0.316621	0.942979	-0.724920	-0.625325	-0.288893
652	1640621													7.226625	-0.957143	6.514038	0.689601	-0.706009	-0.161247	-0.103844	-0.316760	0.942804	-0.716705	-0.633415	-0.291753
653	1640787													7.077813	-0.957340	6.578532	0.698136	-0.698464	-0.157334	-0.104884	-0.317153	0.942557	-0.708241	-0.641531	-0.294674
654	1640954													6.890697	-0.953017	6.698122	0.706110	-0.691192	-0.153826	-0.105784	-0.317766	0.942250	-0.700157	-0.649059	-0.297495
655	1641121													6.877870	-0.947001	6.749741	0.713483	-0.684251	-0.150806	-0.106627	-0.318755	0.941820	-0.692512	-0.655893	-0.300386
656	1641287													6.742760	-1.035522	6.911029	0.720559	-0.677414	-0.148006	-0.107330	-0.319843	0.941372	-0.685037	-0.662428	-0.303172
657	1641454													6.703829	-1.071903	7.000878	0.726944	-0.671101	-0.145517	-0.107910	-0.320916	0.940940	-0.678165	-0.668308	-0.305707
658	1641621													6.552992	-1.047583	7.155665	0.733094	-0.664879	-0.143213	-0.108305	-0.322002	0.940523	-0.671449	-0.673981	-0.308068
659	1641787													6.359249	-1.025519	7.300040	0.738431	-0.659371	-0.141241	-0.108719	-0.323127	0.940090	-0.665507	-0.678836	-0.310293
660	1641954													6.270798	-1.077807	7.350668	0.742801	-0.654780	-0.139673	-0.109137	-0.324248	0.939655	-0.660557	-0.682734	-0.312313
661	1642121													6.379834	-1.054641	7.316489	0.746871	-0.650340	-0.138714	-0.109147	-0.325667	0.939163	-0.655950	-0.686294	-0.314214
662	1642287													6.371041	-1.086295	7.420306	0.751116	-0.645576	-0.138048	-0.108817	-0.327319	0.938627	-0.651141	-0.689996	-0.316104
663	1642454													6.242155	-1.162788	7.478957	0.755347	-0.640748	-0.137449	-0.108244	-0.328850	0.938158	-0.646323	-0.693757	-0.317753
664	1642621													6.083077	-1.281925	7.504774	0.759462	-0.635893	-0.137325	-0.107087	-0.330408	0.937743	-0.641678	-0.697474	-0.319028
665	1642787													6.127377	-1.245972	7.379621	0.763347	-0.631193	-0.137462	-0.105568	-0.331822	0.937416	-0.637304	-0.701063	-0.319929
666	1642954													6.244068	-1.262032	7.420056	0.767529	-0.626042	-0.137732	-0.103607	-0.333198	0.937147	-0.632586	-0.705018	-0.320602
667	1643121													6.209716	-1.131504	7.425638	0.771858	-0.620585	-0.138241	-0.101422	-0.334827	0.936806	-0.627654	-0.709060	-0.321379
668	1643287													6.008405	-0.937950	7.640072	0.775979	-0.615269	-0.138931	-0.099321	-0.336699	0.936360	-0.622891	-0.712796	-0.322380
669	1643454													6.101362	-0.809528	7.589620	0.779205	-0.611103	-0.139256	-0.097967	-0.338199	0.935961	-0.619065	-0.715664	-0.323394
670	1643621													6.099269	-0.869807	7.650533	0.782687	-0.606671	-0.139108	-0.097013	-0.339673	0.935527	-0.614808	-0.718730	-0.324712
671	1643787													5.824505	-0.900778	7.774586	0.785608	-0.602907	-0.139007	-0.096250	-0.341018	0.935116	-0.611192	-0.721256	-0.325936
672	1643954													5.959948	-0.844799	7.763853	0.788126	-0.599730	-0.138495	-0.095968	-0.341986	0.934792	-0.607986	-0.723443	-0.327083
673	1644121													5.838033	-0.925379	7.909663	0.790419	-0.596935	-0.137499	-0.096054	-0.342467	0.934607	-0.604988	-0.725524	-0.328031
674	1644287													5.726343	-0.970073	7.861411	0.792149	-0.594768	-0.136933	-0.095971	-0.342954	0.934437	-0.602735	-0.727072	-0.328751
675	1644454													5.720192	-0.885069	7.925097	0.793626	-0.592886	-0.136546	-0.095845	-0.343463	0.934263	-0.600810	-0.728368	-0.329406
676	1644621													5.838920	-0.905465	7.856319	0.794684	-0.591552	-0.136173	-0.095821	-0.343764	0.934155	-0.599412	-0.729310	-0.329866
677	1644787													5.790754	-0.921315	7.928253	0.795745	-0.590167	-0.135992	-0.095595	-0.344126	0.934044	-0.598040	-0.730261	-0.330254
678	1644954													5.732042	-0.958133	7.889830	0.796505	-0.589188	-0.135787	-0.095504	-0.344357	0.933969	-0.597042	-0.730942	-0.330552
679	1645121													5.739014	-0.894783	7.885235	0.797136	-0.588331	-0.135799	-0.095319	-0.344703	0.933860	-0.596229	-0.731469	-0.330855
680	1645287													5.881641	-0.866652	7.889278	0.797790	-0.587454	-0.135754	-0.095167	-0.345021	0.933758	-0.595378	-0.732023	-0.331160
681	1645454													5.707365	-0.911567	7.938412	0.798347	-0.586701	-0.135740	-0.095048	-0.345346	0.933650	-0.594650	-0.732474	-0.331470
682	1645621													5.760337	-0.917543	7.870679	0.798714	-0.586233	-0.135600	-0.095078	-0.345487	0.933595	-0.594152	-0.732782	-0.331683
683	1645788													5.730116	-0.923473	7.862237	0.799249	-0.585575	-0.135288	-0.095129	-0.345529	0.933574	-0.593424	-0.733288	-0.331869
684	1645954													5.767700	-0.979388	7.861040	0.799929	-0.584714	-0.134994	-0.095128	-0.345666	0.933523	-0.592507	-0.733910	-0.332132
685	1646121													5.663550	-0.926179	7.982122	0.800510	-0.584013	-0.134584	-0.095220	-0.345645	0.933522	-0.591707	-0.734478	-0.332302
686	1646288													5.653877	-0.900815	7.881296	0.800933	-0.583525	-0.134184	-0.095360	-0.345561	0.933539	-0.591112	-0.734906	-0.332416
687	1646454													5.700213	-0.906330	7.861620	0.801381	-0.583017	-0.133717	-0.095521	-0.345417	0.933575	-0.590478	-0.735377	-0.332501
688	1646621													5.709471	-0.950592	7.906298	0.801696	-0.582704	-0.133187	-0.095765	-0.345156	0.933647	-0.590010	-0.735747	-0.332513
689	1646788													5.677033	-0.945273	7.970630	0.802105	-0.582246	-0.132731	-0.095929	-0.344999	0.933688	-0.589428	-0.736183	-0.332580
690	1646954													5.539850	-1.009253	8.034701	0.802173	-0.582254	-0.132286	-0.096209	-0.344697	0.933771	-0.589290	-0.736318	-0.332525
691	1647121													5.749420	-0.913703	7.815700	0.802016	-0.582465	-0.132307	-0.096260	-0.344651	0.933782	-0.589495	-0.736172	-0.332484
692	1647288													5.695511	-0.942402	7.973010	0.802382	-0.581944	-0.132379	-0.096161	-0.344975	0.933673	-0.589012	-0.736433	-0.332762
693	1647454													5.632400	-0.961179	7.981659	0.802226	-0.582112	-0.132586	-0.096139	-0.345139	0.933614	-0.589229	-0.736223	-0.332844
694	1647621													5.749957	-0.964789	7.934450	0.802036	-0.582295	-0.132929	-0.096021	-0.345371	0.933541	-0.589506	-0.735970	-0.332913
695	1647788													5.655629	-0.903249	8.011201	0.801486	-0.582956	-0.133350	-0.096000	-0.345521	0.933488	-0.590257	-0.735376	-0.332894
696	1647954													5.652629	-0.894727	7.949054	0.800457	-0.584247	-0.133882	-0.096062	-0.345521	0.933481	-0.591643	-0.734350	-0.332699
697	1648121													5.778945	-0.875072	7.905209	0.799267	-0.585765	-0.134356	-0.096212	-0.345398	0.933511	-0.593224	-0.733198	-0.332423
698	1648288													5.696377	-0.882361	7.931659	0.797775	-0.587733	-0.134628	-0.096602	-0.344984	0.933624	-0.595166	-0.731817	-0.331995
699	1648454													5.721463	-0.966581	7.802918	0.795979	-0.590064	-0.135060	-0.096955	-0.344518	0.933760	-0.597509	-0.730159	-0.331438
700	1648621													5.781257	-0.949920	7.803721	0.793938	-0.592663	-0.135695	-0.097233	-0.344076	0.933894	-0.600173	-0.728260	-0.330802
701	1648788													5.755085	-0.943996	7.777883	0.791660	-0.595483	-0.136655	-0.097324	-0.343728	0.934012	-0.603161	-0.726120	-0.330071
702	1648954													5.822277	-0.905483	7.736248	0.789266	-0.598387	-0.137815	-0.097358	-0.343542	0.934077	-0.606285	-0.723818	-0.329404
703	1649121													5.886765	-0.821527	7.802855	0.786477	-0.601793	-0.138921	-0.097598	-0.343201	0.934178	-0.609860	-0.721151	-0.328654
704	1649288													5.916448	-0.872150	7.754885	0.783341	-0.605679	-0.139745	-0.098179	-0.342556	0.934354	-0.613789	-0.718198	-0.327803
705	1649454													5.892570	-1.009369	7.779981	0.779753	-0.610143	-0.140393	-0.098963	-0.341534	0.934645	-0.618216	-0.714898	-0.326694
706	1649621													6.034232	-0.981414	7.560423	0.775716	-0.614971	-0.141688	-0.099411	-0.340788	0.934869	-0.623203	-0.711107	-0.325490
707	1649788													5.951141	-0.926517	7.698121	0.771591	-0.619845	-0.142965	-0.099916	-0.340051	0.935084	-0.628223	-0.707218	-0.324312
708	1649954													6.131537	-0.924845	7.614146	0.766815	-0.625347	-0.144692	-0.100294	-0.339387	0.935285	-0.633984	-0.702678	-0.322965
709	1650121													6.326819	-0.960499	7.543700	0.762175	-0.630634	-0.146250	-0.100673	-0.338628	0.935519	-0.639495	-0.698306	-0.321582
710	1650288													6.276195	-1.037400	7.515227	0.757459	-0.635991	-0.147549	-0.101191	-0.337626	0.935825	-0.644993	-0.693919	-0.320095
711	1650454													6.314115	-1.054134	7.380172	0.752526	-0.641403	-0.149355	-0.101476	-0.337015	0.936015	-0.650697	-0.689220	-0.318699
712	1650621													6.224481	-0.950009	7.360761	0.747144	-0.647164	-0.151506	-0.101653	-0.336522	0.936173	-0.656843	-0.684055	-0.317217
713	1650788													6.333491	-0.922521	7.283875	0.741314	-0.653320	-0.153711	-0.101891	-0.335919	0.936364	-0.663379	-0.678478	-0.315589
714	1650954													6.531357	-0.971480	7.205929	0.735310	-0.659598	-0.155724	-0.102131	-0.334993	0.936669	-0.669991	-0.672838	-0.313689
715	1651121													6.708582	-1.028710	7.119932	0.729460	-0.665658	-0.157439	-0.102385	-0.333828	0.937057	-0.676317	-0.667427	-0.311667
716	1651288													6.728131	-1.070647	7.077197	0.723686	-0.671553	-0.159048	-0.102596	-0.332588	0.937475	-0.682461	-0.662119	-0.309588
717	1651454													6.674258	-1.060992	6.995284	0.717784	-0.677364	-0.161131	-0.102508	-0.331707	0.937797	-0.688678	-0.656619	-0.307529
718	1651621													6.608353	-1.018741	7.040331	0.711468	-0.683319	-0.163975	-0.102046	-0.331335	0.937978	-0.695269	-0.650609	-0.305464
719	1651788													6.783517	-0.956962	6.948487	0.704165	-0.690268	-0.166380	-0.102086	-0.330314	0.938334	-0.702660	-0.643757	-0.303062
720	1651954													7.078207	-0.954082	6.794018	0.697087	-0.697146	-0.167503	-0.102738	-0.328332	0.938958	-0.709587	-0.637327	-0.300500
721	1652121													7.074325	-0.985863	6.853673	0.690465	-0.703425	-0.168675	-0.103008	-0.326418	0.939596	-0.715994	-0.631384	-0.297838
722	1652288													7.060960	-1.109482	6.818665	0.683488	-0.709735	-0.170645	-0.102862	-0.325084	0.940074	-0.722678	-0.624977	-0.295196
723	1652454													7.096272	-1.105952	6.669398	0.676342	-0.715875	-0.173449	-0.102224	-0.324422	0.940373	-0.729460	-0.618283	-0.292600
724	1652621													7.162768	-1.005344	6.497420	0.669458	-0.721779	-0.175674	-0.101853	-0.323439	0.940751	-0.735834	-0.611901	-0.290044
725	1652788													7.202867	-0.993651	6.604959	0.662808	-0.727387	-0.177745	-0.101487	-0.322452	0.941130	-0.741880	-0.605750	-0.287545
726	1652954													7.328061	-0.987751	6.407482	0.655979	-0.733090	-0.179639	-0.101164	-0.321250	0.941575	-0.747969	-0.599481	-0.284896
727	1653121													7.497015	-1.012167	6.352860	0.649605	-0.738290	-0.181497	-0.100765	-0.320228	0.941966	-0.753565	-0.593617	-0.282416
728	1653288													7.517936	-0.982270	6.258579	0.643705	-0.742927	-0.183588	-0.100244	-0.319688	0.942205	-0.758680	-0.588098	-0.280259
729	1653454													7.477313	-1.005118	6.182420	0.638247	-0.747127	-0.185585	-0.099676	-0.319244	0.942416	-0.763352	-0.582995	-0.278227
730	1653621													7.459697	-0.978037	6.357693	0.632704	-0.751374	-0.187412	-0.099069	-0.318559	0.942712	-0.768031	-0.577891	-0.275992
731	1653788													7.656468	-1.026132	6.162541	0.626837	-0.755805	-0.189296	-0.098463	-0.317846	0.943016	-0.772903	-0.572479	-0.273657
732	1653954													7.676857	-0.965610	6.174930	0.621194	-0.759966	-0.191231	-0.097881	-0.317356	0.943241	-0.777520	-0.567218	-0.271526
733	1654121													7.643568	-0.930177	6.093291	0.615629	-0.764007	-0.193118	-0.097439	-0.316982	0.943413	-0.781989	-0.561976	-0.269587
734	1654288													7.687444	-0.933099	5.985084	0.610148	-0.767774	-0.195560	-0.096724	-0.317167	0.943424	-0.786361	-0.556713	-0.267781
735	1654454													7.645657	-0.914325	5.927381	0.604612	-0.771560	-0.197839	-0.096075	-0.317207	0.943477	-0.790705	-0.551430	-0.265914
736	1654621													7.663063	-0.955639	5.982759	0.598970	-0.775437	-0.199833	-0.095487	-0.316934	0.943629	-0.795058	-0.546123	-0.263878
737	1654788													7.826309	-0.955948	5.884475	0.593347	-0.779296	-0.201586	-0.095063	-0.316521	0.943810	-0.799314	-0.540844	-0.261889
738	1654954													7.951580	-0.920748	5.711281	0.588145	-0.782880	-0.202937	-0.094865	-0.315973	0.944014	-0.803172	-0.535966	-0.260106
739	1655121													7.936323	-0.912491	5.672200	0.583158	-0.786351	-0.203908	-0.094751	-0.315135	0.944305	-0.806814	-0.531359	-0.258281
740	1655288													7.976052	-0.930994	5.621329	0.577978	-0.789837	-0.205180	-0.094405	-0.314457	0.944566	-0.810573	-0.526568	-0.256314
741	1655454													8.137026	-0.968920	5.571270	0.572960	-0.793090	-0.206702	-0.093950	-0.314097	0.944731	-0.814181	-0.521873	-0.254475
742	1655621													8.149485	-0.962379	5.549864	0.568596	-0.795853	-0.208126	-0.093470	-0.313871	0.944854	-0.817289	-0.517786	-0.252854
743	1655788													8.131552	-0.906362	5.451924	0.564189	-0.798692	-0.209241	-0.093170	-0.313397	0.945041	-0.820372	-0.513687	-0.251229
744	1655954													8.084866	-0.925841	5.284056	0.559516	-0.801799	-0.209903	-0.092976	-0.312376	0.945398	-0.823588	-0.509450	-0.249328
745	1656121													8.237016	-0.882366	5.169500	0.555052	-0.804679	-0.210734	-0.092428	-0.311437	0.945761	-0.826665	-0.505469	-0.247239
746	1656288													8.392965	-0.919611	5.308229	0.551260	-0.806973	-0.211912	-0.091827	-0.311129	0.945921	-0.829265	-0.501989	-0.245615
747	1656454													8.353653	-0.932032	5.500565	0.547928	-0.808826	-0.213482	-0.091204	-0.311441	0.945879	-0.831539	-0.498803	-0.244415
748	1656621													8.187024	-0.877463	5.367007	0.544395	-0.810734	-0.215277	-0.090600	-0.311968	0.945763	-0.833922	-0.495364	-0.243286
749	1656788													8.143847	-0.843087	5.201855	0.540325	-0.813122	-0.216520	-0.090093	-0.311740	0.945886	-0.836619	-0.491579	-0.241698
750	1656954													8.348029	-0.894978	5.020672	0.536906	-0.815064	-0.217721	-0.089460	-0.311623	0.945985	-0.838885	-0.488428	-0.240228
751	1657121													8.390113	-0.874947	5.202568	0.534583	-0.816192	-0.219206	-0.088802	-0.312194	0.945859	-0.840437	-0.486174	-0.239374
752	1657288													8.335403	-0.865488	5.293960	0.532157	-0.817454	-0.220404	-0.088292	-0.312488	0.945809	-0.842029	-0.483860	-0.238468
753	1657454													8.372456	-0.885424	5.161494	0.529561	-0.819041	-0.220767	-0.087953	-0.311867	0.946046	-0.843700	-0.481572	-0.237190
754	1657621													8.404338	-0.853752	5.056927	0.527765	-0.820103	-0.221122	-0.087497	-0.311437	0.946230	-0.844872	-0.480040	-0.236122
755	1657788													8.342067	-0.820650	5.031010	0.526370	-0.821005	-0.221098	-0.087264	-0.310829	0.946451	-0.845765	-0.478890	-0.235256
756	1657954													8.380416	-0.845284	5.095929	0.525304	-0.821566	-0.221549	-0.086912	-0.310808	0.946491	-0.846464	-0.477940	-0.234673
757	1658121													8.397781	-0.839948	5.234276	0.524217	-0.822066	-0.222269	-0.086526	-0.311073	0.946439	-0.847177	-0.476907	-0.234200
758	1658288													8.339355	-0.854343	5.257291	0.523235	-0.822553	-0.222782	-0.086198	-0.311167	0.946438	-0.847817	-0.476007	-0.233716
759	1658454													8.259450	-0.790376	5.108914	0.521668	-0.823454	-0.223127	-0.085900	-0.310901	0.946552	-0.848813	-0.474619	-0.232922
760	1658621													8.345661	-0.807088	4.971297	0.519996	-0.824260	-0.224053	-0.085494	-0.311212	0.946487	-0.849879	-0.473015	-0.232298
761	1658788													8.487201	-0.844995	4.995673	0.518944	-0.824744	-0.224711	-0.085263	-0.311510	0.946410	-0.850546	-0.471974	-0.231976
762	1658954													8.391356	-0.842044	5.153558	0.518400	-0.824926	-0.225297	-0.084939	-0.311833	0.946333	-0.850909	-0.471443	-0.231723
763	1659121													8.387926	-0.813087	5.033523	0.517165	-0.825597	-0.225677	-0.084657	-0.311727	0.946393	-0.851689	-0.470336	-0.231107
764	1659288													8.480827	-0.831542	4.945529	0.516259	-0.826015	-0.226221	-0.084271	-0.311856	0.946385	-0.852276	-0.469516	-0.230608
765	1659454													8.441795	-0.856422	5.105823	0.515806	-0.826162	-0.226718	-0.083967	-0.312118	0.946325	-0.852581	-0.469083	-0.230363
766	1659621													8.307963	-0.849617	5.114219	0.515204	-0.826463	-0.226988	-0.083722	-0.312106	0.946351	-0.852969	-0.468560	-0.229991
767	1659788													8.353596	-0.794079	4.979373	0.513746	-0.827255	-0.227407	-0.083383	-0.311951	0.946432	-0.853881	-0.467264	-0.229243
768	1659954													8.474469	-0.787136	4.948724	0.512602	-0.827822	-0.227927	-0.082897	-0.311929	0.946482	-0.854615	-0.466274	-0.228519
769	1660121													8.549527	-0.797998	4.987252	0.512112	-0.827997	-0.228392	-0.082417	-0.312049	0.946484	-0.854955	-0.465883	-0.228045
770	1660288													8.548839	-0.818545	5.030478	0.511992	-0.827953	-0.228818	-0.081987	-0.312266	0.946450	-0.855069	-0.465815	-0.227759
771	1660454													8.372204	-0.791709	5.145832	0.511788	-0.827889	-0.229503	-0.081573	-0.312762	0.946322	-0.855230	-0.465595	-0.227601
772	1660621													8.257076	-0.761671	5.131175	0.510861	-0.828310	-0.230050	-0.081384	-0.313002	0.946259	-0.855802	-0.464685	-0.227312
773	1660788													8.321746	-0.764837	5.014511	0.509612	-0.829051	-0.230151	-0.081297	-0.312692	0.946369	-0.856555	-0.463571	-0.226751
774	1660954													8.422840	-0.746782	4.914376	0.508737	-0.829507	-0.230445	-0.081094	-0.312653	0.946399	-0.857094	-0.462780	-0.226327
775	1661121													8.487831	-0.734943	4.978993	0.508037	-0.829845	-0.230772	-0.081085	-0.312812	0.946348	-0.857510	-0.462068	-0.226208
776	1661288													8.491808	-0.810410	4.995606	0.507501	-0.830144	-0.230878	-0.081214	-0.312840	0.946327	-0.857816	-0.461511	-0.226185
777	1661454													8.379440	-0.809468	5.021083	0.506918	-0.830538	-0.230739	-0.081384	-0.312599	0.946392	-0.858144	-0.460965	-0.226055
778	1661621													8.425678	-0.779074	4.914047	0.506038	-0.831111	-0.230608	-0.081559	-0.312279	0.946483	-0.858646	-0.460148	-0.225810
779	1661788													8.542576	-0.821299	4.907125	0.505543	-0.831421	-0.230576	-0.081715	-0.312178	0.946503	-0.858923	-0.459656	-0.225759
780	1661954													8.512608	-0.829661	4.999268	0.505489	-0.831511	-0.230370	-0.081942	-0.312048	0.946526	-0.858933	-0.459582	-0.225872
781	1662121													8.348601	-0.798930	5.019859	0.505207	-0.831730	-0.230199	-0.082214	-0.311915	0.946546	-0.859073	-0.459276	-0.225961
782	1662288													8.399229	-0.790477	4.836801	0.504108	-0.832277	-0.230629	-0.082309	-0.312126	0.946468	-0.859709	-0.458140	-0.225849
783	1662455													8.484853	-0.818199	4.816724	0.503278	-0.832684	-0.230973	-0.082332	-0.312282	0.946415	-0.860194	-0.457293	-0.225721
784	1662621													8.549771	-0.806411	4.878441	0.502546	-0.833118	-0.231004	-0.082329	-0.312097	0.946476	-0.860622	-0.456629	-0.225433
785	1662788													8.516481	-0.823624	4.928537	0.501857	-0.833507	-0.231098	-0.082246	-0.311955	0.946530	-0.861031	-0.456016	-0.225109
786	1662955													8.464217	-0.842721	4.938913	0.500959	-0.834003	-0.231254	-0.082131	-0.311806	0.946589	-0.861565	-0.455210	-0.224700
787	1663121													8.478092	-0.834865	4.887801	0.499922	-0.834600	-0.231346	-0.082046	-0.311559	0.946678	-0.862175	-0.454285	-0.224231
788	1663288													8.485866	-0.822313	4.840639	0.498940	-0.835088	-0.231704	-0.081868	-0.311581	0.946686	-0.862761	-0.453370	-0.223827
789	1663455													8.487847	-0.809414	4.837278	0.498066	-0.835408	-0.232430	-0.081565	-0.311989	0.946578	-0.863294	-0.452500	-0.223531
790	1663621													8.487706	-0.807571	4.868721	0.497339	-0.835666	-0.233056	-0.081276	-0.312334	0.946489	-0.863741	-0.451785	-0.223255
791	1663788													8.488790	-0.801288	4.906416	0.496666	-0.836002	-0.233288	-0.081072	-0.312293	0.946520	-0.864147	-0.451191	-0.222882
792	1663955													8.492911	-0.783418	4.867188	0.496006	-0.836411	-0.233225	-0.081008	-0.311996	0.946624	-0.864532	-0.450638	-0.222508
793	1664121													8.502145	-0.779031	4.851643	0.495426	-0.836722	-0.233344	-0.080940	-0.311926	0.946652	-0.864871	-0.450110	-0.222260
794	1664288													8.496662	-0.793531	4.823463	0.494841	-0.837034	-0.233467	-0.080934	-0.311892	0.946664	-0.865206	-0.449553	-0.222082
795	1664455													8.541262	-0.782574	4.837391	0.494426	-0.837196	-0.233766	-0.080946	-0.312115	0.946590	-0.865443	-0.449096	-0.222085
796	1664621													8.516723	-0.760060	4.869185	0.494126	-0.837304	-0.234011	-0.081031	-0.312351	0.946505	-0.865606	-0.448730	-0.222188
797	1664788													8.526007	-0.796575	4.865980	0.493819	-0.837504	-0.233943	-0.081204	-0.312274	0.946515	-0.865765	-0.448410	-0.222216
798	1664955													8.521221	-0.804713	4.836719	0.493602	-0.837603	-0.234047	-0.081267	-0.312361	0.946481	-0.865883	-0.448165	-0.222251
799	1665121													8.505854	-0.810462	4.803456	0.493464	-0.837661	-0.234133	-0.081383	-0.312478	0.946432	-0.865950	-0.447976	-0.222368
800	1665288													8.513698	-0.807399	4.786932	0.493349	-0.837737	-0.234102	-0.081572	-0.312507	0.946406	-0.865998	-0.447813	-0.222511
801	1665455													8.547356	-0.801760	4.826366	0.493299	-0.837759	-0.234127	-0.081697	-0.312586	0.946370	-0.866015	-0.447715	-0.222641
802	1665621													8.537528	-0.824930	4.829359	0.493331	-0.837801	-0.233911	-0.081902	-0.312458	0.946394	-0.865977	-0.447728	-0.222763
803	1665788													8.523794	-0.798543	4.767942	0.493328	-0.837939	-0.233422	-0.082164	-0.312039	0.946510	-0.865954	-0.447761	-0.222786
804	1665955													8.588883	-0.818610	4.746616	0.493353	-0.838114	-0.232740	-0.082424	-0.311411	0.946694	-0.865915	-0.447871	-0.222716
805	1666121													8.543933	-0.796342	4.865520	0.493796	-0.838154	-0.231654	-0.082694	-0.310452	0.946986	-0.865637	-0.448461	-0.222610
806	1666288													8.593975	-0.818816	4.873397	0.494236	-0.838257	-0.230341	-0.082943	-0.309225	0.947365	-0.865362	-0.449117	-0.222358
807	1666455													8.464541	-0.825408	4.908093	0.494521	-0.838227	-0.229836	-0.082928	-0.308729	0.947528	-0.865201	-0.449513	-0.222185
808	1666621													8.391875	-0.809931	4.898763	0.494250	-0.838278	-0.230233	-0.082804	-0.309036	0.947439	-0.865367	-0.449207	-0.222154
809	1666788													8.488460	-0.796219	4.763438	0.493869	-0.838375	-0.230694	-0.082665	-0.309374	0.947340	-0.865598	-0.448792	-0.222095
810	1666955													8.549122	-0.801948	4.806015	0.494016	-0.838204	-0.231001	-0.082417	-0.309635	0.947277	-0.865537	-0.448932	-0.222047
811	1667121													8.497145	-0.758619	4.861632	0.494263	-0.837951	-0.231393	-0.082149	-0.310010	0.947177	-0.865422	-0.449146	-0.222063
812	1667288													8.449393	-0.757345	4.865363	0.494236	-0.837882	-0.231698	-0.081928	-0.310233	0.947124	-0.865458	-0.449121	-0.221974
813	1667455													8.444691	-0.792127	4.835754	0.494151	-0.837854	-0.231984	-0.081697	-0.310411	0.947085	-0.865529	-0.449050	-0.221840
814	1667621													8.502971	-0.802346	4.794031	0.494216	-0.837711	-0.232359	-0.081458	-0.310730	0.947001	-0.865515	-0.449095	-0.221806
815	1667788													8.548128	-0.809307	4.834371	0.494372	-0.837504	-0.232772	-0.081226	-0.311122	0.946893	-0.865447	-0.449210	-0.221837
816	1667955													8.492646	-0.795200	4.879304	0.494491	-0.837325	-0.233165	-0.081021	-0.311494	0.946788	-0.865398	-0.449287	-0.221872
817	1668121													8.465407	-0.777438	4.902135	0.494502	-0.837237	-0.233456	-0.080923	-0.311775	0.946704	-0.865401	-0.449255	-0.221925
818	1668288													8.474735	-0.804306	4.805824	0.494376	-0.837271	-0.233603	-0.080906	-0.311896	0.946665	-0.865475	-0.449108	-0.221935
819	1668455													8.490180	-0.827833	4.785112	0.494331	-0.837255	-0.233754	-0.080885	-0.312044	0.946618	-0.865502	-0.449036	-0.221974
820	1668621													8.484588	-0.756858	4.895145	0.494194	-0.837367	-0.233643	-0.080959	-0.311916	0.946654	-0.865574	-0.448916	-0.221940
821	1668788													8.575358	-0.788690	4.797152	0.494016	-0.837457	-0.233695	-0.080952	-0.311920	0.946653	-0.865676	-0.448744	-0.221887
822	1668955													8.534983	-0.807168	4.806323	0.494163	-0.837382	-0.233656	-0.080992	-0.311939	0.946644	-0.865588	-0.448872	-0.221970
823	1669121													8.487474	-0.785816	4.879728	0.494224	-0.837392	-0.233489	-0.081154	-0.311852	0.946658	-0.865538	-0.448913	-0.222083
824	1669288													8.474849	-0.795986	4.803316	0.494125	-0.837528	-0.233212	-0.081332	-0.311603	0.946725	-0.865578	-0.448833	-0.222088
825	1669455													8.479530	-0.774320	4.812706	0.494032	-0.837631	-0.233039	-0.081425	-0.311428	0.946775	-0.865623	-0.448762	-0.222060
826	1669621													8.507142	-0.774080	4.805211	0.493988	-0.837746	-0.232716	-0.081594	-0.311139	0.946855	-0.865632	-0.448747	-0.222054
827	1669788													8.540093	-0.787477	4.821915	0.494077	-0.837750	-0.232512	-0.081666	-0.310971	0.946904	-0.865574	-0.448856	-0.222059
828	1669955													8.534169	-0.799977	4.829841	0.494287	-0.837696	-0.232262	-0.081746	-0.310791	0.946957	-0.865447	-0.449082	-0.222098
829	1670121													8.508580	-0.797959	4.841560	0.494460	-0.837682	-0.231944	-0.081861	-0.310540	0.947029	-0.865337	-0.449281	-0.222123
830	1670288													8.493359	-0.769185	4.879773	0.494625	-0.837665	-0.231653	-0.081983	-0.310323	0.947089	-0.865231	-0.449462	-0.222168
831	1670455													8.496867	-0.782680	4.871408	0.494821	-0.837638	-0.231332	-0.082061	-0.310058	0.947169	-0.865112	-0.449696	-0.222161
832	1670621													8.483207	-0.792838	4.845049	0.494860	-0.837647	-0.231216	-0.082065	-0.309940	0.947208	-0.865089	-0.449761	-0.222119
833	1670788													8.511621	-0.792858	4.810936	0.494751	-0.837673	-0.231357	-0.082041	-0.310055	0.947172	-0.865154	-0.449633	-0.222123
834	1670955													8.517600	-0.787464	4.819341	0.494805	-0.837598	-0.231511	-0.081980	-0.310214	0.947126	-0.865128	-0.449663	-0.222162
835	1671121													8.497042	-0.776806	4.861335	0.495018	-0.837474	-0.231506	-0.081941	-0.310249	0.947117	-0.865010	-0.449870	-0.222203
836	1671288													8.490194	-0.784680	4.867250	0.495104	-0.837462	-0.231363	-0.081942	-0.310114	0.947161	-0.864961	-0.449985	-0.222162
837	1671455													8.496557	-0.783268	4.846684	0.495024	-0.837543	-0.231240	-0.081923	-0.309941	0.947220	-0.865008	-0.449953	-0.222042
838	1671621													8.508510	-0.803463	4.750326	0.494991	-0.837592	-0.231134	-0.081948	-0.309825	0.947255	-0.865025	-0.449942	-0.222000
839	1671788													8.580136	-0.817010	4.751142	0.494977	-0.837600	-0.231137	-0.081978	-0.309839	0.947248	-0.865030	-0.449918	-0.222028
840	1671955													8.504549	-0.815608	4.896785	0.495262	-0.837435	-0.231122	-0.081944	-0.309887	0.947235	-0.864870	-0.450191	-0.222099
841	1672121													8.543949	-0.794605	4.882878	0.495262	-0.837488	-0.230933	-0.081960	-0.309682	0.947301	-0.864869	-0.450234	-0.222014
842	1672288													8.525381	-0.824959	4.919632	0.495512	-0.837417	-0.230652	-0.082012	-0.309464	0.947368	-0.864720	-0.450516	-0.222021
843	1672455													8.406742	-0.822657	4.879801	0.495720	-0.837377	-0.230350	-0.082150	-0.309254	0.947424	-0.864588	-0.450734	-0.222094
844	1672621													8.425116	-0.802889	4.823633	0.495570	-0.837529	-0.230121	-0.082337	-0.309050	0.947475	-0.864657	-0.450593	-0.222115
845	1672788													8.480829	-0.798774	4.821493	0.495493	-0.837604	-0.230013	-0.082402	-0.308939	0.947506	-0.864695	-0.450529	-0.222097
846	1672955													8.506694	-0.808870	4.808805	0.495626	-0.837589	-0.229782	-0.082563	-0.308800	0.947537	-0.864603	-0.450652	-0.222203
847	1673121													8.491093	-0.838576	4.855084	0.495745	-0.837610	-0.229448	-0.082767	-0.308563	0.947596	-0.864515	-0.450775	-0.222295
848	1673288													8.467118	-0.820221	4.893412	0.495731	-0.837750	-0.228965	-0.083001	-0.308135	0.947715	-0.864501	-0.450808	-0.222286
849	1673455													8.477582	-0.818731	4.796297	0.495687	-0.837889	-0.228552	-0.083172	-0.307744	0.947827	-0.864510	-0.450816	-0.222234
850	1673621													8.522635	-0.815196	4.792851	0.495835	-0.837862	-0.228328	-0.083277	-0.307589	0.947868	-0.864414	-0.450972	-0.222288
851	1673788													8.512578	-0.816677	4.833517	0.496123	-0.837761	-0.228076	-0.083369	-0.307434	0.947910	-0.864240	-0.451266	-0.222368
852	1673955													8.476986	-0.836609	4.913047	0.496387	-0.837638	-0.227954	-0.083419	-0.307400	0.947917	-0.864084	-0.451518	-0.222465
853	1674121													8.464389	-0.817843	4.843240	0.496379	-0.837645	-0.227945	-0.083453	-0.307404	0.947913	-0.864085	-0.451501	-0.222493
854	1674288													8.505771	-0.842141	4.777871	0.496377	-0.837609	-0.228081	-0.083368	-0.307514	0.947884	-0.864095	-0.451493	-0.222472
