// Start Time: Unknown
// Update Rate: 60.0Hz
//Filter Profile: human (46.1)
// Option Flags: AHS Disabled ICC Disabled
// Firmware Version: 4.0.2
0	sampleTimeFine	Year	Month	Day	Second	UTC_Nano	UTC_Year	UTC_Month	UTC_Day	UTC_Hour	UTC_Minute	UTC_Second	UTC_Valid	Acc_X	Acc_Y	Acc_Z	Mat[1][1]	Mat[2][1]	Mat[3][1]	Mat[1][2]	Mat[2][2]	Mat[3][2]	Mat[1][3]	Mat[2][3]	Mat[3][3]
0	3007706													-0.021514	-0.195829	0.211061	0.004646	-0.866205	0.499666	-0.053900	0.498729	0.865081	-0.998536	-0.030951	-0.044372
1	3007872													9.755477	-0.524623	0.044540	0.004848	-0.866793	0.498644	-0.054039	0.497694	0.865668	-0.998527	-0.031143	-0.044427
2	3008039													9.782657	-0.503443	0.046442	0.004851	-0.866681	0.498839	-0.054241	0.497883	0.865547	-0.998516	-0.031257	-0.044594
3	3008206													9.827881	-0.493867	0.058103	0.004788	-0.866970	0.498337	-0.054123	0.497388	0.865838	-0.998523	-0.031118	-0.044541
4	3008372													9.896317	-0.497242	0.060339	0.004878	-0.866727	0.498759	-0.053788	0.497816	0.865613	-0.998540	-0.031050	-0.044192
5	3008539													9.905393	-0.495291	0.045641	0.005205	-0.867078	0.498145	-0.053444	0.497199	0.865989	-0.998557	-0.031130	-0.043752
6	3008706													9.828485	-0.528316	0.045464	0.005552	-0.867074	0.498148	-0.053298	0.497191	0.866003	-0.998563	-0.031358	-0.043453
7	3008872													9.797462	-0.503348	0.060144	0.005836	-0.866883	0.498477	-0.053478	0.497502	0.865813	-0.998552	-0.031710	-0.043456
8	3009039													9.802237	-0.495666	0.080965	0.006107	-0.867080	0.498132	-0.053686	0.497139	0.866009	-0.998539	-0.032032	-0.043514
9	3009206													9.796353	-0.524530	0.070177	0.006442	-0.867174	0.497963	-0.053852	0.496950	0.866107	-0.998528	-0.032396	-0.043498
10	3009372													9.792543	-0.538636	0.080195	0.006699	-0.867132	0.498033	-0.054099	0.497001	0.866062	-0.998513	-0.032745	-0.043581
11	3009539													9.795646	-0.559380	0.088337	0.006926	-0.867180	0.497947	-0.054483	0.496892	0.866101	-0.998491	-0.033128	-0.043805
12	3009706													9.789767	-0.536624	0.106984	0.007100	-0.867232	0.497854	-0.054991	0.496775	0.866136	-0.998462	-0.033527	-0.044163
13	3009872													9.786653	-0.536928	0.092783	0.007263	-0.867278	0.497771	-0.055438	0.496670	0.866167	-0.998436	-0.033886	-0.044473
14	3010039													9.795886	-0.564384	0.097354	0.007299	-0.867302	0.497728	-0.055764	0.496614	0.866178	-0.998417	-0.034078	-0.044740
15	3010206													9.817940	-0.565090	0.078717	0.007239	-0.867338	0.497667	-0.056028	0.496547	0.866200	-0.998403	-0.034154	-0.045000
16	3010372													9.771416	-0.565043	0.042982	0.007111	-0.867282	0.497767	-0.056226	0.496645	0.866131	-0.998393	-0.034147	-0.045232
17	3010539													9.754691	-0.598907	0.042751	0.006793	-0.867406	0.497554	-0.056482	0.496438	0.866233	-0.998381	-0.033987	-0.045621
18	3010706													9.796782	-0.525437	0.021650	0.006336	-0.867603	0.497217	-0.056671	0.496116	0.866405	-0.998373	-0.033667	-0.046025
19	3010872													9.888526	-0.496301	0.028643	0.005921	-0.867763	0.496943	-0.056681	0.495861	0.866550	-0.998375	-0.033298	-0.046250
20	3011039													9.830781	-0.512990	0.022713	0.005649	-0.867662	0.497123	-0.056699	0.496053	0.866439	-0.998375	-0.033081	-0.046394
21	3011206													9.796298	-0.506140	0.012456	0.005346	-0.867569	0.497288	-0.056759	0.496230	0.866334	-0.998374	-0.032857	-0.046590
22	3011372													9.814005	-0.489351	0.012218	0.005067	-0.867354	0.497667	-0.056910	0.496616	0.866102	-0.998366	-0.032711	-0.046845
23	3011539													9.847583	-0.503048	-0.007693	0.004832	-0.867225	0.497893	-0.057097	0.496848	0.865957	-0.998357	-0.032612	-0.047115
24	3011706													9.821146	-0.508109	0.021829	0.004686	-0.867061	0.498180	-0.057241	0.497136	0.865783	-0.998349	-0.032574	-0.047302
25	3011872													9.811179	-0.535499	0.016391	0.004558	-0.866839	0.498567	-0.057400	0.497523	0.865549	-0.998341	-0.032563	-0.047489
26	3012039													9.836004	-0.569612	0.018006	0.004439	-0.866568	0.499039	-0.057581	0.497994	0.865266	-0.998331	-0.032577	-0.047687
27	3012206													9.812670	-0.581364	-0.007243	0.004327	-0.866504	0.499151	-0.057841	0.498103	0.865187	-0.998316	-0.032615	-0.047965
28	3012372													9.798095	-0.566330	0.025541	0.004229	-0.866498	0.499163	-0.058125	0.498110	0.865163	-0.998300	-0.032672	-0.048259
29	3012539													9.792427	-0.580727	0.035151	0.004127	-0.866527	0.499113	-0.058429	0.498056	0.865174	-0.998283	-0.032733	-0.048575
30	3012706													9.813975	-0.575634	0.021473	0.004028	-0.866607	0.498976	-0.058692	0.497915	0.865238	-0.998268	-0.032771	-0.048857
31	3012872													9.783425	-0.558142	0.028539	0.003954	-0.866718	0.498784	-0.058935	0.497718	0.865334	-0.998254	-0.032817	-0.049113
32	3013039													9.796870	-0.566148	0.030850	0.003838	-0.866840	0.498572	-0.059119	0.497507	0.865443	-0.998244	-0.032797	-0.049338
33	3013206													9.784338	-0.543415	0.032139	0.003758	-0.866899	0.498469	-0.059308	0.497402	0.865490	-0.998233	-0.032816	-0.049545
34	3013372													9.820365	-0.530584	0.053840	0.003719	-0.866953	0.498377	-0.059459	0.497307	0.865535	-0.998224	-0.032852	-0.049699
35	3013539													9.873183	-0.523546	0.060084	0.003777	-0.866953	0.498376	-0.059534	0.497301	0.865533	-0.998219	-0.032939	-0.049735
36	3013706													9.875332	-0.517281	0.038230	0.003970	-0.866920	0.498432	-0.059529	0.497347	0.865507	-0.998219	-0.033107	-0.049632
37	3013872													9.802835	-0.530740	0.063251	0.004166	-0.866849	0.498554	-0.059546	0.497458	0.865442	-0.998217	-0.033292	-0.049545
38	3014039													9.784278	-0.550871	0.079700	0.004243	-0.866778	0.498677	-0.059551	0.497577	0.865373	-0.998216	-0.033369	-0.049506
39	3014206													9.799266	-0.527812	0.068241	0.004189	-0.866706	0.498802	-0.059584	0.497703	0.865298	-0.998215	-0.033345	-0.049557
40	3014372													9.811068	-0.540186	0.069310	0.004039	-0.866660	0.498882	-0.059611	0.497790	0.865246	-0.998214	-0.033234	-0.049652
41	3014539													9.784678	-0.535598	0.072325	0.003846	-0.866554	0.499069	-0.059657	0.497985	0.865131	-0.998212	-0.033100	-0.049781
42	3014706													9.765061	-0.536374	0.059448	0.003546	-0.866532	0.499109	-0.059699	0.498038	0.865098	-0.998210	-0.032864	-0.049965
43	3014872													9.773296	-0.520195	0.046576	0.003150	-0.866528	0.499118	-0.059769	0.498065	0.865078	-0.998207	-0.032557	-0.050223
44	3015039													9.770730	-0.524342	0.034422	0.002702	-0.866466	0.499228	-0.059906	0.498193	0.864994	-0.998200	-0.032243	-0.050560
45	3015206													9.799644	-0.519663	0.011194	0.002179	-0.866514	0.499148	-0.060056	0.498135	0.865017	-0.998193	-0.031862	-0.050954
46	3015372													9.841156	-0.523894	0.030327	0.001694	-0.866610	0.498983	-0.060254	0.497988	0.865088	-0.998182	-0.031532	-0.051373
47	3015539													9.830374	-0.548545	0.033564	0.001281	-0.866599	0.499004	-0.060427	0.498026	0.865054	-0.998172	-0.031262	-0.051728
48	3015706													9.824653	-0.542970	0.014360	0.000863	-0.866600	0.499002	-0.060583	0.498040	0.865035	-0.998163	-0.030978	-0.052071
49	3015872													9.841329	-0.528919	0.011384	0.000438	-0.866617	0.498973	-0.060714	0.498030	0.865032	-0.998155	-0.030673	-0.052398
50	3016039													9.779104	-0.560844	-0.012274	0.000005	-0.866530	0.499125	-0.060835	0.498200	0.864925	-0.998148	-0.030369	-0.052713
51	3016206													9.750047	-0.535970	-0.014156	-0.000585	-0.866515	0.499151	-0.060974	0.498254	0.864885	-0.998139	-0.029929	-0.053127
52	3016372													9.775095	-0.529710	-0.045935	-0.001310	-0.866656	0.498905	-0.061101	0.498043	0.864997	-0.998131	-0.029350	-0.053606
53	3016539													9.774796	-0.559148	-0.048048	-0.002114	-0.866604	0.498992	-0.061305	0.498166	0.864912	-0.998117	-0.028763	-0.054180
54	3016706													9.831342	-0.552187	-0.078403	-0.003029	-0.866662	0.498886	-0.061492	0.498105	0.864933	-0.998103	-0.028058	-0.054802
55	3016872													9.876983	-0.553782	-0.097939	-0.003799	-0.866748	0.498733	-0.061569	0.497993	0.864993	-0.998096	-0.027421	-0.055256
56	3017039													9.861082	-0.580762	-0.101249	-0.004374	-0.866859	0.498535	-0.061685	0.497824	0.865082	-0.998086	-0.026968	-0.055649
57	3017206													9.797302	-0.562688	-0.109172	-0.004833	-0.866890	0.498476	-0.061897	0.497785	0.865089	-0.998071	-0.026673	-0.056064
58	3017372													9.768025	-0.534003	-0.131960	-0.005282	-0.867025	0.498236	-0.062082	0.497566	0.865201	-0.998057	-0.026362	-0.056455
59	3017539													9.827181	-0.537888	-0.130583	-0.005744	-0.866982	0.498306	-0.062228	0.497659	0.865138	-0.998045	-0.026039	-0.056809
60	3017706													9.895177	-0.522091	-0.116725	-0.006045	-0.867029	0.498220	-0.062346	0.497587	0.865171	-0.998036	-0.025832	-0.057063
61	3017872													9.870419	-0.551902	-0.144372	-0.006118	-0.867061	0.498164	-0.062490	0.497531	0.865192	-0.998027	-0.025837	-0.057227
62	3018039													9.842355	-0.549954	-0.140186	-0.006081	-0.867114	0.498072	-0.062693	0.497432	0.865234	-0.998014	-0.025964	-0.057386
63	3018206													9.836552	-0.558548	-0.110680	-0.005949	-0.867113	0.498076	-0.062926	0.497422	0.865223	-0.998000	-0.026194	-0.057524
64	3018372													9.837695	-0.550821	-0.086036	-0.005730	-0.867193	0.497940	-0.063134	0.497268	0.865297	-0.997989	-0.026478	-0.057598
65	3018539													9.837146	-0.567481	-0.067502	-0.005442	-0.867229	0.497881	-0.063274	0.497189	0.865332	-0.997981	-0.026794	-0.057579
66	3018706													9.862485	-0.547134	-0.053860	-0.005015	-0.867277	0.497801	-0.063386	0.497082	0.865385	-0.997977	-0.027213	-0.057466
67	3018872													9.802129	-0.599594	-0.049439	-0.004543	-0.867260	0.497835	-0.063592	0.497083	0.865370	-0.997966	-0.027726	-0.057409
68	3019039													9.755512	-0.579325	-0.019748	-0.004157	-0.867350	0.497681	-0.063850	0.496900	0.865456	-0.997951	-0.028179	-0.057446
69	3019206													9.780798	-0.536885	-0.015527	-0.003887	-0.867438	0.497530	-0.063911	0.496732	0.865548	-0.997948	-0.028434	-0.057370
70	3019372													9.805169	-0.571479	0.005782	-0.003653	-0.867490	0.497442	-0.063919	0.496631	0.865605	-0.997948	-0.028634	-0.057263
71	3019539													9.756546	-0.579394	-0.014499	-0.003494	-0.867608	0.497237	-0.064033	0.496414	0.865721	-0.997942	-0.028815	-0.057290
72	3019706													9.794925	-0.551354	-0.005545	-0.003462	-0.867707	0.497064	-0.064166	0.496235	0.865814	-0.997933	-0.028897	-0.057396
73	3019872													9.817237	-0.550852	0.006359	-0.003429	-0.867751	0.496987	-0.064259	0.496154	0.865853	-0.997927	-0.028967	-0.057463
74	3020039													9.793540	-0.541702	-0.013661	-0.003401	-0.867841	0.496830	-0.064289	0.495995	0.865942	-0.997926	-0.028996	-0.057480
75	3020206													9.769340	-0.537236	0.008468	-0.003456	-0.867777	0.496943	-0.064269	0.496111	0.865877	-0.997927	-0.028946	-0.057486
76	3020372													9.757089	-0.552052	-0.003970	-0.003661	-0.867760	0.496970	-0.064248	0.496151	0.865856	-0.997927	-0.028759	-0.057569
77	3020539													9.781223	-0.549617	-0.036756	-0.003995	-0.867683	0.497102	-0.064229	0.496302	0.865771	-0.997927	-0.028469	-0.057713
78	3020706													9.835034	-0.541817	-0.050380	-0.004386	-0.867671	0.497119	-0.064250	0.496342	0.865747	-0.997924	-0.028143	-0.057924
79	3020872													9.831569	-0.523940	-0.039290	-0.004704	-0.867521	0.497379	-0.064211	0.496620	0.865590	-0.997925	-0.027865	-0.058041
80	3021039													9.849944	-0.470708	-0.073867	-0.004970	-0.867447	0.497505	-0.064121	0.496764	0.865514	-0.997930	-0.027599	-0.058090
81	3021206													9.793149	-0.532150	-0.105739	-0.005245	-0.867163	0.497997	-0.064028	0.497273	0.865228	-0.997934	-0.027348	-0.058131
82	3021372													9.774352	-0.530074	-0.103582	-0.005544	-0.866944	0.498375	-0.063939	0.497670	0.865006	-0.997938	-0.027070	-0.058191
83	3021539													9.850913	-0.517576	-0.082161	-0.005822	-0.866747	0.498715	-0.063806	0.498029	0.864810	-0.997945	-0.026785	-0.058203
84	3021706													9.846878	-0.561742	-0.110142	-0.005949	-0.866515	0.499116	-0.063689	0.498440	0.864582	-0.997952	-0.026645	-0.058153
85	3021872													9.831548	-0.547994	-0.086728	-0.005918	-0.866290	0.499506	-0.063570	0.498830	0.864365	-0.997960	-0.026638	-0.058023
86	3022039													9.833094	-0.540422	-0.095571	-0.005861	-0.866042	0.499936	-0.063407	0.499260	0.864129	-0.997971	-0.026635	-0.057840
87	3022206													9.845495	-0.547765	-0.104051	-0.005667	-0.865921	0.500149	-0.063229	0.499467	0.864023	-0.997983	-0.026727	-0.057582
88	3022372													9.858900	-0.520589	-0.086005	-0.005364	-0.865806	0.500351	-0.063079	0.499655	0.863925	-0.997994	-0.026927	-0.057294
89	3022539													9.842310	-0.514263	-0.077512	-0.005000	-0.865749	0.500453	-0.062973	0.499739	0.863884	-0.998003	-0.027196	-0.057018
90	3022706													9.830134	-0.512839	-0.045347	-0.004554	-0.865695	0.500552	-0.062927	0.499813	0.863844	-0.998008	-0.027565	-0.056752
91	3022872													9.824253	-0.473966	-0.023861	-0.004125	-0.865599	0.500721	-0.062897	0.499959	0.863762	-0.998011	-0.027930	-0.056506
92	3023039													9.790568	-0.518761	-0.018021	-0.003673	-0.865497	0.500900	-0.062885	0.500112	0.863674	-0.998014	-0.028326	-0.056264
93	3023206													9.787693	-0.513473	0.000111	-0.003328	-0.865386	0.501095	-0.062910	0.500286	0.863572	-0.998014	-0.028650	-0.056106
94	3023373													9.793449	-0.516869	0.007009	-0.003001	-0.865289	0.501264	-0.062929	0.500436	0.863483	-0.998014	-0.028952	-0.055953
95	3023539													9.775259	-0.528166	-0.009384	-0.002830	-0.865275	0.501290	-0.062954	0.500452	0.863472	-0.998012	-0.029115	-0.055889
96	3023706													9.811853	-0.502382	0.005958	-0.002730	-0.865238	0.501354	-0.062990	0.500509	0.863437	-0.998010	-0.029223	-0.055867
97	3023873													9.813599	-0.500726	0.039428	-0.002651	-0.865157	0.501493	-0.062996	0.500644	0.863358	-0.998010	-0.029303	-0.055828
98	3024039													9.787584	-0.518371	0.004821	-0.002631	-0.865098	0.501596	-0.063074	0.500742	0.863295	-0.998005	-0.029367	-0.055882
99	3024206													9.780634	-0.472453	0.025123	-0.002644	-0.865094	0.501603	-0.063160	0.500748	0.863286	-0.998000	-0.029398	-0.055963
100	3024373													9.768682	-0.496079	0.003351	-0.002805	-0.865082	0.501622	-0.063255	0.500773	0.863264	-0.997993	-0.029309	-0.056126
101	3024539													9.780427	-0.517830	-0.038213	-0.003123	-0.865122	0.501552	-0.063465	0.500715	0.863282	-0.997979	-0.029135	-0.056469
102	3024706													9.828343	-0.479433	-0.005778	-0.003493	-0.865202	0.501411	-0.063575	0.500592	0.863346	-0.997971	-0.028862	-0.056753
103	3024873													9.856501	-0.518404	-0.028125	-0.003803	-0.865245	0.501335	-0.063642	0.500532	0.863376	-0.997966	-0.028622	-0.056969
104	3025039													9.877138	-0.540868	-0.038976	-0.003957	-0.865261	0.501306	-0.063834	0.500506	0.863377	-0.997953	-0.028584	-0.057213
105	3025206													9.801131	-0.515993	-0.037964	-0.004008	-0.865349	0.501154	-0.064125	0.500349	0.863446	-0.997934	-0.028676	-0.057496
106	3025373													9.827101	-0.488426	-0.029858	-0.004027	-0.865410	0.501048	-0.064372	0.500237	0.863493	-0.997918	-0.028776	-0.057723
107	3025539													9.816792	-0.492207	-0.024286	-0.003950	-0.865458	0.500966	-0.064534	0.500146	0.863533	-0.997908	-0.028918	-0.057827
108	3025706													9.810584	-0.497568	-0.011482	-0.003871	-0.865484	0.500922	-0.064651	0.500094	0.863554	-0.997900	-0.029042	-0.057890
109	3025873													9.814028	-0.486887	-0.015371	-0.003777	-0.865468	0.500950	-0.064812	0.500113	0.863532	-0.997890	-0.029206	-0.057982
110	3026039													9.806469	-0.512552	-0.015070	-0.003716	-0.865475	0.500939	-0.065061	0.500090	0.863526	-0.997874	-0.029383	-0.058167
111	3026206													9.802987	-0.504402	0.001518	-0.003671	-0.865502	0.500891	-0.065275	0.500034	0.863542	-0.997861	-0.029526	-0.058331
112	3026373													9.818484	-0.536720	-0.008029	-0.003699	-0.865534	0.500837	-0.065435	0.499976	0.863563	-0.997850	-0.029578	-0.058485
113	3026539													9.833517	-0.530589	0.008372	-0.003691	-0.865507	0.500882	-0.065578	0.500017	0.863529	-0.997841	-0.029659	-0.058604
114	3026706													9.811155	-0.527131	-0.005243	-0.003646	-0.865382	0.501100	-0.065700	0.500228	0.863398	-0.997833	-0.029774	-0.058679
115	3026873													9.778851	-0.572915	-0.001945	-0.003658	-0.865390	0.501085	-0.065912	0.500208	0.863393	-0.997819	-0.029869	-0.058869
116	3027039													9.743847	-0.549507	-0.041396	-0.003759	-0.865456	0.500970	-0.066142	0.500092	0.863443	-0.997803	-0.029890	-0.059123
117	3027206													9.806613	-0.525708	-0.029249	-0.004012	-0.865414	0.501041	-0.066234	0.500175	0.863387	-0.997796	-0.029722	-0.059326
118	3027373													9.860093	-0.550672	-0.057578	-0.004169	-0.865385	0.501090	-0.066297	0.500231	0.863350	-0.997791	-0.029621	-0.059458
119	3027539													9.810113	-0.555358	-0.027426	-0.004266	-0.865416	0.501035	-0.066447	0.500178	0.863370	-0.997781	-0.029609	-0.059638
120	3027706													9.781859	-0.528754	-0.039003	-0.004404	-0.865484	0.500917	-0.066586	0.500063	0.863425	-0.997771	-0.029552	-0.059831
121	3027873													9.804965	-0.516790	-0.031169	-0.004624	-0.865546	0.500808	-0.066768	0.499963	0.863469	-0.997758	-0.029446	-0.060102
122	3028039													9.821434	-0.507030	-0.041739	-0.004810	-0.865540	0.500817	-0.066922	0.499978	0.863448	-0.997747	-0.029362	-0.060328
123	3028206													9.826282	-0.520219	-0.040930	-0.004984	-0.865582	0.500743	-0.067053	0.499911	0.863477	-0.997737	-0.029273	-0.060531
124	3028373													9.801608	-0.533889	-0.046164	-0.005147	-0.865566	0.500769	-0.067248	0.499942	0.863444	-0.997723	-0.029232	-0.060781
125	3028539													9.817798	-0.522471	-0.064580	-0.005352	-0.865570	0.500759	-0.067420	0.499939	0.863433	-0.997710	-0.029140	-0.061033
126	3028706													9.814015	-0.534789	-0.047677	-0.005552	-0.865594	0.500716	-0.067561	0.499905	0.863441	-0.997700	-0.029035	-0.061256
127	3028873													9.802456	-0.542125	-0.042236	-0.005770	-0.865595	0.500711	-0.067687	0.499909	0.863429	-0.997690	-0.028910	-0.061474
128	3029039													9.827271	-0.526474	-0.078529	-0.005964	-0.865527	0.500827	-0.067803	0.500033	0.863348	-0.997681	-0.028809	-0.061668
129	3029206													9.814911	-0.526770	-0.060322	-0.006142	-0.865498	0.500876	-0.067846	0.500091	0.863311	-0.997677	-0.028680	-0.061792
130	3029373													9.795337	-0.513724	-0.078413	-0.006308	-0.865505	0.500861	-0.067902	0.500086	0.863310	-0.997672	-0.028563	-0.061924
131	3029539													9.811907	-0.515992	-0.077985	-0.006485	-0.865453	0.500949	-0.068019	0.500181	0.863245	-0.997663	-0.028476	-0.062110
132	3029706													9.820578	-0.531573	-0.103373	-0.006592	-0.865406	0.501028	-0.068164	0.500263	0.863187	-0.997652	-0.028462	-0.062287
133	3029873													9.835903	-0.550360	-0.091207	-0.006614	-0.865374	0.501083	-0.068352	0.500313	0.863142	-0.997639	-0.028541	-0.062459
134	3030039													9.840839	-0.549159	-0.093943	-0.006567	-0.865424	0.500997	-0.068554	0.500219	0.863181	-0.997626	-0.028677	-0.062614
135	3030206													9.843866	-0.570306	-0.083058	-0.006426	-0.865341	0.501143	-0.068717	0.500350	0.863092	-0.997616	-0.028891	-0.062679
136	3030373													9.800022	-0.563615	-0.079674	-0.006274	-0.865378	0.501080	-0.068871	0.500274	0.863124	-0.997606	-0.029095	-0.062738
137	3030539													9.817276	-0.566094	-0.082384	-0.006135	-0.865443	0.500969	-0.068985	0.500151	0.863186	-0.997599	-0.029264	-0.062771
138	3030706													9.816802	-0.572245	-0.088062	-0.005979	-0.865510	0.500856	-0.069108	0.500025	0.863249	-0.997591	-0.029452	-0.062803
139	3030873													9.813643	-0.546800	-0.073557	-0.005800	-0.865503	0.500871	-0.069195	0.500026	0.863242	-0.997586	-0.029651	-0.062789
140	3031039													9.797854	-0.539646	-0.069216	-0.005664	-0.865489	0.500896	-0.069246	0.500041	0.863229	-0.997584	-0.029796	-0.062764
141	3031206													9.773583	-0.539878	-0.051065	-0.005572	-0.865518	0.500846	-0.069298	0.499984	0.863257	-0.997580	-0.029897	-0.062764
142	3031373													9.798858	-0.535662	-0.047421	-0.005529	-0.865505	0.500869	-0.069372	0.500002	0.863241	-0.997576	-0.029974	-0.062807
143	3031539													9.800299	-0.558349	-0.048862	-0.005463	-0.865412	0.501031	-0.069451	0.500157	0.863145	-0.997570	-0.030082	-0.062836
144	3031706													9.808371	-0.554509	-0.037708	-0.005396	-0.865380	0.501087	-0.069479	0.500208	0.863114	-0.997569	-0.030157	-0.062825
145	3031873													9.801337	-0.566836	-0.062562	-0.005388	-0.865391	0.501068	-0.069534	0.500187	0.863121	-0.997565	-0.030191	-0.062870
146	3032039													9.819361	-0.569929	-0.079016	-0.005376	-0.865369	0.501107	-0.069533	0.500225	0.863099	-0.997565	-0.030203	-0.062861
147	3032206													9.830729	-0.546241	-0.062401	-0.005319	-0.865357	0.501128	-0.069505	0.500243	0.863091	-0.997567	-0.030240	-0.062807
148	3032373													9.812108	-0.533241	-0.037203	-0.005219	-0.865397	0.501060	-0.069433	0.500171	0.863138	-0.997573	-0.030285	-0.062697
149	3032539													9.833176	-0.530849	-0.041892	-0.005045	-0.865356	0.501133	-0.069374	0.500234	0.863106	-0.997578	-0.030411	-0.062557
150	3032706													9.834448	-0.513235	-0.027828	-0.004836	-0.865231	0.501349	-0.069360	0.500438	0.862990	-0.997580	-0.030600	-0.062432
151	3032873													9.810296	-0.527006	-0.057226	-0.004591	-0.865147	0.501498	-0.069360	0.500571	0.862913	-0.997581	-0.030822	-0.062304
152	3033039													9.815672	-0.560862	-0.048622	-0.004335	-0.864991	0.501768	-0.069428	0.500822	0.862761	-0.997578	-0.031097	-0.062225
153	3033206													9.789734	-0.554842	-0.034224	-0.004007	-0.864866	0.501987	-0.069509	0.501018	0.862641	-0.997573	-0.031436	-0.062123
154	3033373													9.743104	-0.587238	-0.067057	-0.003789	-0.864796	0.502109	-0.069636	0.501122	0.862570	-0.997565	-0.031696	-0.062120
155	3033539													9.806953	-0.609879	-0.042961	-0.003702	-0.864788	0.502124	-0.069775	0.501127	0.862556	-0.997556	-0.031843	-0.062196
156	3033706													9.851389	-0.552592	-0.037082	-0.003588	-0.864798	0.502107	-0.069734	0.501104	0.862573	-0.997559	-0.031919	-0.062103
157	3033873													9.870800	-0.573506	-0.044624	-0.003350	-0.864789	0.502125	-0.069557	0.501113	0.862582	-0.997572	-0.032037	-0.061831
158	3034039													9.840031	-0.587097	-0.013941	-0.002992	-0.864791	0.502123	-0.069484	0.501091	0.862600	-0.997579	-0.032308	-0.061589
159	3034206													9.809465	-0.535364	0.000352	-0.002627	-0.864779	0.502147	-0.069448	0.501094	0.862602	-0.997582	-0.032607	-0.061374
160	3034373													9.846924	-0.512668	-0.005182	-0.002250	-0.864789	0.502131	-0.069386	0.501057	0.862628	-0.997587	-0.032900	-0.061131
161	3034539													9.840801	-0.516357	0.003836	-0.001805	-0.864731	0.502232	-0.069309	0.501133	0.862590	-0.997594	-0.033252	-0.060839
162	3034706													9.798403	-0.530832	0.036690	-0.001304	-0.864593	0.502471	-0.069251	0.501343	0.862473	-0.997598	-0.033672	-0.060527
163	3034873													9.784877	-0.566826	0.035233	-0.000900	-0.864506	0.502622	-0.069258	0.501469	0.862399	-0.997598	-0.034035	-0.060325
164	3035039													9.792344	-0.566926	0.040563	-0.000527	-0.864434	0.502746	-0.069309	0.501569	0.862337	-0.997595	-0.034390	-0.060178
165	3035206													9.813098	-0.558466	0.053829	-0.000161	-0.864362	0.502871	-0.069344	0.501670	0.862275	-0.997593	-0.034732	-0.060019
166	3035373													9.811119	-0.550773	0.057725	0.000145	-0.864351	0.502889	-0.069332	0.501670	0.862276	-0.997594	-0.034991	-0.059855
167	3035539													9.810801	-0.552710	0.064692	0.000441	-0.864286	0.503001	-0.069265	0.501767	0.862225	-0.997598	-0.035221	-0.059643
168	3035706													9.811302	-0.542081	0.038918	0.000693	-0.864289	0.502995	-0.069178	0.501749	0.862243	-0.997604	-0.035394	-0.059442
169	3035873													9.777276	-0.566598	0.034123	0.000918	-0.864280	0.503011	-0.069161	0.501752	0.862242	-0.997605	-0.035580	-0.059314
170	3036039													9.754736	-0.548290	0.046976	0.001006	-0.864271	0.503025	-0.069258	0.501757	0.862232	-0.997598	-0.035706	-0.059353
171	3036206													9.797324	-0.537071	0.041023	0.000946	-0.864263	0.503039	-0.069238	0.501775	0.862223	-0.997600	-0.035645	-0.059365
172	3036373													9.887600	-0.539449	0.024840	0.000964	-0.864248	0.503064	-0.069139	0.501803	0.862214	-0.997607	-0.035612	-0.059269
173	3036539													9.832611	-0.550146	0.009116	0.001155	-0.864249	0.503064	-0.069049	0.501794	0.862227	-0.997613	-0.035732	-0.059096
174	3036706													9.783508	-0.542543	0.017645	0.001326	-0.864213	0.503125	-0.069004	0.501847	0.862199	-0.997615	-0.035861	-0.058969
175	3036873													9.788173	-0.529812	0.040583	0.001414	-0.864210	0.503129	-0.068980	0.501847	0.862201	-0.997617	-0.035925	-0.058904
176	3037039													9.811232	-0.518740	0.040497	0.001521	-0.864125	0.503275	-0.068942	0.501988	0.862123	-0.997620	-0.036008	-0.058811
177	3037206													9.802924	-0.552388	0.058811	0.001644	-0.864048	0.503406	-0.068921	0.502112	0.862052	-0.997621	-0.036112	-0.058726
178	3037373													9.823409	-0.568474	0.039016	0.001763	-0.863984	0.503517	-0.068868	0.502217	0.861995	-0.997624	-0.036196	-0.058615
179	3037539													9.820086	-0.575394	0.028771	0.001876	-0.863963	0.503551	-0.068803	0.502247	0.861982	-0.997628	-0.036263	-0.058501
180	3037706													9.803586	-0.565495	0.029368	0.001916	-0.863938	0.503595	-0.068693	0.502292	0.861965	-0.997636	-0.036245	-0.058384
181	3037873													9.819224	-0.544953	0.019873	0.001910	-0.863952	0.503570	-0.068561	0.502273	0.861987	-0.997645	-0.036172	-0.058274
182	3038039													9.792993	-0.525938	0.043279	0.001875	-0.863993	0.503500	-0.068428	0.502210	0.862034	-0.997654	-0.036070	-0.058179
183	3038206													9.774043	-0.520828	0.051254	0.001806	-0.864002	0.503486	-0.068292	0.502204	0.862048	-0.997664	-0.035941	-0.058097
184	3038373													9.799805	-0.491471	0.031664	0.001723	-0.864022	0.503450	-0.068216	0.502177	0.862070	-0.997669	-0.035829	-0.058075
185	3038539													9.817207	-0.525735	0.004721	0.001641	-0.863955	0.503567	-0.068185	0.502299	0.862001	-0.997671	-0.035750	-0.058085
186	3038706													9.823870	-0.531911	-0.002593	0.001581	-0.863922	0.503623	-0.068136	0.502360	0.861969	-0.997675	-0.035678	-0.058070
187	3038873													9.824807	-0.551845	0.005014	0.001588	-0.863861	0.503728	-0.068118	0.502466	0.861910	-0.997676	-0.035682	-0.058046
188	3039039													9.846862	-0.546988	0.006595	0.001703	-0.863791	0.503848	-0.068042	0.502581	0.861849	-0.997681	-0.035751	-0.057918
189	3039206													9.839627	-0.546080	-0.017069	0.001888	-0.863723	0.503964	-0.067952	0.502689	0.861792	-0.997687	-0.035873	-0.057743
190	3039373													9.828079	-0.543469	0.003555	0.002171	-0.863701	0.503999	-0.067837	0.502712	0.861788	-0.997694	-0.036061	-0.057500
191	3039539													9.818037	-0.529325	0.024624	0.002425	-0.863646	0.504093	-0.067729	0.502795	0.861748	-0.997701	-0.036232	-0.057274
192	3039706													9.814705	-0.506876	0.017260	0.002647	-0.863632	0.504116	-0.067647	0.502808	0.861747	-0.997706	-0.036383	-0.057091
193	3039873													9.834636	-0.509470	0.018037	0.002853	-0.863566	0.504227	-0.067556	0.502911	0.861694	-0.997711	-0.036522	-0.056905
194	3040040													9.809340	-0.518417	0.040656	0.003120	-0.863517	0.504311	-0.067540	0.502980	0.861655	-0.997712	-0.036749	-0.056753
195	3040206													9.818283	-0.534386	0.034168	0.003405	-0.863423	0.504469	-0.067626	0.503118	0.861568	-0.997705	-0.037049	-0.056677
196	3040373													9.821297	-0.551932	0.036627	0.003744	-0.863331	0.504624	-0.067686	0.503251	0.861485	-0.997700	-0.037381	-0.056552
197	3040540													9.791522	-0.583770	0.038301	0.004114	-0.863330	0.504623	-0.067774	0.503226	0.861493	-0.997692	-0.037745	-0.056441
198	3040706													9.807561	-0.560000	0.042756	0.004425	-0.863344	0.504596	-0.067782	0.503181	0.861519	-0.997690	-0.038014	-0.056293
199	3040873													9.798559	-0.567902	0.071182	0.004710	-0.863441	0.504427	-0.067807	0.502996	0.861625	-0.997687	-0.038262	-0.056178
200	3041040													9.825455	-0.539825	0.089657	0.004977	-0.863555	0.504231	-0.067825	0.502784	0.861747	-0.997685	-0.038488	-0.056068
201	3041206													9.820968	-0.517146	0.084623	0.005236	-0.863669	0.504032	-0.067824	0.502572	0.861871	-0.997684	-0.038698	-0.055946
202	3041373													9.827685	-0.509568	0.075797	0.005481	-0.863717	0.503947	-0.067843	0.502472	0.861928	-0.997681	-0.038913	-0.055843
203	3041540													9.830841	-0.517528	0.069934	0.005683	-0.863737	0.503910	-0.067939	0.502420	0.861950	-0.997673	-0.039134	-0.055826
204	3041706													9.815147	-0.523525	0.083977	0.005924	-0.863739	0.503904	-0.068058	0.502396	0.861955	-0.997664	-0.039401	-0.055809
205	3041873													9.793363	-0.548652	0.090985	0.006086	-0.863731	0.503916	-0.068172	0.502394	0.861947	-0.997655	-0.039599	-0.055825
206	3042040													9.796647	-0.541904	0.068364	0.006254	-0.863700	0.503967	-0.068260	0.502433	0.861918	-0.997648	-0.039791	-0.055814
207	3042206													9.754560	-0.571664	0.064801	0.006334	-0.863708	0.503953	-0.068273	0.502414	0.861927	-0.997647	-0.039866	-0.055786
208	3042373													9.789596	-0.570531	0.032401	0.006258	-0.863733	0.503911	-0.068290	0.502375	0.861949	-0.997646	-0.039807	-0.055841
209	3042540													9.855048	-0.514938	0.040958	0.006209	-0.863747	0.503888	-0.068168	0.502360	0.861967	-0.997655	-0.039701	-0.055761
210	3042706													9.886281	-0.475278	0.068814	0.006338	-0.863688	0.503987	-0.067917	0.502461	0.861928	-0.997671	-0.039693	-0.055474
211	3042873													9.868960	-0.524286	0.060088	0.006590	-0.863593	0.504146	-0.067770	0.502612	0.861852	-0.997679	-0.039846	-0.055214
212	3043040													9.846110	-0.507635	0.070622	0.006889	-0.863517	0.504273	-0.067813	0.502720	0.861785	-0.997674	-0.040134	-0.055095
213	3043206													9.806732	-0.492643	0.116346	0.007205	-0.863410	0.504451	-0.067970	0.502874	0.861683	-0.997661	-0.040496	-0.055062
214	3043373													9.827639	-0.511907	0.097521	0.007517	-0.863244	0.504731	-0.068095	0.503132	0.861523	-0.997651	-0.040846	-0.055001
215	3043540													9.812419	-0.557418	0.110562	0.007936	-0.863126	0.504927	-0.068209	0.503300	0.861416	-0.997639	-0.041276	-0.054879
216	3043706													9.780899	-0.586326	0.104663	0.008295	-0.863075	0.505007	-0.068334	0.503355	0.861374	-0.997628	-0.041654	-0.054803
217	3043873													9.777586	-0.582079	0.134902	0.008589	-0.863001	0.505129	-0.068464	0.503455	0.861305	-0.997617	-0.041981	-0.054760
218	3044040													9.810940	-0.576796	0.111025	0.008862	-0.862975	0.505169	-0.068609	0.503473	0.861282	-0.997604	-0.042292	-0.054747
219	3044206													9.793815	-0.562674	0.117598	0.009073	-0.862982	0.505154	-0.068747	0.503441	0.861290	-0.997593	-0.042543	-0.054760
220	3044373													9.818203	-0.558155	0.119626	0.009195	-0.862988	0.505141	-0.068858	0.503416	0.861296	-0.997584	-0.042702	-0.054795
221	3044540													9.862850	-0.549384	0.113234	0.009292	-0.862997	0.505123	-0.068941	0.503390	0.861305	-0.997577	-0.042827	-0.054819
222	3044706													9.818301	-0.572537	0.123772	0.009419	-0.862970	0.505167	-0.069086	0.503420	0.861275	-0.997566	-0.043013	-0.054877
223	3044873													9.789240	-0.565339	0.120947	0.009497	-0.863012	0.505094	-0.069322	0.503333	0.861307	-0.997549	-0.043194	-0.055045
224	3045040													9.821399	-0.552765	0.129684	0.009514	-0.863020	0.505080	-0.069401	0.503315	0.861311	-0.997543	-0.043248	-0.055106
225	3045206													9.877133	-0.573777	0.115970	0.009669	-0.862960	0.505179	-0.069387	0.503406	0.861259	-0.997543	-0.043381	-0.055011
226	3045373													9.808207	-0.598342	0.111495	0.009904	-0.862968	0.505162	-0.069398	0.503375	0.861277	-0.997540	-0.043587	-0.054903
227	3045540													9.794291	-0.593622	0.138294	0.010114	-0.862962	0.505168	-0.069467	0.503367	0.861276	-0.997533	-0.043803	-0.054857
228	3045706													9.813498	-0.574285	0.129229	0.010357	-0.862980	0.505132	-0.069519	0.503315	0.861302	-0.997527	-0.044037	-0.054780
229	3045873													9.812276	-0.582729	0.124620	0.010626	-0.863007	0.505081	-0.069506	0.503250	0.861341	-0.997525	-0.044259	-0.054636
230	3046040													9.792522	-0.599040	0.139753	0.010847	-0.863037	0.505024	-0.069477	0.503182	0.861383	-0.997525	-0.044431	-0.054503
231	3046206													9.812895	-0.608512	0.143818	0.011034	-0.863098	0.504916	-0.069442	0.503066	0.861453	-0.997525	-0.044568	-0.054385
232	3046373													9.831151	-0.593378	0.141679	0.011181	-0.863126	0.504866	-0.069376	0.503011	0.861491	-0.997528	-0.044658	-0.054256
233	3046540													9.792027	-0.577872	0.142444	0.011286	-0.863215	0.504710	-0.069194	0.502858	0.861595	-0.997539	-0.044647	-0.054054
234	3046706													9.808746	-0.562849	0.148591	0.011311	-0.863191	0.504750	-0.068919	0.502909	0.861587	-0.997558	-0.044533	-0.053802
235	3046873													9.811246	-0.554015	0.133897	0.011336	-0.863159	0.504804	-0.068575	0.502977	0.861575	-0.997582	-0.044384	-0.053490
236	3047040													9.788442	-0.520309	0.161528	0.011297	-0.863047	0.504998	-0.068176	0.503190	0.861482	-0.997609	-0.044161	-0.053154
237	3047206													9.775250	-0.520537	0.122571	0.011181	-0.862896	0.505257	-0.067765	0.503473	0.861349	-0.997639	-0.043870	-0.052845
238	3047373													9.773354	-0.549553	0.093118	0.010975	-0.862744	0.505521	-0.067379	0.503765	0.861209	-0.997667	-0.043513	-0.052601
239	3047540													9.795106	-0.544398	0.086581	0.010664	-0.862521	0.505908	-0.067043	0.504182	0.860991	-0.997693	-0.043099	-0.052450
240	3047706													9.851164	-0.538736	0.078019	0.010376	-0.862383	0.506150	-0.066722	0.504452	0.860858	-0.997718	-0.042704	-0.052306
241	3047873													9.868417	-0.550986	0.067330	0.010253	-0.862262	0.506359	-0.066473	0.504678	0.860745	-0.997736	-0.042485	-0.052142
242	3048040													9.842587	-0.580182	0.062863	0.010241	-0.862156	0.506539	-0.066262	0.504867	0.860650	-0.997750	-0.042378	-0.051958
243	3048206													9.846905	-0.563181	0.055992	0.010262	-0.862119	0.506602	-0.066126	0.504935	0.860621	-0.997759	-0.042331	-0.051827
244	3048373													9.851078	-0.558554	0.051050	0.010365	-0.862146	0.506554	-0.066011	0.504886	0.860658	-0.997765	-0.042359	-0.051677
245	3048540													9.858106	-0.553707	0.081527	0.010641	-0.862181	0.506489	-0.065961	0.504810	0.860707	-0.997765	-0.042567	-0.051498
246	3048706													9.833000	-0.549481	0.095605	0.010993	-0.862263	0.506342	-0.065898	0.504647	0.860807	-0.997766	-0.042830	-0.051274
247	3048873													9.850032	-0.525644	0.086852	0.011417	-0.862288	0.506290	-0.065793	0.504578	0.860856	-0.997768	-0.043139	-0.050972
248	3049040													9.816414	-0.525820	0.126838	0.011932	-0.862326	0.506212	-0.065661	0.504480	0.860923	-0.997771	-0.043511	-0.050602
249	3049206													9.805364	-0.499379	0.147929	0.012415	-0.862304	0.506239	-0.065523	0.504488	0.860929	-0.997774	-0.043859	-0.050238
250	3049373													9.777437	-0.492085	0.162512	0.012838	-0.862279	0.506271	-0.065332	0.504507	0.860932	-0.997781	-0.044129	-0.049857
251	3049540													9.784455	-0.505952	0.184247	0.013160	-0.862208	0.506384	-0.065126	0.504613	0.860885	-0.997790	-0.044308	-0.049512
252	3049706													9.801395	-0.499360	0.211831	0.013448	-0.862092	0.506574	-0.064933	0.504798	0.860792	-0.997799	-0.044469	-0.049189
253	3049873													9.811144	-0.482251	0.242318	0.013676	-0.861936	0.506833	-0.064784	0.505051	0.860655	-0.997806	-0.044605	-0.048932
254	3050040													9.814862	-0.470763	0.226407	0.013841	-0.861761	0.507125	-0.064672	0.505340	0.860493	-0.997811	-0.044707	-0.048737
255	3050206													9.800534	-0.465791	0.232804	0.013866	-0.861549	0.507485	-0.064596	0.505702	0.860286	-0.997815	-0.044710	-0.048640
256	3050373													9.778346	-0.479085	0.226225	0.013672	-0.861333	0.507858	-0.064565	0.506085	0.860064	-0.997820	-0.044548	-0.048693
257	3050540													9.746001	-0.516766	0.227128	0.013276	-0.861078	0.508299	-0.064586	0.506544	0.859792	-0.997824	-0.044244	-0.048889
258	3050706													9.756761	-0.560063	0.205910	0.012663	-0.860889	0.508635	-0.064672	0.506905	0.859572	-0.997826	-0.043779	-0.049256
259	3050873													9.801389	-0.572202	0.139093	0.011982	-0.860712	0.508951	-0.064743	0.507252	0.859363	-0.997830	-0.043247	-0.049647
260	3051040													9.800155	-0.601031	0.124525	0.011257	-0.860656	0.509063	-0.064767	0.507399	0.859274	-0.997837	-0.042644	-0.050030
261	3051206													9.847425	-0.577688	0.108777	0.010546	-0.860683	0.509032	-0.064755	0.507404	0.859272	-0.997845	-0.042024	-0.050383
262	3051373													9.872272	-0.561111	0.089442	0.009967	-0.860733	0.508959	-0.064642	0.507365	0.859304	-0.997859	-0.041465	-0.050582
263	3051540													9.864594	-0.553716	0.107784	0.009612	-0.860818	0.508821	-0.064529	0.507250	0.859380	-0.997870	-0.041094	-0.050672
264	3051706													9.827826	-0.537836	0.088216	0.009383	-0.860908	0.508674	-0.064528	0.507115	0.859459	-0.997872	-0.040888	-0.050795
265	3051873													9.798789	-0.496347	0.099332	0.009194	-0.861038	0.508457	-0.064555	0.506907	0.859580	-0.997872	-0.040727	-0.050924
266	3052040													9.817563	-0.492865	0.111591	0.008999	-0.861155	0.508263	-0.064530	0.506724	0.859690	-0.997875	-0.040535	-0.051010
267	3052206													9.859710	-0.524885	0.110154	0.008875	-0.861233	0.508133	-0.064494	0.506602	0.859764	-0.997879	-0.040402	-0.051049
268	3052373													9.842918	-0.531853	0.109144	0.008902	-0.861323	0.507980	-0.064511	0.506447	0.859855	-0.997877	-0.040425	-0.051056
269	3052540													9.808332	-0.526401	0.097257	0.008951	-0.861414	0.507825	-0.064618	0.506285	0.859942	-0.997870	-0.040512	-0.051131
270	3052873													9.839453	-0.542465	0.105015	0.009013	-0.861569	0.507560	-0.064758	0.506012	0.860092	-0.997860	-0.040620	-0.051232
271	3053040													9.786601	-0.560922	0.109310	0.009008	-0.861710	0.507321	-0.064900	0.505768	0.860225	-0.997851	-0.040674	-0.051369
272	3053206													9.790865	-0.570776	0.089493	0.008941	-0.861886	0.507023	-0.065011	0.505470	0.860392	-0.997844	-0.040655	-0.051513
273	3053373													9.806277	-0.554892	0.112495	0.008788	-0.862101	0.506661	-0.065090	0.505113	0.860595	-0.997841	-0.040542	-0.051675
274	3053540													9.774516	-0.576912	0.089656	0.008680	-0.862303	0.506319	-0.065267	0.504770	0.860783	-0.997830	-0.040517	-0.051898
275	3053706													9.797191	-0.595630	0.100196	0.008447	-0.862646	0.505738	-0.065649	0.504187	0.861096	-0.997807	-0.040475	-0.052373
276	3053873													9.832924	-0.536004	0.094603	0.008217	-0.863030	0.505087	-0.066049	0.503532	0.861448	-0.997783	-0.040439	-0.052865
277	3054040													9.875704	-0.547503	0.081494	0.008032	-0.863345	0.504551	-0.066309	0.502997	0.861741	-0.997767	-0.040378	-0.053208
278	3054206													9.825871	-0.591446	0.079632	0.007932	-0.863635	0.504055	-0.066562	0.502497	0.862013	-0.997751	-0.040389	-0.053500
279	3054373													9.803659	-0.578275	0.078354	0.007752	-0.863985	0.503458	-0.066870	0.501898	0.862338	-0.997732	-0.040351	-0.053884
280	3054540													9.788774	-0.550866	0.096691	0.007551	-0.864240	0.503023	-0.067143	0.501464	0.862569	-0.997715	-0.040287	-0.054241
281	3054706													9.776994	-0.559606	0.063330	0.007281	-0.864482	0.502611	-0.067371	0.501059	0.862787	-0.997701	-0.040143	-0.054592
282	3054873													9.795691	-0.566753	0.077488	0.007011	-0.864686	0.502264	-0.067475	0.500723	0.862974	-0.997696	-0.039940	-0.054834
283	3055040													9.793910	-0.573462	0.062816	0.006712	-0.864853	0.501981	-0.067495	0.500455	0.863127	-0.997697	-0.039674	-0.055014
284	3055206													9.814086	-0.589285	0.053775	0.006391	-0.865030	0.501680	-0.067520	0.500172	0.863290	-0.997697	-0.039391	-0.055210
285	3055373													9.805813	-0.555005	0.047600	0.006034	-0.865207	0.501379	-0.067555	0.499890	0.863450	-0.997697	-0.039081	-0.055433
286	3055540													9.833696	-0.554199	0.036640	0.005695	-0.865252	0.501305	-0.067514	0.499836	0.863485	-0.997702	-0.038762	-0.055571
287	3055706													9.846079	-0.548527	0.036125	0.005432	-0.865284	0.501253	-0.067467	0.499801	0.863509	-0.997707	-0.038509	-0.055663
288	3055873													9.829057	-0.557065	0.019619	0.005201	-0.865249	0.501315	-0.067398	0.499878	0.863469	-0.997713	-0.038279	-0.055716
289	3056040													9.820652	-0.549123	0.032728	0.004968	-0.865189	0.501422	-0.067276	0.500003	0.863407	-0.997722	-0.038023	-0.055722
290	3056206													9.799007	-0.572673	0.003165	0.004772	-0.865107	0.501564	-0.067208	0.500158	0.863322	-0.997728	-0.037829	-0.055756
291	3056373													9.818333	-0.573220	-0.005228	0.004594	-0.865037	0.501686	-0.067143	0.500293	0.863249	-0.997733	-0.037651	-0.055783
292	3056540													9.846370	-0.583929	-0.018767	0.004490	-0.864973	0.501799	-0.067085	0.500413	0.863184	-0.997737	-0.037539	-0.055780
293	3056707													9.868762	-0.595177	0.002589	0.004513	-0.864893	0.501936	-0.067018	0.500551	0.863109	-0.997742	-0.037534	-0.055705
294	3056873													9.853809	-0.610537	-0.007957	0.004649	-0.864858	0.501995	-0.066932	0.500605	0.863084	-0.997747	-0.037612	-0.055560
295	3057040													9.841869	-0.608902	0.013653	0.004940	-0.864857	0.501993	-0.066835	0.500591	0.863100	-0.997752	-0.037815	-0.055330
296	3057207													9.850519	-0.604072	0.044914	0.005295	-0.864852	0.501999	-0.066746	0.500581	0.863113	-0.997756	-0.038077	-0.055075
297	3057373													9.844555	-0.588488	0.062002	0.005742	-0.864857	0.501985	-0.066583	0.500548	0.863144	-0.997764	-0.038380	-0.054711
298	3057540													9.807993	-0.567810	0.066375	0.006218	-0.864829	0.502028	-0.066359	0.500574	0.863146	-0.997776	-0.038681	-0.054277
299	3057707													9.795617	-0.562121	0.065045	0.006621	-0.864804	0.502066	-0.066124	0.500599	0.863150	-0.997789	-0.038913	-0.053870
300	3057873													9.785655	-0.546826	0.075676	0.006943	-0.864794	0.502078	-0.065891	0.500603	0.863166	-0.997803	-0.039075	-0.053507
301	3058040													9.811296	-0.526641	0.097447	0.007208	-0.864773	0.502112	-0.065675	0.500631	0.863166	-0.997815	-0.039197	-0.053185
302	3058207													9.818566	-0.532452	0.093741	0.007465	-0.864727	0.502187	-0.065492	0.500700	0.863140	-0.997825	-0.039333	-0.052895
303	3058373													9.813826	-0.530446	0.114384	0.007720	-0.864629	0.502352	-0.065377	0.500855	0.863058	-0.997831	-0.039506	-0.052660
304	3058540													9.832000	-0.563448	0.109065	0.007971	-0.864531	0.502516	-0.065321	0.501009	0.862974	-0.997832	-0.039703	-0.052479
305	3058707													9.801689	-0.562768	0.097726	0.008221	-0.864478	0.502603	-0.065287	0.501083	0.862933	-0.997833	-0.039908	-0.052320
306	3058873													9.805013	-0.573420	0.123358	0.008446	-0.864461	0.502630	-0.065295	0.501098	0.862924	-0.997830	-0.040107	-0.052213
307	3059040													9.809081	-0.596186	0.107563	0.008642	-0.864489	0.502578	-0.065341	0.501034	0.862957	-0.997826	-0.040297	-0.052156
308	3059207													9.794452	-0.580339	0.111138	0.008837	-0.864560	0.502453	-0.065397	0.500897	0.863033	-0.997820	-0.040485	-0.052114
309	3059373													9.767213	-0.589640	0.093580	0.008936	-0.864666	0.502268	-0.065462	0.500705	0.863139	-0.997815	-0.040593	-0.052128
310	3059540													9.819654	-0.590066	0.103248	0.008952	-0.864824	0.501995	-0.065583	0.500426	0.863292	-0.997807	-0.040651	-0.052238
311	3059707													9.844414	-0.536289	0.086052	0.008950	-0.864977	0.501731	-0.065593	0.500162	0.863444	-0.997806	-0.040638	-0.052260
312	3059873													9.894164	-0.555167	0.101668	0.009096	-0.865057	0.501591	-0.065460	0.500020	0.863536	-0.997814	-0.040689	-0.052078
313	3060040													9.843511	-0.569537	0.094120	0.009417	-0.865167	0.501395	-0.065392	0.499811	0.863663	-0.997815	-0.040921	-0.051868
314	3060207													9.796893	-0.543476	0.107181	0.009769	-0.865225	0.501288	-0.065397	0.499686	0.863734	-0.997811	-0.041220	-0.051702
315	3060373													9.784897	-0.524166	0.136395	0.010078	-0.865242	0.501253	-0.065352	0.499637	0.863766	-0.997811	-0.041463	-0.051510
316	3060540													9.839526	-0.520243	0.137835	0.010417	-0.865181	0.501352	-0.065229	0.499723	0.863726	-0.997816	-0.041700	-0.051229
317	3060707													9.819772	-0.543268	0.153350	0.010797	-0.865122	0.501446	-0.065084	0.499804	0.863690	-0.997821	-0.041961	-0.050909
318	3060873													9.806199	-0.565779	0.137181	0.011182	-0.865040	0.501579	-0.064956	0.499922	0.863631	-0.997825	-0.042238	-0.050599
319	3061040													9.842575	-0.579716	0.175865	0.011586	-0.864978	0.501676	-0.064944	0.499999	0.863587	-0.997822	-0.042586	-0.050382
320	3061207													9.826340	-0.560028	0.161677	0.012044	-0.864931	0.501746	-0.064984	0.500045	0.863558	-0.997814	-0.043006	-0.050184
321	3061373													9.783138	-0.574631	0.159494	0.012445	-0.864906	0.501780	-0.064948	0.500060	0.863552	-0.997811	-0.043337	-0.049951
322	3061540													9.817611	-0.590319	0.176754	0.012783	-0.864901	0.501780	-0.064834	0.500048	0.863567	-0.997814	-0.043571	-0.049683
323	3061707													9.840838	-0.559296	0.166821	0.013111	-0.864919	0.501740	-0.064658	0.500000	0.863608	-0.997821	-0.043764	-0.049368
324	3061873													9.797537	-0.575076	0.152947	0.013455	-0.864930	0.501712	-0.064584	0.499958	0.863638	-0.997822	-0.044023	-0.049133
325	3062040													9.754395	-0.549382	0.147608	0.013666	-0.864948	0.501675	-0.064634	0.499909	0.863663	-0.997815	-0.044228	-0.049074
326	3062207													9.740713	-0.509105	0.198265	0.013673	-0.864984	0.501613	-0.064593	0.499848	0.863701	-0.997818	-0.044210	-0.049038
327	3062373													9.853398	-0.533080	0.151903	0.013618	-0.864957	0.501661	-0.064448	0.499905	0.863679	-0.997828	-0.044092	-0.048937
328	3062540													9.813650	-0.563643	0.154070	0.013611	-0.864935	0.501699	-0.064374	0.499947	0.863660	-0.997833	-0.044052	-0.048875
329	3062707													9.790376	-0.553211	0.152572	0.013527	-0.864928	0.501713	-0.064382	0.499965	0.863649	-0.997834	-0.043984	-0.048923
330	3062873													9.794607	-0.557081	0.150328	0.013369	-0.864967	0.501651	-0.064468	0.499907	0.863676	-0.997830	-0.043887	-0.049080
331	3063040													9.834465	-0.560332	0.144621	0.013233	-0.864959	0.501668	-0.064478	0.499929	0.863663	-0.997831	-0.043775	-0.049156
332	3063207													9.821163	-0.574543	0.132466	0.013178	-0.864964	0.501662	-0.064457	0.499927	0.863666	-0.997833	-0.043717	-0.049165
333	3063373													9.812180	-0.563424	0.131458	0.013146	-0.864985	0.501625	-0.064435	0.499893	0.863687	-0.997835	-0.043676	-0.049163
334	3063540													9.805593	-0.551498	0.112872	0.013077	-0.865039	0.501534	-0.064411	0.499806	0.863739	-0.997838	-0.043599	-0.049182
335	3063707													9.830836	-0.524479	0.117010	0.013037	-0.865096	0.501438	-0.064401	0.499713	0.863794	-0.997839	-0.043554	-0.049198
336	3063873													9.837123	-0.534067	0.120222	0.013017	-0.865105	0.501421	-0.064482	0.499694	0.863799	-0.997834	-0.043576	-0.049279
337	3064040													9.824033	-0.525512	0.130202	0.013066	-0.865141	0.501358	-0.064576	0.499624	0.863832	-0.997827	-0.043663	-0.049339
338	3064207													9.822098	-0.544060	0.125754	0.013158	-0.865125	0.501383	-0.064655	0.499641	0.863816	-0.997821	-0.043783	-0.049360
339	3064373													9.823493	-0.558695	0.135865	0.013251	-0.865127	0.501378	-0.064760	0.499626	0.863817	-0.997813	-0.043916	-0.049405
340	3064540													9.823696	-0.562377	0.110258	0.013360	-0.865145	0.501344	-0.064872	0.499582	0.863834	-0.997804	-0.044064	-0.049450
341	3064707													9.824043	-0.582648	0.146863	0.013519	-0.865174	0.501290	-0.064999	0.499515	0.863863	-0.997794	-0.044262	-0.049482
342	3064873													9.831221	-0.581420	0.116243	0.013699	-0.865264	0.501130	-0.065102	0.499342	0.863956	-0.997785	-0.044460	-0.049490
343	3065040													9.823563	-0.569776	0.150307	0.013979	-0.865323	0.501020	-0.065180	0.499215	0.864023	-0.997776	-0.044734	-0.049423
344	3065207													9.810454	-0.553429	0.156565	0.014233	-0.865400	0.500880	-0.065275	0.499058	0.864107	-0.997766	-0.044994	-0.049385
345	3065373													9.831367	-0.549098	0.137294	0.014531	-0.865456	0.500774	-0.065395	0.498932	0.864170	-0.997754	-0.045305	-0.049346
346	3065540													9.822501	-0.552990	0.168677	0.014841	-0.865508	0.500675	-0.065519	0.498812	0.864230	-0.997741	-0.045630	-0.049304
347	3065707													9.793016	-0.558109	0.188245	0.015145	-0.865548	0.500596	-0.065626	0.498714	0.864279	-0.997729	-0.045942	-0.049250
348	3065873													9.813333	-0.576430	0.176262	0.015444	-0.865590	0.500515	-0.065745	0.498613	0.864328	-0.997717	-0.046256	-0.049208
349	3066040													9.811604	-0.575659	0.182664	0.015653	-0.865654	0.500398	-0.065853	0.498480	0.864396	-0.997707	-0.046483	-0.049203
350	3066207													9.811065	-0.573384	0.186352	0.015887	-0.865710	0.500293	-0.065962	0.498359	0.864458	-0.997696	-0.046734	-0.049187
351	3066373													9.797538	-0.568008	0.170527	0.016035	-0.865751	0.500219	-0.066057	0.498273	0.864500	-0.997687	-0.046905	-0.049199
352	3066540													9.809437	-0.576708	0.176462	0.016104	-0.865804	0.500124	-0.066205	0.498168	0.864550	-0.997676	-0.047034	-0.049298
353	3066707													9.800643	-0.590411	0.189045	0.016131	-0.865859	0.500028	-0.066401	0.498062	0.864596	-0.997663	-0.047149	-0.049460
354	3066873													9.811978	-0.589406	0.182217	0.016177	-0.865928	0.499907	-0.066605	0.497929	0.864657	-0.997648	-0.047284	-0.049620
355	3067040													9.803371	-0.612203	0.187776	0.016249	-0.866032	0.499724	-0.066864	0.497730	0.864751	-0.997630	-0.047465	-0.049819
356	3067207													9.830068	-0.613009	0.183272	0.016314	-0.866155	0.499509	-0.067146	0.497498	0.864862	-0.997610	-0.047650	-0.050042
357	3067373													9.836602	-0.604981	0.169712	0.016408	-0.866281	0.499287	-0.067439	0.497259	0.864977	-0.997588	-0.047864	-0.050262
358	3067540													9.789325	-0.618777	0.171855	0.016479	-0.866398	0.499082	-0.067720	0.497036	0.865083	-0.997568	-0.048054	-0.050482
359	3067707													9.815623	-0.613412	0.174863	0.016543	-0.866537	0.498838	-0.068024	0.496775	0.865209	-0.997546	-0.048247	-0.050728
360	3067873													9.768823	-0.629698	0.170382	0.016588	-0.866699	0.498555	-0.068304	0.496477	0.865359	-0.997527	-0.048407	-0.050963
361	3068040													9.803441	-0.636287	0.158435	0.016510	-0.866876	0.498250	-0.068633	0.496160	0.865514	-0.997505	-0.048486	-0.051305
362	3068207													9.853833	-0.639138	0.154642	0.016447	-0.867038	0.497970	-0.068919	0.495870	0.865657	-0.997487	-0.048557	-0.051600
363	3068373													9.891941	-0.626060	0.172878	0.016493	-0.867179	0.497724	-0.069013	0.495617	0.865795	-0.997479	-0.048629	-0.051672
364	3068540													9.845546	-0.687266	0.155757	0.016662	-0.867310	0.497489	-0.069135	0.495368	0.865928	-0.997468	-0.048822	-0.051707
365	3068707													9.790370	-0.672125	0.179569	0.016876	-0.867458	0.497225	-0.069367	0.495081	0.866073	-0.997448	-0.049107	-0.051818
366	3068873													9.778874	-0.648837	0.151748	0.017041	-0.867594	0.496982	-0.069536	0.494822	0.866208	-0.997434	-0.049319	-0.051896
367	3069040													9.839792	-0.662376	0.176290	0.017215	-0.867700	0.496790	-0.069624	0.494618	0.866317	-0.997425	-0.049502	-0.051898
368	3069207													9.797506	-0.658356	0.175128	0.017495	-0.867771	0.496657	-0.069661	0.494468	0.866400	-0.997417	-0.049755	-0.051799
369	3069373													9.817124	-0.666187	0.189089	0.017760	-0.867823	0.496556	-0.069630	0.494355	0.866467	-0.997415	-0.049964	-0.051647
370	3069540													9.814217	-0.691059	0.185759	0.018097	-0.867870	0.496461	-0.069580	0.494246	0.866533	-0.997412	-0.050226	-0.051442
371	3069707													9.802859	-0.672352	0.206208	0.018392	-0.867917	0.496368	-0.069490	0.494142	0.866600	-0.997413	-0.050431	-0.051224
372	3069873													9.796030	-0.650764	0.231246	0.018646	-0.867953	0.496296	-0.069275	0.494068	0.866659	-0.997423	-0.050541	-0.050915
373	3070040													9.826251	-0.633379	0.218109	0.018835	-0.867976	0.496249	-0.068927	0.494029	0.866709	-0.997444	-0.050530	-0.050522
374	3070207													9.857955	-0.581924	0.222499	0.018992	-0.867932	0.496319	-0.068532	0.494111	0.866693	-0.997468	-0.050474	-0.050097
375	3070373													9.797145	-0.580830	0.220562	0.019150	-0.867803	0.496540	-0.068146	0.494343	0.866592	-0.997492	-0.050432	-0.049671
376	3070540													9.777582	-0.598495	0.231197	0.019175	-0.867619	0.496860	-0.067826	0.494678	0.866426	-0.997513	-0.050314	-0.049362
377	3070707													9.788678	-0.566841	0.223460	0.019048	-0.867398	0.497250	-0.067404	0.495095	0.866221	-0.997544	-0.050016	-0.049036
378	3070873													9.862824	-0.579929	0.225633	0.018873	-0.867125	0.497733	-0.066917	0.495610	0.865964	-0.997580	-0.049650	-0.048672
379	3071040													9.828395	-0.605360	0.204454	0.018726	-0.866838	0.498237	-0.066456	0.496144	0.865693	-0.997614	-0.049322	-0.048316
380	3071207													9.791932	-0.600185	0.219098	0.018524	-0.866592	0.498673	-0.066089	0.496606	0.865456	-0.997642	-0.048989	-0.048073
381	3071373													9.784182	-0.593210	0.201642	0.018260	-0.866374	0.499062	-0.065771	0.497023	0.865241	-0.997668	-0.048623	-0.047907
382	3071540													9.830705	-0.602554	0.181145	0.018018	-0.866188	0.499393	-0.065440	0.497382	0.865060	-0.997694	-0.048267	-0.047721
383	3071707													9.809421	-0.599619	0.159359	0.017818	-0.866043	0.499652	-0.065106	0.497665	0.864922	-0.997719	-0.047941	-0.047517
384	3071873													9.790853	-0.609043	0.163198	0.017636	-0.865919	0.499873	-0.064781	0.497911	0.864805	-0.997744	-0.047634	-0.047314
385	3072040													9.854200	-0.590657	0.149572	0.017463	-0.865829	0.500034	-0.064434	0.498097	0.864724	-0.997769	-0.047320	-0.047091
386	3072207													9.801964	-0.568592	0.138069	0.017301	-0.865718	0.500233	-0.064087	0.498319	0.864622	-0.997794	-0.047017	-0.046860
387	3072373													9.832769	-0.565982	0.192144	0.017105	-0.865617	0.500415	-0.063679	0.498529	0.864531	-0.997824	-0.046654	-0.046594
388	3072540													9.836370	-0.526121	0.190737	0.017001	-0.865505	0.500611	-0.063175	0.498753	0.864439	-0.997858	-0.046322	-0.046199
389	3072707													9.826388	-0.515864	0.181107	0.016936	-0.865330	0.500916	-0.062691	0.499083	0.864283	-0.997889	-0.046040	-0.045796
390	3072873													9.841342	-0.520395	0.203359	0.016894	-0.865134	0.501256	-0.062248	0.499445	0.864106	-0.997918	-0.045800	-0.045415
391	3073040													9.850613	-0.512191	0.197249	0.016870	-0.864904	0.501654	-0.061878	0.499860	0.863893	-0.997941	-0.045615	-0.045086
392	3073207													9.813863	-0.507811	0.219517	0.016831	-0.864648	0.502096	-0.061568	0.500318	0.863650	-0.997961	-0.045449	-0.044814
393	3073374													9.800812	-0.548808	0.198774	0.016734	-0.864438	0.502461	-0.061303	0.500699	0.863448	-0.997979	-0.045251	-0.044613
394	3073540													9.794395	-0.575851	0.205107	0.016582	-0.864284	0.502730	-0.061095	0.500984	0.863297	-0.997994	-0.045030	-0.044496
395	3073707													9.804430	-0.581980	0.186798	0.016329	-0.864215	0.502857	-0.060909	0.501131	0.863225	-0.998010	-0.044724	-0.044456
396	3073874													9.793478	-0.592509	0.190255	0.016063	-0.864251	0.502804	-0.060768	0.501096	0.863256	-0.998023	-0.044421	-0.044469
397	3074040													9.790746	-0.599804	0.193780	0.015786	-0.864406	0.502546	-0.060711	0.500853	0.863401	-0.998031	-0.044139	-0.044572
398	3074207													9.834769	-0.550235	0.186253	0.015470	-0.864616	0.502195	-0.060710	0.500516	0.863596	-0.998036	-0.043849	-0.044748
399	3074374													9.825594	-0.530672	0.165992	0.015221	-0.864872	0.501761	-0.060742	0.500093	0.863839	-0.998037	-0.043627	-0.044922
400	3074540													9.825682	-0.529614	0.155725	0.014986	-0.865085	0.501401	-0.060860	0.499738	0.864036	-0.998034	-0.043464	-0.045160
401	3074707													9.811174	-0.505761	0.165713	0.014750	-0.865278	0.501075	-0.061004	0.499417	0.864211	-0.998029	-0.043315	-0.045419
402	3074874													9.830389	-0.532730	0.136748	0.014505	-0.865436	0.500809	-0.061153	0.499156	0.864351	-0.998023	-0.043164	-0.045684
403	3075040													9.832911	-0.562366	0.143579	0.014284	-0.865567	0.500589	-0.061298	0.498940	0.864466	-0.998017	-0.043033	-0.045931
404	3075207													9.823403	-0.566193	0.110378	0.014141	-0.865683	0.500393	-0.061451	0.498745	0.864568	-0.998010	-0.042976	-0.046144
405	3075374													9.841922	-0.563451	0.086107	0.014102	-0.865807	0.500179	-0.061567	0.498528	0.864685	-0.998003	-0.042988	-0.046275
406	3075540													9.873922	-0.565715	0.078092	0.014189	-0.865915	0.499990	-0.061644	0.498332	0.864792	-0.997997	-0.043092	-0.046308
407	3075707													9.891971	-0.545467	0.080581	0.014506	-0.865981	0.499866	-0.061668	0.498192	0.864871	-0.997991	-0.043372	-0.046176
408	3075874													9.891121	-0.542316	0.070243	0.015038	-0.866017	0.499789	-0.061661	0.498091	0.864930	-0.997984	-0.043825	-0.045909
409	3076040													9.891684	-0.531469	0.076754	0.015794	-0.866045	0.499716	-0.061652	0.497984	0.864992	-0.997973	-0.044470	-0.045529
410	3076207													9.911796	-0.528505	0.084708	0.016809	-0.866031	0.499708	-0.061672	0.497929	0.865022	-0.997955	-0.045358	-0.045040
411	3076374													9.969699	-0.525008	0.079404	0.018132	-0.865968	0.499770	-0.061671	0.497932	0.865021	-0.997932	-0.046505	-0.044377
412	3076540													9.966144	-0.568721	0.082054	0.019850	-0.865873	0.499870	-0.061720	0.497954	0.865004	-0.997896	-0.048022	-0.043558
413	3076707													9.952367	-0.552561	0.112547	0.022003	-0.865754	0.499986	-0.061791	0.497974	0.864988	-0.997847	-0.049927	-0.042539
414	3076874													9.993836	-0.558885	0.114375	0.024616	-0.865619	0.500097	-0.061844	0.497972	0.864985	-0.997782	-0.052220	-0.041275
415	3077040													10.051174	-0.555978	0.108586	0.027792	-0.865451	0.500223	-0.061957	0.497963	0.864982	-0.997692	-0.055032	-0.039781
416	3077207													10.011880	-0.534239	0.128804	0.031560	-0.865167	0.500489	-0.062015	0.498079	0.864911	-0.997576	-0.058334	-0.037934
417	3077374													10.008615	-0.645193	0.145225	0.035751	-0.864831	0.500788	-0.062018	0.498223	0.864828	-0.997435	-0.061977	-0.035823
418	3077540													9.958678	-0.736460	0.168610	0.040614	-0.864575	0.500860	-0.061906	0.498133	0.864888	-0.997255	-0.066133	-0.033291
419	3077707													9.910061	-0.593540	0.262051	0.045813	-0.864453	0.500623	-0.061730	0.497741	0.865126	-0.997041	-0.070537	-0.030560
420	3077874													9.923883	-0.525911	0.316604	0.051403	-0.864199	0.500518	-0.061575	0.497485	0.865285	-0.996778	-0.075297	-0.027640
421	3078040													9.895087	-0.563168	0.399034	0.057267	-0.863876	0.500438	-0.061372	0.497267	0.865424	-0.996471	-0.080273	-0.024541
422	3078207													9.877581	-0.521510	0.462832	0.063361	-0.863485	0.500378	-0.061067	0.497092	0.865547	-0.996121	-0.085398	-0.021234
423	3078374													9.826388	-0.534331	0.523704	0.069633	-0.863016	0.500354	-0.060768	0.496970	0.865637	-0.995720	-0.090683	-0.017838
424	3078540													9.807196	-0.532073	0.587110	0.075935	-0.862450	0.500413	-0.060405	0.496961	0.865668	-0.995281	-0.095962	-0.014359
425	3078707													9.832233	-0.529128	0.663151	0.082275	-0.861812	0.500511	-0.060032	0.497016	0.865663	-0.994800	-0.101269	-0.010845
426	3078874													9.890201	-0.526995	0.736911	0.088781	-0.861107	0.500612	-0.059718	0.497091	0.865641	-0.994259	-0.106748	-0.007292
427	3079040													9.928152	-0.523126	0.788660	0.095612	-0.860332	0.500687	-0.059430	0.497160	0.865621	-0.993643	-0.112520	-0.003595
428	3079207													9.977528	-0.506616	0.874712	0.102897	-0.859442	0.500770	-0.059117	0.497269	0.865580	-0.992934	-0.118670	0.000360
429	3079374													9.981085	-0.553325	0.919825	0.110701	-0.858432	0.500840	-0.058868	0.497388	0.865528	-0.992109	-0.125299	0.004527
430	3079540													9.954144	-0.516026	0.999856	0.119106	-0.857310	0.500832	-0.058600	0.497474	0.865497	-0.991151	-0.132435	0.009014
431	3079707													9.836225	-0.517097	1.078812	0.127848	-0.856047	0.500838	-0.058225	0.497633	0.865431	-0.990083	-0.139805	0.013778
432	3079874													9.895088	-0.532696	1.126743	0.136868	-0.854662	0.500819	-0.057691	0.497841	0.865347	-0.988908	-0.147331	0.018833
433	3080040													9.896479	-0.545814	1.196862	0.146316	-0.853148	0.500730	-0.057206	0.498033	0.865269	-0.987583	-0.155247	0.024065
434	3080207													9.872957	-0.523217	1.300942	0.156221	-0.851503	0.500538	-0.056756	0.498184	0.865212	-0.986090	-0.163573	0.029499
435	3080374													9.831647	-0.511064	1.412970	0.166486	-0.849717	0.500263	-0.056348	0.498315	0.865163	-0.984432	-0.172226	0.035083
436	3080540													9.767847	-0.522108	1.481957	0.177079	-0.847795	0.499886	-0.056016	0.498408	0.865131	-0.982601	-0.181198	0.040768
437	3080707													9.717246	-0.515418	1.622921	0.187869	-0.845785	0.499353	-0.055756	0.498402	0.865151	-0.980610	-0.190377	0.046477
438	3080874													9.701257	-0.541681	1.769239	0.198805	-0.843645	0.498738	-0.055519	0.498384	0.865177	-0.978465	-0.199691	0.052243
439	3081040													9.667766	-0.589380	1.931260	0.209832	-0.841406	0.498003	-0.055320	0.498309	0.865233	-0.976171	-0.209103	0.058014
440	3081207													9.564741	-0.575282	2.085889	0.220767	-0.839155	0.497073	-0.055198	0.498081	0.865372	-0.973763	-0.218483	0.063640
441	3081374													9.540471	-0.539914	2.178801	0.231510	-0.836899	0.495987	-0.055085	0.497743	0.865573	-0.971272	-0.227711	0.069132
442	3081540													9.553641	-0.472196	2.328825	0.242056	-0.834600	0.494824	-0.054945	0.497381	0.865790	-0.968705	-0.236758	0.074537
443	3081707													9.482492	-0.400991	2.453522	0.252392	-0.832217	0.493673	-0.054782	0.497083	0.865972	-0.966073	-0.245608	0.079870
444	3081874													9.327682	-0.393957	2.583568	0.262342	-0.829751	0.492636	-0.054707	0.496907	0.866078	-0.963423	-0.254159	0.084967
445	3082040													9.257899	-0.425013	2.722104	0.271487	-0.827337	0.491740	-0.054792	0.496814	0.866126	-0.960881	-0.262086	0.089547
446	3082207													9.365452	-0.479562	2.824774	0.279948	-0.824979	0.490957	-0.055097	0.496756	0.866139	-0.958433	-0.269524	0.093612
447	3082374													9.437467	-0.493090	2.886760	0.288128	-0.822632	0.490161	-0.055599	0.496634	0.866178	-0.955976	-0.276823	0.097357
448	3082540													9.454212	-0.477854	2.918672	0.296179	-0.820270	0.489321	-0.056281	0.496429	0.866251	-0.953473	-0.284105	0.100867
449	3082707													9.438037	-0.466849	2.972881	0.304239	-0.817853	0.488421	-0.056986	0.496182	0.866346	-0.950890	-0.291409	0.104352
450	3082874													9.352972	-0.517343	2.989220	0.312302	-0.815375	0.487475	-0.057623	0.495936	0.866445	-0.948234	-0.298682	0.107897
451	3083040													9.318577	-0.595729	3.078663	0.320235	-0.812971	0.486341	-0.058208	0.495521	0.866643	-0.945548	-0.305839	0.111361
452	3083207													9.405489	-0.606624	3.155681	0.328112	-0.810678	0.484916	-0.058767	0.494823	0.867005	-0.942809	-0.312972	0.114716
453	3083374													9.514051	-0.529713	3.257769	0.336358	-0.808292	0.483247	-0.059267	0.493960	0.867463	-0.939867	-0.320419	0.118242
454	3083540													9.545268	-0.509659	3.315705	0.345177	-0.805624	0.481480	-0.059716	0.493120	0.867910	-0.936636	-0.328334	0.122105
455	3083707													9.416434	-0.534725	3.358647	0.354522	-0.802674	0.479614	-0.060180	0.492279	0.868354	-0.933109	-0.336714	0.126219
456	3083874													9.224659	-0.525597	3.442622	0.363990	-0.799585	0.477677	-0.060622	0.491432	0.868804	-0.929428	-0.345194	0.130403
457	3084040													9.097382	-0.506370	3.511944	0.373214	-0.796503	0.475703	-0.061008	0.490571	0.869263	-0.925737	-0.353443	0.134495
458	3084207													9.089828	-0.522371	3.614126	0.382152	-0.793435	0.473730	-0.061378	0.489714	0.869720	-0.922059	-0.361442	0.138446
459	3084374													9.174019	-0.446802	3.742795	0.390937	-0.790304	0.471793	-0.061717	0.488925	0.870140	-0.918346	-0.369287	0.142364
460	3084540													9.174173	-0.407053	3.850860	0.399889	-0.786850	0.470059	-0.062098	0.488413	0.870400	-0.914457	-0.377254	0.146449
461	3084707													9.041960	-0.468116	3.946707	0.408931	-0.783083	0.468568	-0.062504	0.488222	0.870478	-0.910422	-0.385253	0.150703
462	3084874													8.882476	-0.493674	4.010940	0.417681	-0.779238	0.467259	-0.062924	0.488223	0.870447	-0.906412	-0.392971	0.154889
463	3085040													8.855539	-0.545518	4.122669	0.425946	-0.775454	0.466092	-0.063507	0.488266	0.870381	-0.902517	-0.400335	0.158728
464	3085207													8.918514	-0.575198	4.222395	0.433872	-0.771741	0.464942	-0.064142	0.488276	0.870329	-0.898689	-0.407433	0.162348
465	3085374													8.924377	-0.567911	4.321424	0.441673	-0.768044	0.463717	-0.064713	0.488245	0.870304	-0.894839	-0.414398	0.165942
466	3085540													8.904085	-0.567267	4.362803	0.449471	-0.764309	0.462394	-0.065252	0.488153	0.870315	-0.890909	-0.421354	0.169538
467	3085707													8.836744	-0.569018	4.390389	0.457257	-0.760548	0.460958	-0.065875	0.487929	0.870394	-0.886892	-0.428359	0.173008
468	3085874													8.836088	-0.553643	4.432753	0.465011	-0.756779	0.459401	-0.066718	0.487487	0.870578	-0.882787	-0.435479	0.176196
469	3086040													9.028665	-0.528836	4.596046	0.473001	-0.752802	0.457776	-0.067766	0.486950	0.870797	-0.878452	-0.442909	0.179313
470	3086207													9.005519	-0.625288	4.757908	0.481644	-0.748391	0.455993	-0.069056	0.486294	0.871062	-0.873642	-0.451031	0.182540
471	3086374													8.604609	-0.676895	4.846235	0.490436	-0.743885	0.453991	-0.070461	0.485391	0.871453	-0.868624	-0.459380	0.185639
472	3086540													8.332403	-0.649293	4.962610	0.498616	-0.739658	0.451983	-0.071817	0.484382	0.871904	-0.863843	-0.467205	0.188400
473	3086707													8.469280	-0.642845	4.954159	0.506234	-0.735625	0.450091	-0.073251	0.483343	0.872361	-0.859279	-0.474589	0.190799
474	3086874													8.677639	-0.557634	4.996933	0.513775	-0.731497	0.448271	-0.075019	0.482200	0.872843	-0.854639	-0.482074	0.192866
475	3087040													8.714842	-0.492680	5.126582	0.521548	-0.726940	0.446705	-0.077141	0.481232	0.873192	-0.849728	-0.489871	0.194909
476	3087207													8.423669	-0.521084	5.288226	0.529325	-0.722007	0.445558	-0.079474	0.480657	0.873300	-0.844689	-0.497670	0.197043
477	3087374													8.165157	-0.637909	5.401628	0.536619	-0.717027	0.444874	-0.081737	0.480564	0.873142	-0.839857	-0.504907	0.199272
478	3087540													8.016600	-0.763401	5.464730	0.543131	-0.712317	0.444537	-0.083947	0.480713	0.872850	-0.835441	-0.511390	0.201293
479	3087707													8.133687	-0.779488	5.520092	0.548885	-0.707979	0.444400	-0.086097	0.480933	0.872520	-0.831452	-0.517174	0.203022
480	3087874													8.352080	-0.799785	5.547361	0.554376	-0.703619	0.444508	-0.088172	0.481434	0.872036	-0.827583	-0.522629	0.204856
481	3088040													8.378131	-0.933126	5.592814	0.560010	-0.699108	0.444563	-0.090085	0.482032	0.871510	-0.823573	-0.528103	0.206964
482	3088207													8.263062	-0.976143	5.751253	0.565687	-0.694624	0.444406	-0.091838	0.482500	0.871068	-0.819490	-0.533565	0.209151
483	3088374													7.979521	-1.013793	5.813184	0.571174	-0.690301	0.444123	-0.093508	0.482823	0.870711	-0.815485	-0.538857	0.211227
484	3088540													7.790639	-1.013420	5.894839	0.575945	-0.686580	0.443730	-0.094947	0.482942	0.870490	-0.811956	-0.543485	0.212959
485	3088707													7.941164	-0.990456	5.980025	0.580102	-0.683394	0.443231	-0.096104	0.482923	0.870373	-0.808855	-0.547501	0.214468
486	3088874													8.066618	-0.987566	5.988958	0.584113	-0.680398	0.442573	-0.097153	0.482733	0.870362	-0.805837	-0.551387	0.215868
487	3089040													8.021503	-0.996596	6.023474	0.588113	-0.677517	0.441695	-0.098179	0.482281	0.870497	-0.802798	-0.555316	0.217118
488	3089207													7.908996	-0.965143	6.056623	0.592000	-0.674840	0.440598	-0.099099	0.481590	0.870776	-0.799822	-0.559162	0.218226
489	3089374													7.928661	-0.945998	6.092568	0.595728	-0.672307	0.439444	-0.099915	0.480844	0.871095	-0.796947	-0.562843	0.219279
490	3089540													7.837527	-0.943964	6.065609	0.599355	-0.669854	0.438258	-0.100692	0.480053	0.871441	-0.794125	-0.566432	0.220273
491	3089707													7.918145	-0.931930	6.042790	0.602779	-0.667491	0.437165	-0.101598	0.479222	0.871793	-0.791414	-0.569914	0.221049
492	3089874													8.096210	-0.949105	6.034285	0.606319	-0.665046	0.435994	-0.102635	0.478238	0.872212	-0.788570	-0.573587	0.221708
493	3090041													7.944427	-0.970039	6.032101	0.610132	-0.662417	0.434676	-0.103724	0.477123	0.872694	-0.785481	-0.577545	0.222400
494	3090207													7.748389	-0.971198	6.120284	0.613765	-0.659920	0.433357	-0.104763	0.475975	0.873197	-0.782507	-0.581337	0.223001
495	3090374													7.712946	-1.060505	6.156860	0.617199	-0.657550	0.432080	-0.105905	0.474732	0.873736	-0.779647	-0.585028	0.223366
496	3090541													7.867062	-1.078891	6.245879	0.620463	-0.655243	0.430908	-0.107136	0.473491	0.874259	-0.776883	-0.588611	0.223584
497	3090707													7.819407	-1.165283	6.220583	0.623887	-0.652822	0.429636	-0.108039	0.472424	0.874724	-0.774010	-0.592147	0.224209
498	3090874													7.696200	-1.240491	6.196860	0.627095	-0.650720	0.428153	-0.108388	0.471417	0.875224	-0.771365	-0.595256	0.225093
499	3091041													7.756137	-1.153901	6.212200	0.630206	-0.648959	0.426254	-0.108216	0.470220	0.875890	-0.768849	-0.598119	0.226108
500	3091207													7.816172	-1.051810	6.247925	0.633349	-0.647228	0.424223	-0.107707	0.469126	0.876538	-0.766335	-0.600846	0.227410
501	3091374													7.708049	-0.951508	6.290240	0.636614	-0.645390	0.422130	-0.107163	0.468035	0.877188	-0.763700	-0.603667	0.228796
502	3091541													7.654453	-0.958857	6.362721	0.639716	-0.643555	0.420238	-0.106817	0.467005	0.877779	-0.761153	-0.606418	0.230009
503	3091707													7.600582	-1.007263	6.476593	0.642562	-0.641847	0.418505	-0.106614	0.465979	0.878349	-0.758781	-0.609012	0.230990
504	3091874													7.601723	-0.982184	6.487111	0.645226	-0.640303	0.416769	-0.106356	0.464922	0.878940	-0.756553	-0.611440	0.231880
505	3092041													7.593982	-0.929458	6.472579	0.647623	-0.638974	0.415086	-0.106036	0.463883	0.879528	-0.754547	-0.613617	0.232667
506	3092207													7.696400	-0.882424	6.519157	0.649789	-0.637633	0.413761	-0.105755	0.463208	0.879917	-0.752722	-0.615518	0.233555
507	3092374													7.617770	-0.991330	6.449193	0.651905	-0.636220	0.412605	-0.105531	0.462705	0.880209	-0.750921	-0.617356	0.234499
508	3092541													7.547455	-0.971195	6.363598	0.653965	-0.634941	0.411315	-0.105434	0.461891	0.880648	-0.749142	-0.619279	0.235116
509	3092707													7.765706	-0.885242	6.330782	0.656210	-0.633552	0.409879	-0.105521	0.460805	0.881206	-0.747164	-0.621507	0.235532
510	3092874													7.901369	-0.777336	6.436127	0.658901	-0.631592	0.408584	-0.105785	0.459966	0.881612	-0.744754	-0.624117	0.236259
511	3093041													7.583663	-0.769143	6.708680	0.661626	-0.629113	0.408004	-0.106438	0.459820	0.881610	-0.742241	-0.626724	0.237268
512	3093207													7.288360	-1.095099	6.880352	0.663285	-0.627086	0.408431	-0.107283	0.460450	0.881179	-0.740637	-0.628291	0.238133
513	3093374													7.004157	-1.347089	6.816266	0.664201	-0.625992	0.408622	-0.107606	0.460858	0.880926	-0.739769	-0.629082	0.238742
514	3093541													7.179996	-1.242400	6.811872	0.664564	-0.625811	0.408307	-0.107491	0.460678	0.881034	-0.739459	-0.629393	0.238881
515	3093707													7.761045	-1.050205	6.710494	0.665286	-0.625534	0.407555	-0.107098	0.460284	0.881288	-0.738867	-0.629957	0.239227
516	3093874													7.545480	-0.877090	6.617014	0.666223	-0.624995	0.406851	-0.106556	0.460181	0.881407	-0.738100	-0.630567	0.239986
517	3094041													7.402006	-0.832498	6.619946	0.666648	-0.624726	0.406568	-0.106230	0.460257	0.881407	-0.737764	-0.630778	0.240465
518	3094207													7.586310	-0.751574	6.640956	0.666883	-0.624559	0.406440	-0.106502	0.459951	0.881534	-0.737513	-0.631166	0.240216
519	3094374													7.566547	-0.688416	6.632208	0.667510	-0.623796	0.406581	-0.107248	0.459800	0.881523	-0.736836	-0.632031	0.240020
520	3094541													7.489930	-0.912682	6.612834	0.668277	-0.622764	0.406904	-0.108206	0.459786	0.881413	-0.736001	-0.633057	0.239878
521	3094707													7.437929	-1.053612	6.702023	0.668886	-0.622024	0.407034	-0.109031	0.459542	0.881438	-0.735325	-0.633962	0.239561
522	3094874													7.314506	-1.128462	6.736776	0.669142	-0.621747	0.407038	-0.109631	0.459148	0.881569	-0.735004	-0.634519	0.239072
523	3095041													7.294840	-1.193092	6.645349	0.669277	-0.621847	0.406663	-0.110060	0.458308	0.881953	-0.734816	-0.635028	0.238295
524	3095207													7.337545	-1.105053	6.657135	0.669335	-0.622231	0.405979	-0.110263	0.457189	0.882508	-0.734733	-0.635458	0.237403
525	3095374													7.405819	-1.032155	6.693530	0.669369	-0.622663	0.405260	-0.110212	0.456229	0.883011	-0.734710	-0.635725	0.236760
526	3095541													7.530352	-0.991842	6.797176	0.669292	-0.623121	0.404684	-0.110048	0.455518	0.883398	-0.734805	-0.635786	0.236302
527	3095707													7.534382	-1.003619	6.844372	0.669227	-0.623387	0.404381	-0.109914	0.455174	0.883592	-0.734884	-0.635771	0.236096
528	3095874													7.275815	-1.195253	6.847426	0.668928	-0.623833	0.404187	-0.109751	0.454906	0.883751	-0.735180	-0.635526	0.235833
529	3096041													7.036082	-1.245533	6.904672	0.667834	-0.625156	0.403952	-0.109130	0.454613	0.883978	-0.736266	-0.634434	0.235383
530	3096207													6.976496	-1.286702	6.898335	0.665796	-0.627433	0.403787	-0.107898	0.454520	0.884177	-0.738291	-0.632250	0.234918
531	3096374													7.413948	-1.235976	6.946459	0.663026	-0.630526	0.403527	-0.106191	0.454375	0.884458	-0.741026	-0.629270	0.234307
532	3096541													7.526431	-0.998111	6.877340	0.660445	-0.633568	0.402994	-0.104434	0.453977	0.884872	-0.743576	-0.626496	0.233661
533	3096707													7.296535	-0.757067	6.833817	0.657515	-0.636714	0.402828	-0.102758	0.453873	0.885122	-0.746402	-0.623374	0.233001
534	3096874													7.107722	-0.738928	6.773441	0.653825	-0.640192	0.403321	-0.101144	0.454306	0.885085	-0.749855	-0.619485	0.232285
535	3097041													7.204801	-0.898784	6.776910	0.649277	-0.644179	0.404317	-0.099614	0.455003	0.884901	-0.754000	-0.614822	0.231254
536	3097207													7.683967	-1.108319	6.721458	0.644353	-0.648574	0.405167	-0.098170	0.455281	0.884919	-0.758401	-0.609976	0.229692
537	3097374													7.681104	-1.111128	6.669883	0.639761	-0.652937	0.405437	-0.096754	0.454901	0.885270	-0.762460	-0.605589	0.227854
538	3097541													7.282435	-0.999894	6.586313	0.634790	-0.657705	0.405543	-0.095166	0.454305	0.885748	-0.766802	-0.600858	0.225797
539	3097707													6.996737	-0.921793	6.477126	0.628427	-0.663529	0.405966	-0.093275	0.453850	0.886183	-0.772256	-0.594768	0.223321
540	3097874													6.934641	-0.901500	6.472941	0.620055	-0.670752	0.406968	-0.091045	0.453700	0.886491	-0.779258	-0.586726	0.220250
541	3098041													7.541191	-0.900604	6.451904	0.610070	-0.678985	0.408405	-0.088599	0.453747	0.886715	-0.787378	-0.577143	0.216660
542	3098207													8.110158	-0.856787	6.234176	0.599985	-0.687086	0.409794	-0.086365	0.453613	0.887004	-0.795336	-0.567581	0.212821
543	3098374													8.203554	-0.618636	6.063449	0.590330	-0.694569	0.411198	-0.084489	0.453466	0.887260	-0.802728	-0.558518	0.209011
544	3098541													8.150759	-0.493107	5.905523	0.581046	-0.701224	0.413123	-0.082927	0.453951	0.887159	-0.809635	-0.549739	0.205616
545	3098707													8.029058	-0.558323	5.748054	0.571673	-0.707401	0.415661	-0.081656	0.455038	0.886720	-0.816408	-0.540855	0.202369
546	3098874													8.185090	-0.688820	5.601749	0.561982	-0.713480	0.418476	-0.080897	0.456090	0.886249	-0.823184	-0.531909	0.198596
547	3099041													8.384513	-0.656977	5.533098	0.552307	-0.719316	0.421356	-0.080670	0.456952	0.885826	-0.829728	-0.523239	0.194350
548	3099207													8.545764	-0.636424	5.443744	0.542957	-0.724673	0.424319	-0.080772	0.457876	0.885339	-0.835867	-0.514974	0.190074
549	3099374													8.537727	-0.716176	5.286255	0.534219	-0.729419	0.427268	-0.080926	0.458986	0.884750	-0.841463	-0.507228	0.186170
550	3099541													8.425219	-0.790823	5.124271	0.525702	-0.733925	0.430106	-0.081071	0.460083	0.884167	-0.846797	-0.499678	0.182367
551	3099707													8.487167	-0.796919	5.074244	0.517226	-0.738345	0.432809	-0.081154	0.461118	0.883620	-0.851993	-0.492155	0.178583
552	3099874													8.438169	-0.827583	4.965192	0.508705	-0.742668	0.435504	-0.081149	0.462233	0.883038	-0.857108	-0.484546	0.174874
553	3100041													8.579197	-0.873715	4.893333	0.499883	-0.747094	0.438142	-0.080984	0.463347	0.882469	-0.862298	-0.476614	0.171117
554	3100207													8.764800	-0.823933	4.783805	0.491256	-0.751370	0.440581	-0.080627	0.464425	0.881935	-0.867276	-0.468778	0.167571
555	3100374													8.907594	-0.821072	4.653956	0.483021	-0.755320	0.442924	-0.080076	0.465623	0.881353	-0.871939	-0.461180	0.164423
556	3100541													8.994307	-0.823726	4.533719	0.475448	-0.758891	0.445009	-0.079284	0.466819	0.880792	-0.876164	-0.454053	0.161780
557	3100707													9.029106	-0.798804	4.437613	0.468590	-0.762071	0.446846	-0.078351	0.467972	0.880263	-0.879935	-0.447493	0.159578
558	3100874													8.969222	-0.733312	4.438061	0.462339	-0.764899	0.448522	-0.077406	0.469083	0.879755	-0.883318	-0.441463	0.157667
559	3101041													8.850290	-0.720181	4.361794	0.456296	-0.767571	0.450143	-0.076511	0.470159	0.879259	-0.886533	-0.435643	0.155804
560	3101207													8.827651	-0.706849	4.336994	0.450160	-0.770234	0.451769	-0.075675	0.471202	0.878773	-0.889735	-0.429776	0.153829
561	3101374													9.036338	-0.696682	4.273626	0.444163	-0.772789	0.453340	-0.074864	0.472208	0.878302	-0.892813	-0.424048	0.151883
562	3101541													9.125088	-0.675601	4.219690	0.438602	-0.775081	0.454837	-0.074115	0.473195	0.877835	-0.895620	-0.418731	0.150099
563	3101707													9.018493	-0.660542	4.242608	0.433378	-0.777173	0.456273	-0.073447	0.474145	0.877378	-0.898214	-0.413749	0.148403
564	3101874													8.840080	-0.641693	4.215843	0.428108	-0.779211	0.457769	-0.072825	0.475142	0.876890	-0.900788	-0.408741	0.146666
565	3102041													8.518702	-0.663996	4.230403	0.421865	-0.781603	0.459485	-0.072263	0.476191	0.876367	-0.903775	-0.402912	0.144408
566	3102207													8.589214	-0.680129	4.195716	0.414106	-0.784617	0.461403	-0.071652	0.477237	0.875849	-0.907404	-0.395755	0.141408
567	3102374													8.997363	-0.700204	4.093540	0.405399	-0.788011	0.463346	-0.070960	0.478209	0.875375	-0.911381	-0.387755	0.137949
568	3102541													9.301920	-0.721587	3.992754	0.396874	-0.791290	0.465136	-0.070207	0.479099	0.874948	-0.915184	-0.379900	0.134588
569	3102707													9.427759	-0.708654	3.894362	0.388956	-0.794326	0.466646	-0.069519	0.479781	0.874630	-0.918629	-0.372634	0.131393
570	3102874													9.225088	-0.669193	3.781834	0.381635	-0.797090	0.467976	-0.068859	0.480372	0.874358	-0.921745	-0.365910	0.128440
571	3103041													8.967773	-0.663038	3.769965	0.374197	-0.799836	0.469297	-0.068214	0.480951	0.874090	-0.924837	-0.359094	0.125411
572	3103207													8.827569	-0.634857	3.701014	0.365886	-0.802875	0.470658	-0.067515	0.481493	0.873845	-0.928208	-0.351504	0.121965
573	3103374													9.039869	-0.646954	3.605273	0.356647	-0.806172	0.472111	-0.066701	0.482081	0.873584	-0.931855	-0.343051	0.118160
574	3103541													9.411508	-0.609515	3.469435	0.347395	-0.809399	0.473487	-0.065753	0.482666	0.873333	-0.935411	-0.334525	0.114455
575	3103707													9.559135	-0.617347	3.352241	0.338802	-0.812315	0.474718	-0.064834	0.483202	0.873105	-0.938621	-0.326587	0.111044
576	3103874													9.534509	-0.615599	3.306917	0.330889	-0.814921	0.475832	-0.063991	0.483699	0.872892	-0.941498	-0.319279	0.107903
577	3104041													9.273913	-0.627846	3.194006	0.323256	-0.817344	0.476921	-0.063129	0.484231	0.872660	-0.944203	-0.312200	0.104933
578	3104207													9.126083	-0.565117	3.136566	0.315062	-0.819862	0.478081	-0.062132	0.484838	0.872394	-0.947035	-0.304562	0.101814
579	3104374													9.370806	-0.542908	2.980699	0.306409	-0.822400	0.479344	-0.060988	0.485570	0.872068	-0.949944	-0.296444	0.098627
580	3104541													9.553343	-0.533567	2.851602	0.297899	-0.824770	0.480636	-0.059853	0.486367	0.871702	-0.952719	-0.288447	0.095523
581	3104707													9.650596	-0.478898	2.770292	0.289867	-0.826904	0.481879	-0.058711	0.487184	0.871324	-0.955265	-0.280859	0.092670
582	3104874													9.788531	-0.498576	2.698198	0.282558	-0.828679	0.483170	-0.057627	0.488121	0.870871	-0.957518	-0.273915	0.090169
583	3105041													9.751619	-0.594095	2.625462	0.276150	-0.830158	0.484333	-0.056511	0.489032	0.870433	-0.959452	-0.267741	0.088133
584	3105207													9.559263	-0.632301	2.571584	0.270315	-0.831580	0.485185	-0.055420	0.489671	0.870144	-0.961175	-0.262102	0.086279
585	3105374													9.456944	-0.604161	2.538224	0.264483	-0.833114	0.485768	-0.054389	0.490017	0.870014	-0.962856	-0.256524	0.084289
586	3105541													9.516868	-0.551728	2.512769	0.258537	-0.834743	0.486172	-0.053330	0.490181	0.869987	-0.964528	-0.250851	0.082213
587	3105707													9.646693	-0.457076	2.472317	0.252720	-0.836311	0.486536	-0.052220	0.490336	0.869968	-0.966129	-0.245266	0.080246
588	3105874													9.678401	-0.392608	2.466327	0.247200	-0.837710	0.486965	-0.051101	0.490592	0.869890	-0.967616	-0.239921	0.078467
589	3106041													9.632641	-0.337421	2.452467	0.241925	-0.838892	0.487579	-0.049977	0.491065	0.869688	-0.969007	-0.234767	0.076876
590	3106207													9.504528	-0.321878	2.411666	0.236607	-0.839887	0.488474	-0.048939	0.491809	0.869327	-0.970372	-0.229594	0.075263
591	3106374													9.284320	-0.279118	2.380084	0.230632	-0.840840	0.489690	-0.048082	0.492794	0.868816	-0.971852	-0.223922	0.073225
592	3106541													9.312135	-0.266208	2.311508	0.223543	-0.841837	0.491263	-0.047294	0.494056	0.868143	-0.973546	-0.217301	0.070629
593	3106708													9.518382	-0.254814	2.247497	0.215819	-0.842708	0.493220	-0.046559	0.495668	0.867263	-0.975323	-0.210136	0.067739
594	3106874													9.543057	-0.297644	2.151695	0.208001	-0.843367	0.495447	-0.045944	0.497542	0.866222	-0.977049	-0.202938	0.064741
595	3107041													9.512228	-0.304647	2.126751	0.199659	-0.843962	0.497859	-0.045524	0.499551	0.865087	-0.978807	-0.195387	0.061320
596	3107208													9.627285	-0.330186	2.042055	0.190901	-0.844496	0.500384	-0.045317	0.501633	0.863893	-0.980563	-0.187594	0.057492
597	3107374													9.872423	-0.353671	1.874645	0.182221	-0.844889	0.502949	-0.045135	0.503786	0.862648	-0.982221	-0.179893	0.053667
598	3107541													9.979372	-0.406233	1.792755	0.174186	-0.845081	0.505468	-0.044911	0.505963	0.861385	-0.983688	-0.172742	0.050178
599	3107708													9.990925	-0.474526	1.709408	0.166963	-0.845139	0.507803	-0.044627	0.508027	0.860185	-0.984953	-0.166280	0.047105
600	3107874													9.831491	-0.542533	1.646629	0.160376	-0.845179	0.509854	-0.044246	0.509865	0.859116	-0.986064	-0.160341	0.044374
601	3108041													9.631241	-0.559676	1.560355	0.153854	-0.845378	0.511532	-0.043656	0.511375	0.858248	-0.987129	-0.154376	0.041771
602	3108208													9.604502	-0.538956	1.454857	0.147031	-0.845791	0.512855	-0.042846	0.512557	0.857584	-0.988204	-0.148065	0.039123
603	3108374													9.716801	-0.528362	1.366608	0.140007	-0.846396	0.513821	-0.041868	0.513407	0.857123	-0.989265	-0.141516	0.036444
604	3108541													9.857744	-0.525215	1.314135	0.133155	-0.847136	0.514423	-0.040788	0.513921	0.856867	-0.990256	-0.135079	0.033878
605	3108708													9.749444	-0.480871	1.240883	0.126613	-0.847946	0.514739	-0.039622	0.514178	0.856768	-0.991161	-0.128873	0.031505
606	3108874													9.534791	-0.449133	1.201648	0.119799	-0.848875	0.514840	-0.038337	0.514232	0.856794	-0.992058	-0.122380	0.029061
607	3109041													9.553038	-0.363718	1.157048	0.112282	-0.849960	0.514743	-0.037010	0.514082	0.856942	-0.992987	-0.115270	0.026265
608	3109208													9.775854	-0.326118	1.079918	0.104394	-0.851055	0.514594	-0.035648	0.513887	0.857117	-0.993897	-0.107822	0.023308
609	3109374													9.955124	-0.291099	0.978434	0.096831	-0.852045	0.514435	-0.034311	0.513699	0.857284	-0.994709	-0.100662	0.020507
610	3109541													9.944483	-0.304863	0.885822	0.089728	-0.852903	0.514301	-0.033054	0.513549	0.857423	-0.995418	-0.093934	0.017888
611	3109708													9.862113	-0.336981	0.869320	0.082967	-0.853668	0.514166	-0.031992	0.513397	0.857555	-0.996039	-0.087598	0.015285
612	3109874													9.742707	-0.287691	0.816391	0.076234	-0.854398	0.513996	-0.031174	0.513202	0.857701	-0.996603	-0.081409	0.012489
613	3110041													9.754006	-0.220552	0.736073	0.069306	-0.855078	0.513847	-0.030378	0.513038	0.857828	-0.997133	-0.075062	0.009581
614	3110208													9.885232	-0.202127	0.650970	0.062335	-0.855591	0.513885	-0.029497	0.513082	0.857833	-0.997619	-0.068631	0.006746
615	3110374													9.874725	-0.243977	0.550747	0.055696	-0.855941	0.514065	-0.028611	0.513285	0.857741	-0.998038	-0.062481	0.004099
616	3110541													9.737637	-0.257502	0.507980	0.049112	-0.856255	0.514213	-0.027833	0.513461	0.857661	-0.998405	-0.056433	0.001385
617	3110708													9.550264	-0.273586	0.489489	0.042183	-0.856550	0.514336	-0.027193	0.513620	0.857587	-0.998740	-0.050162	-0.001627
618	3110874													9.494135	-0.260340	0.447432	0.034323	-0.856873	0.514384	-0.026631	0.513721	0.857544	-0.999056	-0.043132	-0.005187
619	3111041													9.556706	-0.232354	0.409560	0.025641	-0.857164	0.514405	-0.026002	0.513828	0.857499	-0.999333	-0.035363	-0.009113
620	3111208													9.755040	-0.223102	0.300903	0.016481	-0.857360	0.514454	-0.025211	0.514004	0.857417	-0.999546	-0.027101	-0.013144
621	3111374													9.895531	-0.248291	0.173026	0.007392	-0.857449	0.514516	-0.024289	0.514224	0.857312	-0.999678	-0.018835	-0.017025
622	3111541													9.928187	-0.288408	0.037025	-0.001370	-0.857514	0.514459	-0.023320	0.514347	0.857265	-0.999727	-0.010823	-0.020702
623	3111708													9.766559	-0.299028	-0.088141	-0.009853	-0.857599	0.514224	-0.022355	0.514309	0.857313	-0.999702	-0.003049	-0.024239
624	3111874													9.670740	-0.256406	-0.145786	-0.018687	-0.857702	0.513808	-0.021302	0.514122	0.857452	-0.999598	0.005078	-0.027878
625	3112041													9.815297	-0.201549	-0.231631	-0.027694	-0.857777	0.513276	-0.020141	0.513847	0.857645	-0.999414	0.013414	-0.031507
626	3112208													10.019313	-0.186456	-0.357944	-0.036299	-0.857786	0.512724	-0.018900	0.513559	0.857846	-0.999162	0.021449	-0.034854
627	3112374													9.995011	-0.192952	-0.413003	-0.044183	-0.857778	0.512118	-0.017666	0.513209	0.858082	-0.998867	0.028865	-0.037829
628	3112541													9.883020	-0.157490	-0.517926	-0.051604	-0.857757	0.511459	-0.016582	0.512806	0.858344	-0.998530	0.035813	-0.040686
629	3112708													9.788354	-0.112456	-0.583094	-0.058833	-0.857662	0.510837	-0.015446	0.512444	0.858582	-0.998148	0.042623	-0.043396
630	3112874													9.884047	-0.067073	-0.685944	-0.065989	-0.857513	0.510213	-0.014305	0.512088	0.858814	-0.997718	0.049373	-0.046059
631	3113041													9.876551	-0.060500	-0.769878	-0.072694	-0.857260	0.509726	-0.013192	0.511860	0.858967	-0.997267	0.055717	-0.048518
632	3113208													9.814345	-0.074985	-0.856129	-0.079112	-0.856923	0.509337	-0.012187	0.511731	0.859059	-0.996791	0.061754	-0.050927
633	3113374													9.703394	-0.054362	-0.878619	-0.085482	-0.856531	0.508966	-0.011343	0.511640	0.859125	-0.996275	0.067666	-0.053452
634	3113541													9.737915	-0.011573	-0.911590	-0.091977	-0.856063	0.508623	-0.010649	0.511604	0.859155	-0.995704	0.073606	-0.056172
635	3113708													9.854130	-0.008469	-0.978095	-0.098315	-0.855513	0.508361	-0.009991	0.511659	0.859131	-0.995105	0.079386	-0.058851
636	3113874													9.904047	-0.052566	-1.037285	-0.104249	-0.854954	0.508120	-0.009348	0.511724	0.859099	-0.994507	0.084811	-0.061339
637	3114041													9.864914	-0.085666	-1.168485	-0.109683	-0.854429	0.507859	-0.008745	0.511752	0.859089	-0.993928	0.089786	-0.063602
638	3114208													9.663371	-0.107071	-1.176599	-0.114916	-0.853956	0.507497	-0.008274	0.511687	0.859132	-0.993341	0.094529	-0.065867
639	3114374													9.636140	-0.063955	-1.240411	-0.120360	-0.853524	0.506962	-0.007841	0.511476	0.859262	-0.992699	0.099446	-0.068254
640	3114541													9.787602	-0.056884	-1.287884	-0.125788	-0.853103	0.506352	-0.007396	0.511199	0.859431	-0.992030	0.104361	-0.070612
641	3114708													9.974367	-0.068446	-1.342904	-0.130703	-0.852759	0.505687	-0.006864	0.510828	0.859655	-0.991398	0.108888	-0.072620
642	3114874													9.960008	-0.062814	-1.424449	-0.134789	-0.852545	0.504974	-0.006460	0.510370	0.859931	-0.990853	0.112647	-0.074300
643	3115041													9.824261	-0.057173	-1.459552	-0.138382	-0.852455	0.504154	-0.006298	0.509799	0.860271	-0.990359	0.115871	-0.075916
644	3115208													9.759100	0.001846	-1.492537	-0.141750	-0.852442	0.503239	-0.006450	0.509157	0.860649	-0.989881	0.118751	-0.077672
645	3115374													9.785404	0.046288	-1.528878	-0.144852	-0.852445	0.502350	-0.006712	0.508539	0.861013	-0.989431	0.121347	-0.079384
646	3115541													9.856784	0.032788	-1.544530	-0.147460	-0.852473	0.501544	-0.007023	0.507977	0.861342	-0.989043	0.123491	-0.080893
647	3115708													9.825152	0.007685	-1.611490	-0.149528	-0.852533	0.500829	-0.007316	0.507463	0.861642	-0.988730	0.125175	-0.082117
648	3115874													9.753583	-0.014797	-1.635644	-0.151235	-0.852617	0.500173	-0.007778	0.507004	0.861909	-0.988467	0.126460	-0.083308
649	3116041													9.711558	-0.044464	-1.634254	-0.152693	-0.852737	0.499525	-0.008465	0.506562	0.862162	-0.988237	0.127417	-0.084567
650	3116208													9.652391	-0.032454	-1.575567	-0.154092	-0.852902	0.498813	-0.009366	0.506081	0.862435	-0.988012	0.128222	-0.085972
651	3116374													9.719026	-0.041233	-1.566694	-0.155402	-0.853061	0.498133	-0.010293	0.505630	0.862689	-0.987798	0.128936	-0.087357
652	3116541													9.821099	-0.037101	-1.537407	-0.156379	-0.853238	0.497525	-0.011139	0.505214	0.862922	-0.987634	0.129401	-0.088509
653	3116708													9.893745	-0.071370	-1.552484	-0.156761	-0.853447	0.497045	-0.011810	0.504851	0.863126	-0.987566	0.129434	-0.089220
654	3116874													9.920377	-0.114394	-1.554793	-0.156508	-0.853716	0.496664	-0.012304	0.504507	0.863320	-0.987600	0.129006	-0.089463
655	3117041													9.934191	-0.134615	-1.555009	-0.155496	-0.854081	0.496354	-0.012703	0.504153	0.863521	-0.987755	0.127969	-0.089244
656	3117208													9.905179	-0.156475	-1.524494	-0.153798	-0.854541	0.496091	-0.012973	0.503767	0.863742	-0.988017	0.126406	-0.088564
657	3117374													9.945002	-0.133778	-1.478452	-0.151390	-0.855098	0.495871	-0.013109	0.503345	0.863986	-0.988387	0.124299	-0.087411
658	3117541													10.022224	-0.126384	-1.452185	-0.148007	-0.855781	0.495714	-0.013000	0.502875	0.864261	-0.988901	0.121472	-0.085554
659	3117708													10.044011	-0.141193	-1.469874	-0.143582	-0.856594	0.495612	-0.012688	0.502353	0.864570	-0.989557	0.117849	-0.082997
660	3117874													10.050370	-0.174169	-1.521671	-0.138166	-0.857519	0.495552	-0.012232	0.501790	0.864903	-0.990334	0.113439	-0.079819
661	3118041													9.988190	-0.199719	-1.566128	-0.131939	-0.858577	0.495417	-0.011808	0.501112	0.865302	-0.991188	0.108317	-0.076254
662	3118208													9.831017	-0.161026	-1.532307	-0.125122	-0.859782	0.495095	-0.011490	0.500239	0.865811	-0.992075	0.102644	-0.072470
663	3118374													9.854601	-0.077222	-1.477726	-0.117962	-0.860996	0.494742	-0.011266	0.499349	0.866328	-0.992954	0.096620	-0.068604
664	3118541													9.963134	-0.053617	-1.415102	-0.110126	-0.862197	0.494458	-0.011141	0.498524	0.866805	-0.993855	0.089949	-0.064506
665	3118708													10.046718	-0.034101	-1.370135	-0.101466	-0.863385	0.494237	-0.011098	0.497753	0.867248	-0.994777	0.082511	-0.060087
666	3118874													10.084247	0.003038	-1.293910	-0.091889	-0.864488	0.494183	-0.011200	0.497148	0.867593	-0.995706	0.074188	-0.055365
667	3119041													10.003862	-0.023759	-1.198722	-0.081304	-0.865498	0.494270	-0.011487	0.496693	0.867850	-0.996623	0.064882	-0.050326
668	3119208													9.928942	-0.005089	-1.098788	-0.070069	-0.866365	0.494472	-0.011966	0.496385	0.868020	-0.997470	0.054904	-0.045148
669	3119374													9.878637	0.003772	-0.937345	-0.058337	-0.867031	0.494827	-0.012668	0.496274	0.868073	-0.998217	0.044372	-0.039935
670	3119541													9.862368	-0.007730	-0.776426	-0.046281	-0.867438	0.495388	-0.013536	0.496419	0.867978	-0.998837	0.033465	-0.034716
671	3119708													9.910258	-0.045222	-0.630026	-0.033862	-0.867575	0.496153	-0.014429	0.496810	0.867739	-0.999322	0.022224	-0.029342
672	3119874													9.992212	-0.058673	-0.432733	-0.020988	-0.867428	0.497120	-0.015243	0.497449	0.867359	-0.999664	0.010627	-0.023663
673	3120041													9.994637	-0.056021	-0.198768	-0.007444	-0.867000	0.498252	-0.016036	0.498305	0.866853	-0.999844	-0.001538	-0.017613
674	3120208													9.843433	-0.082150	-0.041524	0.006639	-0.866275	0.499523	-0.016806	0.499366	0.866228	-0.999837	-0.014145	-0.011243
675	3120374													9.622801	-0.125083	0.132001	0.020662	-0.865275	0.500871	-0.017527	0.500587	0.865509	-0.999633	-0.026662	-0.004823
676	3120541													9.546575	-0.174060	0.286442	0.034126	-0.864078	0.502200	-0.018166	0.501873	0.864750	-0.999252	-0.038633	0.001430
677	3120708													9.581303	-0.193182	0.431304	0.046907	-0.862735	0.503477	-0.018752	0.503182	0.863977	-0.998723	-0.049967	0.007425
678	3120874													9.690620	-0.238508	0.602898	0.059107	-0.861311	0.504628	-0.019356	0.504428	0.863237	-0.998064	-0.060791	0.013144
679	3121041													9.733516	-0.293732	0.738138	0.071087	-0.859854	0.505568	-0.020147	0.505509	0.862586	-0.997267	-0.071504	0.018611
680	3121208													9.665803	-0.293734	0.829460	0.082834	-0.858413	0.506227	-0.021068	0.506350	0.862070	-0.996341	-0.082074	0.023858
681	3121374													9.617210	-0.280083	0.911510	0.094239	-0.857016	0.506600	-0.022015	0.506946	0.861697	-0.995306	-0.092358	0.028907
682	3121541													9.609028	-0.275211	0.993590	0.105137	-0.855712	0.506658	-0.022857	0.507268	0.861485	-0.994195	-0.102155	0.033773
683	3121708													9.746513	-0.259384	1.103033	0.115779	-0.854403	0.506548	-0.023498	0.507479	0.861344	-0.992997	-0.111628	0.038678
684	3121874													9.813952	-0.346739	1.209592	0.126528	-0.853088	0.506193	-0.024121	0.507498	0.861315	-0.991670	-0.121190	0.043635
685	3122041													9.839727	-0.366658	1.360994	0.137548	-0.851787	0.505510	-0.024863	0.507231	0.861452	-0.990183	-0.131059	0.048591
686	3122208													9.746861	-0.351017	1.448969	0.148722	-0.850550	0.504427	-0.025706	0.506602	0.861797	-0.988545	-0.141135	0.053479
687	3122374													9.653417	-0.320117	1.552070	0.159797	-0.849326	0.503100	-0.026475	0.505779	0.862257	-0.986795	-0.151105	0.058335
688	3122541													9.629552	-0.298631	1.645999	0.170618	-0.848137	0.501551	-0.027148	0.504775	0.862824	-0.984963	-0.160829	0.063098
689	3122708													9.650123	-0.279005	1.714659	0.181303	-0.846923	0.499851	-0.027724	0.503670	0.863451	-0.983036	-0.170404	0.067837
690	3122874													9.692052	-0.244825	1.836257	0.191955	-0.845619	0.498079	-0.028225	0.502550	0.864087	-0.980998	-0.179924	0.072599
691	3123041													9.686798	-0.263578	1.944138	0.202804	-0.844156	0.496258	-0.028748	0.501438	0.864716	-0.978797	-0.189634	0.077426
692	3123208													9.602098	-0.263436	2.045438	0.213704	-0.842541	0.494425	-0.029215	0.500378	0.865314	-0.976462	-0.199366	0.082318
693	3123375													9.574366	-0.243039	2.111103	0.224497	-0.840802	0.492598	-0.029634	0.499376	0.865878	-0.974024	-0.208985	0.087192
694	3123541													9.609303	-0.256324	2.235473	0.235185	-0.838932	0.490795	-0.030093	0.498432	0.866406	-0.971485	-0.218536	0.091978
695	3123708													9.744555	-0.240478	2.316664	0.246132	-0.836834	0.489008	-0.030671	0.497552	0.866892	-0.968751	-0.228368	0.096796
696	3123875													9.832110	-0.230394	2.448909	0.257723	-0.834407	0.487179	-0.031433	0.496704	0.867350	-0.965707	-0.238850	0.101784
697	3124041													9.748923	-0.244913	2.570632	0.270137	-0.831564	0.485312	-0.032281	0.495946	0.867753	-0.962281	-0.250078	0.107130
698	3124208													9.413429	-0.259388	2.703945	0.282934	-0.828378	0.483464	-0.033142	0.495316	0.868081	-0.958567	-0.261632	0.112688
699	3124375													9.257107	-0.309048	2.826632	0.295322	-0.825109	0.481642	-0.034062	0.494714	0.868388	-0.954790	-0.272860	0.117996
700	3124541													9.259327	-0.289837	2.922898	0.307230	-0.821837	0.479786	-0.035025	0.494063	0.868720	-0.950991	-0.283701	0.123006
701	3124708													9.276196	-0.229436	3.054912	0.318824	-0.818484	0.477949	-0.036001	0.493444	0.869032	-0.947130	-0.294275	0.127856
702	3124875													9.359208	-0.210856	3.193677	0.330255	-0.814898	0.476312	-0.037027	0.493053	0.869211	-0.943165	-0.304698	0.132660
703	3125041													9.456194	-0.240359	3.330486	0.341920	-0.811003	0.474726	-0.038237	0.492749	0.869331	-0.938951	-0.315394	0.137470
704	3125208													9.413260	-0.226018	3.414042	0.354065	-0.806701	0.473150	-0.039733	0.492491	0.869410	-0.934376	-0.326628	0.142321
705	3125375													8.988883	-0.278545	3.487143	0.366055	-0.802198	0.471681	-0.041472	0.492294	0.869440	-0.929669	-0.337825	0.146938
706	3125541													8.809068	-0.336778	3.634044	0.376965	-0.797874	0.470419	-0.043299	0.492151	0.869432	-0.925215	-0.348114	0.150977
707	3125708													8.896622	-0.397624	3.719338	0.386989	-0.793739	0.469275	-0.045211	0.491983	0.869430	-0.920975	-0.357676	0.154506
708	3125875													8.942480	-0.447886	3.821635	0.396429	-0.789774	0.468083	-0.047216	0.491644	0.869515	-0.916850	-0.366802	0.157612
709	3126041													9.085591	-0.440350	3.966189	0.405600	-0.785855	0.466819	-0.049257	0.491181	0.869664	-0.912723	-0.375730	0.160514
710	3126208													9.089062	-0.464473	4.069789	0.414879	-0.781784	0.465499	-0.051305	0.490692	0.869821	-0.908429	-0.384753	0.163468
711	3126375													8.942474	-0.534302	4.110815	0.424196	-0.777591	0.464123	-0.053403	0.490148	0.870002	-0.903995	-0.393836	0.166393
712	3126541													8.769870	-0.544672	4.216631	0.433046	-0.773523	0.462745	-0.055495	0.489525	0.870221	-0.899662	-0.402526	0.169061
713	3126708													8.806366	-0.563736	4.169083	0.441390	-0.769656	0.461307	-0.057664	0.488705	0.870541	-0.895460	-0.410849	0.171328
714	3126875													8.961444	-0.556005	4.175844	0.449519	-0.765822	0.459837	-0.060079	0.487693	0.870945	-0.891248	-0.419133	0.173218
715	3127041													9.309291	-0.525053	4.239548	0.458287	-0.761653	0.458102	-0.062897	0.486330	0.871508	-0.886576	-0.428214	0.174973
716	3127208													9.186880	-0.544328	4.545912	0.468131	-0.756823	0.456149	-0.065999	0.484817	0.872122	-0.881191	-0.438373	0.177008
717	3127375													8.389230	-0.662034	4.742481	0.478084	-0.751757	0.454198	-0.069040	0.483361	0.872695	-0.875596	-0.448580	0.179186
718	3127541													8.073375	-0.784714	4.910339	0.486531	-0.747367	0.452471	-0.071792	0.481949	0.873253	-0.870708	-0.457349	0.180828
719	3127708													8.358318	-0.784972	4.907533	0.493875	-0.743597	0.450722	-0.074313	0.480358	0.873918	-0.866351	-0.465101	0.181978
720	3127875													8.804200	-0.729701	4.853726	0.501002	-0.739893	0.448949	-0.076507	0.478854	0.874555	-0.862058	-0.472502	0.183300
721	3128041													9.072929	-0.717020	4.800852	0.509004	-0.735541	0.447095	-0.078145	0.477784	0.874995	-0.857210	-0.480314	0.185715
722	3128208													8.833799	-0.833703	4.892157	0.518032	-0.730393	0.445162	-0.079343	0.477162	0.875226	-0.851673	-0.488716	0.189233
723	3128375													8.471757	-1.000804	4.947646	0.527652	-0.724868	0.442888	-0.080426	0.476403	0.875541	-0.845645	-0.497601	0.193077
724	3128541													8.194143	-0.991849	5.025005	0.537075	-0.719587	0.440164	-0.081316	0.475213	0.876105	-0.839606	-0.506326	0.196711
725	3128708													8.292726	-0.893584	5.048129	0.546202	-0.714510	0.437194	-0.081995	0.473815	0.876799	-0.833631	-0.514757	0.200213
726	3128875													8.611570	-0.867649	5.075506	0.555660	-0.709203	0.433904	-0.082223	0.472456	0.877510	-0.827334	-0.523274	0.204212
727	3129041													8.707778	-0.895477	5.178336	0.566264	-0.703179	0.429982	-0.081997	0.471032	0.878297	-0.820135	-0.532605	0.209070
728	3129208													8.589794	-0.871122	5.412078	0.578124	-0.696354	0.425281	-0.081547	0.469291	0.879270	-0.811864	-0.543007	0.214523
729	3129375													7.805794	-0.874272	5.614298	0.590557	-0.688965	0.420202	-0.081111	0.467387	0.880324	-0.802910	-0.553964	0.220136
730	3129541													7.353895	-0.855885	5.842846	0.601780	-0.682254	0.415200	-0.080663	0.465292	0.881474	-0.794578	-0.563945	0.224971
731	3129708													7.739844	-0.689288	6.046250	0.611894	-0.676120	0.410424	-0.080355	0.463081	0.882666	-0.786848	-0.573077	0.229027
732	3129875													8.143992	-0.523080	6.371087	0.621951	-0.669529	0.406089	-0.080286	0.461340	0.883584	-0.778930	-0.582149	0.233177
733	3130041													7.627020	-0.580535	6.838812	0.631821	-0.662488	0.402384	-0.080570	0.460183	0.884161	-0.770916	-0.591051	0.237376
734	3130208													6.774178	-0.602419	7.131214	0.640202	-0.656219	0.399397	-0.081133	0.459244	0.884598	-0.763911	-0.598725	0.240768
735	3130375													6.518362	-0.564774	7.252553	0.645701	-0.651815	0.397753	-0.081952	0.458734	0.884786	-0.759180	-0.603904	0.242788
736	3130541													7.043592	-0.669652	7.137290	0.649205	-0.648690	0.397158	-0.083179	0.458474	0.884806	-0.756052	-0.607456	0.243686
737	3130708													7.527852	-0.726410	6.988545	0.651862	-0.646038	0.397127	-0.084618	0.458445	0.884685	-0.753602	-0.610297	0.244177
738	3130875													7.672661	-0.931893	6.875942	0.654551	-0.643301	0.397148	-0.086018	0.458534	0.884504	-0.751108	-0.613115	0.244799
739	3131041													7.470108	-1.029710	6.852211	0.657225	-0.640791	0.396790	-0.087125	0.458338	0.884497	-0.748642	-0.615884	0.245402
740	3131208													7.213987	-1.062046	6.844169	0.659339	-0.638989	0.396188	-0.087822	0.457890	0.884660	-0.746699	-0.618085	0.245788
741	3131375													7.346051	-0.969369	6.753744	0.660927	-0.637795	0.395466	-0.088204	0.457298	0.884928	-0.745248	-0.619755	0.245985
742	3131541													7.401408	-0.876796	6.638031	0.662355	-0.636734	0.394786	-0.088437	0.456815	0.885155	-0.743952	-0.621200	0.246263
743	3131708													7.521433	-0.798820	6.478204	0.663853	-0.635506	0.394248	-0.088744	0.456502	0.885286	-0.742580	-0.622686	0.246653
744	3131875													7.705312	-0.795377	6.346651	0.665689	-0.633894	0.393748	-0.089072	0.456380	0.885315	-0.740894	-0.624416	0.247345
745	3132041													7.927692	-0.823111	6.166031	0.668280	-0.631629	0.392996	-0.089502	0.456180	0.885375	-0.738506	-0.626853	0.248324
746	3132208													7.902583	-0.864546	6.033270	0.671945	-0.628562	0.391663	-0.089687	0.455890	0.885506	-0.735151	-0.630138	0.249959
747	3132375													7.774784	-0.913300	5.998278	0.676659	-0.624816	0.389535	-0.089627	0.455215	0.885859	-0.730821	-0.634337	0.252025
748	3132541													7.778795	-0.853731	6.110586	0.682511	-0.620277	0.386568	-0.089608	0.453905	0.886533	-0.725361	-0.639708	0.254213
749	3132708													7.579579	-0.847165	6.315010	0.689272	-0.614998	0.382989	-0.089675	0.452139	0.887428	-0.718931	-0.646024	0.256497
750	3132875													7.435060	-0.779290	6.681510	0.696534	-0.609303	0.378932	-0.089675	0.450048	0.888490	-0.711898	-0.652845	0.258835
751	3133041													7.206435	-0.591416	7.143565	0.703963	-0.603132	0.375058	-0.089821	0.448233	0.889393	-0.704534	-0.659787	0.261366
752	3133208													6.719755	-0.623968	7.555152	0.710851	-0.596870	0.372071	-0.090517	0.446970	0.889958	-0.697494	-0.666306	0.263702
753	3133375													6.304942	-0.747161	7.771297	0.716269	-0.591653	0.370007	-0.091567	0.445958	0.890358	-0.691790	-0.671616	0.265250
754	3133541													6.380459	-0.836578	7.804432	0.720107	-0.587700	0.368856	-0.092582	0.445462	0.890501	-0.687659	-0.675405	0.266370
755	3133708													6.634514	-0.969633	7.765543	0.722938	-0.584629	0.368197	-0.093566	0.445162	0.890548	-0.684548	-0.678262	0.267124
756	3133875													6.952373	-0.899164	7.735653	0.725447	-0.581784	0.367767	-0.094505	0.445072	0.890494	-0.681759	-0.680763	0.267895
757	3134041													6.748537	-0.976101	7.731920	0.727902	-0.578806	0.367617	-0.095296	0.445536	0.890178	-0.679027	-0.682994	0.269149
758	3134208													6.607424	-1.091641	7.743654	0.729892	-0.576362	0.367512	-0.095901	0.445983	0.889889	-0.676802	-0.684768	0.270246
759	3134375													6.412047	-1.026847	7.719544	0.731208	-0.574796	0.367347	-0.096285	0.446153	0.889762	-0.675325	-0.685971	0.270887
760	3134541													6.562572	-0.959027	7.714815	0.731809	-0.574009	0.367383	-0.096449	0.446415	0.889613	-0.674651	-0.686460	0.271328
761	3134708													6.626082	-1.019254	7.733729	0.731918	-0.573727	0.367604	-0.096476	0.446800	0.889417	-0.674528	-0.686445	0.271670
762	3134875													6.781961	-1.081838	7.694140	0.731677	-0.573958	0.367723	-0.096350	0.446961	0.889349	-0.674807	-0.686147	0.271731
763	3135041													6.732628	-1.022148	7.691556	0.731171	-0.574590	0.367743	-0.096074	0.446957	0.889381	-0.675395	-0.685621	0.271599
764	3135208													6.640524	-0.987500	7.669890	0.730249	-0.575653	0.367913	-0.095686	0.447041	0.889381	-0.676447	-0.684674	0.271369
765	3135375													6.523918	-1.011460	7.619029	0.728754	-0.577347	0.368222	-0.095082	0.447205	0.889363	-0.678142	-0.683139	0.271007
766	3135541													6.499512	-1.039638	7.577597	0.726474	-0.579883	0.368744	-0.094277	0.447418	0.889342	-0.680696	-0.680848	0.270368
767	3135708													6.898557	-0.972452	7.487481	0.723724	-0.582968	0.369285	-0.093296	0.447558	0.889375	-0.683754	-0.678115	0.269520
768	3135875													7.031039	-0.940217	7.504190	0.721019	-0.585976	0.369815	-0.092249	0.447782	0.889371	-0.686747	-0.675369	0.268804
769	3136041													6.970457	-0.953658	7.454116	0.718308	-0.588888	0.370466	-0.091127	0.448264	0.889244	-0.689731	-0.672511	0.268328
770	3136208													6.633458	-0.981385	7.433565	0.715168	-0.592178	0.371294	-0.089788	0.448977	0.889021	-0.693161	-0.669137	0.267923
771	3136375													6.392681	-1.018445	7.413558	0.710992	-0.596475	0.372435	-0.088143	0.449857	0.888740	-0.697654	-0.664715	0.267269
772	3136541													6.769980	-0.989434	7.416278	0.705732	-0.601830	0.373824	-0.086276	0.450711	0.888491	-0.703207	-0.659288	0.266158
773	3136708													7.046649	-0.828867	7.259192	0.700587	-0.607119	0.374945	-0.084370	0.451289	0.888381	-0.708561	-0.654022	0.264945
774	3136875													7.149604	-0.605759	7.181791	0.695522	-0.612171	0.376160	-0.082746	0.451804	0.888271	-0.713724	-0.648938	0.263585
775	3137041													7.003828	-0.616721	7.107898	0.690313	-0.617059	0.377766	-0.081444	0.452536	0.888019	-0.718913	-0.643778	0.262135
776	3137208													6.608296	-0.742363	7.050528	0.684067	-0.622617	0.380002	-0.080257	0.453556	0.887607	-0.724991	-0.637680	0.260293
777	3137375													6.660397	-0.885766	7.071110	0.676067	-0.629748	0.382558	-0.078960	0.454280	0.887353	-0.732598	-0.630117	0.257398
778	3137541													7.457209	-0.805928	6.961493	0.667275	-0.637629	0.384933	-0.077351	0.454698	0.887280	-0.740784	-0.621835	0.254087
779	3137708													7.655034	-0.699599	6.780361	0.659052	-0.644906	0.386972	-0.075568	0.455138	0.887208	-0.748292	-0.613959	0.251225
780	3137875													7.539870	-0.684088	6.613281	0.651118	-0.651744	0.388942	-0.073719	0.455725	0.887062	-0.755388	-0.606254	0.248685
781	3138041													7.312300	-0.626633	6.477801	0.642837	-0.658593	0.391173	-0.071815	0.456602	0.886768	-0.762629	-0.598140	0.246224
782	3138208													7.203699	-0.588827	6.451038	0.633561	-0.665772	0.394141	-0.069854	0.458125	0.886139	-0.770533	-0.588956	0.243744
783	3138375													7.434086	-0.590412	6.415227	0.623152	-0.673420	0.397727	-0.068066	0.459910	0.885353	-0.779133	-0.578781	0.240757
784	3138541													7.911886	-0.481643	6.329205	0.612256	-0.681039	0.401658	-0.066505	0.461844	0.884464	-0.787858	-0.568231	0.237474
785	3138708													8.228257	-0.521179	6.131842	0.601871	-0.687868	0.405696	-0.065119	0.464048	0.883413	-0.795934	-0.558119	0.234503
786	3138875													8.162301	-0.540956	6.010804	0.592249	-0.693948	0.409484	-0.063935	0.466124	0.882406	-0.803214	-0.548785	0.231694
787	3139041													7.872702	-0.490006	5.850408	0.582703	-0.699803	0.413198	-0.063013	0.468000	0.881479	-0.810239	-0.539677	0.228608
788	3139208													7.560628	-0.458776	5.795527	0.572222	-0.706032	0.417229	-0.062362	0.469821	0.880556	-0.817724	-0.529893	0.224813
789	3139375													7.814169	-0.495582	5.719128	0.560346	-0.712946	0.421569	-0.061960	0.471474	0.879701	-0.825938	-0.519057	0.220014
790	3139541													8.308867	-0.412886	5.592340	0.547860	-0.720008	0.425956	-0.061770	0.472963	0.878914	-0.834286	-0.507833	0.214642
791	3139708													8.603211	-0.528532	5.492074	0.535571	-0.726591	0.430382	-0.061781	0.474558	0.878053	-0.842227	-0.496850	0.209270
792	3139875													8.485939	-0.654839	5.279702	0.523792	-0.732750	0.434418	-0.061943	0.475859	0.877337	-0.849591	-0.486451	0.203862
793	3140042													8.436872	-0.601281	5.094997	0.511955	-0.738881	0.438128	-0.062030	0.476907	0.876762	-0.856770	-0.476040	0.198322
794	3140208													8.283888	-0.566974	4.907887	0.499939	-0.744903	0.441792	-0.062100	0.477971	0.876178	-0.863831	-0.465471	0.192698
795	3140375													8.312031	-0.592482	4.795757	0.487056	-0.751223	0.445467	-0.062209	0.478919	0.875652	-0.871152	-0.454204	0.186528
796	3140542													8.785606	-0.544360	4.705921	0.473667	-0.757596	0.449097	-0.062334	0.479811	0.875155	-0.878495	-0.442526	0.180047
797	3140708													9.334336	-0.617379	4.490883	0.461216	-0.763240	0.452487	-0.062349	0.480827	0.874596	-0.885094	-0.431590	0.174178
798	3140875													9.363314	-0.637933	4.270575	0.450317	-0.768044	0.455327	-0.062290	0.481693	0.874123	-0.890694	-0.421994	0.169073
799	3141042													9.144366	-0.674935	4.253934	0.440496	-0.772279	0.457765	-0.062158	0.482440	0.873720	-0.895600	-0.413324	0.164509
800	3141208													8.822515	-0.610460	4.141012	0.430975	-0.776348	0.459939	-0.061971	0.483037	0.873404	-0.900233	-0.404918	0.160066
801	3141375													8.467129	-0.541042	4.051562	0.420536	-0.780760	0.462129	-0.061604	0.483611	0.873112	-0.905182	-0.395644	0.155279
802	3141542													8.787819	-0.530513	3.959006	0.408999	-0.785455	0.464523	-0.061043	0.484357	0.872738	-0.910491	-0.385304	0.150155
803	3141708													9.209088	-0.537104	3.861409	0.397391	-0.789966	0.466942	-0.060418	0.485218	0.872303	-0.915658	-0.374857	0.145093
804	3141875													9.209887	-0.539230	3.792581	0.386185	-0.794073	0.469370	-0.059813	0.486218	0.871788	-0.920480	-0.364746	0.140274
805	3142042													9.325861	-0.553651	3.666722	0.375227	-0.797927	0.471717	-0.059335	0.487181	0.871283	-0.925032	-0.354918	0.135459
806	3142208													9.295165	-0.512615	3.517227	0.364689	-0.801490	0.473936	-0.058999	0.488077	0.870804	-0.929258	-0.345534	0.130709
807	3142375													9.247207	-0.491429	3.345750	0.354256	-0.804870	0.476117	-0.058731	0.488981	0.870315	-0.933303	-0.336277	0.125953
808	3142542													9.316932	-0.473144	3.245812	0.343865	-0.808080	0.478292	-0.058496	0.489929	0.869797	-0.937195	-0.327071	0.121200
809	3142708													9.291852	-0.508821	3.241910	0.333462	-0.811141	0.480472	-0.058301	0.490924	0.869249	-0.940959	-0.317874	0.116414
810	3142875													9.362936	-0.527898	3.183020	0.323039	-0.814103	0.482579	-0.058104	0.491895	0.868714	-0.944600	-0.308668	0.111598
811	3143042													9.408178	-0.554229	3.180037	0.312621	-0.816989	0.484558	-0.057843	0.492806	0.868215	-0.948115	-0.299450	0.106805
812	3143208													9.496473	-0.565607	3.015698	0.302440	-0.819711	0.486419	-0.057536	0.493687	0.867734	-0.951430	-0.290424	0.102148
813	3143375													9.375028	-0.583714	2.839392	0.292388	-0.822345	0.488117	-0.057176	0.494477	0.867308	-0.954589	-0.281499	0.097561
814	3143542													9.403399	-0.578760	2.667603	0.282174	-0.825007	0.489633	-0.056799	0.495111	0.866971	-0.957680	-0.272447	0.092848
815	3143708													9.556259	-0.540801	2.547656	0.271996	-0.827588	0.491037	-0.056452	0.495673	0.866672	-0.960641	-0.263451	0.088102
816	3143875													9.706512	-0.548520	2.482914	0.262288	-0.829951	0.492327	-0.056203	0.496184	0.866396	-0.963352	-0.254915	0.083497
817	3144042													9.729786	-0.600469	2.414797	0.253176	-0.832129	0.493421	-0.056092	0.496553	0.866192	-0.965793	-0.246976	0.079040
818	3144208													9.688630	-0.570686	2.372908	0.244585	-0.834156	0.494329	-0.056051	0.496798	0.866054	-0.968007	-0.239531	0.074753
819	3144375													9.652935	-0.550461	2.252616	0.236352	-0.836065	0.495108	-0.055940	0.496992	0.865950	-0.970056	-0.232366	0.070695
820	3144542													9.580726	-0.544555	2.153489	0.228299	-0.837892	0.495799	-0.055725	0.497167	0.865864	-0.971995	-0.225304	0.066811
821	3144708													9.509951	-0.545701	2.127174	0.220201	-0.839672	0.496449	-0.055483	0.497336	0.865782	-0.973875	-0.218191	0.062926
822	3144875													9.339746	-0.557967	2.104201	0.211572	-0.841500	0.497107	-0.055206	0.497519	0.865694	-0.975802	-0.210600	0.058805
823	3145042													9.411696	-0.571500	2.043243	0.202137	-0.843412	0.497792	-0.054860	0.497735	0.865592	-0.977820	-0.202277	0.054341
824	3145208													9.787275	-0.570745	1.926293	0.192528	-0.845316	0.498371	-0.054432	0.497891	0.865530	-0.979781	-0.193766	0.049846
825	3145375													10.028351	-0.536512	1.838116	0.183645	-0.847030	0.498813	-0.054046	0.497975	0.865506	-0.981506	-0.185904	0.045672
826	3145542													9.887987	-0.528522	1.732551	0.175648	-0.848484	0.499222	-0.053660	0.498101	0.865457	-0.982990	-0.178804	0.041961
827	3145708													9.702830	-0.532136	1.667199	0.167969	-0.849840	0.499558	-0.053205	0.498204	0.865426	-0.984356	-0.171943	0.038467
828	3145875													9.664240	-0.540723	1.606593	0.160232	-0.851143	0.499881	-0.052660	0.498332	0.865386	-0.985674	-0.164986	0.035028
829	3146042													9.834172	-0.572916	1.528119	0.152525	-0.852438	0.500086	-0.052088	0.498370	0.865398	-0.986926	-0.158044	0.031612
830	3146208													9.961568	-0.550232	1.479598	0.145373	-0.853646	0.500156	-0.051610	0.498295	0.865470	-0.988030	-0.151629	0.028382
831	3146375													9.837467	-0.489669	1.418266	0.138851	-0.854748	0.500126	-0.051121	0.498158	0.865578	-0.988993	-0.145753	0.025474
832	3146542													9.615452	-0.426619	1.353685	0.132350	-0.855778	0.500128	-0.050662	0.498067	0.865657	-0.989908	-0.139907	0.022564
833	3146708													9.542048	-0.443179	1.274068	0.125309	-0.856791	0.500207	-0.050258	0.498052	0.865690	-0.990844	-0.133618	0.019350
834	3146875													9.521945	-0.424208	1.207245	0.117620	-0.857818	0.500313	-0.049868	0.498072	0.865700	-0.991806	-0.126773	0.015805
835	3147042													9.583614	-0.476628	1.177929	0.109219	-0.858793	0.500545	-0.049517	0.498232	0.865629	-0.992784	-0.119328	0.011892
836	3147208													9.824513	-0.511475	1.086394	0.100586	-0.859776	0.500668	-0.049222	0.498303	0.865605	-0.993710	-0.111712	0.007802
837	3147375													10.056610	-0.507211	1.016883	0.092318	-0.860713	0.500650	-0.049046	0.498256	0.865642	-0.994521	-0.104469	0.003783
838	3147542													10.055510	-0.489913	0.967654	0.084949	-0.861521	0.500564	-0.048879	0.498172	0.865699	-0.995186	-0.098007	0.000209
839	3147708													9.879580	-0.453600	0.919825	0.078169	-0.862229	0.500450	-0.048596	0.498094	0.865760	-0.995755	-0.091996	-0.002965
840	3147875													9.575124	-0.443686	0.806847	0.071283	-0.862886	0.500346	-0.048147	0.498061	0.865804	-0.996293	-0.085807	-0.006042
841	3148042													9.450106	-0.433622	0.710537	0.063486	-0.863543	0.500263	-0.047596	0.498083	0.865822	-0.996847	-0.078778	-0.009479
842	3148208													9.682357	-0.473037	0.628329	0.055001	-0.864125	0.500263	-0.046989	0.498226	0.865773	-0.997380	-0.071125	-0.013201
843	3148375													9.977278	-0.487479	0.531843	0.046631	-0.864695	0.500128	-0.046515	0.498250	0.865785	-0.997829	-0.063636	-0.016987
844	3148542													10.116661	-0.443740	0.423841	0.039013	-0.865201	0.499905	-0.046183	0.498190	0.865837	-0.998171	-0.056866	-0.020522
845	3148708													10.020453	-0.424620	0.357500	0.032212	-0.865633	0.499641	-0.045873	0.498093	0.865909	-0.998428	-0.050813	-0.023665
846	3148875													9.828312	-0.374453	0.288417	0.025734	-0.865987	0.499405	-0.045505	0.498037	0.865961	-0.998633	-0.045010	-0.026590
847	3149042													9.688990	-0.391786	0.202794	0.019082	-0.866250	0.499246	-0.045046	0.498085	0.865957	-0.998803	-0.039013	-0.029517
848	3149208													9.797114	-0.448516	0.088371	0.012152	-0.866468	0.499084	-0.044634	0.498153	0.865939	-0.998929	-0.032799	-0.032620
849	3149375													9.833985	-0.450361	0.030715	0.005266	-0.866696	0.498810	-0.044382	0.498122	0.865970	-0.999001	-0.026699	-0.035843
850	3149542													9.793625	-0.373940	-0.009391	-0.001491	-0.866873	0.498527	-0.044221	0.498098	0.865993	-0.999021	-0.020754	-0.039076
851	3149708													9.721515	-0.350656	-0.036484	-0.008338	-0.866967	0.498297	-0.044033	0.498149	0.865973	-0.998995	-0.014721	-0.042329
852	3149875													9.697639	-0.359273	-0.073298	-0.015367	-0.866953	0.498154	-0.043698	0.498319	0.865892	-0.998927	-0.008463	-0.045541
853	3150042													9.697944	-0.381188	-0.166128	-0.022662	-0.866843	0.498067	-0.043247	0.498578	0.865765	-0.998807	-0.001919	-0.048787
854	3150208													9.764003	-0.429825	-0.267103	-0.030127	-0.866683	0.497948	-0.042810	0.498836	0.865639	-0.998629	0.004762	-0.052131
855	3150375													9.782369	-0.437467	-0.379550	-0.037548	-0.866529	0.497712	-0.042490	0.498997	0.865561	-0.998391	0.011352	-0.055555
856	3150542													9.738343	-0.420493	-0.463845	-0.044989	-0.866369	0.497374	-0.042288	0.499084	0.865521	-0.998092	0.017906	-0.059090
857	3150708													9.807175	-0.435469	-0.514965	-0.052484	-0.866202	0.496931	-0.042097	0.499093	0.865525	-0.997734	0.024507	-0.062659
858	3150875													9.904823	-0.451652	-0.580445	-0.059822	-0.866040	0.496383	-0.041987	0.499016	0.865575	-0.997326	0.030938	-0.066215
859	3151042													9.989038	-0.447230	-0.646598	-0.066694	-0.865917	0.495721	-0.041881	0.498819	0.865694	-0.996894	0.036975	-0.069534
860	3151208													9.962008	-0.443792	-0.714199	-0.073011	-0.865818	0.495004	-0.041786	0.498548	0.865854	-0.996455	0.042533	-0.072579
861	3151375													9.924827	-0.425823	-0.801817	-0.078889	-0.865743	0.494232	-0.041642	0.498206	0.866058	-0.996013	0.047742	-0.075355
862	3151542													9.842984	-0.435766	-0.863371	-0.084359	-0.865700	0.493404	-0.041494	0.497791	0.866304	-0.995571	0.052607	-0.077915
863	3151708													9.767721	-0.423039	-0.897199	-0.089644	-0.865655	0.492550	-0.041355	0.497350	0.866564	-0.995115	0.057313	-0.080384
864	3151875													9.751887	-0.418265	-0.958113	-0.094888	-0.865609	0.491647	-0.041307	0.496874	0.866839	-0.994631	0.061944	-0.082903
865	3152042													9.713893	-0.379170	-1.001480	-0.100087	-0.865542	0.490734	-0.041362	0.496403	0.867106	-0.994119	0.066488	-0.085484
866	3152208													9.627816	-0.372764	-1.052041	-0.105347	-0.865358	0.489956	-0.041450	0.496091	0.867281	-0.993571	0.071057	-0.088131
867	3152375													9.504986	-0.370722	-1.074042	-0.110976	-0.865054	0.489251	-0.041497	0.495896	0.867390	-0.992956	0.075958	-0.090930
