// Start Time: Unknown
// Update Rate: 60.0Hz
//Filter Profile: human (46.1)
// Option Flags: AHS Disabled ICC Disabled
// Firmware Version: 4.0.2
0	sampleTimeFine	Year	Month	Day	Second	UTC_Nano	UTC_Year	UTC_Month	UTC_Day	UTC_Hour	UTC_Minute	UTC_Second	UTC_Valid	Acc_X	Acc_Y	Acc_Z	Mat[1][1]	Mat[2][1]	Mat[3][1]	Mat[1][2]	Mat[2][2]	Mat[3][2]	Mat[1][3]	Mat[2][3]	Mat[3][3]
0	3007706													-0.330997	0.034288	0.156033	0.197031	-0.782272	-0.590956	-0.057568	-0.610964	0.789563	-0.978706	-0.121548	-0.165413
1	3007872													9.611095	-0.570495	1.931684	0.196833	-0.782369	-0.590894	-0.057880	-0.610905	0.789585	-0.978727	-0.121215	-0.165530
2	3008039													9.620652	-0.580525	1.971735	0.196824	-0.782741	-0.590403	-0.058064	-0.610432	0.789938	-0.978718	-0.121198	-0.165597
3	3008206													9.612226	-0.572953	1.934183	0.197366	-0.782882	-0.590036	-0.058341	-0.610188	0.790106	-0.978592	-0.121517	-0.166105
4	3008372													9.561659	-0.566974	1.913910	0.197717	-0.783312	-0.589347	-0.058570	-0.609581	0.790557	-0.978508	-0.121789	-0.166404
5	3008539													9.584207	-0.572283	1.891419	0.197643	-0.783761	-0.588776	-0.058734	-0.609012	0.790983	-0.978513	-0.121751	-0.166400
6	3008706													9.648826	-0.556819	1.942611	0.197396	-0.784013	-0.588521	-0.058817	-0.608724	0.791199	-0.978558	-0.121564	-0.166273
7	3008872													9.658560	-0.540883	1.970408	0.197406	-0.784199	-0.588271	-0.058754	-0.608465	0.791403	-0.978560	-0.121664	-0.166189
8	3009039													9.620713	-0.582389	1.995617	0.197443	-0.784306	-0.588116	-0.058739	-0.608312	0.791521	-0.978553	-0.121735	-0.166176
9	3009206													9.625556	-0.580641	2.023699	0.197608	-0.784556	-0.587727	-0.058825	-0.607959	0.791786	-0.978515	-0.121890	-0.166289
10	3009372													9.568654	-0.532476	1.951694	0.197896	-0.784611	-0.587557	-0.058879	-0.607844	0.791870	-0.978453	-0.122113	-0.166487
11	3009539													9.579197	-0.520095	1.954326	0.198088	-0.784660	-0.587426	-0.058858	-0.607743	0.791950	-0.978415	-0.122301	-0.166570
12	3009706													9.594786	-0.582006	1.938508	0.198208	-0.784789	-0.587213	-0.058853	-0.607547	0.792100	-0.978391	-0.122442	-0.166608
13	3009872													9.597508	-0.567852	1.952257	0.198361	-0.784712	-0.587265	-0.058943	-0.607637	0.792024	-0.978355	-0.122491	-0.166785
14	3010039													9.560533	-0.586423	1.952017	0.198446	-0.784744	-0.587193	-0.059103	-0.607600	0.792041	-0.978328	-0.122473	-0.166956
15	3010206													9.589543	-0.588701	1.937364	0.198439	-0.784819	-0.587095	-0.059229	-0.607515	0.792097	-0.978322	-0.122410	-0.167039
16	3010372													9.606272	-0.575943	1.956780	0.198370	-0.784972	-0.586914	-0.059451	-0.607348	0.792208	-0.978323	-0.122258	-0.167146
17	3010539													9.606907	-0.587858	1.963981	0.198222	-0.784951	-0.586992	-0.059663	-0.607427	0.792131	-0.978339	-0.121996	-0.167239
18	3010706													9.629739	-0.578421	1.960898	0.198005	-0.785191	-0.586745	-0.059805	-0.607159	0.792327	-0.978375	-0.121794	-0.167179
19	3010872													9.607494	-0.573785	1.879635	0.197805	-0.785435	-0.586485	-0.059983	-0.606884	0.792524	-0.978404	-0.121586	-0.167158
20	3011039													9.583417	-0.618386	1.924408	0.197481	-0.785506	-0.586499	-0.060070	-0.606853	0.792541	-0.978465	-0.121280	-0.167027
21	3011206													9.582211	-0.547116	1.933384	0.197246	-0.785578	-0.586482	-0.060051	-0.606794	0.792588	-0.978513	-0.121116	-0.166862
22	3011372													9.633363	-0.528473	1.904245	0.196848	-0.785645	-0.586525	-0.060066	-0.606770	0.792604	-0.978592	-0.120793	-0.166632
23	3011539													9.667517	-0.589399	1.933758	0.196467	-0.785750	-0.586513	-0.060170	-0.606705	0.792646	-0.978662	-0.120439	-0.166476
24	3011706													9.612644	-0.590898	1.947776	0.196118	-0.785986	-0.586314	-0.060286	-0.606459	0.792826	-0.978725	-0.120141	-0.166321
25	3011872													9.609260	-0.554531	1.908894	0.195761	-0.786039	-0.586362	-0.060415	-0.606462	0.792814	-0.978789	-0.119777	-0.166210
26	3012039													9.629351	-0.563842	1.928299	0.195357	-0.786352	-0.586077	-0.060545	-0.606121	0.793065	-0.978861	-0.119447	-0.166020
27	3012206													9.618217	-0.571529	1.926396	0.195039	-0.786548	-0.585920	-0.060725	-0.605931	0.793196	-0.978914	-0.119124	-0.165943
28	3012372													9.596208	-0.566986	1.922922	0.194685	-0.786916	-0.585543	-0.060951	-0.605517	0.793495	-0.978970	-0.118792	-0.165849
29	3012539													9.623445	-0.598425	1.914767	0.194312	-0.787129	-0.585381	-0.061198	-0.605320	0.793626	-0.979029	-0.118387	-0.165791
30	3012706													9.650179	-0.591782	1.915955	0.193960	-0.787248	-0.585338	-0.061419	-0.605243	0.793667	-0.979085	-0.117989	-0.165745
31	3012872													9.605701	-0.599252	1.901666	0.193685	-0.787352	-0.585290	-0.061586	-0.605168	0.793712	-0.979129	-0.117684	-0.165702
32	3013039													9.592596	-0.603697	1.903118	0.193379	-0.787462	-0.585242	-0.061748	-0.605088	0.793761	-0.979179	-0.117359	-0.165636
33	3013206													9.609623	-0.602583	1.877276	0.193052	-0.787512	-0.585282	-0.061890	-0.605089	0.793749	-0.979235	-0.117012	-0.165553
34	3013372													9.622112	-0.595345	1.925341	0.192747	-0.787473	-0.585435	-0.062035	-0.605208	0.793646	-0.979286	-0.116656	-0.165503
35	3013539													9.599257	-0.589761	1.887239	0.192494	-0.787337	-0.585701	-0.062149	-0.605447	0.793455	-0.979328	-0.116334	-0.165477
36	3013706													9.593140	-0.590509	1.900184	0.192159	-0.787428	-0.585689	-0.062244	-0.605389	0.793492	-0.979388	-0.116021	-0.165344
37	3013872													9.594515	-0.585737	1.925234	0.191837	-0.787397	-0.585836	-0.062314	-0.605491	0.793409	-0.979446	-0.115699	-0.165222
38	3014039													9.630116	-0.554243	1.932520	0.191409	-0.787302	-0.586104	-0.062357	-0.605693	0.793251	-0.979528	-0.115287	-0.165029
39	3014206													9.665684	-0.554512	1.926049	0.191019	-0.787310	-0.586221	-0.062438	-0.605754	0.793198	-0.979598	-0.114914	-0.164869
40	3014372													9.652786	-0.588446	1.901810	0.190626	-0.787528	-0.586055	-0.062437	-0.605520	0.793377	-0.979675	-0.114647	-0.164599
41	3014539													9.608054	-0.579658	1.908881	0.190225	-0.787613	-0.586072	-0.062445	-0.605471	0.793414	-0.979753	-0.114330	-0.164358
42	3014706													9.596215	-0.574412	1.890049	0.189795	-0.787637	-0.586180	-0.062464	-0.605509	0.793384	-0.979835	-0.113965	-0.164121
43	3014872													9.624574	-0.570531	1.855735	0.189304	-0.787747	-0.586189	-0.062517	-0.605442	0.793430	-0.979926	-0.113552	-0.163860
44	3015039													9.615937	-0.596098	1.851277	0.188788	-0.787853	-0.586214	-0.062575	-0.605387	0.793468	-0.980022	-0.113115	-0.163590
45	3015206													9.612924	-0.578163	1.848472	0.188208	-0.787896	-0.586343	-0.062631	-0.605425	0.793434	-0.980130	-0.112607	-0.163292
46	3015372													9.616163	-0.569585	1.879184	0.187603	-0.788082	-0.586287	-0.062753	-0.605281	0.793534	-0.980238	-0.112078	-0.163007
47	3015539													9.620745	-0.567048	1.866534	0.186954	-0.788154	-0.586397	-0.062912	-0.605302	0.793506	-0.980352	-0.111458	-0.162748
48	3015706													9.610853	-0.587866	1.869298	0.186320	-0.788239	-0.586484	-0.063093	-0.605304	0.793490	-0.980461	-0.110840	-0.162513
49	3015872													9.635450	-0.571930	1.857906	0.185660	-0.788299	-0.586613	-0.063294	-0.605347	0.793441	-0.980573	-0.110181	-0.162284
50	3016039													9.629217	-0.566598	1.840526	0.184992	-0.788430	-0.586648	-0.063531	-0.605298	0.793460	-0.980684	-0.109514	-0.162064
51	3016206													9.615253	-0.580768	1.825347	0.184303	-0.788503	-0.586767	-0.063782	-0.605331	0.793415	-0.980798	-0.108804	-0.161857
52	3016372													9.657767	-0.571946	1.822782	0.183644	-0.788485	-0.586997	-0.064023	-0.605479	0.793282	-0.980906	-0.108101	-0.161674
53	3016539													9.646951	-0.590304	1.796754	0.182947	-0.788494	-0.587204	-0.064321	-0.605604	0.793162	-0.981016	-0.107337	-0.161510
54	3016706													9.621531	-0.616355	1.743112	0.182294	-0.788484	-0.587419	-0.064573	-0.605740	0.793038	-0.981121	-0.106635	-0.161338
55	3016872													9.586974	-0.574131	1.744326	0.181682	-0.788591	-0.587466	-0.064857	-0.605717	0.793032	-0.981216	-0.105979	-0.161193
56	3017039													9.642600	-0.621202	1.707395	0.180939	-0.788854	-0.587342	-0.065148	-0.605501	0.793173	-0.981334	-0.105252	-0.160951
57	3017206													9.706851	-0.642730	1.758569	0.180235	-0.788981	-0.587388	-0.065332	-0.605451	0.793197	-0.981451	-0.104587	-0.160669
58	3017372													9.691422	-0.623028	1.799899	0.179784	-0.789032	-0.587458	-0.065580	-0.605474	0.793159	-0.981518	-0.104072	-0.160600
59	3017539													9.618473	-0.624711	1.755907	0.179325	-0.789003	-0.587637	-0.065839	-0.605606	0.793037	-0.981584	-0.103522	-0.160547
60	3017706													9.616063	-0.633446	1.762666	0.178935	-0.788872	-0.587931	-0.066023	-0.605856	0.792830	-0.981643	-0.103047	-0.160493
61	3017872													9.595558	-0.608513	1.758662	0.178545	-0.788842	-0.588089	-0.066170	-0.605967	0.792733	-0.981704	-0.102625	-0.160390
62	3018039													9.633774	-0.604588	1.727357	0.178182	-0.788690	-0.588404	-0.066273	-0.606234	0.792520	-0.981763	-0.102218	-0.160289
63	3018206													9.678199	-0.609191	1.753958	0.177955	-0.788538	-0.588676	-0.066428	-0.606486	0.792314	-0.981794	-0.101892	-0.160308
64	3018372													9.657135	-0.584079	1.766950	0.177881	-0.788438	-0.588833	-0.066567	-0.606646	0.792180	-0.981798	-0.101717	-0.160395
65	3018539													9.653800	-0.619549	1.787632	0.177900	-0.788481	-0.588769	-0.066695	-0.606598	0.792206	-0.981786	-0.101666	-0.160502
66	3018706													9.643692	-0.623826	1.780494	0.177979	-0.788493	-0.588730	-0.066828	-0.606585	0.792205	-0.981762	-0.101652	-0.160653
67	3018872													9.655528	-0.609119	1.762652	0.178102	-0.788540	-0.588629	-0.066928	-0.606515	0.792250	-0.981733	-0.101706	-0.160797
68	3019039													9.675550	-0.622566	1.831697	0.178327	-0.788394	-0.588757	-0.067008	-0.606689	0.792110	-0.981687	-0.101803	-0.161018
69	3019206													9.633868	-0.613602	1.801299	0.178585	-0.788252	-0.588868	-0.067070	-0.606850	0.791982	-0.981636	-0.101941	-0.161242
70	3019372													9.605639	-0.657794	1.732799	0.178769	-0.788196	-0.588888	-0.067157	-0.606909	0.791929	-0.981596	-0.102024	-0.161430
71	3019539													9.638307	-0.627708	1.777915	0.179028	-0.788126	-0.588902	-0.067128	-0.606963	0.791890	-0.981551	-0.102239	-0.161569
72	3019706													9.618213	-0.580944	1.773068	0.179290	-0.788023	-0.588961	-0.067055	-0.607057	0.791824	-0.981508	-0.102473	-0.161680
73	3019872													9.628872	-0.615126	1.771512	0.179457	-0.787970	-0.588980	-0.067028	-0.607102	0.791792	-0.981480	-0.102614	-0.161764
74	3020039													9.614801	-0.645502	1.815587	0.179480	-0.787983	-0.588956	-0.067039	-0.607083	0.791806	-0.981475	-0.102630	-0.161785
75	3020206													9.609798	-0.615877	1.762130	0.179496	-0.787912	-0.589047	-0.067002	-0.607173	0.791740	-0.981474	-0.102647	-0.161777
76	3020372													9.624936	-0.596998	1.810172	0.179534	-0.787874	-0.589085	-0.066974	-0.607215	0.791710	-0.981469	-0.102686	-0.161783
77	3020539													9.622430	-0.605159	1.770044	0.179509	-0.787881	-0.589084	-0.066955	-0.607208	0.791717	-0.981475	-0.102678	-0.161752
78	3020706													9.610530	-0.611232	1.783209	0.179448	-0.787865	-0.589124	-0.066967	-0.607239	0.791692	-0.981486	-0.102616	-0.161729
79	3020872													9.603681	-0.599839	1.759984	0.179286	-0.787846	-0.589199	-0.066961	-0.607287	0.791656	-0.981515	-0.102480	-0.161633
80	3021039													9.627434	-0.618078	1.779039	0.179101	-0.787849	-0.589251	-0.066940	-0.607306	0.791643	-0.981551	-0.102339	-0.161508
81	3021206													9.629129	-0.601545	1.776634	0.178861	-0.787983	-0.589145	-0.066891	-0.607154	0.791763	-0.981598	-0.102207	-0.161305
82	3021372													9.663909	-0.601305	1.769288	0.178582	-0.788091	-0.589085	-0.066857	-0.607045	0.791850	-0.981651	-0.102025	-0.161096
83	3021539													9.641669	-0.570738	1.765763	0.178375	-0.788161	-0.589055	-0.066804	-0.606975	0.791908	-0.981692	-0.101905	-0.160922
84	3021706													9.655890	-0.570646	1.797331	0.178151	-0.788247	-0.589006	-0.066730	-0.606881	0.791986	-0.981738	-0.101788	-0.160716
85	3021872													9.645775	-0.585658	1.768098	0.177985	-0.788459	-0.588772	-0.066696	-0.606616	0.792193	-0.981770	-0.101730	-0.160555
86	3022039													9.623775	-0.596565	1.739314	0.177842	-0.788628	-0.588590	-0.066608	-0.606400	0.792365	-0.981802	-0.101711	-0.160373
87	3022206													9.656372	-0.586090	1.776506	0.177750	-0.788763	-0.588437	-0.066530	-0.606223	0.792507	-0.981824	-0.101720	-0.160232
88	3022372													9.634835	-0.585225	1.781234	0.177733	-0.788841	-0.588337	-0.066408	-0.606107	0.792606	-0.981836	-0.101802	-0.160111
89	3022539													9.647996	-0.606504	1.774396	0.177798	-0.788850	-0.588306	-0.066234	-0.606068	0.792650	-0.981836	-0.101966	-0.160006
90	3022706													9.646852	-0.585650	1.814249	0.177948	-0.788769	-0.588369	-0.066043	-0.606137	0.792614	-0.981821	-0.102186	-0.159954
91	3022872													9.659876	-0.589549	1.790825	0.178109	-0.788824	-0.588246	-0.065882	-0.606023	0.792714	-0.981803	-0.102435	-0.159908
92	3023039													9.652297	-0.586170	1.792867	0.178371	-0.788811	-0.588185	-0.065719	-0.605987	0.792756	-0.981766	-0.102750	-0.159930
93	3023206													9.647748	-0.577861	1.816874	0.178676	-0.788682	-0.588265	-0.065552	-0.606100	0.792682	-0.981722	-0.103072	-0.159996
94	3023373													9.649651	-0.582797	1.788702	0.178976	-0.788595	-0.588290	-0.065409	-0.606159	0.792649	-0.981677	-0.103386	-0.160069
95	3023539													9.630146	-0.571377	1.794315	0.179294	-0.788539	-0.588268	-0.065321	-0.606180	0.792640	-0.981625	-0.103689	-0.160193
96	3023706													9.623981	-0.580605	1.788573	0.179494	-0.788412	-0.588378	-0.065256	-0.606317	0.792541	-0.981592	-0.103861	-0.160279
97	3023873													9.645155	-0.561992	1.808525	0.179733	-0.788382	-0.588345	-0.065172	-0.606313	0.792551	-0.981554	-0.104104	-0.160355
98	3024039													9.608661	-0.562648	1.817227	0.179977	-0.788249	-0.588449	-0.065106	-0.606451	0.792451	-0.981514	-0.104311	-0.160467
99	3024206													9.632427	-0.551054	1.809024	0.180140	-0.788201	-0.588463	-0.065065	-0.606488	0.792426	-0.981487	-0.104459	-0.160537
100	3024373													9.654312	-0.566325	1.819364	0.180305	-0.788172	-0.588451	-0.065049	-0.606501	0.792417	-0.981457	-0.104599	-0.160625
101	3024539													9.616285	-0.565972	1.795955	0.180386	-0.788196	-0.588395	-0.065054	-0.606459	0.792449	-0.981442	-0.104669	-0.160672
102	3024706													9.595949	-0.567173	1.797979	0.180501	-0.788137	-0.588439	-0.065106	-0.606527	0.792393	-0.981418	-0.104716	-0.160791
103	3024873													9.601635	-0.545272	1.760221	0.180448	-0.788170	-0.588410	-0.065245	-0.606504	0.792399	-0.981418	-0.104596	-0.160867
104	3025039													9.655940	-0.596578	1.810525	0.180342	-0.788293	-0.588277	-0.065332	-0.606363	0.792500	-0.981432	-0.104488	-0.160854
105	3025206													9.662563	-0.547828	1.809477	0.180314	-0.788262	-0.588329	-0.065367	-0.606413	0.792458	-0.981435	-0.104434	-0.160871
106	3025373													9.630854	-0.568355	1.821591	0.180389	-0.788237	-0.588338	-0.065500	-0.606450	0.792419	-0.981412	-0.104408	-0.161027
107	3025539													9.619912	-0.607694	1.868917	0.180403	-0.788254	-0.588312	-0.065695	-0.606446	0.792406	-0.981396	-0.104303	-0.161189
108	3025706													9.606532	-0.560054	1.831557	0.180418	-0.788258	-0.588302	-0.065804	-0.606450	0.792394	-0.981386	-0.104250	-0.161285
109	3025873													9.614418	-0.540651	1.805242	0.180414	-0.788246	-0.588319	-0.065857	-0.606472	0.792373	-0.981384	-0.104210	-0.161327
110	3026039													9.644907	-0.569025	1.834858	0.180397	-0.788315	-0.588231	-0.065966	-0.606393	0.792424	-0.981379	-0.104147	-0.161393
111	3026206													9.627004	-0.550620	1.838259	0.180491	-0.788340	-0.588170	-0.066121	-0.606363	0.792434	-0.981352	-0.104136	-0.161569
112	3026373													9.613374	-0.567518	1.843430	0.180555	-0.788412	-0.588053	-0.066234	-0.606269	0.792497	-0.981332	-0.104140	-0.161685
113	3026539													9.622530	-0.561432	1.835167	0.180638	-0.788318	-0.588153	-0.066329	-0.606392	0.792394	-0.981311	-0.104125	-0.161826
114	3026706													9.637115	-0.571875	1.844547	0.180722	-0.788372	-0.588055	-0.066395	-0.606315	0.792448	-0.981291	-0.104169	-0.161918
115	3026873													9.638583	-0.587253	1.843099	0.180808	-0.788439	-0.587940	-0.066491	-0.606224	0.792510	-0.981268	-0.104199	-0.162034
116	3027039													9.650066	-0.571285	1.856491	0.180911	-0.788541	-0.587771	-0.066613	-0.606084	0.792606	-0.981241	-0.104238	-0.162174
117	3027206													9.630490	-0.579946	1.844733	0.180973	-0.788627	-0.587636	-0.066754	-0.605974	0.792679	-0.981220	-0.104226	-0.162308
118	3027373													9.598454	-0.628257	1.792406	0.180936	-0.788792	-0.587426	-0.066900	-0.605772	0.792821	-0.981217	-0.104151	-0.162376
119	3027539													9.602008	-0.608862	1.840510	0.180925	-0.788665	-0.587600	-0.066931	-0.605948	0.792684	-0.981217	-0.104088	-0.162417
120	3027706													9.603257	-0.549263	1.809783	0.180928	-0.788748	-0.587488	-0.066964	-0.605840	0.792763	-0.981214	-0.104093	-0.162431
121	3027873													9.651918	-0.605368	1.839607	0.180858	-0.788737	-0.587524	-0.067084	-0.605877	0.792725	-0.981219	-0.103957	-0.162489
122	3028039													9.616285	-0.624773	1.845623	0.180791	-0.788823	-0.587429	-0.067214	-0.605784	0.792785	-0.981222	-0.103845	-0.162540
123	3028206													9.627802	-0.580497	1.814349	0.180739	-0.788914	-0.587323	-0.067302	-0.605679	0.792858	-0.981226	-0.103772	-0.162565
124	3028373													9.618562	-0.590855	1.813118	0.180642	-0.788924	-0.587340	-0.067401	-0.605689	0.792841	-0.981237	-0.103633	-0.162587
125	3028539													9.632878	-0.587423	1.818189	0.180543	-0.789002	-0.587266	-0.067527	-0.605612	0.792890	-0.981246	-0.103494	-0.162617
126	3028706													9.620588	-0.594298	1.791739	0.180469	-0.788996	-0.587296	-0.067646	-0.605642	0.792856	-0.981252	-0.103358	-0.162672
127	3028873													9.624109	-0.578495	1.803499	0.180331	-0.788973	-0.587368	-0.067780	-0.605706	0.792796	-0.981268	-0.103154	-0.162705
128	3029039													9.639008	-0.583911	1.813387	0.180215	-0.789087	-0.587252	-0.067897	-0.605582	0.792881	-0.981281	-0.103017	-0.162712
129	3029206													9.651201	-0.586073	1.814680	0.180078	-0.789239	-0.587090	-0.068009	-0.605408	0.793004	-0.981299	-0.102875	-0.162696
130	3029373													9.622458	-0.590049	1.796826	0.179977	-0.789382	-0.586928	-0.068109	-0.605239	0.793124	-0.981310	-0.102769	-0.162693
131	3029539													9.640877	-0.574358	1.806492	0.179854	-0.789507	-0.586798	-0.068205	-0.605098	0.793224	-0.981326	-0.102642	-0.162678
132	3029706													9.648125	-0.586752	1.802015	0.179796	-0.789596	-0.586696	-0.068274	-0.604993	0.793298	-0.981332	-0.102576	-0.162684
133	3029873													9.638612	-0.586276	1.768502	0.179756	-0.789686	-0.586586	-0.068384	-0.604888	0.793369	-0.981331	-0.102500	-0.162734
134	3030039													9.643998	-0.590764	1.780880	0.179763	-0.789801	-0.586430	-0.068474	-0.604741	0.793473	-0.981324	-0.102482	-0.162791
135	3030206													9.631420	-0.601793	1.822914	0.179763	-0.789915	-0.586276	-0.068571	-0.604597	0.793575	-0.981317	-0.102454	-0.162849
136	3030373													9.626554	-0.598521	1.826083	0.179789	-0.790077	-0.586049	-0.068674	-0.604384	0.793728	-0.981305	-0.102457	-0.162919
137	3030539													9.636658	-0.599412	1.816710	0.179864	-0.790137	-0.585946	-0.068772	-0.604303	0.793781	-0.981284	-0.102476	-0.163032
138	3030706													9.639508	-0.592005	1.814890	0.179956	-0.790208	-0.585821	-0.068872	-0.604204	0.793848	-0.981261	-0.102510	-0.163153
139	3030873													9.648329	-0.609811	1.796679	0.180099	-0.790271	-0.585693	-0.068942	-0.604106	0.793916	-0.981229	-0.102605	-0.163282
140	3031039													9.623266	-0.608996	1.810074	0.180287	-0.790260	-0.585650	-0.068967	-0.604097	0.793921	-0.981193	-0.102743	-0.163412
141	3031206													9.639399	-0.603485	1.813448	0.180454	-0.790243	-0.585622	-0.068964	-0.604096	0.793922	-0.981163	-0.102879	-0.163509
142	3031373													9.635844	-0.595921	1.816220	0.180654	-0.790211	-0.585602	-0.068973	-0.604111	0.793910	-0.981125	-0.103032	-0.163638
143	3031539													9.629701	-0.590864	1.824894	0.180864	-0.790293	-0.585428	-0.068950	-0.603969	0.794020	-0.981088	-0.103244	-0.163727
144	3031706													9.632654	-0.599675	1.810034	0.181124	-0.790164	-0.585521	-0.068930	-0.604103	0.793919	-0.981042	-0.103437	-0.163884
145	3031873													9.615973	-0.615572	1.813104	0.181423	-0.790192	-0.585391	-0.068928	-0.604023	0.793981	-0.980987	-0.103697	-0.164050
146	3032039													9.611354	-0.605033	1.815358	0.181625	-0.790172	-0.585355	-0.068928	-0.604021	0.793982	-0.980949	-0.103860	-0.164171
147	3032206													9.646590	-0.592656	1.820622	0.181813	-0.790143	-0.585335	-0.068917	-0.604032	0.793975	-0.980915	-0.104015	-0.164276
148	3032373													9.628330	-0.605885	1.819728	0.182087	-0.790204	-0.585169	-0.068894	-0.603908	0.794071	-0.980866	-0.104275	-0.164404
149	3032539													9.638412	-0.607176	1.820264	0.182319	-0.790219	-0.585076	-0.068855	-0.603850	0.794119	-0.980826	-0.104497	-0.164504
150	3032706													9.633576	-0.579949	1.832885	0.182621	-0.790268	-0.584916	-0.068782	-0.603732	0.794215	-0.980774	-0.104809	-0.164610
151	3032873													9.644025	-0.582674	1.834842	0.182888	-0.790155	-0.584985	-0.068692	-0.603837	0.794143	-0.980731	-0.105055	-0.164712
152	3033039													9.640382	-0.592245	1.868752	0.183178	-0.790112	-0.584951	-0.068623	-0.603845	0.794143	-0.980682	-0.105329	-0.164831
153	3033206													9.621758	-0.594848	1.848266	0.183453	-0.790169	-0.584789	-0.068545	-0.603719	0.794245	-0.980636	-0.105623	-0.164916
154	3033373													9.661617	-0.601625	1.871401	0.183710	-0.790179	-0.584694	-0.068503	-0.603663	0.794291	-0.980591	-0.105866	-0.165028
155	3033539													9.620367	-0.610705	1.848034	0.183988	-0.790268	-0.584487	-0.068474	-0.603499	0.794418	-0.980540	-0.106141	-0.165150
156	3033706													9.597327	-0.601553	1.829168	0.184259	-0.790265	-0.584406	-0.068482	-0.603464	0.794444	-0.980489	-0.106362	-0.165313
157	3033873													9.567738	-0.607433	1.764554	0.184452	-0.790323	-0.584266	-0.068542	-0.603363	0.794516	-0.980449	-0.106504	-0.165461
158	3034039													9.645546	-0.622078	1.841665	0.184636	-0.790348	-0.584174	-0.068469	-0.603293	0.794575	-0.980419	-0.106709	-0.165504
159	3034206													9.669499	-0.557056	1.891472	0.184955	-0.790356	-0.584063	-0.068330	-0.603220	0.794642	-0.980369	-0.107064	-0.165573
160	3034373													9.642822	-0.615096	1.875778	0.185264	-0.790378	-0.583935	-0.068252	-0.603136	0.794713	-0.980316	-0.107377	-0.165684
161	3034539													9.643204	-0.630416	1.921690	0.185614	-0.790300	-0.583929	-0.068161	-0.603180	0.794688	-0.980256	-0.107704	-0.165826
162	3034706													9.590222	-0.585895	1.914286	0.185999	-0.790269	-0.583849	-0.067988	-0.603145	0.794728	-0.980195	-0.108124	-0.165914
163	3034873													9.619522	-0.560136	1.913104	0.186273	-0.790162	-0.583906	-0.067803	-0.603229	0.794681	-0.980156	-0.108437	-0.165941
164	3035039													9.654527	-0.584803	1.910662	0.186554	-0.790087	-0.583918	-0.067666	-0.603273	0.794659	-0.980112	-0.108735	-0.166005
165	3035206													9.621439	-0.588867	1.907146	0.186883	-0.789949	-0.583999	-0.067582	-0.603402	0.794568	-0.980055	-0.109024	-0.166152
166	3035373													9.590978	-0.583155	1.912942	0.187237	-0.789915	-0.583932	-0.067458	-0.603381	0.794595	-0.979996	-0.109387	-0.166261
167	3035539													9.598153	-0.589754	1.924595	0.187608	-0.789811	-0.583953	-0.067349	-0.603454	0.794549	-0.979932	-0.109735	-0.166405
168	3035706													9.598385	-0.592389	1.935677	0.187950	-0.789785	-0.583879	-0.067247	-0.603426	0.794579	-0.979874	-0.110077	-0.166525
169	3035873													9.600367	-0.569680	1.925584	0.188258	-0.789834	-0.583713	-0.067137	-0.603299	0.794684	-0.979822	-0.110417	-0.166603
170	3036039													9.626535	-0.602945	1.926473	0.188562	-0.789802	-0.583658	-0.067035	-0.603284	0.794704	-0.979771	-0.110725	-0.166701
171	3036206													9.605954	-0.576903	1.950949	0.188853	-0.789821	-0.583538	-0.066949	-0.603204	0.794772	-0.979721	-0.111028	-0.166795
172	3036373													9.607005	-0.600113	1.871190	0.189033	-0.789789	-0.583524	-0.066929	-0.603219	0.794763	-0.979687	-0.111182	-0.166888
173	3036539													9.615125	-0.620752	1.922735	0.189231	-0.789668	-0.583624	-0.066869	-0.603346	0.794671	-0.979653	-0.111350	-0.166976
174	3036706													9.591449	-0.564279	1.922852	0.189483	-0.789667	-0.583542	-0.066744	-0.603293	0.794722	-0.979613	-0.111638	-0.167020
175	3036873													9.630566	-0.558206	1.934202	0.189627	-0.789632	-0.583544	-0.066657	-0.603309	0.794717	-0.979591	-0.111803	-0.167038
176	3037039													9.632096	-0.596515	1.914254	0.189786	-0.789597	-0.583539	-0.066612	-0.603327	0.794707	-0.979563	-0.111954	-0.167100
177	3037206													9.599163	-0.578931	1.910567	0.189939	-0.789563	-0.583536	-0.066571	-0.603345	0.794697	-0.979536	-0.112098	-0.167161
178	3037373													9.603625	-0.562305	1.930508	0.190130	-0.789483	-0.583581	-0.066556	-0.603422	0.794640	-0.979500	-0.112244	-0.167273
179	3037539													9.601352	-0.560163	1.925051	0.190246	-0.789499	-0.583522	-0.066505	-0.603376	0.794679	-0.979481	-0.112377	-0.167295
180	3037706													9.600837	-0.571285	1.921350	0.190398	-0.789566	-0.583382	-0.066476	-0.603258	0.794771	-0.979454	-0.112542	-0.167346
181	3037873													9.591012	-0.578165	1.922222	0.190484	-0.789544	-0.583384	-0.066403	-0.603266	0.794771	-0.979442	-0.112653	-0.167340
182	3038039													9.613264	-0.591068	1.889664	0.190502	-0.789543	-0.583380	-0.066344	-0.603258	0.794782	-0.979442	-0.112704	-0.167303
183	3038206													9.612952	-0.591573	1.908121	0.190520	-0.789515	-0.583411	-0.066268	-0.603285	0.794768	-0.979444	-0.112758	-0.167257
184	3038373													9.633862	-0.573949	1.907567	0.190560	-0.789595	-0.583290	-0.066160	-0.603157	0.794874	-0.979444	-0.112881	-0.167177
185	3038539													9.611150	-0.558732	1.889486	0.190624	-0.789591	-0.583274	-0.066029	-0.603136	0.794901	-0.979440	-0.113014	-0.167108
186	3038706													9.612842	-0.563946	1.904867	0.190659	-0.789604	-0.583245	-0.065926	-0.603101	0.794936	-0.979440	-0.113111	-0.167042
187	3038873													9.601469	-0.574840	1.920352	0.190681	-0.789578	-0.583274	-0.065833	-0.603123	0.794926	-0.979442	-0.113179	-0.166985
188	3039039													9.601591	-0.564851	1.901859	0.190684	-0.789574	-0.583278	-0.065757	-0.603119	0.794936	-0.979447	-0.113227	-0.166926
189	3039206													9.634964	-0.567151	1.923928	0.190711	-0.789579	-0.583262	-0.065720	-0.603104	0.794951	-0.979444	-0.113274	-0.166910
190	3039373													9.621604	-0.548433	1.926235	0.190769	-0.789592	-0.583225	-0.065651	-0.603068	0.794983	-0.979437	-0.113369	-0.166884
191	3039539													9.615881	-0.569919	1.917573	0.190866	-0.789674	-0.583082	-0.065576	-0.602933	0.795092	-0.979423	-0.113520	-0.166863
192	3039706													9.614722	-0.576288	1.937986	0.190995	-0.789677	-0.583037	-0.065497	-0.602900	0.795124	-0.979403	-0.113677	-0.166872
193	3039873													9.607438	-0.565909	1.914225	0.191159	-0.789567	-0.583132	-0.065387	-0.603011	0.795049	-0.979379	-0.113852	-0.166899
194	3040040													9.617023	-0.569929	1.910603	0.191344	-0.789501	-0.583160	-0.065266	-0.603057	0.795024	-0.979351	-0.114063	-0.166919
195	3040206													9.641973	-0.577819	1.901269	0.191560	-0.789468	-0.583133	-0.065158	-0.603055	0.795034	-0.979316	-0.114301	-0.166962
196	3040373													9.614380	-0.569477	1.913024	0.191818	-0.789393	-0.583150	-0.065067	-0.603105	0.795003	-0.979271	-0.114552	-0.167049
197	3040540													9.612849	-0.576210	1.957108	0.192067	-0.789313	-0.583177	-0.065023	-0.603170	0.794958	-0.979225	-0.114765	-0.167173
198	3040706													9.593323	-0.571718	1.942535	0.192321	-0.789346	-0.583048	-0.064984	-0.603079	0.795030	-0.979178	-0.115012	-0.167279
199	3040873													9.606812	-0.572780	1.925891	0.192567	-0.789384	-0.582916	-0.064937	-0.602983	0.795107	-0.979133	-0.115259	-0.167375
200	3041040													9.609047	-0.574992	1.928405	0.192832	-0.789324	-0.582910	-0.064896	-0.603018	0.795084	-0.979084	-0.115489	-0.167505
201	3041206													9.615417	-0.570921	1.964043	0.193116	-0.789226	-0.582949	-0.064832	-0.603098	0.795028	-0.979032	-0.115738	-0.167635
202	3041373													9.617455	-0.584856	1.957469	0.193403	-0.789106	-0.583016	-0.064823	-0.603214	0.794941	-0.978976	-0.115951	-0.167815
203	3041540													9.601647	-0.566290	1.950653	0.193649	-0.788979	-0.583106	-0.064764	-0.603341	0.794850	-0.978931	-0.116157	-0.167933
204	3041706													9.606426	-0.548863	1.983875	0.193910	-0.788872	-0.583163	-0.064729	-0.603439	0.794778	-0.978881	-0.116368	-0.168076
205	3041873													9.595058	-0.551835	1.983989	0.194122	-0.788704	-0.583320	-0.064727	-0.603634	0.794630	-0.978840	-0.116498	-0.168229
206	3042040													9.612576	-0.556565	1.943104	0.194314	-0.788688	-0.583278	-0.064697	-0.603621	0.794642	-0.978803	-0.116674	-0.168318
207	3042206													9.623081	-0.539271	1.982809	0.194493	-0.788627	-0.583300	-0.064722	-0.603678	0.794597	-0.978766	-0.116791	-0.168453
208	3042373													9.588158	-0.554605	1.978859	0.194616	-0.788572	-0.583335	-0.064770	-0.603739	0.794546	-0.978739	-0.116849	-0.168573
209	3042540													9.582360	-0.575061	1.954100	0.194741	-0.788608	-0.583244	-0.064781	-0.603671	0.794597	-0.978713	-0.116958	-0.168646
210	3042706													9.578817	-0.567405	1.886274	0.194864	-0.788697	-0.583083	-0.064837	-0.603537	0.794695	-0.978685	-0.117052	-0.168745
211	3042873													9.595737	-0.580483	1.938444	0.194970	-0.788787	-0.582925	-0.064804	-0.603393	0.794807	-0.978666	-0.117188	-0.168760
212	3043040													9.624326	-0.524658	1.958453	0.195127	-0.788803	-0.582851	-0.064609	-0.603321	0.794877	-0.978647	-0.117445	-0.168689
213	3043206													9.651246	-0.550096	1.949172	0.195309	-0.788861	-0.582712	-0.064496	-0.603199	0.794979	-0.978619	-0.117684	-0.168689
214	3043373													9.627183	-0.607912	2.030706	0.195455	-0.788960	-0.582528	-0.064497	-0.603040	0.795100	-0.978590	-0.117835	-0.168753
215	3043540													9.628180	-0.581663	2.008173	0.195560	-0.789079	-0.582331	-0.064457	-0.602855	0.795243	-0.978571	-0.117982	-0.168756
216	3043706													9.599699	-0.527612	1.976091	0.195736	-0.789222	-0.582079	-0.064428	-0.602627	0.795418	-0.978538	-0.118189	-0.168804
217	3043873													9.595787	-0.555886	1.985725	0.195903	-0.789357	-0.581840	-0.064422	-0.602415	0.795579	-0.978505	-0.118373	-0.168867
218	3044040													9.593863	-0.564880	1.973437	0.196043	-0.789409	-0.581723	-0.064496	-0.602330	0.795637	-0.978472	-0.118460	-0.168996
219	3044206													9.582369	-0.575991	1.952981	0.196213	-0.789499	-0.581542	-0.064550	-0.602184	0.795743	-0.978434	-0.118596	-0.169119
220	3044373													9.563639	-0.572815	1.982592	0.196351	-0.789547	-0.581430	-0.064611	-0.602103	0.795800	-0.978403	-0.118690	-0.169237
221	3044540													9.591782	-0.584249	1.964268	0.196460	-0.789642	-0.581265	-0.064671	-0.601962	0.795901	-0.978377	-0.118772	-0.169328
222	3044706													9.599204	-0.592438	1.983572	0.196535	-0.789690	-0.581175	-0.064727	-0.601892	0.795950	-0.978358	-0.118814	-0.169408
223	3044873													9.618299	-0.585414	2.001342	0.196594	-0.789697	-0.581145	-0.064772	-0.601877	0.795958	-0.978343	-0.118839	-0.169475
224	3045040													9.610650	-0.559158	2.003134	0.196643	-0.789774	-0.581024	-0.064840	-0.601772	0.796031	-0.978329	-0.118861	-0.169544
225	3045206													9.615718	-0.604317	1.931497	0.196641	-0.789908	-0.580842	-0.064989	-0.601606	0.796145	-0.978319	-0.118806	-0.169636
226	3045373													9.611825	-0.589504	2.009117	0.196709	-0.789851	-0.580897	-0.065047	-0.601681	0.796084	-0.978302	-0.118811	-0.169734
227	3045540													9.577902	-0.541409	1.984005	0.196817	-0.789847	-0.580865	-0.065027	-0.601665	0.796097	-0.978281	-0.118913	-0.169779
228	3045706													9.633563	-0.586158	1.981934	0.196794	-0.789928	-0.580763	-0.065071	-0.601563	0.796170	-0.978283	-0.118891	-0.169786
229	3045873													9.603282	-0.616878	2.011565	0.196853	-0.789888	-0.580798	-0.065128	-0.601616	0.796126	-0.978267	-0.118894	-0.169873
230	3046040													9.573994	-0.603152	2.003853	0.196891	-0.789920	-0.580742	-0.065137	-0.601567	0.796162	-0.978259	-0.118930	-0.169896
231	3046206													9.577462	-0.568456	1.989008	0.196932	-0.789912	-0.580738	-0.065089	-0.601565	0.796168	-0.978254	-0.118991	-0.169882
232	3046373													9.581037	-0.588826	1.974617	0.196926	-0.789825	-0.580859	-0.065057	-0.601682	0.796082	-0.978258	-0.118980	-0.169870
233	3046540													9.579828	-0.593075	1.976320	0.196989	-0.789774	-0.580906	-0.065038	-0.601738	0.796041	-0.978246	-0.119030	-0.169901
234	3046706													9.568488	-0.587606	1.972305	0.196994	-0.789676	-0.581038	-0.064975	-0.601864	0.795951	-0.978249	-0.119045	-0.169873
235	3046873													9.607044	-0.582993	1.998599	0.196971	-0.789647	-0.581086	-0.064886	-0.601897	0.795933	-0.978260	-0.119071	-0.169793
236	3047040													9.627235	-0.580544	1.974453	0.196972	-0.789619	-0.581123	-0.064765	-0.601920	0.795926	-0.978268	-0.119139	-0.169701
237	3047206													9.610552	-0.558633	1.945641	0.196962	-0.789536	-0.581239	-0.064602	-0.602016	0.795867	-0.978280	-0.119206	-0.169580
238	3047373													9.607164	-0.548774	1.977162	0.196853	-0.789469	-0.581366	-0.064422	-0.602103	0.795815	-0.978314	-0.119206	-0.169385
239	3047540													9.599701	-0.563434	1.949499	0.196714	-0.789476	-0.581405	-0.064246	-0.602096	0.795834	-0.978354	-0.119198	-0.169161
240	3047706													9.586019	-0.559254	1.952187	0.196536	-0.789475	-0.581466	-0.064066	-0.602105	0.795842	-0.978401	-0.119159	-0.168914
241	3047873													9.588848	-0.567476	1.912131	0.196304	-0.789527	-0.581473	-0.063928	-0.602055	0.795891	-0.978457	-0.119065	-0.168658
242	3048040													9.608839	-0.577223	1.923422	0.196100	-0.789628	-0.581405	-0.063819	-0.601938	0.795989	-0.978505	-0.118989	-0.168433
243	3048206													9.618517	-0.578584	1.940307	0.195948	-0.789722	-0.581330	-0.063713	-0.601822	0.796085	-0.978542	-0.118953	-0.168241
244	3048373													9.642015	-0.569571	1.951319	0.195779	-0.789720	-0.581390	-0.063665	-0.601847	0.796069	-0.978579	-0.118840	-0.168106
245	3048540													9.630675	-0.592706	1.944183	0.195702	-0.789786	-0.581326	-0.063636	-0.601766	0.796133	-0.978597	-0.118812	-0.168025
246	3048706													9.608125	-0.604154	1.934524	0.195650	-0.789785	-0.581344	-0.063543	-0.601765	0.796142	-0.978613	-0.118825	-0.167921
247	3048873													9.619843	-0.580794	1.967068	0.195688	-0.789698	-0.581449	-0.063479	-0.601869	0.796068	-0.978610	-0.118871	-0.167907
248	3049040													9.639286	-0.584105	1.955289	0.195737	-0.789702	-0.581428	-0.063399	-0.601847	0.796091	-0.978605	-0.118962	-0.167870
249	3049206													9.625095	-0.566178	1.951532	0.195919	-0.789648	-0.581440	-0.063315	-0.601880	0.796073	-0.978574	-0.119152	-0.167916
250	3049373													9.601952	-0.556673	1.945609	0.196106	-0.789521	-0.581548	-0.063200	-0.602008	0.795985	-0.978544	-0.119343	-0.167955
251	3049540													9.623364	-0.552053	1.965445	0.196263	-0.789312	-0.581780	-0.063087	-0.602254	0.795808	-0.978520	-0.119485	-0.167996
252	3049706													9.603673	-0.536732	1.942219	0.196455	-0.789134	-0.581957	-0.062892	-0.602442	0.795681	-0.978494	-0.119715	-0.167983
253	3049873													9.583167	-0.521891	1.977759	0.196663	-0.789047	-0.582004	-0.062693	-0.602501	0.795652	-0.978465	-0.119988	-0.167957
254	3050040													9.567659	-0.513576	1.995756	0.196866	-0.788953	-0.582062	-0.062492	-0.602570	0.795615	-0.978437	-0.120255	-0.167928
255	3050206													9.555429	-0.505572	1.983082	0.197032	-0.788862	-0.582130	-0.062294	-0.602644	0.795575	-0.978416	-0.120491	-0.167881
256	3050373													9.564988	-0.496628	2.019034	0.197132	-0.788857	-0.582102	-0.062120	-0.602611	0.795614	-0.978407	-0.120681	-0.167798
257	3050540													9.572895	-0.502682	2.025889	0.197121	-0.788978	-0.581942	-0.061996	-0.602432	0.795759	-0.978417	-0.120783	-0.167665
258	3050706													9.592337	-0.522204	1.969723	0.196998	-0.789162	-0.581735	-0.061969	-0.602199	0.795937	-0.978443	-0.120749	-0.167536
259	3050873													9.617093	-0.510682	1.985814	0.196787	-0.789383	-0.581507	-0.062028	-0.601939	0.796129	-0.978482	-0.120598	-0.167417
260	3051040													9.586229	-0.543635	1.982954	0.196543	-0.789744	-0.581099	-0.062140	-0.601500	0.796452	-0.978524	-0.120428	-0.167295
261	3051206													9.554664	-0.600415	1.948547	0.196182	-0.790099	-0.580738	-0.062254	-0.601088	0.796755	-0.978589	-0.120156	-0.167109
262	3051373													9.564357	-0.550313	1.951547	0.195904	-0.790407	-0.580412	-0.062361	-0.600724	0.797020	-0.978638	-0.119945	-0.166975
263	3051540													9.587247	-0.577062	1.913344	0.195498	-0.790736	-0.580101	-0.062516	-0.600360	0.797283	-0.978710	-0.119602	-0.166802
264	3051706													9.638056	-0.583782	1.977053	0.195058	-0.791030	-0.579848	-0.062571	-0.600036	0.797522	-0.978794	-0.119281	-0.166537
265	3051873													9.644219	-0.558641	1.979807	0.194798	-0.791142	-0.579782	-0.062576	-0.599926	0.797605	-0.978845	-0.119091	-0.166370
266	3052040													9.573408	-0.581931	2.004868	0.194611	-0.791265	-0.579677	-0.062667	-0.599799	0.797693	-0.978877	-0.118913	-0.166314
267	3052206													9.562970	-0.595825	1.988368	0.194380	-0.791294	-0.579716	-0.062717	-0.599805	0.797685	-0.978919	-0.118696	-0.166218
268	3052373													9.609859	-0.565129	1.939786	0.194227	-0.791207	-0.579886	-0.062711	-0.599949	0.797576	-0.978950	-0.118546	-0.166143
269	3052540													9.590143	-0.529620	1.947624	0.194156	-0.791100	-0.580055	-0.062670	-0.600103	0.797464	-0.978967	-0.118480	-0.166092
270	3052873													9.638411	-0.562000	1.965751	0.193983	-0.791007	-0.580241	-0.062777	-0.600273	0.797328	-0.978994	-0.118242	-0.166100
271	3053040													9.613213	-0.556253	1.926733	0.194032	-0.790887	-0.580387	-0.062884	-0.600441	0.797192	-0.978978	-0.118184	-0.166239
272	3053206													9.608454	-0.562677	1.941840	0.194092	-0.790910	-0.580335	-0.063011	-0.600415	0.797202	-0.978957	-0.118163	-0.166372
273	3053373													9.613525	-0.562117	1.938170	0.194184	-0.790855	-0.580380	-0.063140	-0.600492	0.797134	-0.978931	-0.118145	-0.166541
274	3053540													9.604977	-0.576585	1.941076	0.194292	-0.790696	-0.580561	-0.063252	-0.600706	0.796964	-0.978902	-0.118122	-0.166725
275	3053706													9.621751	-0.572724	1.963194	0.194388	-0.790545	-0.580734	-0.063380	-0.600912	0.796798	-0.978875	-0.118081	-0.166915
276	3053873													9.562508	-0.611016	1.897079	0.194384	-0.790451	-0.580863	-0.063630	-0.601071	0.796658	-0.978860	-0.117897	-0.167134
277	3054040													9.606170	-0.646665	1.942186	0.194337	-0.790295	-0.581091	-0.063818	-0.601316	0.796458	-0.978857	-0.117697	-0.167293
278	3054206													9.616045	-0.541514	1.924665	0.194405	-0.790114	-0.581314	-0.063958	-0.601570	0.796256	-0.978834	-0.117616	-0.167483
279	3054373													9.618561	-0.554480	1.934297	0.194377	-0.790004	-0.581474	-0.064186	-0.601753	0.796099	-0.978825	-0.117421	-0.167674
280	3054540													9.645965	-0.622000	1.959364	0.194378	-0.789781	-0.581777	-0.064428	-0.602087	0.795827	-0.978809	-0.117208	-0.167916
281	3054706													9.605742	-0.592295	1.919137	0.194375	-0.789592	-0.582033	-0.064664	-0.602373	0.795591	-0.978794	-0.117007	-0.168144
282	3054873													9.580746	-0.563815	1.923974	0.194321	-0.789426	-0.582277	-0.064839	-0.602631	0.795382	-0.978793	-0.116805	-0.168289
283	3055040													9.593292	-0.581678	1.928514	0.194193	-0.789372	-0.582392	-0.064944	-0.602737	0.795292	-0.978811	-0.116618	-0.168313
284	3055206													9.600282	-0.587062	1.900408	0.194085	-0.789200	-0.582662	-0.065020	-0.602999	0.795088	-0.978828	-0.116430	-0.168347
285	3055373													9.602217	-0.591238	1.910075	0.193951	-0.789111	-0.582826	-0.065073	-0.603148	0.794971	-0.978851	-0.116259	-0.168331
286	3055540													9.622716	-0.582631	1.888165	0.193749	-0.789058	-0.582966	-0.065107	-0.603257	0.794885	-0.978888	-0.116053	-0.168254
287	3055706													9.624303	-0.598035	1.890008	0.193621	-0.789000	-0.583086	-0.065113	-0.603357	0.794808	-0.978913	-0.115925	-0.168197
288	3055873													9.614863	-0.589023	1.903391	0.193522	-0.789011	-0.583104	-0.065089	-0.603355	0.794812	-0.978935	-0.115860	-0.168118
289	3056040													9.631443	-0.575392	1.904197	0.193368	-0.789079	-0.583063	-0.065073	-0.603285	0.794866	-0.978966	-0.115760	-0.168004
290	3056206													9.622049	-0.576764	1.903955	0.193290	-0.789167	-0.582971	-0.065062	-0.603178	0.794949	-0.978982	-0.115726	-0.167933
291	3056373													9.615785	-0.594351	1.892175	0.193211	-0.789205	-0.582945	-0.065016	-0.603132	0.794987	-0.979001	-0.115700	-0.167843
292	3056540													9.615513	-0.606346	1.898362	0.193139	-0.789304	-0.582834	-0.064992	-0.603006	0.795085	-0.979017	-0.115683	-0.167762
293	3056707													9.617881	-0.613441	1.884029	0.193137	-0.789440	-0.582651	-0.064926	-0.602813	0.795237	-0.979021	-0.115761	-0.167680
294	3056873													9.621872	-0.602165	1.913249	0.193199	-0.789509	-0.582537	-0.064844	-0.602699	0.795329	-0.979015	-0.115883	-0.167636
295	3057040													9.621486	-0.624971	1.928509	0.193331	-0.789571	-0.582410	-0.064762	-0.602584	0.795423	-0.978994	-0.116062	-0.167633
296	3057207													9.621160	-0.617922	1.938601	0.193533	-0.789532	-0.582396	-0.064664	-0.602593	0.795424	-0.978960	-0.116281	-0.167676
297	3057373													9.615541	-0.605509	1.922484	0.193754	-0.789503	-0.582361	-0.064508	-0.602578	0.795449	-0.978927	-0.116555	-0.167682
298	3057540													9.604419	-0.607862	1.940721	0.194040	-0.789373	-0.582443	-0.064320	-0.602687	0.795381	-0.978883	-0.116873	-0.167718
299	3057707													9.633870	-0.586000	1.924861	0.194349	-0.789296	-0.582444	-0.064102	-0.602715	0.795377	-0.978836	-0.117245	-0.167732
300	3057873													9.620035	-0.587184	1.928205	0.194692	-0.789191	-0.582471	-0.063859	-0.602773	0.795353	-0.978783	-0.117653	-0.167752
301	3058040													9.612926	-0.586578	1.911388	0.195050	-0.789024	-0.582577	-0.063593	-0.602910	0.795271	-0.978730	-0.118069	-0.167774
302	3058207													9.622663	-0.580933	1.903305	0.195392	-0.788841	-0.582711	-0.063292	-0.603068	0.795175	-0.978681	-0.118490	-0.167762
303	3058373													9.608829	-0.569179	1.944752	0.195717	-0.788676	-0.582826	-0.063099	-0.603216	0.795078	-0.978628	-0.118835	-0.167825
304	3058540													9.591337	-0.562617	1.927158	0.196045	-0.788591	-0.582830	-0.062888	-0.603251	0.795068	-0.978576	-0.119217	-0.167857
305	3058707													9.603688	-0.571362	1.955527	0.196366	-0.788526	-0.582809	-0.062772	-0.603272	0.795062	-0.978519	-0.119539	-0.167959
306	3058873													9.586582	-0.574464	1.969932	0.196650	-0.788487	-0.582766	-0.062692	-0.603268	0.795071	-0.978467	-0.119816	-0.168064
307	3059040													9.595788	-0.590006	1.918335	0.196911	-0.788448	-0.582731	-0.062643	-0.603272	0.795072	-0.978418	-0.120055	-0.168181
308	3059207													9.620112	-0.576641	1.970861	0.197147	-0.788418	-0.582692	-0.062608	-0.603269	0.795077	-0.978373	-0.120266	-0.168293
309	3059373													9.588464	-0.594191	1.974329	0.197407	-0.788355	-0.582690	-0.062590	-0.603309	0.795047	-0.978322	-0.120477	-0.168440
310	3059540													9.587956	-0.593183	1.946084	0.197685	-0.788267	-0.582714	-0.062580	-0.603381	0.794994	-0.978266	-0.120692	-0.168610
311	3059707													9.560370	-0.598419	1.930581	0.197947	-0.788224	-0.582683	-0.062653	-0.603404	0.794971	-0.978208	-0.120855	-0.168827
312	3059873													9.621271	-0.612365	1.955111	0.198126	-0.788164	-0.582703	-0.062644	-0.603455	0.794933	-0.978173	-0.120994	-0.168934
313	3060040													9.657909	-0.542381	1.988322	0.198396	-0.788074	-0.582734	-0.062506	-0.603516	0.794897	-0.978127	-0.121280	-0.168994
314	3060207													9.616574	-0.567012	2.006254	0.198793	-0.787992	-0.582709	-0.062435	-0.603551	0.794876	-0.978051	-0.121634	-0.169180
315	3060373													9.595031	-0.589688	2.015478	0.199049	-0.787865	-0.582794	-0.062400	-0.603676	0.794784	-0.978001	-0.121835	-0.169324
316	3060540													9.583302	-0.563787	1.998404	0.199357	-0.787664	-0.582959	-0.062284	-0.603883	0.794636	-0.977946	-0.122107	-0.169447
317	3060707													9.566818	-0.517483	1.989311	0.199654	-0.787542	-0.583023	-0.062122	-0.603979	0.794576	-0.977895	-0.122421	-0.169511
318	3060873													9.602610	-0.550627	2.008691	0.199886	-0.787476	-0.583033	-0.061995	-0.604013	0.794559	-0.977856	-0.122676	-0.169553
319	3061040													9.614652	-0.555833	1.998268	0.200189	-0.787325	-0.583133	-0.061922	-0.604158	0.794455	-0.977799	-0.122933	-0.169698
320	3061207													9.568528	-0.544806	2.021315	0.200597	-0.787244	-0.583102	-0.061862	-0.604191	0.794435	-0.977719	-0.123290	-0.169899
321	3061373													9.576216	-0.566512	2.051975	0.200941	-0.787179	-0.583071	-0.061799	-0.604212	0.794423	-0.977652	-0.123599	-0.170058
322	3061540													9.594303	-0.571120	2.009722	0.201256	-0.787206	-0.582926	-0.061714	-0.604111	0.794507	-0.977593	-0.123925	-0.170162
323	3061707													9.579492	-0.546727	2.017228	0.201590	-0.787122	-0.582924	-0.061627	-0.604156	0.794480	-0.977529	-0.124236	-0.170300
324	3061873													9.606588	-0.558500	2.026796	0.201899	-0.787054	-0.582909	-0.061501	-0.604179	0.794472	-0.977474	-0.124553	-0.170388
325	3062040													9.594819	-0.555619	2.049277	0.202215	-0.786893	-0.583017	-0.061375	-0.604328	0.794368	-0.977416	-0.124851	-0.170499
326	3062207													9.583789	-0.588665	1.977900	0.202433	-0.786889	-0.582946	-0.061335	-0.604290	0.794400	-0.977374	-0.125057	-0.170592
327	3062373													9.594868	-0.579660	2.002977	0.202587	-0.786763	-0.583063	-0.061253	-0.604424	0.794304	-0.977347	-0.125202	-0.170640
328	3062540													9.559288	-0.517291	1.968184	0.202833	-0.786700	-0.583063	-0.061144	-0.604454	0.794290	-0.977302	-0.125458	-0.170705
329	3062707													9.593659	-0.549509	2.023382	0.202934	-0.786745	-0.582966	-0.061129	-0.604372	0.794354	-0.977282	-0.125565	-0.170741
330	3062873													9.587940	-0.588451	1.994887	0.202988	-0.786787	-0.582891	-0.061160	-0.604309	0.794399	-0.977269	-0.125603	-0.170788
331	3063040													9.582948	-0.567108	2.017753	0.203019	-0.786842	-0.582806	-0.061204	-0.604235	0.794452	-0.977260	-0.125619	-0.170829
332	3063207													9.597892	-0.568835	2.024988	0.203070	-0.786917	-0.582687	-0.061202	-0.604123	0.794537	-0.977250	-0.125685	-0.170840
333	3063373													9.598360	-0.569761	2.012432	0.203057	-0.786952	-0.582645	-0.061251	-0.604085	0.794563	-0.977249	-0.125654	-0.170865
334	3063540													9.606901	-0.584335	1.996795	0.203082	-0.786871	-0.582745	-0.061297	-0.604196	0.794475	-0.977241	-0.125623	-0.170934
335	3063707													9.589238	-0.563616	2.017264	0.203109	-0.786823	-0.582800	-0.061345	-0.604263	0.794420	-0.977233	-0.125602	-0.170999
336	3063873													9.597396	-0.541073	1.983250	0.203131	-0.786866	-0.582735	-0.061373	-0.604205	0.794462	-0.977226	-0.125615	-0.171025
337	3064040													9.603315	-0.569185	1.981019	0.203180	-0.786835	-0.582760	-0.061414	-0.604243	0.794429	-0.977214	-0.125622	-0.171092
338	3064207													9.597219	-0.568024	1.999819	0.203246	-0.786790	-0.582797	-0.061477	-0.604301	0.794381	-0.977196	-0.125626	-0.171191
339	3064373													9.586402	-0.560892	1.991961	0.203298	-0.786798	-0.582768	-0.061556	-0.604291	0.794383	-0.977180	-0.125623	-0.171284
340	3064540													9.594836	-0.573086	2.012527	0.203398	-0.786792	-0.582741	-0.061650	-0.604294	0.794373	-0.977153	-0.125648	-0.171417
341	3064707													9.606192	-0.567544	1.995332	0.203511	-0.786792	-0.582702	-0.061763	-0.604288	0.794368	-0.977123	-0.125673	-0.171574
342	3064873													9.606815	-0.562576	1.988252	0.203671	-0.786769	-0.582677	-0.061849	-0.604303	0.794350	-0.977084	-0.125748	-0.171740
343	3065040													9.593536	-0.578463	2.010540	0.203884	-0.786689	-0.582710	-0.061934	-0.604385	0.794281	-0.977034	-0.125851	-0.171947
344	3065207													9.602052	-0.568326	2.032139	0.204115	-0.786635	-0.582703	-0.062000	-0.604428	0.794244	-0.976982	-0.125989	-0.172144
345	3065373													9.613728	-0.565479	2.022115	0.204327	-0.786573	-0.582712	-0.062037	-0.604478	0.794202	-0.976935	-0.126127	-0.172308
346	3065540													9.600241	-0.560450	2.045451	0.204573	-0.786474	-0.582760	-0.062105	-0.604580	0.794120	-0.976879	-0.126263	-0.172525
347	3065707													9.585754	-0.561184	2.029808	0.204835	-0.786410	-0.582754	-0.062155	-0.604627	0.794080	-0.976821	-0.126435	-0.172728
348	3065873													9.606086	-0.568240	2.046437	0.205085	-0.786329	-0.582775	-0.062218	-0.604701	0.794018	-0.976765	-0.126582	-0.172938
349	3066040													9.613943	-0.559181	2.068465	0.205330	-0.786296	-0.582733	-0.062276	-0.604710	0.794007	-0.976709	-0.126743	-0.173133
350	3066207													9.572767	-0.576539	2.036716	0.205563	-0.786196	-0.582786	-0.062373	-0.604818	0.793918	-0.976654	-0.126850	-0.173366
351	3066373													9.580267	-0.557217	2.029220	0.205761	-0.786145	-0.582786	-0.062484	-0.604868	0.793871	-0.976605	-0.126933	-0.173580
352	3066540													9.589551	-0.559757	2.028478	0.205967	-0.786053	-0.582836	-0.062556	-0.604965	0.793791	-0.976557	-0.127035	-0.173775
353	3066707													9.577946	-0.573257	2.053832	0.206123	-0.786025	-0.582819	-0.062668	-0.604990	0.793763	-0.976517	-0.127089	-0.173961
354	3066873													9.587241	-0.604024	2.019295	0.206266	-0.786011	-0.582787	-0.062778	-0.604998	0.793749	-0.976480	-0.127137	-0.174135
355	3067040													9.596377	-0.590728	2.046059	0.206418	-0.785998	-0.582750	-0.062934	-0.605009	0.793728	-0.976438	-0.127165	-0.174351
356	3067207													9.565310	-0.586515	2.061230	0.206524	-0.785983	-0.582734	-0.063154	-0.605040	0.793686	-0.976401	-0.127113	-0.174593
357	3067373													9.571123	-0.600112	2.056283	0.206649	-0.785982	-0.582691	-0.063374	-0.605048	0.793663	-0.976360	-0.127083	-0.174843
358	3067540													9.562893	-0.612239	2.066648	0.206747	-0.785965	-0.582678	-0.063581	-0.605079	0.793622	-0.976326	-0.127032	-0.175071
359	3067707													9.601925	-0.582513	2.066082	0.206835	-0.785971	-0.582639	-0.063811	-0.605086	0.793599	-0.976293	-0.126966	-0.175307
360	3067873													9.579726	-0.623881	2.051461	0.206935	-0.785975	-0.582598	-0.064015	-0.605089	0.793580	-0.976258	-0.126924	-0.175528
361	3068040													9.556081	-0.628942	2.048753	0.207062	-0.785884	-0.582676	-0.064185	-0.605213	0.793472	-0.976220	-0.126899	-0.175758
362	3068207													9.542889	-0.617787	1.982255	0.207202	-0.785837	-0.582690	-0.064452	-0.605287	0.793394	-0.976173	-0.126837	-0.176066
363	3068373													9.585551	-0.640863	2.019332	0.207237	-0.785833	-0.582683	-0.064689	-0.605318	0.793351	-0.976150	-0.126718	-0.176279
364	3068540													9.618441	-0.602100	2.079853	0.207339	-0.785812	-0.582675	-0.064764	-0.605338	0.793329	-0.976123	-0.126752	-0.176402
365	3068707													9.611399	-0.616327	2.076555	0.207543	-0.785816	-0.582597	-0.064917	-0.605316	0.793333	-0.976070	-0.126830	-0.176641
366	3068873													9.578896	-0.655847	2.095812	0.207664	-0.785784	-0.582597	-0.065102	-0.605362	0.793283	-0.976032	-0.126808	-0.176868
367	3069040													9.568729	-0.653736	2.051718	0.207859	-0.785730	-0.582600	-0.065187	-0.605412	0.793238	-0.975984	-0.126904	-0.177059
368	3069207													9.555491	-0.619348	2.079844	0.208062	-0.785671	-0.582607	-0.065176	-0.605455	0.793207	-0.975942	-0.127064	-0.177179
369	3069373													9.571630	-0.645366	2.046148	0.208165	-0.785635	-0.582620	-0.065143	-0.605482	0.793188	-0.975922	-0.127160	-0.177219
370	3069540													9.581090	-0.634375	2.085712	0.208337	-0.785529	-0.582701	-0.065089	-0.605589	0.793111	-0.975889	-0.127307	-0.177296
371	3069707													9.532325	-0.623367	2.078695	0.208586	-0.785380	-0.582812	-0.064998	-0.605734	0.793008	-0.975842	-0.127528	-0.177396
372	3069873													9.553799	-0.643864	2.075927	0.208759	-0.785262	-0.582909	-0.064851	-0.605845	0.792935	-0.975815	-0.127730	-0.177400
373	3070040													9.567724	-0.637269	2.068360	0.208897	-0.785155	-0.583004	-0.064638	-0.605938	0.792881	-0.975799	-0.127946	-0.177329
374	3070207													9.575529	-0.616951	2.079957	0.209026	-0.785068	-0.583075	-0.064408	-0.606003	0.792850	-0.975787	-0.128171	-0.177235
375	3070373													9.583778	-0.595494	2.098055	0.209140	-0.784974	-0.583161	-0.064138	-0.606076	0.792817	-0.975780	-0.128407	-0.177102
376	3070540													9.594426	-0.597677	2.120997	0.209242	-0.784921	-0.583195	-0.063776	-0.606081	0.792842	-0.975782	-0.128702	-0.176876
377	3070707													9.575804	-0.581041	2.034998	0.209226	-0.784986	-0.583113	-0.063497	-0.605959	0.792958	-0.975804	-0.128881	-0.176627
378	3070873													9.591216	-0.591443	2.111003	0.209105	-0.784998	-0.583141	-0.063154	-0.605920	0.793015	-0.975852	-0.128995	-0.176277
379	3071040													9.543328	-0.551365	2.030746	0.209044	-0.785090	-0.583038	-0.062740	-0.605750	0.793178	-0.975892	-0.129229	-0.175885
380	3071207													9.604816	-0.577697	2.083971	0.208811	-0.785287	-0.582858	-0.062420	-0.605483	0.793407	-0.975962	-0.129290	-0.175448
381	3071373													9.599790	-0.594365	2.082112	0.208613	-0.785467	-0.582685	-0.062145	-0.605236	0.793617	-0.976022	-0.129348	-0.175073
382	3071540													9.549720	-0.595235	2.052447	0.208375	-0.785760	-0.582375	-0.061900	-0.604847	0.793932	-0.976088	-0.129386	-0.174673
383	3071707													9.572572	-0.586988	2.064427	0.208105	-0.786026	-0.582113	-0.061640	-0.604499	0.794218	-0.976162	-0.129399	-0.174250
384	3071873													9.587590	-0.594452	2.039852	0.207753	-0.786366	-0.581780	-0.061412	-0.604069	0.794562	-0.976252	-0.129344	-0.173790
385	3072040													9.578518	-0.603719	2.020394	0.207436	-0.786586	-0.581595	-0.061151	-0.603791	0.794794	-0.976335	-0.129303	-0.173349
386	3072207													9.571750	-0.575935	2.045003	0.207154	-0.786766	-0.581452	-0.060837	-0.603554	0.794998	-0.976415	-0.129313	-0.172893
387	3072373													9.587885	-0.563952	2.042804	0.206826	-0.786980	-0.581280	-0.060559	-0.603284	0.795224	-0.976502	-0.129271	-0.172433
388	3072540													9.612737	-0.579239	2.039956	0.206594	-0.787133	-0.581155	-0.060224	-0.603072	0.795410	-0.976571	-0.129328	-0.171995
389	3072707													9.583587	-0.528695	2.055204	0.206396	-0.787244	-0.581074	-0.059847	-0.602906	0.795565	-0.976637	-0.129426	-0.171551
390	3072873													9.590554	-0.517946	2.037694	0.206219	-0.787328	-0.581023	-0.059517	-0.602779	0.795685	-0.976694	-0.129505	-0.171164
391	3073040													9.594149	-0.527009	2.088783	0.206045	-0.787419	-0.580962	-0.059169	-0.602640	0.795816	-0.976752	-0.129599	-0.170762
392	3073207													9.607796	-0.532234	2.060179	0.205862	-0.787559	-0.580837	-0.058915	-0.602448	0.795981	-0.976806	-0.129642	-0.170420
393	3073374													9.599179	-0.513662	2.034078	0.205710	-0.787721	-0.580671	-0.058667	-0.602221	0.796171	-0.976853	-0.129714	-0.170096
394	3073540													9.590708	-0.524574	2.052691	0.205536	-0.787886	-0.580509	-0.058457	-0.601998	0.796355	-0.976902	-0.129744	-0.169790
395	3073707													9.591288	-0.544363	2.020906	0.205317	-0.788063	-0.580347	-0.058273	-0.601771	0.796540	-0.976959	-0.129724	-0.169477
396	3073874													9.587356	-0.560623	2.032915	0.205094	-0.788236	-0.580190	-0.058135	-0.601555	0.796713	-0.977014	-0.129671	-0.169200
397	3074040													9.580560	-0.567524	2.036815	0.204847	-0.788365	-0.580102	-0.058041	-0.601411	0.796829	-0.977072	-0.129558	-0.168955
398	3074207													9.582880	-0.582747	2.015196	0.204590	-0.788407	-0.580136	-0.057956	-0.601389	0.796851	-0.977131	-0.129405	-0.168731
399	3074374													9.584931	-0.564672	2.027938	0.204366	-0.788424	-0.580192	-0.057898	-0.601399	0.796848	-0.977181	-0.129257	-0.168554
400	3074540													9.583133	-0.556059	2.041003	0.204124	-0.788363	-0.580360	-0.057874	-0.601523	0.796756	-0.977233	-0.129049	-0.168411
401	3074707													9.607551	-0.544494	2.035101	0.203833	-0.788292	-0.580559	-0.057934	-0.601682	0.796632	-0.977290	-0.128746	-0.168311
402	3074874													9.585030	-0.551647	2.026013	0.203605	-0.788225	-0.580729	-0.058003	-0.601824	0.796520	-0.977333	-0.128492	-0.168254
403	3075040													9.600654	-0.544992	2.015399	0.203320	-0.788194	-0.580872	-0.058087	-0.601929	0.796434	-0.977388	-0.128190	-0.168168
404	3075207													9.620691	-0.525808	1.994644	0.203075	-0.788176	-0.580981	-0.058162	-0.602006	0.796370	-0.977434	-0.127932	-0.168094
405	3075374													9.593862	-0.534842	2.008856	0.202863	-0.788197	-0.581027	-0.058232	-0.602025	0.796351	-0.977474	-0.127716	-0.168027
406	3075540													9.599571	-0.550833	1.968818	0.202700	-0.788206	-0.581071	-0.058327	-0.602054	0.796322	-0.977502	-0.127523	-0.168010
407	3075707													9.620370	-0.543279	1.996554	0.202635	-0.788238	-0.581050	-0.058386	-0.602029	0.796336	-0.977512	-0.127441	-0.168015
408	3075874													9.621725	-0.531560	1.999654	0.202656	-0.788234	-0.581049	-0.058391	-0.602033	0.796334	-0.977507	-0.127454	-0.168032
409	3076040													9.620845	-0.546437	1.980225	0.202778	-0.788192	-0.581063	-0.058353	-0.602063	0.796314	-0.977485	-0.127568	-0.168078
410	3076207													9.634578	-0.522185	1.988659	0.203059	-0.788122	-0.581060	-0.058260	-0.602097	0.796295	-0.977432	-0.127842	-0.168177
411	3076374													9.590524	-0.532126	1.996505	0.203416	-0.788027	-0.581064	-0.058159	-0.602149	0.796263	-0.977364	-0.128178	-0.168317
412	3076540													9.627572	-0.537574	2.003651	0.203911	-0.787971	-0.580967	-0.057988	-0.602115	0.796301	-0.977271	-0.128685	-0.168471
413	3076707													9.650402	-0.548191	1.997923	0.204560	-0.787898	-0.580838	-0.057801	-0.602073	0.796346	-0.977146	-0.129328	-0.168701
414	3076874													9.639962	-0.564874	2.020386	0.205374	-0.787953	-0.580476	-0.057591	-0.601821	0.796552	-0.976988	-0.130160	-0.168978
415	3077040													9.623570	-0.542216	1.976839	0.206454	-0.787973	-0.580065	-0.057352	-0.601563	0.796764	-0.976774	-0.131227	-0.169387
416	3077207													9.611992	-0.516268	1.910648	0.207622	-0.788174	-0.579374	-0.057175	-0.601046	0.797167	-0.976537	-0.132384	-0.169855
417	3077374													9.667094	-0.527414	2.016724	0.208922	-0.788428	-0.578561	-0.056912	-0.600416	0.797660	-0.976275	-0.133721	-0.170311
418	3077540													9.698521	-0.511218	2.156389	0.210399	-0.788575	-0.577825	-0.056486	-0.599874	0.798098	-0.975982	-0.135280	-0.170757
419	3077707													9.633488	-0.523954	2.048868	0.212077	-0.788767	-0.576949	-0.056113	-0.599233	0.798606	-0.975641	-0.136992	-0.171344
420	3077874													9.617175	-0.558774	2.085428	0.213904	-0.788603	-0.576498	-0.055749	-0.599051	0.798768	-0.975263	-0.138720	-0.172103
421	3078040													9.521084	-0.607488	2.107300	0.215685	-0.788368	-0.576156	-0.055175	-0.598941	0.798890	-0.974903	-0.140519	-0.172681
422	3078207													9.634873	-0.533975	2.023401	0.217431	-0.788083	-0.575889	-0.054379	-0.598869	0.798999	-0.974560	-0.142411	-0.173068
423	3078374													9.698645	-0.488337	2.107280	0.219827	-0.787660	-0.575559	-0.053663	-0.598861	0.799053	-0.974062	-0.144767	-0.173914
424	3078540													9.595452	-0.519246	2.174797	0.222440	-0.787185	-0.575205	-0.052934	-0.598867	0.799097	-0.973508	-0.147303	-0.174881
425	3078707													9.586198	-0.535279	2.148119	0.225051	-0.786755	-0.574777	-0.052181	-0.598795	0.799200	-0.972949	-0.149868	-0.175813
426	3078874													9.581541	-0.480072	2.170750	0.227941	-0.786097	-0.574539	-0.051370	-0.598960	0.799130	-0.972319	-0.152640	-0.176910
427	3079040													9.567321	-0.472187	2.205867	0.231058	-0.785286	-0.574402	-0.050501	-0.599262	0.798958	-0.971629	-0.155598	-0.178122
428	3079207													9.585556	-0.463458	2.239982	0.234306	-0.784616	-0.574002	-0.049632	-0.599323	0.798967	-0.970895	-0.158714	-0.179368
429	3079374													9.547935	-0.476546	2.296085	0.237786	-0.783867	-0.573594	-0.048678	-0.599407	0.798963	-0.970097	-0.162061	-0.180688
430	3079540													9.469077	-0.466766	2.353951	0.241311	-0.782946	-0.573380	-0.047692	-0.599694	0.798807	-0.969275	-0.165415	-0.182053
431	3079707													9.414217	-0.520524	2.289572	0.244904	-0.782166	-0.572920	-0.046671	-0.599741	0.798832	-0.968423	-0.168899	-0.183384
432	3079874													9.349455	-0.504260	2.368305	0.248928	-0.781219	-0.572478	-0.045386	-0.599844	0.798829	-0.967458	-0.172869	-0.184774
433	3080040													9.703752	-0.363417	2.522257	0.252828	-0.780096	-0.572300	-0.044121	-0.600199	0.798633	-0.966505	-0.176666	-0.186166
434	3080207													9.635312	-0.361604	2.518384	0.257272	-0.778807	-0.572075	-0.042892	-0.600622	0.798382	-0.965387	-0.180864	-0.187928
435	3080374													9.560136	-0.440803	2.554980	0.262015	-0.777453	-0.571765	-0.041554	-0.601003	0.798166	-0.964169	-0.185372	-0.189778
436	3080540													9.467097	-0.543151	2.535623	0.266857	-0.775808	-0.571761	-0.040016	-0.601683	0.797732	-0.962905	-0.190001	-0.191608
437	3080707													9.472807	-0.353609	2.689994	0.271831	-0.773839	-0.572084	-0.038281	-0.602693	0.797054	-0.961583	-0.194764	-0.193454
438	3080874													9.480245	-0.286657	2.686521	0.276762	-0.772007	-0.572196	-0.036588	-0.603489	0.796531	-0.960242	-0.199514	-0.195269
439	3081040													9.482872	-0.302824	2.716340	0.281818	-0.770298	-0.572031	-0.034912	-0.604034	0.796193	-0.958833	-0.204410	-0.197120
440	3081207													9.462032	-0.310483	2.721120	0.287004	-0.768658	-0.571658	-0.032997	-0.604343	0.796041	-0.957361	-0.209604	-0.198812
441	3081374													9.493329	-0.301361	2.729719	0.291853	-0.766935	-0.571517	-0.030878	-0.604775	0.795797	-0.955965	-0.214608	-0.200187
442	3081540													9.359677	-0.275493	2.875564	0.296779	-0.765067	-0.571485	-0.028747	-0.605333	0.795453	-0.954514	-0.219645	-0.201643
443	3081707													9.399820	-0.256377	2.922045	0.301306	-0.763330	-0.571439	-0.026387	-0.605734	0.795229	-0.953162	-0.224529	-0.202653
444	3081874													9.373155	-0.209586	2.962365	0.305555	-0.761528	-0.571586	-0.023929	-0.606247	0.794916	-0.951874	-0.229213	-0.203464
445	3082040													9.356341	-0.204031	2.991918	0.309563	-0.759921	-0.571569	-0.021444	-0.606521	0.794778	-0.950637	-0.233777	-0.204052
446	3082207													9.315494	-0.179730	3.066362	0.313403	-0.758439	-0.571444	-0.019115	-0.606677	0.794718	-0.949428	-0.238144	-0.204632
447	3082374													9.266397	-0.156186	3.076019	0.317126	-0.757206	-0.571026	-0.017149	-0.606585	0.794834	-0.948228	-0.242270	-0.205349
448	3082540													9.269899	-0.128969	3.107128	0.320642	-0.756104	-0.570523	-0.015474	-0.606426	0.794989	-0.947074	-0.246079	-0.206145
449	3082707													9.266259	-0.115647	3.167570	0.323963	-0.755057	-0.570032	-0.013918	-0.606265	0.795141	-0.945967	-0.249663	-0.206916
450	3082874													9.256093	-0.121248	3.243522	0.326805	-0.754240	-0.569492	-0.012603	-0.606003	0.795363	-0.945008	-0.252751	-0.207550
451	3083040													9.310620	-0.105948	3.282135	0.329361	-0.753423	-0.569100	-0.011532	-0.605895	0.795461	-0.944134	-0.255431	-0.208247
452	3083207													9.294890	-0.053492	3.306703	0.332012	-0.752588	-0.568665	-0.010499	-0.605773	0.795568	-0.943217	-0.258168	-0.209025
453	3083374													9.197035	-0.082869	3.301224	0.334871	-0.751654	-0.568223	-0.009450	-0.605689	0.795645	-0.942217	-0.261069	-0.209930
454	3083540													9.217696	-0.065845	3.293863	0.337521	-0.750763	-0.567833	-0.008311	-0.605585	0.795738	-0.941281	-0.263859	-0.210637
455	3083707													9.277296	-0.081992	3.315816	0.339809	-0.750000	-0.567476	-0.007203	-0.605439	0.795859	-0.940467	-0.266353	-0.211136
456	3083874													9.323538	-0.026497	3.451384	0.341903	-0.749113	-0.567391	-0.005954	-0.605492	0.795829	-0.939716	-0.268718	-0.211480
457	3084040													9.266188	0.028089	3.456504	0.343799	-0.748115	-0.567562	-0.004396	-0.605680	0.795696	-0.939033	-0.271065	-0.211521
458	3084207													9.263369	0.003129	3.442326	0.345812	-0.747057	-0.567732	-0.002740	-0.605863	0.795564	-0.938300	-0.273560	-0.211562
459	3084374													9.208555	0.013041	3.395758	0.348333	-0.745873	-0.567749	-0.001000	-0.605977	0.795481	-0.937371	-0.276524	-0.211827
460	3084540													9.169168	0.015326	3.417194	0.351276	-0.744539	-0.567685	0.000738	-0.606105	0.795384	-0.936272	-0.279819	-0.212361
461	3084707													9.222747	0.073227	3.437974	0.354523	-0.743139	-0.567501	0.002423	-0.606190	0.795316	-0.935044	-0.283333	-0.213108
462	3084874													9.243349	0.093386	3.484152	0.357737	-0.741677	-0.567397	0.004083	-0.606358	0.795181	-0.933814	-0.286782	-0.213888
463	3085040													9.158337	0.117834	3.560527	0.360872	-0.740018	-0.567578	0.005872	-0.606773	0.794854	-0.932597	-0.290173	-0.214622
464	3085207													9.099502	0.126436	3.527144	0.364329	-0.738471	-0.567384	0.007523	-0.606905	0.794739	-0.931240	-0.293815	-0.215557
465	3085374													9.080384	0.097744	3.504946	0.367936	-0.737196	-0.566715	0.008747	-0.606697	0.794885	-0.929810	-0.297424	-0.216777
466	3085540													9.119369	0.071751	3.542718	0.371681	-0.735823	-0.566054	0.009927	-0.606550	0.794983	-0.928308	-0.301099	-0.218138
467	3085707													9.132394	0.113242	3.643467	0.375522	-0.734409	-0.565356	0.011104	-0.606391	0.795089	-0.926747	-0.304851	-0.219558
468	3085874													9.096837	0.095635	3.742866	0.379480	-0.733083	-0.564433	0.011991	-0.606118	0.795285	-0.925122	-0.308562	-0.221219
469	3086040													9.076864	0.081690	3.810110	0.383696	-0.731529	-0.563598	0.012842	-0.606026	0.795341	-0.923370	-0.312407	-0.223135
470	3086207													9.057142	0.134517	3.861910	0.388464	-0.729772	-0.562609	0.013606	-0.605951	0.795386	-0.921364	-0.316633	-0.225461
471	3086374													9.081964	0.213112	3.896880	0.393410	-0.727982	-0.561490	0.014334	-0.605807	0.795483	-0.919251	-0.321000	-0.227896
472	3086540													9.136650	0.145644	3.832572	0.397506	-0.726598	-0.560397	0.014968	-0.605505	0.795701	-0.917477	-0.324684	-0.229816
473	3086707													8.977324	0.130624	3.951984	0.401413	-0.725293	-0.559301	0.015507	-0.605190	0.795930	-0.915766	-0.328170	-0.231684
474	3086874													8.850509	0.150731	3.987079	0.405382	-0.724077	-0.558013	0.015793	-0.604781	0.796235	-0.914011	-0.331592	-0.233732
475	3087040													8.892213	0.142531	4.060590	0.409582	-0.722892	-0.556480	0.015779	-0.604288	0.796609	-0.912137	-0.335057	-0.236099
476	3087207													8.950334	0.255303	4.192740	0.414194	-0.721481	-0.554895	0.015788	-0.603861	0.796933	-0.910052	-0.338845	-0.238725
477	3087374													8.995622	0.282750	4.116013	0.419082	-0.720007	-0.553137	0.015950	-0.603284	0.797367	-0.907808	-0.342985	-0.241341
478	3087540													8.967889	0.198389	4.006286	0.423975	-0.718615	-0.551215	0.016077	-0.602556	0.797914	-0.905531	-0.347157	-0.243916
479	3087707													8.803316	0.224962	4.078362	0.428791	-0.717308	-0.549188	0.016000	-0.601785	0.798498	-0.903262	-0.351176	-0.246563
480	3087874													8.674522	0.233004	4.192314	0.433452	-0.716138	-0.547052	0.015802	-0.600909	0.799161	-0.901038	-0.355042	-0.249149
481	3088040													8.658878	0.226898	4.291510	0.438288	-0.714892	-0.544824	0.015674	-0.599973	0.799866	-0.898698	-0.359112	-0.251756
482	3088207													8.797416	0.210506	4.351669	0.443053	-0.713586	-0.542677	0.015677	-0.599072	0.800542	-0.896358	-0.363190	-0.254234
483	3088374													8.816190	0.202152	4.387713	0.447627	-0.712307	-0.540601	0.015762	-0.598171	0.801214	-0.894082	-0.367166	-0.256529
484	3088540													8.764802	0.143158	4.442435	0.451750	-0.711142	-0.538702	0.015938	-0.597299	0.801860	-0.892002	-0.370826	-0.258496
485	3088707													8.649591	0.124671	4.481578	0.455472	-0.709985	-0.537091	0.016280	-0.596560	0.802403	-0.890101	-0.374216	-0.260158
486	3088874													8.544298	0.112783	4.512180	0.459076	-0.708815	-0.535565	0.016670	-0.595866	0.802911	-0.888241	-0.377525	-0.261732
487	3089040													8.562151	0.196183	4.628256	0.462599	-0.707614	-0.534121	0.017115	-0.595219	0.803381	-0.886402	-0.380785	-0.263236
488	3089207													8.638417	0.139060	4.721230	0.465909	-0.706543	-0.532659	0.017502	-0.594512	0.803896	-0.884660	-0.383865	-0.264622
489	3089374													8.620611	0.129654	4.727715	0.469015	-0.705306	-0.531572	0.017989	-0.594123	0.804173	-0.883007	-0.386731	-0.265965
490	3089540													8.580792	0.140620	4.809614	0.472032	-0.703939	-0.530712	0.018470	-0.593971	0.804275	-0.881388	-0.389446	-0.267372
491	3089707													8.544590	0.205591	4.818557	0.474922	-0.702525	-0.530007	0.018927	-0.593968	0.804266	-0.879825	-0.391995	-0.268792
492	3089874													8.498413	0.218279	4.820749	0.477750	-0.701140	-0.529299	0.019280	-0.593993	0.804239	-0.878284	-0.394430	-0.270262
493	3090041													8.530262	0.268100	4.860877	0.480681	-0.699947	-0.528223	0.019528	-0.593685	0.804460	-0.876678	-0.397004	-0.271705
494	3090207													8.627274	0.231492	4.867892	0.483673	-0.698799	-0.527011	0.019746	-0.593262	0.804767	-0.875026	-0.399650	-0.273146
495	3090374													8.593357	0.191437	4.795084	0.486724	-0.697567	-0.525833	0.019889	-0.592941	0.805001	-0.873329	-0.402271	-0.274725
496	3090541													8.498740	0.176197	4.763221	0.489926	-0.696262	-0.524587	0.019876	-0.592676	0.805196	-0.871538	-0.404913	-0.276528
497	3090707													8.422319	0.192992	4.854412	0.493125	-0.695020	-0.523235	0.019786	-0.592333	0.805450	-0.869733	-0.407541	-0.278343
498	3090874													8.481326	0.241980	4.942456	0.496215	-0.693763	-0.521980	0.019858	-0.591994	0.805697	-0.867972	-0.410165	-0.279980
499	3091041													8.509921	0.231333	4.903047	0.499009	-0.692819	-0.520569	0.020037	-0.591320	0.806188	-0.866365	-0.412726	-0.281192
500	3091207													8.479776	0.139076	4.865978	0.501878	-0.691755	-0.519224	0.020413	-0.590662	0.806661	-0.864697	-0.415445	-0.282319
501	3091374													8.413795	0.147148	4.945880	0.504831	-0.690372	-0.518201	0.021178	-0.590227	0.806960	-0.862958	-0.418353	-0.283344
502	3091541													8.464517	0.415118	4.985400	0.507651	-0.689064	-0.517186	0.022032	-0.589709	0.807315	-0.861281	-0.421229	-0.284185
503	3091707													8.448493	0.030698	4.909937	0.510527	-0.687618	-0.516280	0.022989	-0.589292	0.807593	-0.859555	-0.424166	-0.285042
504	3091874													8.370101	0.245192	5.027275	0.513233	-0.685862	-0.515932	0.024126	-0.589377	0.807497	-0.857910	-0.426881	-0.285940
505	3092041													8.343131	0.251007	5.042230	0.515705	-0.684277	-0.515571	0.025140	-0.589419	0.807436	-0.856397	-0.429361	-0.286763
506	3092207													8.402581	0.216816	5.070050	0.517933	-0.682777	-0.515327	0.026119	-0.589521	0.807331	-0.855022	-0.431603	-0.287499
507	3092374													8.368152	0.291561	5.105623	0.520139	-0.681407	-0.514918	0.026908	-0.589518	0.807307	-0.853658	-0.433767	-0.288296
508	3092541													8.422757	0.370616	5.049164	0.522233	-0.680069	-0.514567	0.027696	-0.589540	0.807264	-0.852353	-0.435831	-0.289042
509	3092707													8.406403	0.294105	5.077147	0.524261	-0.679023	-0.513886	0.028284	-0.589248	0.807457	-0.851088	-0.437853	-0.289714
510	3092874													8.313357	0.302461	5.187325	0.526392	-0.677898	-0.513191	0.028894	-0.588971	0.807637	-0.849751	-0.439963	-0.290443
511	3093041													8.356473	0.320196	5.199655	0.528794	-0.676607	-0.512426	0.029467	-0.588743	0.807783	-0.848239	-0.442250	-0.291386
512	3093207													8.445292	0.360608	5.218782	0.531354	-0.675067	-0.511808	0.030031	-0.588764	0.807747	-0.846617	-0.444570	-0.292569
513	3093374													8.391907	0.390710	4.992944	0.533404	-0.673722	-0.511447	0.030481	-0.588945	0.807598	-0.845311	-0.446365	-0.293610
514	3093541													8.312041	0.477131	4.848535	0.534744	-0.672973	-0.511035	0.030843	-0.588817	0.807678	-0.844451	-0.447663	-0.294110
515	3093707													8.138292	0.063458	5.092392	0.535528	-0.673089	-0.510060	0.030946	-0.587920	0.808327	-0.843950	-0.448666	-0.294018
516	3093874													7.946493	0.227467	5.541775	0.536004	-0.672827	-0.509905	0.031334	-0.587727	0.808452	-0.843633	-0.449312	-0.293942
517	3094041													8.285623	0.298741	5.487793	0.536036	-0.672512	-0.510287	0.032102	-0.587791	0.808376	-0.843585	-0.449700	-0.293488
518	3094207													8.403777	0.381910	5.247258	0.536081	-0.672067	-0.510826	0.032877	-0.588043	0.808161	-0.843526	-0.450035	-0.293144
519	3094374													8.372252	0.335558	5.170371	0.536502	-0.671512	-0.511114	0.033462	-0.588254	0.807984	-0.843235	-0.450587	-0.293130
520	3094541													8.300715	0.392999	5.281844	0.537101	-0.671228	-0.510857	0.033634	-0.588103	0.808086	-0.842847	-0.451206	-0.293295
521	3094707													8.295453	0.454418	5.436464	0.537783	-0.671020	-0.510413	0.033437	-0.587961	0.808198	-0.842420	-0.451701	-0.293759
522	3094874													8.243616	0.432902	5.331392	0.538516	-0.670962	-0.509717	0.032940	-0.587696	0.808411	-0.841971	-0.452132	-0.294382
523	3095041													8.276601	0.370477	5.208089	0.539171	-0.670822	-0.509207	0.032453	-0.587621	0.808485	-0.841571	-0.452437	-0.295058
524	3095207													8.247242	0.257098	5.169601	0.539681	-0.670749	-0.508763	0.031919	-0.587589	0.808530	-0.841264	-0.452587	-0.295702
525	3095374													8.121602	0.227529	5.322874	0.539932	-0.670749	-0.508497	0.031492	-0.587604	0.808536	-0.841119	-0.452568	-0.296143
526	3095541													8.111228	0.300089	5.349079	0.540133	-0.670485	-0.508632	0.031309	-0.587949	0.808291	-0.840997	-0.452509	-0.296578
527	3095707													8.168713	0.401647	5.331771	0.540356	-0.670182	-0.508794	0.031212	-0.588292	0.808046	-0.840857	-0.452513	-0.296970
528	3095874													8.275451	0.382630	5.307512	0.540405	-0.670006	-0.508973	0.031159	-0.588558	0.807854	-0.840828	-0.452428	-0.297183
529	3096041													8.351364	0.408303	5.318470	0.540143	-0.669873	-0.509426	0.031279	-0.588928	0.807580	-0.840992	-0.452143	-0.297153
530	3096207													8.210608	0.272316	5.303491	0.539587	-0.670064	-0.509765	0.031368	-0.589052	0.807486	-0.841345	-0.451699	-0.296827
531	3096374													8.066207	0.293189	5.234482	0.538795	-0.670219	-0.510398	0.031615	-0.589346	0.807262	-0.841843	-0.451085	-0.296348
532	3096541													7.966626	0.247301	5.314166	0.537792	-0.670324	-0.511317	0.032134	-0.589750	0.806946	-0.842465	-0.450400	-0.295623
533	3096707													8.176365	0.273597	5.303866	0.536249	-0.670574	-0.512608	0.032928	-0.590230	0.806563	-0.843417	-0.449398	-0.294429
534	3096874													8.232577	0.318554	5.430270	0.534129	-0.670914	-0.514374	0.034005	-0.590894	0.806032	-0.844719	-0.448016	-0.292799
535	3097041													8.201780	0.487817	5.345777	0.531501	-0.671593	-0.516206	0.034904	-0.591529	0.805528	-0.846338	-0.446157	-0.290957
536	3097207													8.144834	0.425728	5.306776	0.528699	-0.672660	-0.517693	0.035252	-0.591978	0.805183	-0.848077	-0.443949	-0.289265
537	3097374													8.050914	0.429544	5.218648	0.525749	-0.674056	-0.518881	0.035113	-0.592272	0.804973	-0.849915	-0.441433	-0.287718
538	3097541													8.336229	0.305356	5.225323	0.522198	-0.675959	-0.519989	0.034774	-0.592342	0.804936	-0.852115	-0.438419	-0.285814
539	3097707													8.289541	0.260999	5.296563	0.517849	-0.677993	-0.521688	0.034607	-0.592723	0.804663	-0.854772	-0.434748	-0.283477
540	3097874													8.206962	0.306108	5.216567	0.513013	-0.680133	-0.523676	0.034475	-0.593256	0.804275	-0.857688	-0.430657	-0.280901
541	3098041													8.070436	0.348834	5.001157	0.507963	-0.682499	-0.525518	0.034084	-0.593686	0.803975	-0.860705	-0.426301	-0.278308
542	3098207													7.989442	0.344853	4.873613	0.503159	-0.684704	-0.527268	0.033514	-0.594207	0.803613	-0.863544	-0.422016	-0.276033
543	3098374													8.282504	0.257866	4.789213	0.498182	-0.686791	-0.529276	0.033015	-0.594950	0.803084	-0.866444	-0.417556	-0.273719
544	3098541													8.551589	0.237896	4.954895	0.492609	-0.688927	-0.531710	0.032648	-0.595925	0.802376	-0.869638	-0.412617	-0.271066
545	3098707													8.589219	0.411290	5.035137	0.486539	-0.691186	-0.534361	0.032220	-0.597025	0.801576	-0.873064	-0.407215	-0.268206
546	3098874													8.612509	0.500277	4.967705	0.480173	-0.693847	-0.536666	0.031489	-0.597784	0.801039	-0.876609	-0.401536	-0.265191
547	3099041													8.566921	0.437121	4.750884	0.473912	-0.696724	-0.538501	0.030395	-0.598228	0.800749	-0.880047	-0.395852	-0.262331
548	3099207													8.638884	0.364784	4.653680	0.467633	-0.699820	-0.539973	0.029157	-0.598338	0.800713	-0.883442	-0.390184	-0.259398
549	3099374													8.713634	0.268106	4.552144	0.461299	-0.703131	-0.541119	0.027640	-0.598202	0.800868	-0.886814	-0.384396	-0.256516
550	3099541													8.789502	0.239008	4.491291	0.454432	-0.706583	-0.542432	0.026002	-0.598158	0.800957	-0.890402	-0.378084	-0.253449
551	3099707													8.856633	0.294991	4.544959	0.447615	-0.710074	-0.543541	0.024231	-0.597979	0.801146	-0.893898	-0.371775	-0.250458
552	3099874													8.745891	0.265833	4.449935	0.440872	-0.713781	-0.544196	0.022248	-0.597422	0.801618	-0.897294	-0.365518	-0.247507
553	3100041													8.757128	0.175288	4.301498	0.433896	-0.717442	-0.544988	0.020335	-0.596942	0.802027	-0.900734	-0.359078	-0.244421
554	3100207													8.848409	0.129313	4.169985	0.427187	-0.720710	-0.545974	0.018529	-0.596740	0.802221	-0.903973	-0.352815	-0.241566
555	3100374													8.931080	0.160112	4.099102	0.420837	-0.723607	-0.547073	0.016975	-0.596690	0.802292	-0.906978	-0.346921	-0.238825
556	3100541													8.964829	0.189925	4.099236	0.414829	-0.726506	-0.547820	0.015438	-0.596360	0.802568	-0.909769	-0.341385	-0.236172
557	3100707													9.064281	0.168163	4.034123	0.408904	-0.729309	-0.548548	0.014161	-0.595954	0.802893	-0.912467	-0.336075	-0.233361
558	3100874													9.098187	0.134790	4.030470	0.403267	-0.731940	-0.549218	0.013047	-0.595524	0.803232	-0.914989	-0.331082	-0.230606
559	3101041													9.126614	0.102004	3.971635	0.397823	-0.734341	-0.549983	0.012122	-0.595201	0.803485	-0.917382	-0.326312	-0.227883
560	3101207													9.083606	0.110299	3.873980	0.392469	-0.736733	-0.550629	0.011236	-0.594777	0.803812	-0.919697	-0.321658	-0.225154
561	3101374													9.112465	0.092144	3.747320	0.387306	-0.738882	-0.551404	0.010430	-0.594534	0.804003	-0.921892	-0.317147	-0.222560
562	3101541													9.083534	0.053462	3.698014	0.382653	-0.740762	-0.552130	0.009769	-0.594336	0.804157	-0.923841	-0.313107	-0.220188
563	3101707													9.104971	0.075771	3.715693	0.378290	-0.742510	-0.552790	0.009114	-0.594151	0.804302	-0.925642	-0.309297	-0.217994
564	3101874													9.207944	0.110408	3.665316	0.373928	-0.744199	-0.553484	0.008471	-0.594010	0.804413	-0.927419	-0.305481	-0.215813
565	3102041													9.111131	0.085613	3.611767	0.369393	-0.745995	-0.554112	0.007737	-0.593796	0.804579	-0.929241	-0.301493	-0.213572
566	3102207													9.114740	0.099158	3.516321	0.364542	-0.747815	-0.554871	0.006954	-0.593672	0.804677	-0.931161	-0.297197	-0.211218
567	3102374													9.046520	0.056443	3.360847	0.359550	-0.750006	-0.555171	0.005875	-0.593127	0.805088	-0.933107	-0.292731	-0.208853
568	3102541													9.108382	0.007866	3.343740	0.355192	-0.751841	-0.555494	0.004870	-0.592746	0.805375	-0.934781	-0.288768	-0.206877
569	3102707													9.224545	0.052497	3.371714	0.351356	-0.753461	-0.555739	0.003989	-0.592375	0.805653	-0.936233	-0.285288	-0.205129
570	3102874													9.293762	0.019423	3.480505	0.347530	-0.755206	-0.555775	0.003041	-0.591810	0.806072	-0.937664	-0.281824	-0.203375
571	3103041													9.317269	0.029238	3.425452	0.343205	-0.757152	-0.555816	0.002029	-0.591160	0.806551	-0.939258	-0.277940	-0.201353
572	3103207													9.263743	-0.006452	3.448059	0.338755	-0.758956	-0.556085	0.001175	-0.590688	0.806899	-0.940874	-0.273994	-0.199207
573	3103374													9.131048	0.043877	3.309451	0.333679	-0.761066	-0.556271	0.000159	-0.590045	0.807370	-0.942687	-0.269491	-0.196764
574	3103541													9.183804	-0.033316	3.133283	0.328850	-0.762854	-0.556697	-0.000735	-0.589689	0.807630	-0.944382	-0.265180	-0.194480
575	3103707													9.324938	-0.029257	3.086598	0.324474	-0.764319	-0.557256	-0.001402	-0.589519	0.807754	-0.945894	-0.261314	-0.192355
576	3103874													9.311240	-0.005208	3.225003	0.320243	-0.765767	-0.557714	-0.002144	-0.589303	0.807909	-0.947333	-0.257532	-0.190362
577	3104041													9.343799	-0.014322	3.178249	0.315791	-0.767275	-0.558180	-0.002843	-0.589045	0.808095	-0.948825	-0.253602	-0.188196
578	3104207													9.237553	0.004532	3.150197	0.310099	-0.769547	-0.558243	-0.003803	-0.588189	0.808715	-0.950697	-0.248659	-0.185324
579	3104374													9.406957	-0.058780	2.924824	0.304328	-0.771773	-0.558347	-0.004655	-0.587347	0.809322	-0.952556	-0.243700	-0.182339
580	3104541													9.426388	-0.030789	2.922025	0.299554	-0.773253	-0.558880	-0.005314	-0.587122	0.809481	-0.954064	-0.239514	-0.179984
581	3104707													9.367282	-0.025998	2.951228	0.295139	-0.774626	-0.559327	-0.006001	-0.586896	0.809640	-0.955435	-0.235600	-0.177864
582	3104874													9.468493	-0.070663	2.827687	0.290954	-0.775917	-0.559730	-0.006582	-0.586650	0.809814	-0.956714	-0.231935	-0.175795
583	3105041													9.487028	-0.002643	2.848504	0.287231	-0.776832	-0.560383	-0.006931	-0.586707	0.809770	-0.957836	-0.228707	-0.173905
584	3105207													9.488878	-0.009581	2.849457	0.283656	-0.777763	-0.560914	-0.007276	-0.586668	0.809795	-0.958898	-0.225622	-0.172071
585	3105374													9.469240	-0.031368	2.785321	0.279936	-0.778684	-0.561505	-0.007799	-0.586715	0.809756	-0.959987	-0.222301	-0.170316
586	3105541													9.429217	-0.106066	2.829845	0.276224	-0.779651	-0.562000	-0.008343	-0.586674	0.809780	-0.961057	-0.218992	-0.168558
587	3105707													9.413921	-0.140755	2.694466	0.272424	-0.781016	-0.561960	-0.008904	-0.586072	0.810210	-0.962136	-0.215717	-0.166614
588	3105874													9.461328	-0.131747	2.583251	0.268963	-0.781816	-0.562514	-0.009206	-0.586096	0.810189	-0.963106	-0.212733	-0.164836
589	3106041													9.506914	-0.088360	2.610365	0.265751	-0.782469	-0.563133	-0.009479	-0.586230	0.810089	-0.963995	-0.209945	-0.163208
590	3106207													9.495064	-0.079554	2.558374	0.262616	-0.783189	-0.563603	-0.009748	-0.586228	0.810087	-0.964851	-0.207248	-0.161588
591	3106374													9.425012	-0.035003	2.567591	0.259215	-0.783822	-0.564296	-0.010086	-0.586432	0.809936	-0.965767	-0.204256	-0.159918
592	3106541													9.437418	-0.035492	2.539591	0.255337	-0.784559	-0.565039	-0.010439	-0.586614	0.809799	-0.966796	-0.200873	-0.157974
593	3106708													9.468803	-0.050429	2.544014	0.251283	-0.785805	-0.565125	-0.010778	-0.586095	0.810171	-0.967854	-0.197491	-0.155746
594	3106874													9.507377	-0.058581	2.299770	0.247526	-0.787078	-0.565012	-0.011120	-0.585429	0.810647	-0.968817	-0.194374	-0.153661
595	3107041													9.572374	-0.040406	2.327388	0.244190	-0.788019	-0.565153	-0.011550	-0.585118	0.810866	-0.969659	-0.191478	-0.151981
596	3107208													9.604788	-0.000015	2.303602	0.241351	-0.788834	-0.565235	-0.012364	-0.584906	0.811007	-0.970359	-0.188749	-0.150920
597	3107374													9.441293	-0.080382	2.401515	0.238582	-0.789269	-0.565803	-0.013494	-0.585266	0.810729	-0.971029	-0.185790	-0.150284
598	3107541													9.506798	-0.139962	2.314031	0.235033	-0.790236	-0.565939	-0.014516	-0.585038	0.810876	-0.971879	-0.182368	-0.148975
599	3107708													9.618530	-0.095334	2.311176	0.231669	-0.791302	-0.565836	-0.015489	-0.584586	0.811184	-0.972671	-0.179162	-0.147687
600	3107874													9.542713	-0.077331	2.323276	0.228093	-0.792399	-0.565753	-0.016479	-0.584129	0.811493	-0.973500	-0.175773	-0.146294
601	3108041													9.490276	-0.075762	2.289925	0.224045	-0.793856	-0.565329	-0.017634	-0.583282	0.812078	-0.974419	-0.171973	-0.144681
602	3108208													9.491898	-0.163513	2.251718	0.219315	-0.795487	-0.564891	-0.018776	-0.582321	0.812742	-0.975473	-0.167640	-0.142648
603	3108374													9.579699	-0.239437	2.078977	0.214271	-0.797151	-0.564481	-0.019755	-0.581322	0.813434	-0.976574	-0.163144	-0.140309
604	3108541													9.623651	-0.263127	2.001920	0.209651	-0.798433	-0.564404	-0.020541	-0.580701	0.813857	-0.977561	-0.159032	-0.138145
605	3108708													9.611489	-0.258318	2.041692	0.205237	-0.799484	-0.564537	-0.021212	-0.580315	0.814116	-0.978482	-0.155112	-0.136061
606	3108874													9.558304	-0.245573	1.996134	0.200629	-0.800731	-0.564427	-0.021942	-0.579670	0.814556	-0.979422	-0.151038	-0.133868
607	3109041													9.595742	-0.259918	1.917393	0.195850	-0.801923	-0.564413	-0.022608	-0.579098	0.814944	-0.980373	-0.146847	-0.131546
608	3109208													9.635440	-0.275529	1.874277	0.190934	-0.802981	-0.564594	-0.023324	-0.578725	0.815189	-0.981326	-0.142478	-0.129227
609	3109374													9.654569	-0.312745	1.743275	0.186283	-0.803535	-0.565358	-0.023868	-0.578961	0.815005	-0.982206	-0.138328	-0.127029
610	3109541													9.709108	-0.264794	1.706088	0.182033	-0.804159	-0.565855	-0.024367	-0.578982	0.814976	-0.982990	-0.134564	-0.124989
611	3109708													9.689759	-0.237902	1.776644	0.178050	-0.804754	-0.566276	-0.024872	-0.578968	0.814971	-0.983707	-0.131021	-0.123101
612	3109874													9.697412	-0.222451	1.799770	0.174012	-0.805407	-0.566603	-0.025426	-0.578865	0.815027	-0.984415	-0.127418	-0.121208
613	3110041													9.632504	-0.204970	1.835769	0.169869	-0.806247	-0.566666	-0.026130	-0.578506	0.815259	-0.985120	-0.123681	-0.119338
614	3110208													9.637277	-0.260272	1.634170	0.165445	-0.807094	-0.566769	-0.026805	-0.578156	0.815486	-0.985855	-0.119726	-0.117287
615	3110374													9.727228	-0.288957	1.535677	0.161209	-0.807629	-0.567228	-0.027255	-0.578169	0.815462	-0.986544	-0.116000	-0.115218
616	3110541													9.774740	-0.265232	1.600046	0.157505	-0.808140	-0.567540	-0.027687	-0.578101	0.815495	-0.987130	-0.112731	-0.113428
617	3110708													9.742566	-0.266077	1.546208	0.154086	-0.808550	-0.567895	-0.028198	-0.578123	0.815462	-0.987655	-0.109638	-0.111880
618	3110874													9.642991	-0.233571	1.527335	0.150829	-0.808710	-0.568541	-0.028881	-0.578480	0.815185	-0.988138	-0.106533	-0.110608
619	3111041													9.572205	-0.259727	1.448337	0.146993	-0.808945	-0.569210	-0.029694	-0.578811	0.814921	-0.988692	-0.102886	-0.109102
620	3111208													9.665214	-0.335204	1.312836	0.142897	-0.809105	-0.570027	-0.030392	-0.579253	0.814581	-0.989271	-0.099077	-0.107363
621	3111374													9.810213	-0.298590	1.335324	0.138796	-0.809972	-0.569808	-0.030928	-0.578642	0.814995	-0.989838	-0.095495	-0.105364
622	3111541													9.797237	-0.326799	1.238419	0.135305	-0.810997	-0.569189	-0.031492	-0.577702	0.815640	-0.990303	-0.092435	-0.103706
623	3111708													9.718492	-0.312084	1.292948	0.131856	-0.811369	-0.569468	-0.032210	-0.577687	0.815622	-0.990745	-0.089202	-0.102305
624	3111874													9.695168	-0.305181	1.330025	0.128252	-0.811838	-0.569623	-0.032904	-0.577533	0.815704	-0.991196	-0.085872	-0.100782
625	3112041													9.771174	-0.295408	1.237267	0.124720	-0.812340	-0.569691	-0.033436	-0.577290	0.815855	-0.991628	-0.082706	-0.099161
626	3112208													9.736565	-0.309805	1.211999	0.121587	-0.812636	-0.569947	-0.034021	-0.577282	0.815836	-0.991998	-0.079804	-0.097837
627	3112374													9.782379	-0.360886	1.149445	0.118010	-0.812961	-0.570235	-0.034543	-0.577261	0.815829	-0.992411	-0.076578	-0.096205
628	3112541													9.843691	-0.321560	1.082451	0.114969	-0.813345	-0.570308	-0.035019	-0.577077	0.815939	-0.992752	-0.073836	-0.094828
629	3112708													9.722703	-0.319475	1.174076	0.112118	-0.813467	-0.570702	-0.035600	-0.577243	0.815796	-0.993057	-0.071149	-0.093679
630	3112874													9.705445	-0.317345	1.135840	0.108775	-0.813568	-0.571205	-0.036158	-0.577472	0.815609	-0.993409	-0.068064	-0.092231
631	3113041													9.819736	-0.326846	1.053489	0.105505	-0.813830	-0.571445	-0.036592	-0.577440	0.815613	-0.993745	-0.065140	-0.090703
632	3113208													9.851841	-0.332350	1.009117	0.102757	-0.814091	-0.571574	-0.036955	-0.577344	0.815665	-0.994020	-0.062693	-0.089411
633	3113374													9.831069	-0.324133	0.961490	0.100468	-0.814264	-0.571734	-0.037360	-0.577324	0.815660	-0.994239	-0.060588	-0.088423
634	3113541													9.806820	-0.355457	0.906431	0.098568	-0.814101	-0.572297	-0.037881	-0.577751	0.815334	-0.994409	-0.058687	-0.087787
635	3113708													9.742668	-0.322061	1.032628	0.096959	-0.812762	-0.574470	-0.038419	-0.579816	0.813841	-0.994547	-0.056839	-0.087444
636	3113874													9.719895	-0.351177	0.983006	0.094664	-0.812390	-0.575379	-0.038907	-0.580552	0.813293	-0.994749	-0.054604	-0.086565
637	3114041													9.880692	-0.376834	0.765414	0.092609	-0.812642	-0.575358	-0.039252	-0.580372	0.813405	-0.994929	-0.052745	-0.085645
638	3114208													9.897547	-0.364327	0.886115	0.091103	-0.812895	-0.575241	-0.039711	-0.580149	0.813541	-0.995049	-0.051273	-0.085135
639	3114374													9.810812	-0.370042	0.899212	0.089838	-0.813174	-0.575046	-0.040198	-0.579871	0.813716	-0.995145	-0.049987	-0.084782
640	3114541													9.822217	-0.388144	0.862279	0.089008	-0.813067	-0.575326	-0.040558	-0.580098	0.813536	-0.995205	-0.049078	-0.084610
641	3114708													9.797513	-0.418977	0.865267	0.088146	-0.812926	-0.575657	-0.040873	-0.580372	0.813325	-0.995269	-0.048162	-0.084384
642	3114874													9.806873	-0.414211	0.770732	0.087561	-0.812929	-0.575742	-0.040984	-0.580413	0.813291	-0.995316	-0.047616	-0.084139
643	3115041													9.823787	-0.398824	0.824226	0.087364	-0.812966	-0.575720	-0.040943	-0.580372	0.813322	-0.995335	-0.047484	-0.083989
644	3115208													9.855330	-0.380044	0.888727	0.087478	-0.812922	-0.575765	-0.040905	-0.580424	0.813286	-0.995326	-0.047593	-0.084026
645	3115374													9.831554	-0.386583	0.922640	0.087963	-0.812658	-0.576064	-0.041006	-0.580770	0.813035	-0.995279	-0.047895	-0.084411
646	3115541													9.822495	-0.382333	0.903230	0.088413	-0.812374	-0.576395	-0.041048	-0.581141	0.812767	-0.995238	-0.048199	-0.084727
647	3115708													9.860472	-0.386615	0.854900	0.089024	-0.812296	-0.576411	-0.041065	-0.581210	0.812717	-0.995183	-0.048681	-0.085099
648	3115874													9.870002	-0.335879	0.819541	0.090118	-0.812331	-0.576193	-0.041189	-0.581092	0.812795	-0.995079	-0.049515	-0.085826
649	3116041													9.832321	-0.356534	0.811904	0.091494	-0.812258	-0.576078	-0.041354	-0.581105	0.812777	-0.994947	-0.050541	-0.086758
650	3116208													9.807127	-0.372079	0.843520	0.093251	-0.811804	-0.576436	-0.041704	-0.581635	0.812380	-0.994769	-0.051715	-0.088093
651	3116374													9.740255	-0.346724	0.972747	0.094848	-0.810791	-0.577600	-0.042189	-0.582968	0.811399	-0.994597	-0.052592	-0.089500
652	3116541													9.732858	-0.373294	0.951009	0.096074	-0.809826	-0.578750	-0.042725	-0.584259	0.810442	-0.994457	-0.053135	-0.090732
653	3116708													9.779077	-0.420710	0.830692	0.096916	-0.809446	-0.579142	-0.042948	-0.584740	0.810083	-0.994366	-0.053637	-0.091434
654	3116874													9.867112	-0.415862	0.806997	0.098021	-0.809171	-0.579340	-0.043077	-0.585047	0.809854	-0.994252	-0.054426	-0.092204
655	3117041													9.777761	-0.388024	0.911694	0.099221	-0.808886	-0.579533	-0.043262	-0.585363	0.809617	-0.994124	-0.055260	-0.093075
656	3117208													9.724644	-0.393013	0.980033	0.100073	-0.808681	-0.579673	-0.043442	-0.585593	0.809440	-0.994031	-0.055821	-0.093733
657	3117374													9.780061	-0.399887	0.995877	0.100614	-0.808511	-0.579816	-0.043577	-0.585795	0.809287	-0.993971	-0.056159	-0.094172
658	3117541													9.810560	-0.374999	0.979825	0.101182	-0.808315	-0.579991	-0.043578	-0.586024	0.809121	-0.993913	-0.056593	-0.094520
659	3117708													9.770965	-0.393004	0.988763	0.101716	-0.808065	-0.580245	-0.043428	-0.586321	0.808914	-0.993865	-0.057081	-0.094731
660	3117874													9.746587	-0.399986	0.978535	0.102055	-0.807773	-0.580592	-0.043144	-0.586685	0.808665	-0.993843	-0.057479	-0.094725
661	3118041													9.796546	-0.374112	0.990749	0.102347	-0.807511	-0.580905	-0.042767	-0.587004	0.808454	-0.993829	-0.057899	-0.094614
662	3118208													9.820365	-0.402625	1.055157	0.102671	-0.807381	-0.581028	-0.042320	-0.587132	0.808384	-0.993815	-0.058408	-0.094450
663	3118374													9.862308	-0.403673	1.056924	0.103246	-0.807491	-0.580774	-0.041808	-0.586902	0.808578	-0.993777	-0.059201	-0.094355
664	3118541													9.920723	-0.416972	1.026731	0.104581	-0.807627	-0.580346	-0.041166	-0.586561	0.808858	-0.993664	-0.060701	-0.094591
665	3118708													9.864613	-0.429436	1.000715	0.106578	-0.807486	-0.580179	-0.040390	-0.586537	0.808915	-0.993484	-0.062779	-0.095127
666	3118874													9.869535	-0.384640	1.009130	0.109153	-0.807076	-0.580271	-0.039542	-0.586823	0.808749	-0.993238	-0.065332	-0.095967
667	3119041													9.842639	-0.350588	1.057623	0.112333	-0.806605	-0.580319	-0.038723	-0.587125	0.808569	-0.992916	-0.068357	-0.097188
668	3119208													9.842754	-0.364019	1.119851	0.116029	-0.806067	-0.580339	-0.037850	-0.587449	0.808376	-0.992524	-0.071829	-0.098671
669	3119374													9.884592	-0.326041	1.123655	0.120294	-0.805492	-0.580269	-0.037169	-0.587758	0.808182	-0.992042	-0.075652	-0.100643
670	3119541													9.808711	-0.326586	1.181522	0.125124	-0.804675	-0.580381	-0.036654	-0.588328	0.807791	-0.991464	-0.079800	-0.103109
671	3119708													9.676483	-0.345939	1.251636	0.129505	-0.804015	-0.580335	-0.036123	-0.588700	0.807544	-0.990921	-0.083617	-0.105283
672	3119874													9.764534	-0.356180	1.172270	0.133374	-0.803544	-0.580110	-0.035221	-0.588813	0.807501	-0.990440	-0.087268	-0.106834
673	3120041													9.905906	-0.326706	1.215074	0.137651	-0.803022	-0.579834	-0.034039	-0.588896	0.807492	-0.989896	-0.091415	-0.108396
674	3120208													9.867500	-0.328994	1.217654	0.142735	-0.802365	-0.579515	-0.032828	-0.589025	0.807447	-0.989216	-0.096227	-0.110415
675	3120374													9.685700	-0.285479	1.327553	0.147788	-0.801537	-0.579394	-0.031742	-0.589370	0.807240	-0.988510	-0.100909	-0.112544
676	3120541													9.607408	-0.271229	1.417001	0.152119	-0.800265	-0.580031	-0.030708	-0.590405	0.806523	-0.987885	-0.104876	-0.114386
677	3120708													9.708202	-0.258339	1.423693	0.156139	-0.799062	-0.580621	-0.029471	-0.591338	0.805885	-0.987295	-0.108718	-0.115880
678	3120874													9.812041	-0.276365	1.397471	0.160729	-0.798109	-0.580680	-0.028145	-0.591796	0.805596	-0.986597	-0.113139	-0.117582
679	3121041													9.721972	-0.280270	1.509488	0.165755	-0.797188	-0.580531	-0.026766	-0.592094	0.805424	-0.985804	-0.117964	-0.119480
680	3121208													9.558775	-0.271070	1.621054	0.170349	-0.796313	-0.580403	-0.025404	-0.592365	0.805269	-0.985056	-0.122432	-0.121139
681	3121374													9.593844	-0.247666	1.714187	0.174339	-0.795589	-0.580210	-0.024064	-0.592500	0.805211	-0.984392	-0.126417	-0.122441
682	3121541													9.647275	-0.227729	1.731653	0.178041	-0.795069	-0.579799	-0.022780	-0.592385	0.805333	-0.983759	-0.130174	-0.123580
683	3121708													9.683651	-0.239796	1.760358	0.181684	-0.794522	-0.579419	-0.021447	-0.592287	0.805441	-0.983123	-0.133908	-0.124649
684	3121874													9.709516	-0.207057	1.810730	0.185507	-0.793925	-0.579026	-0.020187	-0.592208	0.805532	-0.982436	-0.137743	-0.125885
685	3122041													9.697776	-0.214696	1.830332	0.189423	-0.793159	-0.578808	-0.019048	-0.592337	0.805465	-0.981711	-0.141549	-0.127310
686	3122208													9.648666	-0.200351	1.808659	0.193195	-0.792368	-0.578643	-0.018016	-0.592519	0.805355	-0.980995	-0.145165	-0.128747
687	3122374													9.607857	-0.179315	1.895738	0.196516	-0.791490	-0.578728	-0.016826	-0.592872	0.805121	-0.980356	-0.148482	-0.129827
688	3122541													9.635710	-0.135711	1.946890	0.199431	-0.790651	-0.578877	-0.015457	-0.593209	0.804900	-0.979790	-0.151575	-0.130525
689	3122708													9.652054	-0.155871	2.029147	0.202334	-0.789756	-0.579091	-0.014041	-0.593600	0.804638	-0.979216	-0.154675	-0.131194
690	3122874													9.660934	-0.154610	2.013453	0.205401	-0.788802	-0.579312	-0.012626	-0.594020	0.804352	-0.978596	-0.157900	-0.131972
691	3123041													9.643936	-0.114206	2.055359	0.208500	-0.787750	-0.579635	-0.011236	-0.594551	0.803980	-0.977958	-0.161117	-0.132815
692	3123208													9.622591	-0.100236	2.137791	0.211655	-0.786544	-0.580130	-0.009807	-0.595257	0.803475	-0.977295	-0.164370	-0.133702
693	3123375													9.596185	-0.061563	2.185540	0.214924	-0.785306	-0.580604	-0.008317	-0.595948	0.802980	-0.976595	-0.167751	-0.134615
694	3123541													9.556820	-0.097761	2.210122	0.218342	-0.783987	-0.581111	-0.006696	-0.596669	0.802460	-0.975849	-0.171320	-0.135528
695	3123708													9.594716	-0.085170	2.229386	0.222025	-0.782474	-0.581755	-0.004913	-0.597537	0.801826	-0.975029	-0.175167	-0.136513
696	3123875													9.598945	-0.042788	2.242417	0.226096	-0.780882	-0.582326	-0.003123	-0.598385	0.801203	-0.974100	-0.179330	-0.137731
697	3124041													9.626700	-0.028652	2.272582	0.230042	-0.779337	-0.582851	-0.001359	-0.599170	0.800621	-0.973180	-0.183385	-0.138893
698	3124208													9.681278	0.015260	2.368764	0.233816	-0.777665	-0.583581	0.000641	-0.600095	0.799928	-0.972281	-0.187410	-0.139814
699	3124375													9.628354	0.083563	2.416791	0.237381	-0.776078	-0.584255	0.002548	-0.600947	0.799285	-0.971413	-0.191224	-0.140675
700	3124541													9.576365	0.062043	2.376088	0.240808	-0.774595	-0.584820	0.004446	-0.601664	0.798737	-0.970563	-0.194942	-0.141441
701	3124708													9.538732	0.094783	2.380194	0.244347	-0.773339	-0.585013	0.006274	-0.602027	0.798451	-0.969668	-0.198769	-0.142252
702	3124875													9.489350	0.108148	2.420586	0.248247	-0.772246	-0.584815	0.007817	-0.602097	0.798385	-0.968665	-0.202768	-0.143432
703	3125041													9.532638	0.096902	2.509800	0.252499	-0.771114	-0.584489	0.009213	-0.602119	0.798353	-0.967553	-0.206969	-0.144930
704	3125208													9.481516	0.165334	2.546972	0.257136	-0.770058	-0.583860	0.010316	-0.601953	0.798465	-0.966320	-0.211337	-0.146840
705	3125375													9.583343	0.070505	2.580810	0.261439	-0.769305	-0.582941	0.011181	-0.601492	0.798801	-0.965155	-0.215355	-0.148652
706	3125541													9.625469	0.180237	2.645345	0.265799	-0.768435	-0.582115	0.012025	-0.601146	0.799048	-0.963953	-0.219386	-0.150544
707	3125708													9.454870	0.209053	2.614538	0.270830	-0.767354	-0.581222	0.012923	-0.600835	0.799269	-0.962540	-0.223977	-0.152808
708	3125875													9.341214	0.152632	2.565320	0.276668	-0.766201	-0.579992	0.013746	-0.600334	0.799631	-0.960867	-0.229205	-0.155561
709	3126041													9.325443	0.118288	2.615421	0.282841	-0.764982	-0.578622	0.014439	-0.599791	0.800026	-0.959058	-0.234635	-0.158600
710	3126208													9.320659	0.088918	2.722538	0.289331	-0.763635	-0.577190	0.015012	-0.599287	0.800394	-0.957111	-0.240243	-0.161929
711	3126375													9.373084	0.109487	2.816309	0.295964	-0.762053	-0.575917	0.015522	-0.599012	0.800589	-0.955073	-0.245885	-0.165458
712	3126541													9.392024	0.167492	2.908504	0.302400	-0.760300	-0.574889	0.016102	-0.598966	0.800612	-0.953045	-0.251362	-0.168885
713	3126708													9.370553	0.203380	2.976577	0.308646	-0.758632	-0.573773	0.016619	-0.598831	0.800703	-0.951032	-0.256669	-0.172219
714	3126875													9.261106	0.164679	3.034617	0.315255	-0.756917	-0.572444	0.017142	-0.598562	0.800893	-0.948852	-0.262298	-0.175725
715	3127041													9.273783	0.165649	3.048607	0.322226	-0.755134	-0.570914	0.017617	-0.598193	0.801158	-0.946499	-0.268212	-0.179450
716	3127208													9.336300	0.164984	3.223644	0.329668	-0.753432	-0.568910	0.017939	-0.597489	0.801676	-0.943927	-0.274493	-0.183457
717	3127375													9.445279	0.227334	3.292658	0.337564	-0.751492	-0.566842	0.018373	-0.596814	0.802169	-0.941123	-0.281198	-0.187656
718	3127541													9.410754	0.220508	3.309588	0.344985	-0.749534	-0.564963	0.018789	-0.596281	0.802556	-0.938420	-0.287485	-0.191625
719	3127708													9.135712	0.133598	3.182256	0.352081	-0.747554	-0.563206	0.019169	-0.595850	0.802867	-0.935773	-0.293470	-0.195458
720	3127875													8.937475	0.168435	3.334357	0.359114	-0.745553	-0.561415	0.019518	-0.595411	0.803184	-0.933090	-0.299392	-0.199269
721	3128041													9.009091	0.161933	3.504838	0.366347	-0.743805	-0.559056	0.019723	-0.594484	0.803865	-0.930269	-0.305520	-0.203118
722	3128208													9.276131	0.184070	3.598103	0.374172	-0.741848	-0.556469	0.019941	-0.593483	0.804600	-0.927145	-0.312155	-0.207271
723	3128375													9.327479	0.233760	3.745039	0.382475	-0.739342	-0.554154	0.020386	-0.592857	0.805049	-0.923741	-0.319209	-0.211681
724	3128541													9.189475	0.220420	3.804286	0.390837	-0.736480	-0.552126	0.021075	-0.592520	0.805280	-0.920219	-0.326369	-0.216057
725	3128708													9.030688	0.135293	3.859768	0.399075	-0.733203	-0.550593	0.022195	-0.592582	0.805204	-0.916650	-0.333557	-0.220211
726	3128875													8.871518	0.104009	3.843487	0.407799	-0.729601	-0.548983	0.023650	-0.592606	0.805145	-0.912765	-0.341321	-0.224409
727	3129041													8.916064	0.177693	3.903262	0.417239	-0.725622	-0.547160	0.025371	-0.592535	0.805145	-0.908442	-0.349820	-0.228819
728	3129208													9.018659	0.256549	4.131742	0.427529	-0.721156	-0.545117	0.027366	-0.592404	0.805176	-0.903587	-0.359154	-0.233535
729	3129375													9.073814	0.319975	4.290069	0.438315	-0.716324	-0.542918	0.029523	-0.592233	0.805225	-0.898337	-0.368971	-0.238436
730	3129541													8.913229	0.234759	4.476121	0.448999	-0.711000	-0.541183	0.032106	-0.592439	0.804975	-0.892955	-0.378808	-0.243177
731	3129708													8.668475	0.216481	4.343304	0.459422	-0.705251	-0.539956	0.034912	-0.593102	0.804370	-0.887532	-0.388396	-0.247863
732	3129875													8.414359	0.283216	4.350801	0.470413	-0.699504	-0.537964	0.037563	-0.593203	0.804176	-0.881646	-0.398503	-0.252775
733	3130041													8.515358	0.301918	4.464087	0.481495	-0.693745	-0.535612	0.040089	-0.593043	0.804172	-0.875531	-0.408677	-0.257736
734	3130208													8.660080	0.512293	4.736350	0.491809	-0.687855	-0.533834	0.042779	-0.593278	0.803860	-0.869652	-0.418182	-0.262354
735	3130375													8.435966	0.452443	4.749325	0.500748	-0.682723	-0.532111	0.045065	-0.593339	0.803690	-0.864419	-0.426426	-0.266346
736	3130541													8.120343	0.421864	4.707110	0.508147	-0.678225	-0.530846	0.046957	-0.593619	0.803375	-0.859989	-0.433160	-0.269798
737	3130708													7.959392	0.529542	4.959299	0.514585	-0.674704	-0.529128	0.048006	-0.593465	0.803427	-0.856094	-0.438833	-0.272998
738	3130875													8.056026	0.576813	5.201396	0.520072	-0.672171	-0.526984	0.048203	-0.592907	0.803827	-0.852761	-0.443450	-0.275954
739	3131041													8.247881	0.544162	5.340396	0.524896	-0.670392	-0.524460	0.047842	-0.591955	0.804550	-0.849821	-0.447396	-0.278642
740	3131208													8.327806	0.561450	5.400754	0.529067	-0.669101	-0.521912	0.047306	-0.590829	0.805409	-0.847261	-0.450805	-0.280935
741	3131375													8.254988	0.389410	5.293186	0.532396	-0.667943	-0.520007	0.046953	-0.590058	0.805994	-0.845192	-0.453524	-0.282783
742	3131541													8.150754	0.346270	5.272355	0.535217	-0.666638	-0.518784	0.046879	-0.589765	0.806213	-0.843413	-0.455819	-0.284401
743	3131708													8.091504	0.404694	5.331438	0.537558	-0.665459	-0.517876	0.046891	-0.589618	0.806320	-0.841922	-0.457727	-0.285750
744	3131875													8.189219	0.403815	5.321906	0.539728	-0.664284	-0.517127	0.047012	-0.589540	0.806370	-0.840526	-0.459532	-0.286962
745	3132041													8.188098	0.558527	5.409993	0.542176	-0.662996	-0.516219	0.047172	-0.589368	0.806487	-0.838940	-0.461609	-0.288266
746	3132208													8.272643	0.512951	5.420983	0.545184	-0.661542	-0.514914	0.047293	-0.588976	0.806766	-0.836981	-0.464188	-0.289814
747	3132375													8.425486	0.462369	5.284296	0.548769	-0.659741	-0.513415	0.047586	-0.588504	0.807093	-0.834619	-0.467339	-0.291558
748	3132541													8.428212	0.499337	5.336412	0.553239	-0.657193	-0.511883	0.048215	-0.588196	0.807280	-0.831626	-0.471299	-0.293726
749	3132708													8.317973	0.383723	5.344247	0.558696	-0.653822	-0.510271	0.049105	-0.588092	0.807302	-0.827918	-0.476093	-0.296459
750	3132875													8.238415	0.476413	5.431021	0.564913	-0.649501	-0.508941	0.050492	-0.588421	0.806977	-0.823604	-0.481569	-0.299612
751	3133041													8.152630	0.521370	5.487669	0.571854	-0.644793	-0.507174	0.051962	-0.588525	0.806808	-0.818708	-0.487730	-0.303045
752	3133208													8.128635	0.487587	5.616860	0.579213	-0.639650	-0.505331	0.053531	-0.588720	0.806562	-0.813416	-0.494223	-0.306754
753	3133375													8.012866	0.566186	5.661108	0.586414	-0.634365	-0.503687	0.055061	-0.589170	0.806131	-0.808138	-0.500460	-0.310569
754	3133541													7.771191	0.749543	5.738756	0.592957	-0.629538	-0.502080	0.056364	-0.589542	0.805769	-0.803259	-0.506085	-0.314090
755	3133708													7.580846	0.757058	5.841270	0.598826	-0.625726	-0.499875	0.057049	-0.589245	0.805938	-0.798845	-0.511133	-0.317158
756	3133875													7.593835	0.584487	5.898852	0.604070	-0.622654	-0.497394	0.057228	-0.588633	0.806372	-0.794873	-0.515570	-0.319943
757	3134041													7.567293	0.588022	6.126399	0.608742	-0.619806	-0.495251	0.057359	-0.588222	0.806662	-0.791292	-0.519457	-0.322524
758	3134208													7.706078	0.690339	6.248984	0.612727	-0.617312	-0.493448	0.057582	-0.587853	0.806916	-0.788194	-0.522833	-0.324648
759	3134375													7.622952	0.688426	6.260260	0.616006	-0.615465	-0.491670	0.057651	-0.587255	0.807346	-0.785629	-0.525676	-0.326270
760	3134541													7.547496	0.588178	6.203855	0.618535	-0.614150	-0.490137	0.057724	-0.586576	0.807835	-0.783634	-0.527967	-0.327366
761	3134708													7.441631	0.449458	6.183156	0.620405	-0.613004	-0.489207	0.057957	-0.586224	0.808073	-0.782137	-0.529686	-0.328168
762	3134875													7.446066	0.638698	6.209835	0.621747	-0.612282	-0.488408	0.058031	-0.585863	0.808330	-0.781066	-0.530919	-0.328727
763	3135041													7.491007	0.583758	6.217591	0.622550	-0.611962	-0.487784	0.057993	-0.585513	0.808586	-0.780428	-0.531674	-0.329022
764	3135208													7.611339	0.509692	6.174779	0.622655	-0.612070	-0.487515	0.057914	-0.585269	0.808768	-0.780350	-0.531817	-0.328974
765	3135375													7.587536	0.547462	6.241389	0.621974	-0.612412	-0.487955	0.058086	-0.585355	0.808694	-0.780880	-0.531330	-0.328503
766	3135541													7.555893	0.596954	6.165691	0.620622	-0.613285	-0.488579	0.058172	-0.585371	0.808676	-0.781949	-0.530304	-0.327619
767	3135708													7.533786	0.496089	6.119096	0.618821	-0.614529	-0.489300	0.058145	-0.585348	0.808695	-0.783377	-0.528888	-0.326493
768	3135875													7.458306	0.515615	6.100907	0.616753	-0.615785	-0.490331	0.058155	-0.585566	0.808536	-0.785006	-0.527182	-0.325338
769	3136041													7.667215	0.584294	6.123592	0.614352	-0.617228	-0.491529	0.058238	-0.585782	0.808374	-0.786880	-0.525252	-0.323930
770	3136208													7.732118	0.622746	6.171822	0.611553	-0.619104	-0.492660	0.058172	-0.585803	0.808363	-0.789062	-0.523016	-0.322235
771	3136375													7.773506	0.642954	6.082545	0.608115	-0.621406	-0.494016	0.058126	-0.585779	0.808383	-0.791718	-0.520305	-0.320101
772	3136541													7.589539	0.567925	5.975598	0.604113	-0.623966	-0.495696	0.058254	-0.585789	0.808367	-0.794767	-0.517221	-0.317534
773	3136708													7.488333	0.502158	5.808950	0.599826	-0.626518	-0.497678	0.058581	-0.585939	0.808235	-0.797983	-0.513955	-0.314759
774	3136875													7.653752	0.582971	5.805297	0.595270	-0.629191	-0.499772	0.059007	-0.586065	0.808113	-0.801356	-0.510535	-0.311740
775	3137041													7.706212	0.551979	6.098863	0.590296	-0.632162	-0.501918	0.059440	-0.586080	0.808070	-0.804995	-0.506835	-0.308385
776	3137208													7.772940	0.649654	6.076882	0.584907	-0.635296	-0.504265	0.059776	-0.586251	0.807921	-0.808895	-0.502702	-0.304927
777	3137375													7.834207	0.684985	5.879456	0.579221	-0.638842	-0.506344	0.059668	-0.586259	0.807924	-0.812984	-0.498178	-0.301455
778	3137541													7.699987	0.660883	5.563375	0.573585	-0.642447	-0.508194	0.059195	-0.586265	0.807954	-0.817004	-0.493513	-0.298244
779	3137708													7.705183	0.551811	5.433183	0.568145	-0.646111	-0.509659	0.058512	-0.586039	0.808168	-0.820845	-0.488978	-0.295150
780	3137875													8.025226	0.370977	5.536272	0.562282	-0.649662	-0.511643	0.057947	-0.586239	0.808063	-0.824913	-0.484008	-0.291985
781	3138041													8.113801	0.555081	5.671750	0.555801	-0.652796	-0.514725	0.057747	-0.587357	0.807266	-0.829307	-0.478403	-0.288757
782	3138208													8.115536	0.747190	5.591627	0.548806	-0.656443	-0.517586	0.057243	-0.588195	0.806690	-0.833988	-0.472345	-0.285228
783	3138375													8.070861	0.697829	5.437489	0.541805	-0.660248	-0.520116	0.056561	-0.588770	0.806319	-0.838599	-0.466285	-0.281654
784	3138541													8.048490	0.705311	5.204563	0.535036	-0.664029	-0.522305	0.055703	-0.589165	0.806091	-0.842991	-0.460381	-0.278236
785	3138708													8.079123	0.590667	5.128956	0.528249	-0.667844	-0.524345	0.054808	-0.589431	0.805958	-0.847319	-0.454484	-0.274763
786	3138875													8.350307	0.572381	5.124002	0.521231	-0.671814	-0.526293	0.053898	-0.589545	0.805935	-0.851712	-0.448445	-0.271080
787	3139041													8.484981	0.618397	5.247700	0.513644	-0.676097	-0.528264	0.052976	-0.589525	0.806011	-0.856367	-0.441988	-0.266989
788	3139208													8.424617	0.603794	5.206266	0.505385	-0.680953	-0.529990	0.051867	-0.589118	0.806381	-0.861334	-0.435022	-0.262413
789	3139375													8.457439	0.486037	4.930212	0.496963	-0.685837	-0.531654	0.050495	-0.588773	0.806720	-0.866302	-0.427755	-0.257967
790	3139541													8.303097	0.447484	4.805090	0.488681	-0.690553	-0.533223	0.048931	-0.588516	0.807004	-0.871089	-0.420459	-0.253808
791	3139708													8.385729	0.442846	4.741105	0.480764	-0.695027	-0.534606	0.047155	-0.588314	0.807256	-0.875581	-0.413309	-0.250066
792	3139875													8.668392	0.435579	4.614198	0.472931	-0.699317	-0.535996	0.045278	-0.588234	0.807422	-0.879935	-0.406124	-0.246530
793	3140042													8.733846	0.456151	4.644944	0.464454	-0.704150	-0.537080	0.042958	-0.587834	0.807840	-0.884555	-0.398276	-0.242773
794	3140208													8.793755	0.424616	4.575641	0.455735	-0.708895	-0.538306	0.040747	-0.587511	0.808190	-0.889183	-0.390254	-0.238864
795	3140375													8.768801	0.366509	4.456043	0.446848	-0.713540	-0.539618	0.038596	-0.587251	0.808484	-0.893777	-0.382097	-0.234872
796	3140542													8.713383	0.393665	4.373217	0.438271	-0.717796	-0.541005	0.036483	-0.587189	0.808627	-0.898102	-0.374135	-0.231161
797	3140708													8.758548	0.258034	4.124954	0.430231	-0.721959	-0.541919	0.034169	-0.586864	0.808964	-0.902072	-0.366559	-0.227818
798	3140875													8.946692	0.293492	4.052992	0.422276	-0.725416	-0.543558	0.032348	-0.587203	0.808793	-0.905890	-0.359116	-0.224496
799	3141042													9.174957	0.393919	4.149777	0.414002	-0.729214	-0.544839	0.030403	-0.587132	0.808920	-0.909768	-0.351459	-0.220904
800	3141208													9.136952	0.375253	4.131124	0.405433	-0.733188	-0.545948	0.028412	-0.586840	0.809204	-0.913683	-0.343589	-0.217094
801	3141375													9.048053	0.292665	3.966696	0.396639	-0.737418	-0.546711	0.026286	-0.586194	0.809744	-0.917598	-0.335547	-0.213124
802	3141542													9.127954	0.149678	3.654903	0.387786	-0.741235	-0.547899	0.024219	-0.586013	0.809940	-0.921431	-0.327353	-0.209296
803	3141708													9.041136	0.161607	3.591132	0.379633	-0.744246	-0.549524	0.022612	-0.586350	0.809742	-0.924861	-0.319831	-0.205768
804	3141875													9.043528	0.222285	3.544026	0.372227	-0.746935	-0.550941	0.021134	-0.586620	0.809586	-0.927901	-0.312993	-0.202570
805	3142042													9.149430	0.248423	3.408132	0.364555	-0.749657	-0.552372	0.019472	-0.586927	0.809406	-0.930978	-0.305829	-0.199370
806	3142208													9.232421	0.191701	3.450234	0.357003	-0.752319	-0.553683	0.017889	-0.587128	0.809296	-0.933932	-0.298826	-0.196149
807	3142375													9.254341	0.185450	3.325845	0.349149	-0.755157	-0.554827	0.016372	-0.587082	0.809362	-0.936924	-0.291671	-0.192615
808	3142542													9.309505	0.206110	3.377558	0.341266	-0.757736	-0.556215	0.015046	-0.587259	0.809259	-0.939846	-0.284541	-0.189010
809	3142708													9.337449	0.219362	3.299630	0.333689	-0.760453	-0.557102	0.013643	-0.587017	0.809459	-0.942584	-0.277708	-0.185507
810	3142875													9.373676	0.195463	3.095738	0.326334	-0.763351	-0.557496	0.012019	-0.586386	0.809943	-0.945178	-0.271012	-0.182182
811	3143042													9.317768	0.136961	3.086932	0.319093	-0.766194	-0.557788	0.010324	-0.585710	0.810455	-0.947667	-0.264369	-0.178985
812	3143208													9.377543	0.066041	2.934779	0.311618	-0.769106	-0.558006	0.008537	-0.584957	0.811019	-0.950169	-0.257492	-0.175717
813	3143375													9.349641	0.050273	2.913121	0.304111	-0.771696	-0.558571	0.006911	-0.584540	0.811336	-0.952611	-0.250596	-0.172432
814	3143542													9.437278	0.040305	2.855720	0.296445	-0.774140	-0.559310	0.005331	-0.584284	0.811532	-0.955035	-0.243556	-0.169081
815	3143708													9.468135	0.044038	2.903553	0.289162	-0.776462	-0.559903	0.003763	-0.583963	0.811771	-0.957273	-0.236841	-0.165938
816	3143875													9.490948	-0.014635	2.758066	0.282489	-0.778625	-0.560307	0.002282	-0.583550	0.812074	-0.959268	-0.230681	-0.163070
817	3144042													9.519370	0.003385	2.684771	0.276438	-0.780538	-0.560663	0.000842	-0.583200	0.812328	-0.961031	-0.225030	-0.160562
818	3144208													9.442193	-0.000410	2.627694	0.270443	-0.782448	-0.560924	-0.000706	-0.582796	0.812618	-0.962736	-0.219371	-0.158166
819	3144375													9.467031	-0.002833	2.546336	0.264025	-0.784399	-0.561257	-0.002211	-0.582396	0.812902	-0.964513	-0.213386	-0.155501
820	3144542													9.542376	-0.054427	2.544288	0.257558	-0.786155	-0.561805	-0.003504	-0.582176	0.813055	-0.966256	-0.207441	-0.152699
821	3144708													9.598427	-0.100547	2.532435	0.251397	-0.787938	-0.562097	-0.004770	-0.581750	0.813353	-0.967872	-0.201794	-0.150009
822	3144875													9.551131	-0.102271	2.452799	0.245575	-0.789444	-0.562557	-0.005992	-0.581553	0.813486	-0.969359	-0.196401	-0.147546
823	3145042													9.477832	-0.069629	2.419935	0.239620	-0.791105	-0.562792	-0.007317	-0.581135	0.813774	-0.970839	-0.190879	-0.145040
824	3145208													9.576406	-0.135853	2.130772	0.233657	-0.792916	-0.562751	-0.008630	-0.580441	0.814257	-0.972281	-0.185400	-0.142467
825	3145375													9.629962	-0.130837	2.083996	0.228415	-0.794051	-0.563303	-0.009674	-0.580421	0.814259	-0.973516	-0.180539	-0.140258
826	3145542													9.620667	-0.085021	2.195983	0.223682	-0.794938	-0.563951	-0.010612	-0.580564	0.814146	-0.974605	-0.176125	-0.138297
827	3145708													9.582612	-0.057199	2.199917	0.218798	-0.795937	-0.564457	-0.011598	-0.580554	0.814139	-0.975701	-0.171585	-0.136256
828	3145875													9.661492	-0.098714	2.180345	0.213898	-0.797119	-0.564667	-0.012676	-0.580262	0.814331	-0.976774	-0.167026	-0.134221
829	3146042													9.583732	-0.119929	2.121595	0.208776	-0.798282	-0.564941	-0.013759	-0.580012	0.814492	-0.977867	-0.162273	-0.132075
830	3146208													9.638452	-0.151914	1.966500	0.203771	-0.799226	-0.565434	-0.014701	-0.579985	0.814495	-0.978908	-0.157658	-0.129934
831	3146375													9.711498	-0.175155	1.945113	0.199147	-0.800009	-0.565974	-0.015495	-0.580040	0.814440	-0.979847	-0.153423	-0.127909
832	3146542													9.658784	-0.169722	1.990194	0.194701	-0.800655	-0.566606	-0.016234	-0.580213	0.814303	-0.980728	-0.149348	-0.125966
833	3146708													9.595504	-0.172728	1.952328	0.189959	-0.801367	-0.567210	-0.017069	-0.580337	0.814197	-0.981644	-0.144983	-0.123919
834	3146875													9.616699	-0.159866	1.832681	0.185380	-0.801932	-0.567925	-0.017997	-0.580617	0.813978	-0.982502	-0.140674	-0.122067
835	3147042													9.631726	-0.173085	1.706948	0.180692	-0.802781	-0.568237	-0.018978	-0.580485	0.814050	-0.983357	-0.136309	-0.120124
836	3147208													9.705879	-0.191300	1.711617	0.176035	-0.803546	-0.568617	-0.019835	-0.580415	0.814079	-0.984184	-0.132028	-0.118112
837	3147375													9.725512	-0.195599	1.613429	0.171435	-0.804554	-0.568597	-0.020680	-0.579953	0.814388	-0.984978	-0.127856	-0.116062
838	3147542													9.733797	-0.251557	1.556848	0.167107	-0.805369	-0.568732	-0.021582	-0.579693	0.814549	-0.985702	-0.123842	-0.114252
839	3147708													9.704965	-0.191011	1.671472	0.162840	-0.806058	-0.568993	-0.022395	-0.579561	0.814621	-0.986398	-0.119910	-0.112428
840	3147875													9.615417	-0.199661	1.648693	0.158262	-0.806828	-0.569194	-0.023217	-0.579340	0.814755	-0.987124	-0.115730	-0.110419
841	3148042													9.581468	-0.180709	1.574191	0.152924	-0.807231	-0.570082	-0.024146	-0.579747	0.814439	-0.987943	-0.110782	-0.108149
842	3148208													9.731544	-0.227633	1.446547	0.147368	-0.807694	-0.570888	-0.025152	-0.580064	0.814183	-0.988762	-0.105625	-0.105798
843	3148375													9.830100	-0.243955	1.376277	0.142530	-0.808334	-0.571211	-0.026269	-0.579989	0.814201	-0.989442	-0.101043	-0.103899
844	3148542													9.696520	-0.254209	1.318145	0.138067	-0.808879	-0.571535	-0.027359	-0.579956	0.814189	-0.990045	-0.096776	-0.102202
845	3148708													9.696980	-0.257719	1.276114	0.133546	-0.809517	-0.571707	-0.028252	-0.579749	0.814305	-0.990640	-0.092595	-0.100293
846	3148875													9.787182	-0.259429	1.322221	0.129097	-0.810117	-0.571877	-0.029017	-0.579543	0.814425	-0.991207	-0.088545	-0.098324
847	3149042													9.719123	-0.238424	1.397520	0.124582	-0.810899	-0.571771	-0.029811	-0.579060	0.814740	-0.991761	-0.084457	-0.096314
848	3149208													9.729178	-0.238761	1.303959	0.119803	-0.811737	-0.571603	-0.030733	-0.578506	0.815099	-0.992322	-0.080085	-0.094254
849	3149375													9.803524	-0.301805	1.060060	0.115118	-0.812490	-0.571496	-0.031659	-0.578029	0.815402	-0.992847	-0.075774	-0.092265
850	3149542													9.889923	-0.337482	1.010742	0.111072	-0.813036	-0.571520	-0.032481	-0.577741	0.815573	-0.993281	-0.072024	-0.090579
851	3149708													9.788937	-0.258880	1.052550	0.107544	-0.813459	-0.571593	-0.033284	-0.577551	0.815676	-0.993643	-0.068697	-0.089187
852	3149875													9.705918	-0.281088	1.053959	0.103855	-0.813951	-0.571575	-0.034141	-0.577261	0.815846	-0.994006	-0.065216	-0.087740
853	3150042													9.729544	-0.308092	0.988362	0.099812	-0.814707	-0.571218	-0.034998	-0.576604	0.816274	-0.994391	-0.061483	-0.086066
854	3150208													9.793758	-0.328642	0.836252	0.095760	-0.815350	-0.570994	-0.035853	-0.576083	0.816605	-0.994759	-0.057727	-0.084399
855	3150375													9.809665	-0.327761	0.822289	0.092082	-0.815813	-0.570937	-0.036695	-0.575764	0.816792	-0.995075	-0.054261	-0.082954
856	3150542													9.791761	-0.361922	0.787627	0.088619	-0.816260	-0.570847	-0.037488	-0.575429	0.816992	-0.995360	-0.051001	-0.081593
857	3150708													9.790389	-0.357853	0.796905	0.085300	-0.816680	-0.570752	-0.038206	-0.575100	0.817190	-0.995623	-0.047900	-0.080258
