sampleTimeFine,W4_acc_x,W4_acc_y,W4_acc_z,W4_gyro_x,W4_gyro_y,W4_gyro_z,W4_quat_w,W4_quat_x,W4_quat_y,W4_quat_z,W5_acc_x,W5_acc_y,W5_acc_z,W5_gyro_x,W5_gyro_y,W5_gyro_z,W5_quat_w,W5_quat_x,W5_quat_y,W5_quat_z
1531619,0.041300379,0.025292281,-0.285353333,-0.261124879,0.065410987,-0.220516041,0.716537535,-0.308809668,-0.39375177,-0.485973328,0.276634574,-0.160999492,-0.202309385,-0.011524041,-0.011242741,-0.266204119,0.430372477,-0.586554468,-0.458274484,-0.510605454
1531785,8.487248421,-0.609782696,4.909824848,0.141081154,-0.280817628,0.414022863,0.716933489,-0.308628559,-0.393845409,-0.485428303,9.777854919,-0.380687267,-1.042596698,0.096873626,0.084054478,0.648801625,0.430464536,-0.586577535,-0.4582555,-0.510518432
1531952,8.491078377,-0.612690151,4.898921013,0.239562005,-0.18185018,0.381225824,0.716887236,-0.308887005,-0.393591255,-0.485538572,9.789105415,-0.347814769,-1.03306973,0.141836718,0.463045597,0.669893622,0.430642039,-0.586641312,-0.457877845,-0.510634422
1532119,8.51509285,-0.611495674,4.903116226,0.107374839,-0.25954628,0.330269337,0.717116535,-0.308937341,-0.393613815,-0.485149205,9.770545959,-0.36809054,-1.033399582,0.070415713,0.880161166,0.687182307,0.430802733,-0.586478591,-0.457637489,-0.510901153
1532285,8.494293213,-0.601986527,4.886858463,0.0336871,-0.027508043,0.348467171,0.717022717,-0.309196472,-0.393501908,-0.485213727,9.723556519,-0.362797022,-1.022921085,0.016552206,0.988233924,0.649659693,0.431019217,-0.586296856,-0.457483381,-0.511065125
1532452,8.466463089,-0.617471516,4.916562557,0.024402499,-0.133826345,0.398668051,0.71709007,-0.309263349,-0.393571615,-0.485014766,9.725790024,-0.360562414,-1.013743281,0.06142566,0.843867958,0.652182579,0.431201637,-0.58615458,-0.457359701,-0.51118499
1532619,8.452694893,-0.612904727,4.907675743,0.109167725,-0.255627543,0.432067007,0.717132688,-0.309334069,-0.393539727,-0.484932721,9.744840622,-0.365024954,-1.009770989,0.110499583,0.838194788,0.570810974,0.431339383,-0.586040616,-0.457228631,-0.511316657
1532785,8.465776443,-0.643917561,4.905494213,0.472599089,-0.105434671,0.414727211,0.717163622,-0.309363186,-0.393468678,-0.484926105,9.728428841,-0.370633185,-0.99538362,0.18134433,0.833097935,0.584821165,0.431552589,-0.585870445,-0.457190633,-0.511365831
1532952,8.479816437,-0.618487179,4.904704094,0.552293003,-0.248507202,0.50378257,0.717215598,-0.309411347,-0.393404633,-0.484870434,9.712017059,-0.369622469,-0.99372071,0.082184747,0.525053918,0.579019845,0.431667715,-0.585802913,-0.457074404,-0.511449993
1533119,8.479673386,-0.613573432,4.902175426,0.303977907,-0.229540989,0.618873179,0.717252553,-0.309484065,-0.393333375,-0.484826952,9.77654171,-0.384374231,-0.975896835,0.221966028,0.49894169,0.49894169,0.431811154,-0.585709155,-0.457006544,-0.511496782
1533285,8.447967529,-0.591125607,4.890842438,0.184942901,-0.24936524,0.457282782,0.717244923,-0.309567541,-0.393268853,-0.484837383,9.724301338,-0.382300138,-0.947988153,0.341001093,0.629259229,0.261243135,0.431943268,-0.5856058,-0.456919253,-0.5115816
1533452,8.519384384,-0.584727764,4.911423683,0.241649404,-0.171182469,0.410846889,0.717270434,-0.309587449,-0.393242627,-0.484808207,9.722523689,-0.379621565,-0.968901813,0.36528191,-0.088773608,0.259155691,0.432081044,-0.585513115,-0.456914961,-0.511575341
1533619,8.521143913,-0.607511818,4.916916847,0.403137445,-0.023166686,0.277430326,0.717276573,-0.309573501,-0.393231332,-0.484817207,9.759605408,-0.352567554,-0.985466838,0.100946039,-0.251260579,-0.031132236,0.432124227,-0.585467696,-0.456888169,-0.511614382
1533785,8.498620987,-0.589881063,4.852988243,0.597717047,-0.338151634,0.163120881,0.717190444,-0.309614241,-0.393232137,-0.484918088,9.75861454,-0.353432983,-0.991378307,-0.458070338,-0.29262507,-0.10298866,0.432086676,-0.585466981,-0.456832558,-0.511696935
1533952,8.569698334,-0.611628413,4.850949287,1.136505842,0.420387655,0.46837309,0.7172454,-0.309517443,-0.393239886,-0.484892309,9.783182144,-0.335010409,-0.999184012,-0.754447639,-0.443727195,0.065459654,0.432033688,-0.585494578,-0.456783175,-0.511754096
1534119,8.431088448,-0.602449656,4.976660252,0.935471773,1.306945562,0.356804073,0.717379868,-0.309342831,-0.393202096,-0.484835416,9.773184776,-0.335330218,-1.010718465,-0.698791265,-0.175370157,0.380598277,0.432019651,-0.585516095,-0.456713498,-0.511803389
1534285,8.557492256,-0.591042101,4.90786314,0.469269484,-0.68613869,0.360364318,0.717354178,-0.309372276,-0.393284321,-0.48478809,9.790525436,-0.346551925,-0.98542881,-0.771646678,0.227472812,0.404098004,0.432014048,-0.585521042,-0.456617832,-0.511887729
1534452,8.544573784,-0.604439676,4.892951012,1.252851605,1.40483737,0.784651458,0.717531204,-0.309179753,-0.393207163,-0.484711051,9.752440453,-0.348685086,-0.978154123,-0.820387602,0.667614222,0.34696883,0.432019234,-0.58550036,-0.456489325,-0.512021661
1534619,8.393420219,-0.602045,4.999375343,0.793769658,0.748038113,0.741404474,0.717628539,-0.309096694,-0.393163413,-0.484655678,9.744715691,-0.368880451,-0.953261435,-0.730013192,0.768656254,0.428532451,0.432021201,-0.585493624,-0.456329286,-0.512170553
1534785,8.396202087,-0.586020708,4.980270863,0.119656108,-0.760505021,0.388576657,0.717533469,-0.309207797,-0.39318037,-0.484711915,9.74452877,-0.378300101,-0.968426466,-0.503686547,0.853255033,0.366959482,0.432072133,-0.585441172,-0.456210047,-0.512293458
1534952,8.421010017,-0.590574861,4.931085587,0.029614687,-0.251862496,0.375104427,0.717540622,-0.309223056,-0.393170357,-0.484699577,9.729812622,-0.391756415,-0.961551309,-0.158030346,0.71644479,0.629809797,0.432169944,-0.585394382,-0.456105947,-0.512357175
1535119,8.427490234,-0.589995503,4.929533482,0.196494222,-0.154137209,0.512029827,0.717559278,-0.309230298,-0.393144518,-0.484688312,9.73034668,-0.387874097,-0.946690023,0.19267793,0.445385635,0.695736945,0.432300627,-0.585342705,-0.456051111,-0.51235503
1535285,8.460000992,-0.620772541,4.944858074,-0.05296706,-0.517530143,0.501836002,0.717550576,-0.309283733,-0.393141031,-0.484670013,9.743654251,-0.384823173,-0.953987837,0.50140059,0.149085104,0.973148048,0.432424337,-0.58534658,-0.455969572,-0.512318611
1535452,8.456357002,-0.634183168,4.921462059,0.119515263,-0.420726985,0.481281817,0.717540503,-0.309325635,-0.393128306,-0.484668553,9.763894081,-0.363217711,-0.968661487,0.730583072,0.010533222,1.087624073,0.432603091,-0.585324526,-0.455943108,-0.512216389
1535619,8.452802658,-0.617535889,4.906724453,0.176874906,-0.343453497,0.56320405,0.717564225,-0.309348702,-0.393119901,-0.484625399,9.760715485,-0.351156443,-0.973235846,0.667499006,-0.182067871,0.837567389,0.432723373,-0.585322976,-0.455924928,-0.512133002
1535785,8.481808662,-0.628825963,4.929594517,-0.021604311,-0.322976112,0.609268486,0.717550099,-0.309423268,-0.393073678,-0.484636158,9.746759415,-0.359866589,-0.961778045,0.51621753,0.035595249,0.494344324,0.432801843,-0.585305512,-0.455897212,-0.512111247
1535952,8.477009773,-0.63127929,4.93999052,0.040884275,-0.12233907,0.491834283,0.717549324,-0.309467226,-0.393021196,-0.484651774,9.759633064,-0.3838332,-0.96384877,0.380726367,-0.344618827,0.705597818,0.432905763,-0.58529681,-0.455921352,-0.512011826
1536119,8.457987785,-0.617889941,4.956094265,0.100702733,-0.616869032,0.409258902,0.717540324,-0.309518397,-0.393042147,-0.484615505,9.727384567,-0.3838211,-1.015759706,0.317988038,-0.437093496,0.647392988,0.432959855,-0.585326731,-0.455912769,-0.511939406
1536285,8.512753487,-0.590182006,4.924229622,0.009828874,-1.171921968,0.728034616,0.717534184,-0.309623539,-0.393108547,-0.484503627,9.731668472,-0.359594285,-1.019106507,0.106222279,-0.847191334,0.495458454,0.432964027,-0.585386455,-0.455939978,-0.511843443
1536452,8.554571152,-0.611015141,4.873638153,0.480577439,-0.550327241,0.719339073,0.717544436,-0.309665769,-0.393123537,-0.484449238,9.746935844,-0.357331663,-1.015905261,-0.270764619,-0.817429245,0.28298828,0.43290633,-0.58546716,-0.455944359,-0.511796057
1536619,8.450256348,-0.596797466,4.931711674,0.353026241,-0.455483437,0.319447964,0.717538297,-0.309683114,-0.393153816,-0.484422654,9.753433228,-0.364323705,-1.036607504,-0.540914595,-0.772274077,0.211772189,0.432835251,-0.585545301,-0.455951214,-0.511760533
1536785,8.551633835,-0.606959045,4.862651348,0.289545149,-1.46363759,0.228279576,0.717505872,-0.309738606,-0.39331466,-0.484304756,9.745667458,-0.37605536,-1.036886334,-0.707935035,-0.665149033,0.275816768,0.43276298,-0.585629344,-0.455940247,-0.51173538
1536952,8.54858017,-0.605469763,4.887158871,0.034775637,0.06341064,0.36991778,0.717512429,-0.309760004,-0.393269062,-0.484318286,9.77149868,-0.392897457,-1.030473113,-0.822910488,-0.420189172,0.263573945,0.432697505,-0.585701466,-0.455911189,-0.511734188
1537119,8.498510361,-0.634072065,4.930844784,-0.044041034,-0.873610735,0.58838129,0.717472792,-0.309872031,-0.393307596,-0.484274149,9.755625725,-0.384113193,-1.033012629,-0.721125543,-0.030517532,0.210363522,0.432661802,-0.58573699,-0.455869675,-0.511760592
1537285,8.502225876,-0.623269558,4.903401375,-0.107893504,-1.246979952,0.385977,0.717392802,-0.310008198,-0.39338699,-0.484240919,9.753540039,-0.382371724,-1.012488484,-0.770852566,0.113560304,-0.044245936,0.43260017,-0.585760057,-0.455824643,-0.511826456
1537452,8.46389389,-0.592505097,4.903109074,0.169280738,-0.920879006,0.300827563,0.717369497,-0.310062766,-0.393476546,-0.484167784,9.73443222,-0.379832566,-1.051737547,-0.604152381,0.155539528,-0.164932966,0.432561934,-0.585748613,-0.455817282,-0.511878431
1537619,8.475470543,-0.595758677,4.904506683,-0.31907022,-1.117225885,0.20057945,0.717233419,-0.31023401,-0.393510759,-0.484231889,9.701992989,-0.372036338,-1.058059812,-0.36367473,-0.015085879,-0.183719903,0.432531655,-0.58573395,-0.455843031,-0.511897564
1537785,8.52008152,-0.615862429,4.889037132,-0.148182258,-1.233033657,0.139096171,0.717103422,-0.310383767,-0.393578172,-0.484273612,9.727744102,-0.368284851,-1.025427341,-0.206950605,-0.30640471,-0.329981208,0.432473361,-0.585732162,-0.455901355,-0.511897147
1537952,8.514564514,-0.637478173,4.841804981,0.228907123,-1.174316645,0.203755438,0.717031956,-0.310466945,-0.393685937,-0.484238625,9.770855904,-0.339457184,-1.050493002,-0.091258042,-0.255665958,-0.317789555,0.432435542,-0.58571434,-0.455972493,-0.51188612
1538119,8.529213905,-0.609303534,4.865633965,0.31500417,-1.252179265,0.053024691,0.716977,-0.310517073,-0.39383471,-0.484166801,9.798926353,-0.318647236,-1.037479162,0.030549545,0.185263038,-0.191826299,0.432440728,-0.585668623,-0.456010818,-0.511899829
1538285,8.520950317,-0.613761902,4.850578308,0.304515809,-1.077513337,0.112740688,0.71688807,-0.310598105,-0.393933445,-0.484166205,9.762008667,-0.307918608,-1.025452375,-0.114271052,0.433693409,0.075640701,0.432458967,-0.58563906,-0.455990821,-0.511936069
1538452,8.517795563,-0.605964482,4.8660779,0.394313872,-0.816110253,0.216792285,0.716804385,-0.310675055,-0.393994629,-0.484190822,9.742350578,-0.308011591,-1.0343858,-0.147388279,0.524042249,0.280324608,0.432507873,-0.585605502,-0.45596227,-0.511958599
1538619,8.522263527,-0.581083179,4.886798382,0.396593451,-0.622145295,0.29671672,0.716736078,-0.310743928,-0.39403224,-0.484217167,9.758410454,-0.310251206,-1.007171154,-0.177854568,0.724461496,0.602826834,0.432562977,-0.585603952,-0.455861837,-0.512003183
1538785,8.494100571,-0.617682099,4.884899139,0.420694977,-0.566540062,0.299905509,0.716698945,-0.310783535,-0.394083947,-0.48420459,9.753416061,-0.356058955,-1.009191632,-0.087608233,0.907886982,0.78275615,0.432654649,-0.585590482,-0.455746591,-0.512043655
1538952,8.500800133,-0.611709297,4.865202904,0.565739691,-0.792123914,0.395696968,0.716647089,-0.310842097,-0.394154638,-0.484186232,9.741139412,-0.370618552,-1.007442594,0.08181978,0.983041048,0.748467147,0.432762951,-0.585558951,-0.455641478,-0.512081861
1539119,8.504133224,-0.622374475,4.880852699,0.360069752,-0.701467812,0.497328222,0.716621399,-0.310903221,-0.39421162,-0.484138638,9.763072014,-0.385287881,-0.986453891,0.393635213,1.011849046,0.778466046,0.432926714,-0.585486233,-0.4555825,-0.51207906
1539285,8.482448578,-0.601738751,4.837059498,0.168230608,-0.535305381,0.630450189,0.716622353,-0.310967118,-0.39424181,-0.484071642,9.732444763,-0.37970838,-0.965946317,0.821495295,1.253978491,0.641169071,0.433123797,-0.585368395,-0.455539405,-0.512085497
1539452,8.472238541,-0.605030179,4.88624382,0.083516598,-0.480903953,0.538577437,0.716559052,-0.311076969,-0.394228786,-0.484105408,9.71363163,-0.366858274,-0.954261422,0.800288022,0.870492458,0.512362838,0.433311015,-0.58524847,-0.455558598,-0.512047112
1539619,8.478739738,-0.597652495,4.906088352,0.31733495,-0.539467514,0.383185208,0.716527581,-0.311128318,-0.394267321,-0.484087467,9.755073547,-0.342915028,-0.964067996,0.73815155,0.64098978,0.313441783,0.433461785,-0.585137546,-0.455601603,-0.512008131
1539785,8.464235306,-0.618008316,4.867064476,0.373874992,-0.49062407,0.364667237,0.716503143,-0.311166555,-0.394306362,-0.48406741,9.769481659,-0.318632752,-0.944901705,0.148444802,0.485174924,0.174236774,0.433527142,-0.585078359,-0.455605507,-0.512016833
1539952,8.575699806,-0.600002527,4.767680645,0.749254704,-0.581779599,0.535388589,0.716504633,-0.311180204,-0.39437443,-0.484000951,9.818557739,-0.286795169,-0.937664866,-0.494222611,0.753288686,0.02478669,0.433568776,-0.585006893,-0.455585301,-0.512081146
1540119,8.485850334,-0.632664561,4.909108639,1.009594917,1.020813346,0.461150199,0.716594338,-0.311058283,-0.394294411,-0.484011829,9.796424866,-0.268055648,-0.948863447,-1.168874025,1.072435856,0.068955794,0.433562189,-0.584968567,-0.455474466,-0.512229025
1540285,8.522687912,-0.587152719,4.930060387,0.439097673,-0.74677664,0.277865797,0.716562033,-0.311095387,-0.394376576,-0.483968884,9.755393028,-0.270998657,-0.927829742,-1.675877333,1.318561077,0.038246166,0.433508664,-0.584955275,-0.45529443,-0.512449324
1540452,8.597399712,-0.593465269,4.920742512,0.87191391,0.14243862,0.489144921,0.71652317,-0.311111242,-0.394326836,-0.484056592,9.709692001,-0.290792137,-0.914921701,-2.201194048,1.08809793,0.004501432,0.433367431,-0.585010529,-0.455064952,-0.512709677
1540619,8.430272102,-0.567721844,4.972617626,0.44306764,0.830408573,0.637916267,0.716571331,-0.311085075,-0.394205511,-0.484100878,9.689622879,-0.321145624,-0.918660343,-2.404340744,0.86839211,0.055317026,0.433222204,-0.585075498,-0.454857379,-0.512942314
1540785,8.393362999,-0.576029003,4.976800442,-0.453959525,-1.315673232,0.522684753,0.716442645,-0.311299711,-0.394244105,-0.484122068,9.706835747,-0.368003547,-0.930300891,-2.329372644,0.402958184,0.138404638,0.433031589,-0.585199654,-0.45464617,-0.513149023
1540952,8.45259285,-0.579366922,4.878002644,-0.417115599,-1.409748554,0.314594388,0.716319323,-0.311484396,-0.394317091,-0.484126329,9.761571884,-0.390117168,-0.927574933,-2.05137229,0.082159132,0.151582345,0.432875633,-0.585304022,-0.454508692,-0.513283372
1541119,8.46502018,-0.596718192,4.850758076,-0.731076002,-0.850610554,0.313172847,0.716223359,-0.311653912,-0.39431572,-0.484160155,9.760025024,-0.404208481,-0.954528689,-1.583492517,0.138686359,0.143821716,0.432750434,-0.585386097,-0.454387069,-0.513403118
1541285,8.498473167,-0.618304551,4.861245155,-1.005900383,-1.118929267,0.388986498,0.71611017,-0.311870962,-0.39432314,-0.484181851,9.773832321,-0.410699189,-0.935973167,-0.897699475,0.151979357,0.165643722,0.432698309,-0.585416138,-0.454325885,-0.513467073
1541452,8.524990082,-0.650988519,4.86601162,-0.90330863,-0.877465427,0.517446935,0.716005087,-0.312083751,-0.394294292,-0.484223604,9.762556076,-0.39615795,-0.944690943,-0.325102001,0.187568188,0.053844295,0.432717234,-0.585376382,-0.454344571,-0.51347971
1541619,8.496583939,-0.649257839,4.908998013,-0.620403588,-0.629649758,0.468898088,0.715903401,-0.312264144,-0.394248456,-0.48429507,9.758708,-0.35824275,-0.946382403,0.21434626,-0.056335129,-0.030594369,0.4327268,-0.585345447,-0.454387188,-0.513469279
1541785,8.4933815,-0.644833028,4.878834724,-0.315971106,-1.005003929,0.57820034,0.715824842,-0.312426984,-0.39427188,-0.484286964,9.729436874,-0.332909137,-0.947637737,0.470857441,0.008535432,0.064179018,0.432780087,-0.58529067,-0.454448223,-0.513432741
1541952,8.489027023,-0.644901931,4.889445782,0.097718842,-0.749786079,0.705520988,0.715793371,-0.312532663,-0.39429459,-0.48424685,9.706843376,-0.335835308,-0.939414978,0.856904805,-0.478163451,0.516755402,0.43286258,-0.585282207,-0.454524547,-0.513305187
1542119,8.490485191,-0.668530345,4.913088799,0.432681769,-0.928985476,0.666064739,0.715744793,-0.312630117,-0.394347787,-0.484212458,9.739291191,-0.335546017,-0.945951343,1.008698583,-0.688802302,0.705418587,0.432968616,-0.585283101,-0.454621106,-0.513129294
1542285,8.514836311,-0.648599982,4.856209278,0.489708453,-1.509958267,0.853293598,0.715726018,-0.312735111,-0.394486308,-0.484059572,9.739520073,-0.303890169,-0.976770818,0.940363944,-0.875710964,0.515628517,0.433051586,-0.585281134,-0.454751313,-0.512946129
1542452,8.542013168,-0.655727983,4.776090622,0.668613136,-0.842388988,0.911575079,0.71570158,-0.312824368,-0.394528568,-0.484003663,9.766089439,-0.313300341,-0.978576124,0.595207095,-1.041770935,0.374873847,0.433051825,-0.585331261,-0.454843491,-0.512806952
1542619,8.460897446,-0.607522011,4.90814352,0.664527833,-0.384280115,0.50932771,0.715676785,-0.312857836,-0.394543767,-0.484006256,9.764147758,-0.313527405,-0.996111929,0.392290503,-0.92618084,0.507637262,0.433063984,-0.585383475,-0.454916179,-0.512672424
1542785,8.571763992,-0.605936825,4.809297562,0.261870623,-1.819564581,0.330179691,0.715554059,-0.313010931,-0.394697189,-0.483963847,9.776123047,-0.320456207,-1.006240368,0.068328276,-0.821552932,0.6329602,0.433082491,-0.585440457,-0.454968899,-0.51254499
1542952,8.5713377,-0.605579674,4.798155785,0.726741076,-0.205208942,0.575037062,0.715535402,-0.313037992,-0.39468804,-0.483981162,9.760822296,-0.323924184,-1.013275385,0.005461908,-0.64383918,0.761535943,0.433108687,-0.585503578,-0.454986721,-0.512435019
1543119,8.494557381,-0.627978444,4.86086607,0.763751447,-0.563069522,0.559157252,0.715472162,-0.313105524,-0.394705117,-0.484017134,9.733717918,-0.341943443,-1.01241231,-0.099441312,-0.538507044,0.663196087,0.433118373,-0.585564852,-0.454991311,-0.512352586
1543285,8.531025887,-0.634741724,4.848221779,0.216766685,-1.212697268,0.499966323,0.715395212,-0.313228875,-0.394788027,-0.483983248,9.71397686,-0.334389687,-1.030745149,-0.269253463,-0.6563254,0.407350749,0.433077484,-0.585636795,-0.455002934,-0.512294531
1543452,8.524411201,-0.622893453,4.82156992,0.523273826,-0.586402774,0.427482337,0.71532917,-0.313300014,-0.394808561,-0.484018087,9.742411613,-0.348000735,-1.013708115,-0.342364937,-0.726440132,0.078035489,0.433003604,-0.585694671,-0.455045551,-0.512253225
1543619,8.508976936,-0.605616748,4.836702824,0.177002937,-0.600553691,0.437586546,0.715239048,-0.313415617,-0.394800723,-0.484082878,9.756694794,-0.354938567,-1.048722744,-0.417602241,-0.618546665,0.011980339,0.432945281,-0.585727215,-0.455104589,-0.512212813
1543785,8.527568817,-0.62929827,4.817200661,0.048247918,-0.656248569,0.37463057,0.715180576,-0.31350711,-0.394822568,-0.484092176,9.779561043,-0.369100362,-1.042521596,-0.384869218,-0.337741852,-0.033488605,0.432874978,-0.585760415,-0.455119163,-0.512221336
1543952,8.538506508,-0.631944418,4.805918217,0.248372763,-0.438489467,0.293079704,0.715104878,-0.313585281,-0.394818157,-0.484156936,9.772229195,-0.341513485,-1.035329938,-0.286682934,0.022276642,-0.060753319,0.432882577,-0.585716963,-0.455175519,-0.512214601
1544119,8.549646378,-0.62823236,4.82750082,0.599766195,-0.450911582,0.27959463,0.715054274,-0.313618541,-0.39484787,-0.484185964,9.763105392,-0.315639973,-1.022448301,-0.261223912,0.448062122,-0.025971277,0.432862431,-0.585696161,-0.455135435,-0.512291014
1544285,8.54683876,-0.629487574,4.820466518,0.547375381,-0.302806109,0.335327834,0.71502322,-0.313642025,-0.394862652,-0.48420459,9.748544693,-0.300683945,-0.998380542,-0.511011779,0.55747956,-0.0546575,0.432864457,-0.585646629,-0.455117255,-0.512362123
1544452,8.516076088,-0.622893035,4.819375515,0.479027897,-0.188701555,0.231148198,0.714997768,-0.313650697,-0.394872278,-0.484228641,9.753363609,-0.311163425,-1.005592585,-0.71709162,0.56672585,0.058147237,0.432865232,-0.585609615,-0.455082774,-0.512434244
1544619,8.511237144,-0.612561405,4.843347073,0.360530794,-0.248904243,0.170074731,0.714923978,-0.313701391,-0.394859672,-0.484315038,9.727926254,-0.313474536,-1.000883818,-0.764372587,0.485085279,0.243557557,0.432848513,-0.585612774,-0.455010235,-0.512509048
1544785,8.509099007,-0.616588175,4.850467205,0.497686744,-0.053146351,0.101125337,0.714880109,-0.313705564,-0.39485091,-0.484384358,9.718310356,-0.324276835,-0.97453171,-0.734495342,0.368842065,0.328771025,0.432820916,-0.585638642,-0.454926908,-0.512576759
1544952,8.506076813,-0.619281113,4.855953217,0.693329334,-0.174460903,0.227920994,0.714786232,-0.313755006,-0.394822598,-0.484513819,9.741999626,-0.341899723,-0.982083738,-0.558113515,0.358020693,0.340732127,0.432820767,-0.585643947,-0.45487076,-0.512620866
1545119,8.529823303,-0.627663732,4.824825764,0.41325447,-0.274235159,0.135318279,0.714725673,-0.313787073,-0.394827247,-0.484578639,9.716480255,-0.34419921,-0.972953677,-0.153842673,0.248257473,0.426982909,0.432843328,-0.585647106,-0.454831779,-0.512632549
1545285,8.527076721,-0.62709111,4.855151176,0.424664944,0.267582238,0.177989051,0.714724541,-0.313762009,-0.394790769,-0.484626293,9.718660355,-0.365095019,-0.956213176,0.225654274,-0.126449913,0.510736465,0.432911485,-0.585631847,-0.454873741,-0.512555301
1545452,8.510278702,-0.603037953,4.832053185,0.576164007,0.434103221,0.13786675,0.714704335,-0.313733816,-0.394727767,-0.484725446,9.745283127,-0.363542914,-0.984658599,0.409489453,-0.284147292,0.367279708,0.4329651,-0.585615456,-0.454940557,-0.51246953
1545619,8.529225349,-0.623104036,4.825333595,0.537783504,0.26135838,0.269874632,0.714673877,-0.313735485,-0.394669205,-0.484817028,9.790039063,-0.331543028,-0.96591568,0.295423299,-0.18648605,0.266263217,0.432995707,-0.585602939,-0.454987615,-0.512416005
1545786,8.582697868,-0.612594485,4.776819706,0.767529368,0.573641181,0.483740628,0.7146945,-0.313697189,-0.394589782,-0.484876096,9.809182167,-0.312363833,-0.955040455,0.001197394,0.13210389,0.0776513,0.433010697,-0.585570574,-0.455011159,-0.512419462
1545952,8.481146812,-0.625205517,4.879897118,0.822993696,1.793343425,0.388819963,0.714769423,-0.313571215,-0.394385546,-0.485013247,9.796626091,-0.27717036,-0.942033768,-0.110557228,0.503372848,-0.07539098,0.433017433,-0.585517347,-0.455002815,-0.512481987
1546119,8.500058174,-0.585375071,4.929172516,0.408375233,0.20871146,0.115071453,0.714744568,-0.313560098,-0.394347817,-0.485087723,9.75508976,-0.259215295,-0.92444998,-0.348844945,0.878714025,-0.097264223,0.433022261,-0.585452735,-0.454950213,-0.512598336
1546286,8.544026375,-0.600526392,4.86340189,0.908437669,1.182647228,0.250152856,0.714819789,-0.313425571,-0.394245118,-0.485147387,9.690548897,-0.263552159,-0.928301156,-0.466279209,0.649211407,-0.061713796,0.433020204,-0.585400105,-0.454918891,-0.5126881
1546452,8.422940254,-0.604424059,4.927079678,1.04326272,1.70886004,0.406992167,0.714909196,-0.313275814,-0.39406845,-0.485255957,9.723678589,-0.29180795,-0.902284384,-0.454164356,0.168179378,0.1766828,0.43300122,-0.58540076,-0.454894751,-0.512724936
1546619,8.407675743,-0.605441928,4.947283268,0.812735736,-0.155033663,0.26130715,0.714878857,-0.313266158,-0.394079953,-0.485297412,9.741359711,-0.301810503,-0.920586944,-0.343018055,-0.009566342,0.413766742,0.432990402,-0.585428774,-0.454861701,-0.512731254
1546786,8.45973587,-0.60329634,4.864424706,0.942182362,-0.234753177,0.244402766,0.714857638,-0.313240051,-0.394113928,-0.485317975,9.755439758,-0.318582863,-0.89959842,-0.077708922,-0.0340905,0.477350235,0.43302691,-0.585426569,-0.454869181,-0.512696266
1546952,8.470902443,-0.591314077,4.885054588,0.991794169,0.157844678,0.331562817,0.714848757,-0.313200802,-0.394094378,-0.485372335,9.732126236,-0.321164876,-0.897331178,0.186300367,-0.183553413,0.68658036,0.433073431,-0.585448444,-0.454866767,-0.512634277
1547119,8.490127563,-0.615989923,4.895636559,0.880378962,0.12531653,0.368124962,0.714845777,-0.313168764,-0.394075066,-0.485413164,9.731866837,-0.326713741,-0.93944788,0.545262337,-0.416961908,0.680382133,0.43314603,-0.585453928,-0.454919338,-0.512519956
1547286,8.499976158,-0.633310556,4.90357399,0.678819776,0.234080881,0.308280855,0.714830041,-0.313150942,-0.394028813,-0.485485166,9.719471931,-0.341077298,-0.912301958,0.888472557,-0.699521303,0.582170248,0.433224291,-0.585449934,-0.455026388,-0.512363374
1547452,8.47850132,-0.608749151,4.912256718,0.567455769,0.186249152,0.477503985,0.714841068,-0.313139319,-0.393986195,-0.485511065,9.739299774,-0.31113562,-0.955400467,1.039702773,-1.057381868,0.633126736,0.433309883,-0.58545357,-0.455178559,-0.51215148
1547619,8.492844582,-0.621212482,4.86278677,0.433219582,0.059952926,0.527807295,0.714829743,-0.313163489,-0.393936157,-0.485552788,9.71624279,-0.299741447,-0.979711175,1.170737505,-1.09814465,0.557338774,0.433356941,-0.585483015,-0.455302924,-0.51196754
1547786,8.51209259,-0.622739255,4.898660183,0.531124055,0.160956591,0.473329008,0.714831531,-0.313161641,-0.393889248,-0.485589415,9.753047943,-0.297532141,-0.989068031,1.14078331,-1.628826976,0.823365092,0.433389693,-0.585567534,-0.455440789,-0.5117203
1547952,8.497125626,-0.600481093,4.899199486,0.60091871,-0.004533448,0.420054674,0.714787483,-0.313190252,-0.393843263,-0.485673159,9.775637627,-0.293503731,-1.010288835,0.946510851,-1.253856778,0.768246531,0.433432251,-0.585627317,-0.455552578,-0.511516452
1548119,8.530433655,-0.580230892,4.849147797,0.458960325,-0.472080439,0.639094412,0.714759111,-0.313251376,-0.393847585,-0.485671848,9.753652573,-0.27994594,-1.015034676,0.626838803,-1.325393081,0.463954866,0.433428258,-0.585684419,-0.455681324,-0.511339784
1548286,8.552527428,-0.61993885,4.811883926,0.78037411,0.486314714,0.685991287,0.714824915,-0.31319654,-0.393787235,-0.48565948,9.755078316,-0.271784097,-1.040987015,0.107592545,-1.410555363,0.218943745,0.433365345,-0.585755229,-0.455809802,-0.511197448
1548452,8.474441528,-0.549341202,4.932480335,0.501106083,0.376679569,0.294232279,0.714755893,-0.313227803,-0.393679827,-0.485827714,9.744314194,-0.272770345,-1.029750586,-0.244550064,-1.492055058,0.308626652,0.433265895,-0.585866213,-0.455902487,-0.51107198
1548786,8.567948341,-0.565077245,4.839440823,1.019033313,0.67520839,0.550397694,0.714798033,-0.313139379,-0.393747956,-0.485767633,9.758235931,-0.296566725,-1.049520373,-0.487755448,-1.215629935,0.358481765,0.433179736,-0.585963726,-0.455970764,-0.510972321
1548952,8.505066872,-0.584446788,4.878621578,0.912061751,0.027540054,0.743222892,0.714768767,-0.313169003,-0.393693596,-0.485835671,9.759334564,-0.281296968,-1.029301882,-0.64021498,-1.011343002,0.640797675,0.433113962,-0.58607471,-0.455990762,-0.510882795
1549119,8.50592041,-0.589478374,4.874990463,0.59071213,-0.471952409,0.582144678,0.714716613,-0.313231647,-0.393696606,-0.485869348,9.752821922,-0.279035687,-1.041496277,-0.671449721,-0.776538551,0.653207064,0.433053255,-0.586178064,-0.455983877,-0.510821819
1549286,8.494905472,-0.581441224,4.860824585,0.550487339,0.019267151,0.430069208,0.714698613,-0.313239843,-0.393664747,-0.485916495,9.752717972,-0.281030953,-1.056838512,-0.836882234,-0.457263559,0.752558768,0.43299973,-0.586280227,-0.455929428,-0.510798633
1549452,8.475103378,-0.568291545,4.849701881,-0.115205921,0.008164048,0.265225917,0.714630485,-0.31331414,-0.393589914,-0.486029357,9.742901802,-0.292567492,-1.045474172,-0.910915673,-0.309388608,0.755760252,0.432950914,-0.58637476,-0.455862433,-0.510791421
1549619,8.515500069,-0.59371835,4.867525578,-0.402080953,-0.113605127,0.117530271,0.714551628,-0.313401669,-0.393527448,-0.486139417,9.734604836,-0.327664584,-1.038597107,-0.834192812,-0.301013261,0.792732179,0.432921022,-0.586457372,-0.455809027,-0.510769308
1549786,8.525850296,-0.608066082,4.849365711,-0.265911072,-0.023602104,0.338913679,0.714485109,-0.313493192,-0.393445641,-0.48624438,9.742658615,-0.371078134,-1.044837832,-0.379836321,-0.314267784,0.885603905,0.432915241,-0.586536765,-0.455759227,-0.510727525
1549952,8.550214767,-0.637594819,4.840171337,0.000749171,-0.087838747,0.400089562,0.714406073,-0.31358543,-0.393370539,-0.486361831,9.759666443,-0.373640954,-1.053920865,0.133538201,-0.223445192,0.999106526,0.432971656,-0.586581171,-0.455736905,-0.510648608
1550119,8.536745071,-0.639253974,4.860809803,0.329641819,0.12461219,0.469845742,0.714375556,-0.313619375,-0.393304259,-0.486438364,9.756623268,-0.342046529,-1.073813558,0.542188823,-0.058973234,0.904864669,0.433069944,-0.586578786,-0.455746472,-0.510559559
1550286,8.50083828,-0.623915851,4.867010593,0.280068427,0.218700439,0.598498344,0.714316666,-0.313692063,-0.393192738,-0.486568093,9.758357048,-0.345117569,-1.057665586,0.911869764,0.066996418,0.939172924,0.433188379,-0.586565614,-0.455747873,-0.510472894
1550452,8.50090313,-0.616760015,4.859100342,0.268593967,0.215153068,0.607667685,0.714295685,-0.313735932,-0.393104792,-0.486641675,9.74857235,-0.309293985,-1.038721442,0.885706425,0.188106075,0.930554271,0.433346123,-0.586513579,-0.455780953,-0.510369301
1550619,8.536746979,-0.625179172,4.845882893,0.4650819,0.316310465,0.720530093,0.714288712,-0.313765705,-0.393009394,-0.486709833,9.735794067,-0.288327992,-1.059738636,0.840128541,0.396695882,1.033542871,0.433533072,-0.586444616,-0.455803394,-0.510269701
1550786,8.521134377,-0.578266025,4.866180897,0.406082988,-0.199369282,0.780182123,0.714255571,-0.313840061,-0.392962247,-0.486748666,9.749319077,-0.279520482,-1.018504739,0.502028167,0.435985804,1.002897263,0.433673322,-0.586407602,-0.455781043,-0.510213017
1550952,8.499453545,-0.571463645,4.859489918,0.065638945,0.020035535,0.76677388,0.71421349,-0.313936919,-0.392866015,-0.486825526,9.727625847,-0.285392225,-1.014540076,0.209441438,0.742454529,1.154703736,0.433797985,-0.586395323,-0.455680281,-0.51021117
1551119,8.496035576,-0.574192464,4.882441521,0.199593335,0.466861844,0.558632135,0.714206517,-0.313961029,-0.392754585,-0.486910075,9.680602074,-0.296787649,-1.027505755,-0.032681804,0.539794028,1.251173973,0.433900833,-0.586414158,-0.455573261,-0.51019758
1551286,8.498256683,-0.585357368,4.870736599,0.08452832,0.303094298,0.368624389,0.714150846,-0.314013898,-0.392647475,-0.487043947,9.725609779,-0.310052276,-1.019493818,-0.405359447,0.223541215,1.259472489,0.43394199,-0.586488485,-0.455447704,-0.510189235
1551452,8.538306236,-0.5824247,4.802957058,0.245798692,-0.005673212,0.332062244,0.714115202,-0.314042687,-0.392607182,-0.487110049,9.749500275,-0.319213003,-1.007819057,-0.774745762,0.082863487,1.045375943,0.433935076,-0.586573839,-0.455333173,-0.510199308
1551619,8.555641174,-0.61536622,4.832915306,0.226230592,1.59250164,0.529420912,0.714166582,-0.313985318,-0.392380327,-0.487254679,9.778743744,-0.353074908,-1.015660048,-1.190503955,0.076319449,0.778927028,0.433882058,-0.586659014,-0.455222845,-0.510245025
1551786,8.471155167,-0.576794207,4.927303314,-0.100837193,1.14746809,0.319947422,0.71417135,-0.31397438,-0.392192245,-0.487406135,9.800138474,-0.351224512,-1.02129519,-1.159743071,0.326235354,0.763853908,0.433825612,-0.586741447,-0.455075592,-0.510329366
1551952,8.597953796,-0.59669733,4.84881115,0.085053377,0.284729987,0.339323491,0.714147806,-0.313996822,-0.392112941,-0.487489909,9.79393959,-0.340922326,-1.01644361,-1.122271657,0.697312176,0.686887801,0.433810681,-0.586771131,-0.454937756,-0.510430992
1552119,8.526539803,-0.61473453,4.92245245,0.684172928,2.354569435,0.654833496,0.714283168,-0.313835084,-0.391841918,-0.487613589,9.741088867,-0.346693695,-0.982520103,-0.88952899,0.944500208,0.595540106,0.433807671,-0.586776912,-0.454789311,-0.510559022
1552286,8.419419289,-0.63178736,4.969614506,0.08799883,0.839449763,0.664540708,0.714302957,-0.313845158,-0.391683698,-0.487705231,9.740852356,-0.358740658,-0.973745525,-0.656158924,1.055992246,0.701512635,0.433846354,-0.586760461,-0.454650104,-0.510669172
1552452,8.467326164,-0.618683636,4.925713539,0.000147273,-0.344849408,0.556621552,0.714244664,-0.313941181,-0.391646713,-0.487758398,9.726286888,-0.365440995,-0.956942558,-0.391566962,1.003178954,0.738292456,0.433899403,-0.586739957,-0.454522073,-0.510761678
1552619,8.476779938,-0.621634066,4.92225647,0.101740055,0.358712286,0.604402125,0.714232206,-0.313981056,-0.391539842,-0.487836897,9.719374657,-0.371948659,-0.973448575,-0.090797015,1.056491733,0.673453808,0.433998376,-0.586672366,-0.454443783,-0.51082468
1552786,8.440876007,-0.635470569,4.910493851,0.147535533,0.195879519,0.667755008,0.714212894,-0.314034462,-0.391447157,-0.487905145,9.736445427,-0.393011659,-0.940904677,0.300404966,0.979179859,0.805231273,0.43411833,-0.58660984,-0.454368085,-0.510861874
1552952,8.464389801,-0.645512581,4.893886089,0.086205937,0.015399636,0.675733387,0.714168966,-0.314117134,-0.391360164,-0.487986028,9.737859726,-0.377380699,-0.949044943,0.758027077,0.976285696,0.771729827,0.434285283,-0.586506784,-0.454341561,-0.510861933
1553119,8.462830544,-0.651726425,4.896996498,0.377102196,0.254302084,0.726741076,0.714161158,-0.314151108,-0.391269982,-0.488047957,9.746491432,-0.37648651,-0.926623821,1.101429462,1.026128173,0.970612466,0.434500813,-0.586390197,-0.454321682,-0.510830462
1553286,8.469319344,-0.628053904,4.905177593,0.594733357,0.202359557,0.817909598,0.71417588,-0.314164162,-0.391202003,-0.488072485,9.750038147,-0.359053373,-0.934757471,1.253607035,0.897129536,0.815386593,0.434714764,-0.586257935,-0.454340637,-0.510783315
1553452,8.462034225,-0.637559593,4.918335438,0.632652938,0.337107956,0.659290135,0.714191139,-0.314152658,-0.391131282,-0.488114268,9.760116577,-0.327795506,-0.934495509,1.124006987,0.650748253,0.676796436,0.434882253,-0.586150348,-0.454367071,-0.510740578
1553619,8.442527771,-0.624716938,4.951162338,0.291402072,0.186287567,0.570426822,0.714157581,-0.314196825,-0.391043812,-0.488205016,9.720290184,-0.328002632,-0.916939378,0.898743331,0.647047281,0.554598212,0.43502453,-0.586045504,-0.454391688,-0.51071769
1553786,8.462608337,-0.624867141,4.942246914,0.207674161,-0.161897853,0.576010346,0.714147687,-0.314236909,-0.391015857,-0.488216132,9.75531292,-0.316491306,-0.932318389,0.693867266,0.118183404,0.882889032,0.435138106,-0.586014509,-0.454406053,-0.510643661
1553952,8.510440826,-0.603593469,4.888744354,0.333611816,-0.296518266,0.752469063,0.714147329,-0.314284056,-0.391001582,-0.488197505,9.736997604,-0.33867228,-0.958353162,0.4179672,-0.029147252,0.73807472,0.435213566,-0.58599627,-0.45442906,-0.510579824
1554119,8.477153778,-0.627829731,4.919736862,1.017163515,0.588880777,0.675093055,0.71422261,-0.31419313,-0.390947521,-0.488189399,9.747044563,-0.32018134,-0.963068962,0.03916822,-0.389351428,0.516819477,0.435208678,-0.586020648,-0.454457134,-0.510531247
1554286,8.456281662,-0.568001866,4.948104858,0.310803682,-0.228285968,0.186364412,0.714184999,-0.31420511,-0.39095062,-0.488234222,9.749474525,-0.320950687,-0.957257569,-0.467546999,-0.581357062,0.252329886,0.43512705,-0.586074114,-0.454481661,-0.510517538
1554452,8.563568115,-0.58368355,4.868523598,0.637698591,-0.379849166,0.13668856,0.714149356,-0.314190924,-0.39099437,-0.488260388,9.754187584,-0.348289371,-0.96858865,-0.697216094,-0.676444173,0.285114169,0.435026586,-0.586146414,-0.45449844,-0.51050514
1554619,8.513858795,-0.607776403,4.913805485,0.380111694,0.620512486,0.412063539,0.714178801,-0.314147353,-0.390904486,-0.488317251,9.75555706,-0.34491387,-0.964458048,-0.631481051,-0.83702302,0.400025547,0.434931278,-0.586232185,-0.454522878,-0.510466158
1554786,8.503314018,-0.603287995,4.927848816,0.565445244,-0.550058424,0.517741501,0.71415776,-0.314173371,-0.390944809,-0.488299161,9.744497299,-0.35178411,-1.026692152,-0.557306707,-0.813215971,0.477734447,0.434844702,-0.58632046,-0.454539448,-0.510423779
1554952,8.518818855,-0.596893847,4.912925243,0.57348758,-0.350292087,0.677603185,0.714159608,-0.314193189,-0.390957445,-0.488273442,9.739427567,-0.343816072,-0.999923766,-0.551441491,-0.665686905,0.486673355,0.43477273,-0.58639431,-0.454551607,-0.510389447
1555119,8.453986168,-0.599257886,4.917574883,0.459997714,0.102713332,0.488504589,0.714111269,-0.314227402,-0.390886903,-0.488378674,9.741863251,-0.352710307,-1.01527822,-0.356823266,-0.541836619,0.398117363,0.434714526,-0.586444318,-0.454573542,-0.510362029
1555286,8.440518379,-0.616859913,4.905458927,-0.11153049,-0.476524264,0.314440697,0.714048803,-0.314306021,-0.390880644,-0.48842448,9.721816063,-0.34327656,-1.02636075,-0.113336183,-0.46653527,0.476184905,0.434691697,-0.586474657,-0.454607397,-0.510316372
1555452,8.493281364,-0.63152957,4.897390366,0.091879152,-0.530298114,0.338465422,0.713994026,-0.314368606,-0.390893012,-0.488454312,9.736717224,-0.361068368,-1.039671183,0.253354371,-0.493313342,0.555481791,0.434704989,-0.586487949,-0.454665214,-0.510238349
1555619,8.522542953,-0.641995728,4.903942108,0.625750244,-0.291715801,0.569312632,0.713993669,-0.314371824,-0.390908003,-0.488440722,9.772972107,-0.386937261,-1.03015244,0.667627037,-0.129382551,0.703139126,0.434782296,-0.586463153,-0.454711616,-0.510159612
1555786,8.490318298,-0.633074164,4.918861389,0.836747587,-0.060458776,0.727983296,0.714027345,-0.314345807,-0.390906721,-0.488409311,9.785534859,-0.354079902,-1.027569175,0.966053426,0.333458155,0.847492278,0.434926242,-0.586394727,-0.454738945,-0.510091186
1555952,8.472466469,-0.62326628,4.90915823,0.671584129,-0.081000164,0.682943344,0.71404916,-0.314335674,-0.390897751,-0.488391042,9.766368866,-0.353285581,-1.000573874,1.125044227,0.685158968,0.844943702,0.435106397,-0.586289883,-0.454756469,-0.510042489
1556119,8.473140717,-0.62819916,4.927781582,0.325646281,0.011519313,0.782640934,0.714067638,-0.31436035,-0.390849978,-0.488386363,9.752314568,-0.33534658,-1.007066846,1.084268689,0.770423651,0.97360909,0.435297966,-0.586189628,-0.454754859,-0.509995699
1556286,8.480372429,-0.621029794,4.929201126,0.332933068,-0.061073478,0.792066336,0.714083195,-0.314389706,-0.390809685,-0.488377243,9.757810593,-0.31820628,-0.991475821,0.999004066,0.871376097,0.988182843,0.435489535,-0.586088002,-0.45473966,-0.509962499
1556452,8.482349396,-0.636065483,4.9391675,0.690755308,-0.216849908,0.84212631,0.714109838,-0.314395487,-0.390808493,-0.48833558,9.732403755,-0.342181593,-0.974238932,0.739457726,0.945985794,1.160658598,0.435676187,-0.58600837,-0.454686254,-0.509942234
1556619,8.484186172,-0.607931435,4.896515846,0.718276143,-0.297132939,0.946037114,0.714140654,-0.314409673,-0.390812516,-0.488277823,9.750885963,-0.351972908,-0.950045049,0.629758716,0.643256545,1.132138968,0.43583107,-0.585955977,-0.454646587,-0.509905517
1556786,8.460347176,-0.605426133,4.879810333,0.357662141,-0.134761214,0.866701722,0.714158595,-0.314445108,-0.390777856,-0.488256544,9.763586044,-0.388890833,-0.938567162,0.577931404,0.82189244,0.909436584,0.435976654,-0.585878491,-0.454610795,-0.509901881
1556952,8.484969139,-0.6199072,4.922724724,0.427546412,0.175517425,0.735910594,0.714188099,-0.314443558,-0.390722126,-0.488259166,9.688584328,-0.395605057,-0.94749099,0.669279099,0.778811812,0.721836269,0.436113328,-0.585785627,-0.454600543,-0.509900868
1557119,8.505304337,-0.615468919,4.918747425,0.501208484,-0.071088046,0.405071229,0.714183331,-0.3144328,-0.390712231,-0.488280803,9.702504158,-0.371217459,-0.936597943,0.587600112,-0.052992679,0.305053681,0.436157137,-0.585731924,-0.454672396,-0.509860873
1557286,8.544299126,-0.572178543,4.847151756,0.650863588,-0.633888781,0.498455137,0.714160085,-0.314451605,-0.390767246,-0.48825869,9.742822647,-0.349209756,-0.957397163,0.21093978,-0.43682456,-0.089516386,0.436114222,-0.585704267,-0.45477438,-0.509838521
1557452,8.537656784,-0.61656481,4.860248089,1.577018499,0.961942375,0.684556961,0.714282691,-0.314271301,-0.390714526,-0.488237709,9.759877205,-0.329468817,-0.97058624,-0.154252455,-0.710598707,-0.211893827,0.436012745,-0.585711658,-0.454877257,-0.50982517
1557619,8.453224182,-0.576993227,4.935484409,1.390673637,0.641527712,0.480103612,0.714363694,-0.314121544,-0.390691668,-0.488233835,9.779637337,-0.302692205,-0.990413427,-0.479264826,-0.815930903,-0.143443897,0.435881287,-0.585751534,-0.454957217,-0.509820402
1557786,8.568749428,-0.598824143,4.857059479,1.205698729,-0.31326896,0.295372069,0.71436882,-0.314047694,-0.390763283,-0.4882164,9.781892776,-0.297202528,-0.971858561,-0.836139321,-0.601027548,-0.033398956,0.435741186,-0.585804999,-0.454988152,-0.50985086
1557952,8.496995926,-0.600101292,4.935183525,1.299838185,1.569463134,0.605887651,0.714506984,-0.313848108,-0.390632451,-0.488247335,9.746811867,-0.28210786,-0.968624592,-1.147884369,-0.338241309,0.118349887,0.435602754,-0.585868359,-0.454966933,-0.509915352
1558119,8.402928352,-0.593818665,4.972880363,0.478656501,0.026169773,0.614416599,0.714520574,-0.313843578,-0.390603334,-0.488253772,9.740756035,-0.297490478,-0.976059079,-1.430917501,-0.295737058,0.251766473,0.435452312,-0.585954905,-0.454911143,-0.509994388
1558286,8.456892014,-0.599819601,4.886069298,0.126885295,-1.009729266,0.333899915,0.714439571,-0.313932508,-0.390669167,-0.488262445,9.722770691,-0.328134716,-0.984760642,-1.470271468,-0.140191108,0.391867876,0.435318738,-0.586041152,-0.454831034,-0.510080755
1558452,8.435861588,-0.597516298,4.906806946,0.118183404,-0.143072546,0.225577459,0.714399636,-0.313954443,-0.390649408,-0.488322526,9.756632805,-0.376134574,-0.996651173,-1.278009772,-0.074020699,0.555405021,0.435217649,-0.586120844,-0.454747319,-0.510149896
1558619,8.437235832,-0.622381568,4.915321827,-0.136887059,-0.445609778,0.395799458,0.714342952,-0.314033717,-0.390635192,-0.48836574,9.760133743,-0.402881593,-1.010236382,-0.752437055,0.190769792,0.757502019,0.435193747,-0.586161077,-0.45466879,-0.510194182
1558786,8.487762451,-0.643620908,4.921425819,-0.048728157,-0.459940046,0.387949139,0.714289129,-0.31410414,-0.390628844,-0.488404304,9.75670433,-0.422821999,-1.00526762,-0.023832615,0.50020963,0.892967522,0.435262471,-0.586141169,-0.454613209,-0.510207951
1558952,8.464396477,-0.642104447,4.921243668,0.016372917,-0.150180057,0.487864256,0.714263022,-0.314151466,-0.39059025,-0.488442898,9.766489983,-0.410924792,-1.015898466,0.59073776,0.638018727,0.833981514,0.435388356,-0.586068511,-0.4545995,-0.510196269
1559119,8.475013733,-0.637991786,4.903717041,0.207891852,-0.268446684,0.54932189,0.714243412,-0.314190686,-0.390574515,-0.488458842,9.748276711,-0.396126151,-0.984943271,1.173490524,0.784779489,0.761100531,0.435568094,-0.585943341,-0.454625934,-0.51016289
1559286,8.497149467,-0.644425452,4.913901806,0.248142213,-0.105524316,0.637865007,0.714241266,-0.314219207,-0.39054057,-0.488470763,9.772690773,-0.355295539,-0.978237748,1.381696343,0.855701149,0.640528858,0.435761333,-0.585791767,-0.454673707,-0.510129511
1559452,8.476376534,-0.652296662,4.927620411,0.306808084,-0.095829919,0.609819174,0.714240432,-0.314239353,-0.390511125,-0.488482803,9.743293762,-0.353091955,-0.979730368,1.37932694,1.086919546,0.588009894,0.435965478,-0.585619509,-0.454711288,-0.510119379
1559619,8.477414131,-0.640962541,4.921936512,0.460433096,-0.408893943,0.581299424,0.714226842,-0.314264148,-0.390526086,-0.488474697,9.771783829,-0.33749035,-0.9635396,1.255809665,0.91081959,0.702357769,0.436155707,-0.585475504,-0.454741389,-0.510095298
1559786,8.513801575,-0.622184098,4.892340183,0.307883859,-0.466189563,0.816052616,0.714219749,-0.314322084,-0.390525281,-0.488448292,9.734055519,-0.3189345,-0.96280092,0.89359504,1.16803515,0.659507751,0.43632865,-0.585332215,-0.45473215,-0.510120094
1559952,8.489691734,-0.626558602,4.891615391,0.655550659,0.384824395,0.720389128,0.714270055,-0.314278036,-0.390465349,-0.488450974,9.746101379,-0.286165625,-0.931685805,0.29112035,0.863052011,0.256376714,0.436399728,-0.58522284,-0.45473215,-0.510184586
1560119,8.442245483,-0.558145821,4.959004879,0.041972809,-0.328470051,0.180601537,0.714213431,-0.314317673,-0.39046073,-0.488512039,9.747660637,-0.276744813,-0.933425844,-0.404642195,0.627914488,0.180409446,0.436390072,-0.585169494,-0.454702377,-0.51028055
1560286,8.525707245,-0.588740289,4.874699593,0.504474163,-0.616292715,0.107784636,0.714156449,-0.314324826,-0.390522093,-0.488541663,9.750370026,-0.293871969,-0.938069403,-0.945953906,0.653347969,0.183431759,0.436335772,-0.585148215,-0.454630941,-0.510415018
1560452,8.503599167,-0.597947896,4.930476189,0.763008714,0.646061063,0.519457579,0.714212,-0.314238697,-0.390452355,-0.488571584,9.730046272,-0.308686286,-0.943016827,-1.241690993,0.495624959,0.371493012,0.436259478,-0.585169375,-0.454531938,-0.510544181
1560619,8.49993515,-0.574097633,4.924152374,0.680740654,-0.486743718,0.462968737,0.714195371,-0.314238071,-0.390497148,-0.488560498,9.756651878,-0.343634516,-0.930660486,-1.3779248,0.378408462,0.450930804,0.436169386,-0.585212767,-0.454423845,-0.510667682
1560786,8.514849663,-0.600916982,4.915879726,0.250396162,-0.505159318,0.368406653,0.714151263,-0.314277679,-0.390517801,-0.488583058,9.758118629,-0.347068876,-0.953223109,-1.39965713,0.431145012,0.413024008,0.436077982,-0.585250795,-0.454314053,-0.510799885
1560952,8.460033417,-0.589745164,4.911813259,-0.082255177,-0.155328214,0.231378719,0.71410197,-0.314319044,-0.39048484,-0.488654882,9.754068375,-0.369626313,-0.97032553,-1.154005885,0.544570804,0.422308624,0.436015457,-0.5852651,-0.454214633,-0.510925055
1561119,8.470100403,-0.601217687,4.891557693,-0.328559726,-0.36025545,0.190052643,0.714026749,-0.314397842,-0.39045766,-0.488735795,9.707689285,-0.378496349,-0.969882667,-0.835025251,0.330666363,0.440186232,0.435967177,-0.585276306,-0.454151124,-0.511009812
1561286,8.488775253,-0.639136195,4.885853767,-0.19897224,-0.220538139,0.23729524,0.713968754,-0.314455748,-0.390423179,-0.488810897,9.72085762,-0.382371664,-0.966981411,-0.334399402,-0.025062025,0.470934331,0.435940206,-0.585284352,-0.454144925,-0.511029303
1561452,8.479427338,-0.625146091,4.901170731,0.066817135,-0.318788469,0.193535969,0.713914037,-0.314490676,-0.390419811,-0.488870889,9.751346588,-0.374407381,-0.969516814,0.066612244,0.144154698,0.423051387,0.435954928,-0.585251212,-0.454161882,-0.511039555
1561619,8.49933815,-0.622682452,4.887144089,0.309087664,-0.424684197,0.227485612,0.71386683,-0.314509839,-0.390443087,-0.488908827,9.736792564,-0.338091254,-0.954472303,0.415623665,0.188797593,0.397592306,0.436000258,-0.585190952,-0.454204232,-0.511032283
1561786,8.502976418,-0.61232537,4.906202316,0.427610457,-0.124324054,0.428827047,0.713856399,-0.314506769,-0.390434533,-0.488932937,9.76356411,-0.33509779,-0.953202307,0.54033196,0.197774887,0.577188611,0.436124682,-0.585085273,-0.454303712,-0.510958731
1561952,8.472579002,-0.605462611,4.929297447,0.443976969,-0.37836358,0.486545235,0.713836312,-0.31452328,-0.390451014,-0.488938481,9.758671761,-0.319409609,-0.963719547,0.563140035,0.257273167,0.738036394,0.436212122,-0.585032642,-0.454324305,-0.510926068
1562119,8.48093605,-0.614009738,4.933302879,0.473815769,-0.257394791,0.547977328,0.713828981,-0.314531237,-0.390454173,-0.48894164,9.756550789,-0.309969217,-0.939951479,0.483599812,0.350861967,0.900292873,0.436364442,-0.584940732,-0.454381913,-0.510849774
1562286,8.495623589,-0.618058622,4.900527954,0.553074121,-0.180518299,0.662875831,0.713837802,-0.314531803,-0.390449613,-0.488932043,9.770819664,-0.320751041,-0.943923235,0.359262943,0.361401618,0.963953257,0.436457753,-0.584907651,-0.454362363,-0.510825574
1562453,8.50318718,-0.614542603,4.905816078,0.423179448,-0.192184895,0.684300959,0.713841498,-0.314547807,-0.390436113,-0.488927037,9.711133957,-0.33009702,-0.934484303,0.215140283,0.36870122,1.113838792,0.436550111,-0.58489275,-0.45431909,-0.510802209
1562619,8.482539177,-0.606649876,4.888829231,0.08580894,-0.163229734,0.774034977,0.713837743,-0.314601839,-0.390391618,-0.488933295,9.731302261,-0.362932026,-0.918920755,0.225948825,-0.124426492,1.158020496,0.436665386,-0.584870636,-0.454364061,-0.510688722
1562786,8.453932762,-0.60438621,4.891843796,-0.207283586,-0.281919003,0.755849957,0.713812411,-0.3146936,-0.390339553,-0.488952726,9.784311295,-0.39894262,-0.926927269,0.384068817,0.154066786,1.071667314,0.436803907,-0.584813833,-0.45440799,-0.510596216
1562953,8.496825218,-0.619502842,4.913118839,0.147740453,0.066048734,0.796061814,0.713825941,-0.314725935,-0.390274912,-0.488963962,9.70423317,-0.407029569,-0.938595235,0.575946391,0.185596019,1.039280057,0.436909527,-0.584783852,-0.454409897,-0.510538459
1563119,8.481976509,-0.635463417,4.925685406,0.217035607,0.049720649,0.652720392,0.713831604,-0.314743876,-0.390223384,-0.4889853,9.714642525,-0.397699445,-0.929583192,0.653917789,-0.513035119,0.692003846,0.436998934,-0.58473444,-0.454548299,-0.510395467
1563286,8.494515419,-0.598984122,4.860483646,0.292452186,-0.645670533,0.719492793,0.713805974,-0.314807177,-0.390246183,-0.488963783,9.743231773,-0.373647779,-0.929096878,0.47510913,-0.866656899,0.329193592,0.437020242,-0.584700823,-0.454723626,-0.510259509
1563453,8.511841774,-0.639178872,4.851136684,0.646932006,0.765070558,0.870581985,0.713887215,-0.31474182,-0.390141189,-0.488970876,9.766002655,-0.361441374,-0.945874989,0.114943385,-1.002737045,0.226640359,0.436992496,-0.584694922,-0.45488748,-0.510144055
1563619,8.433481216,-0.599695921,4.980672836,0.54048562,0.644063354,0.621075988,0.713938773,-0.314682275,-0.390052915,-0.489004374,9.774240494,-0.34754017,-0.938641667,-0.010718915,-0.996679783,0.179077581,0.436955065,-0.584689379,-0.455050677,-0.510036945
1563786,8.589913368,-0.625332773,4.860007763,0.837861896,-0.232307196,0.667383671,0.713957131,-0.314656734,-0.390073925,-0.488977283,9.770956993,-0.328647196,-0.956872821,-0.222164556,-0.880013883,0.241124362,0.436909795,-0.584694386,-0.455183208,-0.50995177
1563953,8.502216339,-0.634732425,4.929594994,1.273149848,1.468894839,0.890163064,0.714108169,-0.314477265,-0.389940053,-0.488978833,9.752573013,-0.324167192,-0.943382382,-0.488510996,-0.792482495,0.314248592,0.436852068,-0.584715009,-0.455283642,-0.509887815
1564119,8.372888565,-0.614323735,4.985478401,0.347378641,-0.113950886,0.813913882,0.714121401,-0.314502418,-0.389908075,-0.488968939,9.760058403,-0.336495399,-0.951556087,-0.647732377,-0.765589178,0.171842009,0.43677178,-0.584734082,-0.455382764,-0.50984621
1564286,8.437917709,-0.617592156,4.922828197,-0.091655046,-0.933313787,0.364859253,0.714037776,-0.314604402,-0.389950633,-0.488991618,9.76231575,-0.33857736,-0.943331599,-0.893242836,-0.502085686,0.311892241,0.436697036,-0.584759355,-0.455433756,-0.509835601
1564453,8.448868752,-0.611113012,4.910847664,0.015668567,0.073642917,0.295077503,0.714010775,-0.31461972,-0.389899045,-0.48906216,9.745892525,-0.376916796,-0.962838233,-0.888325214,-0.221959651,0.363450557,0.436643302,-0.584768176,-0.455461115,-0.509847045
1564619,8.45101738,-0.625693202,4.945000648,-0.012345322,-0.247265011,0.436562091,0.713973939,-0.314668983,-0.389871985,-0.489105761,9.736742973,-0.388828993,-0.999526978,-0.750657022,-0.268472314,0.506766438,0.436605692,-0.584784031,-0.455485821,-0.509838939
1564786,8.460824013,-0.643778086,4.921054363,0.019305572,-0.448657691,0.415482819,0.713926971,-0.314726949,-0.389869601,-0.489138931,9.760523796,-0.401389807,-0.997830153,-0.356503129,-0.123184279,0.705918014,0.436628431,-0.58477515,-0.455516636,-0.509802103
1564953,8.461042404,-0.635727882,4.917238235,0.250127226,-0.200509012,0.486212254,0.713908374,-0.314748317,-0.389853597,-0.489165097,9.77050972,-0.40255934,-0.971469581,0.061540913,0.102470003,0.5747298,0.436693251,-0.584713459,-0.455576688,-0.509763837
1565119,8.445899963,-0.648287714,4.940752029,0.117056437,-0.072522357,0.448062122,0.713888347,-0.314772189,-0.389816523,-0.489208609,9.772386551,-0.374711424,-0.954350233,0.437176734,0.200323299,0.474801779,0.436784625,-0.584618151,-0.455661476,-0.509719133
1565286,8.469409943,-0.641031563,4.923471928,0.031945441,-0.103360057,0.323584467,0.713854194,-0.314799696,-0.389782131,-0.489268064,9.78475666,-0.363918424,-0.967374802,0.533403635,0.441249222,0.290428787,0.436890095,-0.584483206,-0.455758005,-0.50969708
1565453,8.470507622,-0.63429755,4.959594727,0.334316194,-0.144993514,0.300699502,0.713829279,-0.314798057,-0.389773995,-0.489311993,9.71833992,-0.365481228,-0.959203184,0.502079308,0.520430803,0.148764953,0.436986059,-0.5843364,-0.455857396,-0.509694338
1565619,8.460877419,-0.629362404,4.943741798,0.453953117,-0.39561373,0.256735295,0.713791609,-0.314799964,-0.389801532,-0.489343911,9.760038376,-0.356755286,-0.972724795,0.628554821,0.323456377,0.253943503,0.437083334,-0.5842067,-0.455965012,-0.509663403
1565786,8.503835678,-0.637490749,4.885911465,0.306398332,-0.561187088,0.504435718,0.713754117,-0.314843923,-0.389823318,-0.489352971,9.744779587,-0.318400264,-0.977570355,0.540818572,0.23947233,0.408452094,0.437179595,-0.584098518,-0.456059188,-0.509620667
1565953,8.481562614,-0.641111672,4.893144608,0.896578908,0.424562484,0.52082783,0.713804901,-0.314754069,-0.389787018,-0.489365429,9.761200905,-0.30264011,-0.952365458,0.152901411,0.063039258,0.122985788,0.437206626,-0.584011614,-0.456156731,-0.50960964
1566119,8.456138611,-0.586591244,4.936485767,0.197595581,-0.594163418,0.248257473,0.71374613,-0.314794332,-0.389818996,-0.48939994,9.752199173,-0.294693798,-0.976658642,-0.307954311,0.106529616,0.033981647,0.437195301,-0.583940566,-0.4562307,-0.509634674
1566286,8.537150383,-0.599014521,4.885836124,0.725998342,-0.234894052,0.233081967,0.713729918,-0.314753622,-0.389851332,-0.48942396,9.760134697,-0.307264149,-0.978321552,-0.692029476,0.105710015,0.154809549,0.437154114,-0.58390677,-0.456259638,-0.509682596
1566453,8.491217613,-0.621774018,4.935680389,0.517895222,0.663247347,0.435973018,0.713771045,-0.314680755,-0.389767826,-0.489477426,9.756484032,-0.320450038,-0.969882548,-0.78312099,0.135305494,0.369213432,0.437133759,-0.583880961,-0.456274807,-0.509716094
1566619,8.495038033,-0.584814608,4.888009071,0.358789086,-0.818428159,0.551434994,0.713727534,-0.314737499,-0.389820516,-0.489462405,9.758947372,-0.335054725,-0.973913431,-0.845385551,0.288994491,0.392559379,0.437113315,-0.583854854,-0.456266284,-0.509771049
1566786,8.508974075,-0.609589577,4.897898197,0.226064086,-0.213059232,0.316630572,0.713683546,-0.314760804,-0.389804393,-0.489524305,9.744305611,-0.338079154,-0.990265131,-0.792815447,0.310278624,0.350260049,0.437092096,-0.583824039,-0.456260145,-0.509830058
1566953,8.465208054,-0.58365494,4.920986176,0.056111019,0.067419022,0.259450227,0.71365875,-0.314766496,-0.38975969,-0.489592433,9.751265526,-0.352631927,-0.993305862,-0.661307096,0.151979342,0.168819681,0.437057674,-0.583784878,-0.456289202,-0.509878516
1567119,8.474217415,-0.60730809,4.886884212,-0.295813829,-0.371384084,0.254007548,0.713584602,-0.314845622,-0.389730692,-0.48967275,9.739951134,-0.365609974,-1.005361319,-0.419164598,0.242328152,0.278659731,0.437061161,-0.583727956,-0.456325173,-0.509908557
1567286,8.489459038,-0.617363811,4.880690098,0.157281175,-0.309030026,0.220941529,0.713534951,-0.314869255,-0.389730841,-0.489729702,9.759061813,-0.373373926,-1.004660368,-0.206835359,0.348928213,0.136803836,0.43708095,-0.583638787,-0.456384361,-0.509940743
1567453,8.502343178,-0.632423639,4.886944294,0.326158524,0.084067293,0.253533721,0.713519812,-0.31484744,-0.389702439,-0.489788383,9.809379578,-0.336989582,-0.993484676,0.048452821,0.533890307,0.213949278,0.437132478,-0.583531857,-0.456435233,-0.509973407
1567619,8.497047424,-0.615765691,4.895910263,0.408989936,0.019817824,0.227946594,0.71350193,-0.314821124,-0.38968724,-0.489843428,9.793972015,-0.323794544,-1.00725472,0.110025764,1.147096753,0.288853645,0.437237531,-0.583378494,-0.456448078,-0.510047197
1567786,8.509252548,-0.617110312,4.905365467,0.352014571,-0.07895115,0.364026904,0.713492513,-0.314809799,-0.38967678,-0.489872754,9.765113831,-0.31350553,-0.985921085,0.246874422,1.304563642,0.373772532,0.437370896,-0.583210349,-0.456454337,-0.510119557
1567953,8.475951195,-0.624155462,4.927327156,0.035364732,0.089330688,0.434628278,0.713481963,-0.314824432,-0.38962236,-0.489922047,9.775818825,-0.290837556,-0.984109521,0.056315925,1.580732584,0.50256604,0.437513977,-0.583043694,-0.456416279,-0.510221243
1568119,8.473901749,-0.611724555,4.903473854,0.075090028,0.060260277,0.407056242,0.713460088,-0.314842761,-0.389568925,-0.489984572,9.798149109,-0.305172682,-0.98270148,0.00500088,1.933534622,0.529702604,0.437682241,-0.582852006,-0.456355065,-0.510350764
1568286,8.489741325,-0.611484945,4.917632103,0.273293912,0.205868483,0.624764144,0.713470757,-0.314842671,-0.389504313,-0.490020514,9.791713715,-0.322894275,-0.995179534,0.002362772,2.349753857,0.71994102,0.437889308,-0.582644284,-0.456248492,-0.510505557
1568453,8.509425163,-0.620915651,4.949903488,0.125751942,0.1131505,0.578315556,0.713471651,-0.314857423,-0.389444649,-0.490057141,9.780976295,-0.328891814,-0.993462861,-0.083779134,2.805096388,0.920962095,0.438125849,-0.582428694,-0.456080467,-0.510698915
1568619,8.476825714,-0.620454013,4.917910576,-0.195757851,0.193228602,0.546530187,0.713460088,-0.314897925,-0.389355153,-0.49011898,9.821602821,-0.340741724,-1.006378412,-0.093294255,3.264882803,0.847223222,0.43836689,-0.582191944,-0.455866516,-0.51095283
1568786,8.480028152,-0.612089336,4.911798954,-0.325947225,0.287483364,0.677808106,0.713449419,-0.314958692,-0.389235586,-0.490190357,9.847509384,-0.36883381,-1.011546493,0.056559242,4.309278965,0.908898711,0.438717216,-0.581851602,-0.455618739,-0.511260748
1568953,8.475412369,-0.627252877,4.938780308,-0.220307618,0.750650525,0.695224643,0.713471055,-0.314976394,-0.389074713,-0.490275294,9.801940918,-0.379698455,-1.042188644,0.144244358,5.201767445,0.782141566,0.439134687,-0.581421912,-0.455342978,-0.511636615
1569119,8.479305267,-0.632250309,4.916545868,-0.458134353,0.686887801,0.445628941,0.713466048,-0.315004736,-0.388918459,-0.490388423,9.886779785,-0.362146229,-1.05074513,0.062078778,6.02426672,0.745156646,0.439585477,-0.580943525,-0.454999447,-0.512098551
1569286,8.513848305,-0.603763938,4.867736816,-0.600835502,0.159752816,0.50702256,0.71345073,-0.31507197,-0.388817728,-0.490447342,9.96544075,-0.319103003,-1.101638198,-0.320760697,7.893841743,0.328041106,0.440095454,-0.580322921,-0.454542726,-0.512769341
1569453,8.499483109,-0.64954561,4.880101204,0.004232499,2.068705797,0.712487698,0.713565528,-0.314967394,-0.388540447,-0.490567118,10.05567265,-0.300031751,-1.134966373,-1.0321666,10.2165699,0.258284926,0.440688312,-0.579572916,-0.453885943,-0.513689458
1569619,8.427669525,-0.619254827,5.012192726,-0.653508008,2.431061268,0.210619628,0.71363622,-0.31487599,-0.388202667,-0.490790308,10.15268135,-0.259244084,-1.141087413,-1.58070147,13.60987473,0.45031634,0.441476136,-0.57861203,-0.452959567,-0.514912426
1569786,8.565993309,-0.616522372,4.932285309,-0.883817494,1.967561364,0.097936571,0.713660061,-0.314836442,-0.387899816,-0.491020322,10.23222446,-0.205997676,-1.142699718,-2.345012188,18.27001762,0.907222211,0.442535996,-0.577379823,-0.451635748,-0.51654613
1569953,8.501461029,-0.656125128,5.012495041,-0.701698363,4.239062309,0.186838254,0.713813722,-0.314630687,-0.387362331,-0.491353363,10.26086521,-0.178808004,-1.123985052,-3.291276932,23.61702347,1.329794884,0.443888843,-0.575833917,-0.449853092,-0.518662155
1570119,8.346155167,-0.635528445,5.072325706,-1.148153067,3.261873245,0.05968399,0.713906169,-0.31451562,-0.38691473,-0.491645426,10.23815346,-0.169522002,-1.07566309,-4.28565836,29.2640934,1.899719,0.445560873,-0.573956311,-0.44757688,-0.521272123
1570286,8.363836288,-0.635534048,5.035624981,-1.297539353,1.947583437,-0.365659744,0.713873923,-0.314495802,-0.386602789,-0.491950035,10.17283726,-0.188600063,-1.048168063,-5.473834515,34.55133438,2.135736704,0.447484523,-0.571758628,-0.444840252,-0.524372876
1570453,8.373913765,-0.631697297,4.996335506,-0.363982081,2.999637842,-0.430856824,0.713913083,-0.314319849,-0.386234313,-0.492295116,10.16723061,-0.239044115,-0.988809347,-6.220386982,39.55574417,2.190801144,0.449662149,-0.569213986,-0.441707462,-0.527914822
1570619,8.407149315,-0.655093729,4.991956234,-0.158721879,3.424372911,-0.231654063,0.714028537,-0.314080775,-0.385845184,-0.492585212,10.17839813,-0.289644867,-0.902237058,-6.637681484,44.58993912,2.829346657,0.452153414,-0.566335082,-0.438140035,-0.531841457
1570786,8.449810982,-0.655257165,5.022711754,-0.273799777,3.059776545,-0.048945874,0.714141369,-0.313882411,-0.385483325,-0.49283123,10.21799755,-0.339241266,-0.840158939,-6.526430607,49.87899399,3.945306778,0.455054045,-0.563085616,-0.434121907,-0.536095738
1570953,8.435959816,-0.659434557,5.009934902,-0.365326762,3.415037155,0.097424299,0.714293838,-0.313666105,-0.385079443,-0.493063927,10.25312424,-0.343478858,-0.760943294,-6.244472027,55.56906128,4.989966869,0.458388954,-0.559409261,-0.429638594,-0.540695548
1571119,8.431097031,-0.615570366,5.006448746,-0.34769246,3.876783848,0.143014938,0.714462459,-0.313427478,-0.384618044,-0.493331164,10.23411942,-0.336546481,-0.634694695,-5.886748314,61.34710693,5.824925423,0.462152034,-0.555262566,-0.424708635,-0.545638919
1571286,8.432814598,-0.616663396,5.033346176,-0.161436841,4.63272953,-0.06357073,0.714664459,-0.313105255,-0.384099275,-0.493647248,10.19991589,-0.302304476,-0.506539643,-5.776769161,67.42879486,6.317903519,0.466293991,-0.550611496,-0.419301152,-0.550984323
1571453,8.375338554,-0.617543638,5.115996838,-0.629380941,4.64814806,-0.182721004,0.714857876,-0.312808186,-0.383563489,-0.493972123,10.16698265,-0.298758447,-0.333998322,-5.741490841,73.12656403,6.929233074,0.470779091,-0.545487165,-0.413414538,-0.556686044
1571619,8.398899078,-0.615667403,5.070444107,-1.540949941,4.482626438,-0.456828147,0.714951396,-0.31262368,-0.382973075,-0.494411319,10.16298103,-0.297036678,-0.16249536,-5.69571209,78.87633514,7.771276474,0.475622594,-0.539879918,-0.407023966,-0.562711716
1571786,8.454118729,-0.608803988,4.993396759,-1.848122597,5.832708836,-0.187087938,0.715120494,-0.312392235,-0.382204652,-0.494907677,10.04093552,-0.182260424,0.031635061,-6.113574982,84.68359375,8.578828812,0.480774105,-0.533799589,-0.400079906,-0.569078624
1571953,8.380438805,-0.634740174,5.092699528,-1.973625183,7.911232471,-0.564824164,0.715374589,-0.312000334,-0.381230295,-0.495538831,9.976100922,-0.307941109,0.22796756,-7.466547966,89.63938904,9.421538353,0.486081481,-0.52737987,-0.392535865,-0.57577014
1572119,8.215828896,-0.570622504,5.196854115,-3.561702251,6.156403542,-1.029246449,0.715436339,-0.311865479,-0.380351514,-0.496209294,9.785136223,-0.434518218,0.637939453,-7.112058163,95.10042572,9.9749403,0.491683483,-0.520415723,-0.384525657,-0.582713604
1572286,8.67736721,-0.578058541,5.03441,-3.901390791,6.549725533,-1.142057538,0.715478718,-0.311742425,-0.379400969,-0.496952564,9.753908157,-0.526831806,1.064731836,-6.961390495,98.66786194,10.34203243,0.49742803,-0.513057113,-0.376171738,-0.589773536
1572453,8.321569443,-0.566348314,5.154643536,-3.85044837,10.51243591,-0.549328566,0.715780497,-0.311361641,-0.378013819,-0.497813046,9.705882072,-0.648302972,1.406808376,-6.004353523,102.2745972,10.99131393,0.503389657,-0.505246878,-0.367512167,-0.596874595
1572619,8.440788269,-0.518235624,4.935240269,-6.412525654,7.358652115,-0.460887879,0.715803146,-0.311475426,-0.376768023,-0.498653203,9.176851273,-0.680193961,1.704003215,-4.542741776,103.9798813,11.94060993,0.509518504,-0.497119874,-0.358703762,-0.60381645
1572786,8.646502495,-0.590702057,4.811299324,-6.243496895,11.86671066,-0.265591085,0.716095865,-0.311251312,-0.375059158,-0.499659866,8.69072628,-0.658482432,1.977926493,-3.614403009,100.7134552,11.97797585,0.515434325,-0.489103675,-0.35013783,-0.610334933
1572953,8.50611496,-0.627380371,5.10874176,-4.813756943,14.75353527,-0.06158578,0.716616511,-0.310682803,-0.373142064,-0.500701666,8.608707428,-0.66346997,2.268392324,-2.885414839,95.10240173,11.40054798,0.52096051,-0.481402665,-0.342027903,-0.616334796
1573119,8.471918106,-0.62393713,5.278433323,-3.396041393,13.48585701,0.200707659,0.717148364,-0.310071051,-0.371448159,-0.501578033,8.737563133,-0.649658799,2.624451876,-2.311229706,90.38225555,10.47385788,0.526114702,-0.473947942,-0.33433044,-0.621932387
1573286,8.415160179,-0.637066662,5.30752039,-3.01582098,14.98982525,0.524093926,0.717823446,-0.309308916,-0.36962378,-0.502429843,8.886385918,-0.61792618,2.952370167,-2.325774193,88.13500214,9.486207962,0.530981123,-0.466569871,-0.326816231,-0.62734592
1573453,8.372003555,-0.627594829,5.250281334,-4.042622566,15.63733101,-0.084099382,0.718412995,-0.308589786,-0.367667288,-0.503463864,8.823291779,-0.666291893,3.200064182,-2.453647614,87.08100128,8.790803909,0.535639644,-0.459189087,-0.319367111,-0.632645607
1573619,8.68368721,-0.616754711,5.007720947,-4.36704731,17.54386711,-1.185933471,0.719022632,-0.307692379,-0.365545809,-0.504686117,8.648126602,-0.727317512,3.365828037,-1.966633081,85.78759003,8.718874931,0.540180027,-0.451813549,-0.312018931,-0.637741804
1573786,8.986780167,-0.621487856,5.008040428,-6.640182972,23.81055832,-4.202797413,0.719641984,-0.306404412,-0.362740934,-0.506607056,8.479151726,-0.778576314,3.527318001,-1.170747399,83.73382568,9.043167114,0.544628203,-0.444512218,-0.304838002,-0.64254415
1573953,8.650452614,-0.530401289,5.404057026,-7.377123356,30.55396461,-2.415669918,0.720684469,-0.304799139,-0.359083503,-0.508694947,8.540206909,-0.834703445,3.739102602,-0.306219995,82.29962158,9.423709869,0.549025655,-0.437228948,-0.297783136,-0.64709115
1574119,8.257214546,-0.709819555,5.420893669,-10.41380405,30.92225838,-0.856658399,0.721730292,-0.303547382,-0.355098546,-0.51075387,8.695286751,-0.859288573,4.07887888,0.747928321,82.89435577,10.12013817,0.553502798,-0.429773331,-0.290693372,-0.651480615
1574286,7.705814838,-0.802505493,5.808300018,-7.190265656,30.6959877,1.860045552,0.723077834,-0.302117378,-0.351241499,-0.512360513,8.848509789,-0.859764278,4.400795937,1.658043385,85.92586517,10.2643671,0.558095753,-0.42189908,-0.283393681,-0.655910373
1574453,8.155862808,-0.749315679,5.422881126,-5.873254299,29.92357063,1.994704008,0.724432468,-0.300610721,-0.347544342,-0.513851941,8.370006561,-0.903202593,4.612744331,2.524927139,89.58818817,10.02997017,0.562779963,-0.413527191,-0.275848597,-0.660440624
1574619,8.401173592,-0.679250598,5.162963867,-3.630371094,33.19306564,3.478057861,0.726136744,-0.298697919,-0.343594402,-0.515216589,7.950604916,-1.000335813,4.831255913,3.443833113,88.63188171,9.947336197,0.567379475,-0.405099034,-0.268428802,-0.664771676
1574786,8.378305435,-0.755965292,5.520125866,-2.406239748,43.67127609,4.395739079,0.728492856,-0.295890689,-0.338598251,-0.516815603,7.879837513,-1.056573987,5.036040783,4.91562748,87.16737366,10.22207069,0.5719437,-0.396635205,-0.261211336,-0.668827176
1574953,7.552146912,-0.835586429,6.075786114,-3.256245136,46.95550156,4.36468792,0.73091799,-0.292926013,-0.333167553,-0.518606544,7.866657734,-1.090100408,5.277430534,6.324372292,86.05233765,10.44724274,0.576478899,-0.388107836,-0.254168153,-0.672638893
1575119,7.394718647,-0.760811746,6.216526031,-3.218895674,41.54919815,5.382483959,0.733123362,-0.290403843,-0.328252763,-0.520044208,7.779929638,-1.116535544,5.536111355,7.847103596,86.46037292,10.4638319,0.581026793,-0.379352093,-0.247197703,-0.676308572
1575286,7.618777752,-0.867806137,6.118962765,-3.610733032,40.56007004,5.700287342,0.735262632,-0.288001984,-0.323386312,-0.521406829,7.700748444,-1.08465898,5.872812748,8.61174202,86.82604218,10.42864132,0.585534632,-0.370433688,-0.240232885,-0.679864943
1575453,7.676174641,-0.816895187,6.107619286,-3.233609915,40.98559189,6.116201878,0.737441361,-0.28553766,-0.318472534,-0.522708356,7.537149429,-1.05661726,6.214053631,9.266310692,87.53037262,9.798005104,0.58994621,-0.361307293,-0.23326689,-0.683379173
1575619,7.733321667,-0.85646373,6.047456264,-2.924080849,43.52293777,6.50387001,0.739752114,-0.282853752,-0.313282639,-0.524036705,7.354522705,-1.007559657,6.692055225,9.435961723,87.88407135,8.71570015,0.594175696,-0.352034003,-0.226304799,-0.686886728
1575786,7.542406082,-0.837162375,6.174035072,-1.894189239,46.79569626,6.358114243,0.742245018,-0.279771239,-0.307831168,-0.525395572,7.212456703,-0.985780001,7.166793346,9.225763321,87.67566681,7.241531372,0.598144591,-0.342691123,-0.219376445,-0.690405607
1575953,7.29460144,-0.844676137,6.423072815,-2.655288696,46.15097427,5.718495846,0.744600236,-0.276776224,-0.30240652,-0.526797593,6.884544373,-0.942798078,7.603509903,9.184082031,86.63161469,6.283482075,0.601886928,-0.333367616,-0.212544888,-0.693846405
1576119,7.092733383,-0.871798933,6.499228477,-2.333217859,43.3209343,5.759138107,0.746810973,-0.273956001,-0.297295779,-0.528050065,6.448743343,-0.946864247,8.041773796,9.444289207,82.19044495,6.358832359,0.605423212,-0.324416727,-0.206089601,-0.696953297
1576286,7.040908337,-0.873232961,6.569277763,-2.707238674,39.45674133,5.356368065,0.748771966,-0.271451086,-0.292575598,-0.529201925,6.076385975,-0.944755673,8.428092957,9.866891861,73.89927673,7.141095638,0.608733714,-0.316244096,-0.200339198,-0.699497938
1576453,7.073215008,-0.953248441,6.52636528,-2.110586405,36.66473007,5.665307522,0.750640869,-0.269099355,-0.28818506,-0.530163586,5.917377949,-0.914777875,8.70599556,9.934063911,63.67950821,7.443935394,0.611720741,-0.309074551,-0.195460752,-0.701474071
1576619,6.774965763,-1.009506464,6.672018051,-0.662642002,35.71873474,6.196029186,0.752545178,-0.266678661,-0.283980042,-0.530955434,6.025160313,-0.985770166,8.710664749,10.35476971,53.99766159,7.557769299,0.614419341,-0.302827626,-0.191461295,-0.702941716
1576786,6.777160168,-1.038671494,6.721931458,0.503784299,31.25570107,6.270247936,0.754299998,-0.264470994,-0.280343801,-0.53150177,5.820077896,-0.904649019,8.691231728,9.99327755,45.84068298,7.528572559,0.616839945,-0.297423273,-0.188139632,-0.704025269
1576953,6.69212389,-0.974763155,6.85994339,2.225116491,28.46762085,6.74897337,0.756012619,-0.262313724,-0.277113438,-0.531831563,5.832092762,-1.115212202,8.571502686,9.515031815,36.62739182,6.014628887,0.618810833,-0.292946219,-0.185649291,-0.704833508
1577119,6.561190605,-1.003162146,7.087131977,2.507867336,25.87101173,6.901993752,0.75764519,-0.260320753,-0.274186373,-0.532004654,5.91080904,-1.154633641,8.495172501,9.848263741,29.30170059,4.1645298,0.620394528,-0.289128363,-0.183921918,-0.705470204
1577286,6.358110428,-1.136014342,7.250452042,3.776913643,22.37841988,7.186163425,0.759196222,-0.25846687,-0.271725208,-0.531960011,5.978613853,-1.203629613,8.357696533,10.48442173,22.73691177,2.289504766,0.621628284,-0.285868585,-0.182923943,-0.705971897
1577453,6.416940689,-1.023959637,7.23891449,4.2202034,16.85471916,6.122831821,0.760450125,-0.256949991,-0.269939721,-0.531812906,6.095097542,-1.089498162,8.245410919,10.5057106,17.50069046,0.408222169,0.622524917,-0.28308937,-0.182474226,-0.706418037
1577619,6.496986389,-1.021234035,7.28229475,5.053012848,15.91243553,6.221707821,0.761698961,-0.255416423,-0.26831457,-0.531586826,6.15899992,-0.950263619,8.108132362,9.274770737,14.47235966,-2.103278399,0.623028696,-0.280662656,-0.182271808,-0.706994414
1577786,6.456041813,-1.027185678,7.266701221,4.384468555,13.25563812,4.806488991,0.762739301,-0.254088849,-0.266997546,-0.531394541,6.194577217,-0.924946427,7.988668919,7.597110271,12.8270359,-3.547438383,0.623268485,-0.278516263,-0.182102397,-0.707674921
1577953,6.487660408,-1.052797079,7.222416401,4.78708744,12.66211414,3.807221413,0.763652444,-0.252741218,-0.265793622,-0.531329274,5.933707714,-0.886153817,7.934854507,7.25365591,10.74169827,-2.810829163,0.623512566,-0.276633769,-0.182055175,-0.708210349
1578119,6.415752888,-0.972433031,7.375709534,5.459074497,11.35705471,3.283658504,0.764544368,-0.251375347,-0.264826328,-0.531177282,6.258267403,-0.68230623,7.912268162,5.652576447,8.325583458,-3.120344877,0.62359482,-0.275135487,-0.18207261,-0.708717108
1578286,6.34692049,-0.993319094,7.366187096,3.641544342,9.677755356,2.308876753,0.765197515,-0.250317246,-0.263924718,-0.531185389,6.2175107,-0.656955481,7.88059473,3.518321753,9.880799294,-3.827857494,0.623557866,-0.273650765,-0.181757167,-0.709404945
1578453,6.357141972,-1.063015461,7.271015644,2.975639343,7.833204269,1.329152107,0.765685439,-0.24943386,-0.263213843,-0.531250715,5.974214077,-0.689269125,7.922623158,2.280612946,8.3519907,-3.44352603,0.623469174,-0.27244547,-0.181437299,-0.71002841
1578619,6.442213535,-1.019798636,7.296894073,3.806195498,8.660084724,1.13308692,0.766208887,-0.248390868,-0.262475967,-0.53134948,6.279259205,-0.668649316,7.898084641,1.386140347,7.14734745,-3.103414774,0.623347342,-0.27145353,-0.181120023,-0.710595965
1578786,6.3140769,-0.959755957,7.367516041,1.746357203,7.542320251,0.796036422,0.76659888,-0.247645482,-0.261719465,-0.531507969,6.166771889,-0.703782439,7.886065006,0.630475879,8.081133842,-3.526344299,0.623175263,-0.270422339,-0.18065691,-0.711257577
1578953,6.42753315,-1.031182289,7.240564823,2.060433388,6.7285285,0.352232367,0.766941011,-0.24690707,-0.261095762,-0.53166455,6.170530796,-0.842298388,7.882294178,0.627043843,7.037199497,-3.213305712,0.62300694,-0.269507527,-0.180275604,-0.711848855
1579120,6.397909641,-1.007888317,7.326004505,2.668312311,7.536915779,0.394339621,0.767333508,-0.246042266,-0.260424495,-0.531828642,6.221230984,-0.70989579,7.91228056,1.536691785,8.022161484,-2.318769455,0.6229918,-0.268432111,-0.179863557,-0.712372482
1579286,6.345635414,-0.985955954,7.350821972,1.784302831,6.696128368,0.259578377,0.767663479,-0.245329961,-0.259788156,-0.531992614,6.060406208,-0.661744773,7.950277328,1.045734763,8.24149704,-3.250226974,0.622865498,-0.26735422,-0.179417104,-0.713000774
1579453,6.42762661,-1.035327196,7.33061409,1.34929657,6.822142601,-0.231858999,0.767919898,-0.244648919,-0.259109706,-0.532267213,6.136550426,-0.682666779,8.025669098,0.42964676,7.385993481,-3.71370101,0.62264365,-0.266408265,-0.179001972,-0.713652551
1579620,6.39157629,-1.084094882,7.430279255,1.951630354,8.265071869,-0.026662827,0.768253267,-0.243802875,-0.258302569,-0.532566309,6.106930733,-0.676804125,8.137604713,0.880660892,7.501968384,-2.058595657,0.622612953,-0.265452296,-0.178558752,-0.714146316
1579786,6.235142708,-0.984128833,7.510176182,2.258828878,6.835434437,-0.010898205,0.768571973,-0.243021131,-0.257689595,-0.532760799,5.973554611,-0.488550305,8.265897751,0.650620222,5.747765064,-0.73763293,0.622664571,-0.264733434,-0.178199157,-0.714458168
1579953,6.312072754,-0.931528926,7.495328426,0.947753191,5.670107841,-0.403297603,0.7687729,-0.242459431,-0.257119209,-0.533002317,5.999529839,-0.494706988,8.285478592,-0.548431993,5.166907787,-1.182551384,0.622607827,-0.264170438,-0.177784398,-0.714818954
1580120,6.281747818,-1.006885886,7.426179409,0.219404802,4.858082771,-0.586261928,0.768881142,-0.242044821,-0.256578982,-0.533294916,5.903706551,-0.623635948,8.266329765,-1.143056273,3.853744268,-1.176967621,0.622494578,-0.263796777,-0.177426413,-0.715144455
1580286,6.321399212,-0.962576926,7.44989872,1.663461804,4.72461462,-0.016929995,0.769065917,-0.241506219,-0.25613901,-0.533484161,5.90801096,-0.624699891,8.309555054,-0.854631782,2.00510931,-0.531399488,0.622411847,-0.263605028,-0.177240327,-0.715333402
1580453,6.189063072,-0.871665299,7.552064896,1.687165976,3.963097334,0.665731668,0.769304395,-0.241036341,-0.255774051,-0.533527911,5.894704819,-0.642822623,8.266835213,-0.77762711,-0.069999501,-0.353634506,0.622297049,-0.26362583,-0.177242532,-0.715425134
1580620,6.194344044,-0.92248112,7.480010986,0.599049032,1.89062047,0.505011976,0.769410133,-0.240844429,-0.255559206,-0.533565164,6.037170887,-0.686907053,8.26147747,-0.513086438,-2.273267984,-0.066016734,0.622165501,-0.263858557,-0.177459911,-0.715399742
1580786,6.315835476,-0.932883084,7.419306755,1.638860464,1.899584889,0.717930257,0.769553006,-0.240550131,-0.255408794,-0.533563793,6.027085304,-0.616545737,8.270733833,-0.348383933,-2.616900682,-0.005237797,0.622037709,-0.264113426,-0.177722663,-0.715351522
1580953,6.285154343,-0.872610927,7.445217609,1.991201878,2.073610783,1.16813755,0.769769192,-0.240210801,-0.255258858,-0.53347677,5.990629673,-0.607554436,8.242043495,-0.493492693,-3.508927345,0.25208661,0.62190789,-0.264480442,-0.178040817,-0.715249836
1581120,6.246656895,-0.904611945,7.531395435,1.430129766,0.769424736,0.843957603,0.769890666,-0.240023553,-0.255222052,-0.533403158,6.034021378,-0.533923805,8.313830376,-1.017746329,-5.388976097,0.219251126,0.621705294,-0.265088856,-0.178475246,-0.715092301
1581286,6.246906757,-0.934288502,7.518405914,0.423358679,-1.182679176,0.626326561,0.769887388,-0.240092129,-0.255332679,-0.533324122,6.097953796,-0.603954077,8.240581512,-0.520693421,-5.822715282,1.277708888,0.621620178,-0.265723974,-0.178959489,-0.714809656
1581453,6.205170155,-0.90189743,7.50072813,0.437163949,-3.107307196,0.383441329,0.769782126,-0.240304485,-0.25566256,-0.533222318,5.626995087,-0.439985931,8.265999794,0.210850209,-8.716567039,2.331390381,0.621596515,-0.266620547,-0.179740295,-0.714300156
1581620,6.365231514,-0.907914639,7.436979771,-0.088748001,-4.295544147,0.170753464,0.769598246,-0.240659207,-0.256091744,-0.533121586,5.729156494,-0.254065245,8.302603722,-1.192899704,-14.09970093,1.355329275,0.62127465,-0.268174827,-0.180898353,-0.713706017
1581786,6.074939251,-0.984585643,7.682064056,-0.67474103,-4.691094398,-0.04442523,0.769376159,-0.241095737,-0.256533414,-0.533032715,6.325703621,-0.384096146,8.376465797,-4.290081024,-18.02477837,0.741226017,0.620660961,-0.270396143,-0.182112157,-0.713092744
1581953,6.095240593,-0.98641324,7.507311344,-0.394909441,-8.179916382,0.156423181,0.769036591,-0.241783336,-0.257372946,-0.532806575,6.325333118,-0.547797084,8.449917793,-6.163817406,-14.24366951,2.167291164,0.620217264,-0.272429645,-0.18273361,-0.712545514
1582120,6.253246307,-0.794156432,7.295834064,0.604184568,-10.51739693,0.879047334,0.768699765,-0.242566347,-0.258524299,-0.532379091,5.810870647,-0.714248955,8.470931053,-7.000854969,-16.24986649,3.502623796,0.619821608,-0.274779677,-0.183395088,-0.711817145
1582286,6.487792492,-0.757379949,7.325775623,0.785560966,-10.12663746,1.132100821,0.768411398,-0.243303061,-0.259640872,-0.531915903,5.429014683,-0.757009089,8.482046127,-7.688244343,-23.26880264,3.515868664,0.619207263,-0.277914017,-0.184613749,-0.710819423
1582453,6.307428837,-0.802641511,7.568224907,-0.439258099,-13.19772053,0.786790609,0.767934382,-0.244399935,-0.261018276,-0.531427622,5.433073997,-0.71878469,8.491430283,-8.810601234,-33.23117065,1.799856663,0.618091822,-0.282124847,-0.18667613,-0.709591627
1582620,6.14670372,-0.85984832,7.50734663,-0.905025661,-17.65398407,0.191794515,0.767204225,-0.245876253,-0.26286909,-0.530888498,6.16585207,-0.869941294,8.413762093,-9.921731949,-41.41232681,-0.239313796,0.616479754,-0.287212163,-0.189433768,-0.708220899
1582786,6.064519405,-0.874592066,7.418355465,-1.734968781,-20.90966606,-0.032336086,0.766301453,-0.247682914,-0.265025973,-0.530279815,6.49275732,-0.850500405,8.324542999,-10.07370472,-41.36112213,-1.77242291,0.61468184,-0.292253196,-0.192225784,-0.706967831
1582953,6.369684219,-0.869645596,7.161697865,-1.688712478,-23.64985085,-0.481135488,0.765255213,-0.249673426,-0.26750508,-0.529612005,6.455117226,-0.89088881,8.272929192,-10.17002773,-42.94248199,-2.549569607,0.612731695,-0.29743132,-0.195173308,-0.705692708
1583120,6.758794785,-0.83151406,7.00108099,-1.621210098,-24.0430584,-0.835129261,0.764168978,-0.251665264,-0.27004692,-0.528947294,6.249351025,-0.941029429,8.213427544,-9.984405518,-45.25393677,-3.373243809,0.610613227,-0.302792609,-0.198371068,-0.704355896
1583286,6.787377357,-0.8980124,6.999298096,-0.703377426,-24.50419426,-0.389505923,0.763106108,-0.253612697,-0.272684902,-0.528197467,6.102041245,-0.939679384,8.065793037,-9.875060081,-51.3371048,-4.609241962,0.608166754,-0.308714122,-0.202161729,-0.702822566
1583453,6.65518713,-0.886228323,7.141610146,-0.165023044,-27.13457298,-0.358258545,0.761960328,-0.255696088,-0.275656641,-0.527303934,6.171390533,-0.955012977,7.818878651,-9.658374786,-58.29722977,-6.120077133,0.605331719,-0.315260738,-0.20664151,-0.701058984
1583620,6.691139698,-0.87871629,7.082048416,-1.066157341,-28.63241577,-0.336078018,0.760700643,-0.25799495,-0.2787157,-0.526394248,6.333404541,-0.983920693,7.506244183,-8.819394112,-64.748909,-7.034174442,0.602199018,-0.32233578,-0.211796671,-0.698998213
1583786,6.713103294,-0.95214802,7.097006798,-1.22811985,-29.68919373,-0.482455105,0.75936377,-0.260383457,-0.281878054,-0.5254637,6.694109917,-0.967254817,7.154201031,-7.606645107,-69.67448425,-7.348669052,0.598881245,-0.329762757,-0.2174979,-0.696629405
1583953,6.787185192,-0.991033435,7.030326366,-0.928898811,-30.37522507,-0.631495953,0.757988989,-0.262777984,-0.285140902,-0.524495244,6.990648746,-0.937727749,6.898021221,-6.44314146,-72.10613251,-7.515193939,0.595461309,-0.337293655,-0.223511636,-0.694047272
1584120,6.870532513,-0.979659617,6.886511803,-1.212125182,-31.38861275,-0.891760409,0.756534636,-0.265261084,-0.288501322,-0.523506641,7.227456093,-0.933299899,6.663840771,-5.413681507,-73.23364258,-7.5989604,0.591979325,-0.344808549,-0.229704693,-0.691305697
1584286,6.942693233,-1.015404105,6.741788387,-1.155111313,-32.27165604,-1.372935414,0.754994869,-0.267777771,-0.29197675,-0.522520363,7.253665924,-0.873558104,6.442774773,-4.422029495,-74.00258636,-7.771198273,0.588435352,-0.352270335,-0.236044958,-0.688427567
1584453,7.081655025,-0.990349293,6.618747234,-0.474348903,-33.01554489,-1.924455762,0.753389537,-0.270247906,-0.295599699,-0.521528125,7.36285305,-0.814317405,6.16287899,-4.084170341,-75.79579163,-8.298365593,0.584723651,-0.359822989,-0.242570564,-0.68540895
1584620,7.197772503,-0.947046936,6.641584396,0.422117829,-30.39241982,-1.932714939,0.751907945,-0.27241838,-0.298994213,-0.520600975,7.539613724,-0.792954564,5.961304188,-4.083276749,-77.16340637,-9.001826286,0.580820084,-0.367442727,-0.249218643,-0.682293296
1584786,7.171822548,-0.932294786,6.680580139,0.257107496,-30.25744057,-1.896447062,0.750412405,-0.274594009,-0.302353799,-0.51967442,7.495927811,-0.769234657,5.914036274,-4.337619781,-78.7408905,-9.556757927,0.576714694,-0.37517339,-0.25597176,-0.679061055
1584953,7.223186493,-0.910869539,6.505568504,-0.48300606,-31.85789871,-1.913903356,0.748812437,-0.276959807,-0.305831939,-0.518690944,7.391568184,-0.754885018,5.751946926,-4.558560848,-83.93534088,-9.791252136,0.572298646,-0.383373678,-0.263114393,-0.675477505
1585120,7.333301544,-0.8990587,6.296357632,-1.687626481,-31.00287819,-1.800463676,0.747173727,-0.279400408,-0.309105903,-0.51780349,7.602546692,-0.754597664,5.477552414,-4.797307014,-89.97039795,-9.415653229,0.567582786,-0.392138898,-0.270671219,-0.671427071
1585286,7.517445564,-0.933457851,6.287473679,-0.451706946,-30.31394005,-1.537752748,0.745669842,-0.281637967,-0.312405258,-0.516778409,8.044003487,-0.712917984,5.123894215,-5.143112183,-92.98722076,-9.275605202,0.562640607,-0.401162714,-0.278385967,-0.667087376
1585453,7.445840359,-0.962420464,6.401212692,-0.46172142,-28.36823082,-1.708743095,0.744201064,-0.283730865,-0.315482259,-0.515880406,8.246726036,-0.728940725,4.885142803,-5.204611778,-93.45630646,-9.672323227,0.55753243,-0.410147578,-0.28610447,-0.66263181
1585620,7.383340359,-0.965973079,6.430787563,-1.754974842,-29.39309883,-2.161385536,0.742558002,-0.286028683,-0.318572938,-0.515079379,8.189401627,-0.737313807,4.712305069,-5.034836769,-94.71186066,-9.936010361,0.552250862,-0.419152379,-0.293902695,-0.657990694
1585786,7.51107645,-0.956730366,6.187552452,-2.320825815,-31.1865139,-2.57824707,0.740767837,-0.288494915,-0.321827471,-0.51425761,8.341882706,-0.707034409,4.361260414,-4.911351681,-97.89935303,-10.24788857,0.546701014,-0.428356588,-0.301928937,-0.65304482
1585953,7.64548254,-0.958880186,5.984208107,-2.044080019,-31.60840416,-3.012820244,0.738922119,-0.290936381,-0.325159937,-0.513440669,8.729394913,-0.689113677,3.927532673,-4.47838068,-98.10093689,-9.881372452,0.54109174,-0.437475026,-0.309927374,-0.647904754
1586120,7.872035027,-0.985144496,6.031615734,-0.362203062,-29.29392433,-2.327138424,0.737288356,-0.293052852,-0.328332365,-0.512565911,8.85204792,-0.683009624,3.638919592,-3.856055021,-96.02080536,-9.304746628,0.535560429,-0.446288496,-0.317722261,-0.642693043
1586286,7.753040791,-0.994299889,6.072582245,0.236501813,-25.33056831,-1.696422458,0.735899687,-0.294839293,-0.331089824,-0.511762619,8.74393177,-0.640867889,3.42085743,-3.253571987,-95.76083374,-8.807559967,0.530021012,-0.454968452,-0.325459301,-0.637305319
1586453,7.773941994,-0.967319787,5.809070587,0.865000486,-25.57390404,-1.540107965,0.734535873,-0.296577215,-0.333912313,-0.510883272,8.901615143,-0.621268809,3.078139544,-2.915913343,-98.14875031,-8.575847626,0.524305522,-0.463765115,-0.333331466,-0.631597757
1586620,7.89710474,-0.97886616,5.761498928,1.800300837,-22.5936451,-1.915923119,0.733328164,-0.29796806,-0.336502612,-0.510108709,9.429902077,-0.566602528,2.699367762,-2.787355661,-96.46712494,-8.409734726,0.518589079,-0.472314239,-0.341009527,-0.625857174
1586786,7.85821867,-0.940621018,5.925100803,3.134469032,-23.41479111,-2.196882248,0.732102454,-0.299264282,-0.339285135,-0.509266794,9.47381115,-0.532515526,2.485605955,-2.511105299,-91.45406342,-8.711266518,0.51301384,-0.480284959,-0.34829244,-0.620351255
1586953,7.976379871,-0.867932796,5.848106861,3.479997635,-23.46323776,-1.656414866,0.730908692,-0.300556302,-0.342064589,-0.508360445,9.528223991,-0.468127191,2.276536465,-2.505234718,-87.93869781,-9.004009247,0.507501125,-0.487843186,-0.355275422,-0.615005076
1587120,7.954926968,-0.809752822,5.639171124,1.80354023,-21.10224533,-1.401631594,0.72975409,-0.301871896,-0.344445169,-0.507631779,9.524142265,-0.450805485,2.050461769,-2.450634718,-84.94002533,-8.789902687,0.502083957,-0.495064348,-0.36197108,-0.609754145
1587286,7.985347271,-0.829450309,5.661855221,1.893133759,-21.4302578,-1.218193173,0.728615999,-0.303195924,-0.346868604,-0.506826639,9.747225761,-0.479319721,1.811155558,-2.245942116,-82.12734985,-8.196492195,0.496806085,-0.501980484,-0.368383884,-0.604559839
1587453,7.98346138,-0.850143373,5.643337727,1.795613647,-22.68251991,-1.382640123,0.727395058,-0.304608941,-0.349423856,-0.505977273,9.829611778,-0.435340762,1.591214895,-2.043450356,-77.43260193,-7.930077553,0.491749197,-0.508417368,-0.374406755,-0.59959507
1587620,8.059354782,-0.862500072,5.537080288,2.026729584,-21.69295311,-0.981019139,0.726244032,-0.305949479,-0.351862967,-0.505130768,9.95275116,-0.395843416,1.377106786,-2.031983137,-72.61833954,-7.70016861,0.486914754,-0.514386892,-0.380025238,-0.594896019
1587786,8.053612709,-0.838234723,5.505939007,0.153746799,-19.06402969,-1.054949999,0.725133955,-0.307288438,-0.353887796,-0.504497945,9.851739883,-0.348621756,1.200453758,-1.924314737,-69.0121994,-7.136087418,0.482282877,-0.520014584,-0.385315657,-0.590355873
1587953,8.070774078,-0.838465273,5.503957748,0.968065143,-18.74944115,-0.794647753,0.724100351,-0.308523655,-0.355930835,-0.503790915,9.821580887,-0.340957373,0.98782748,-1.94868207,-65.39647675,-6.380514145,0.477868706,-0.525327265,-0.390257061,-0.5859797
1588120,8.130366325,-0.806652486,5.48065567,1.959290743,-19.52231789,-0.30818519,0.723090827,-0.309740007,-0.358097404,-0.502958298,9.853408813,-0.315520167,0.835650086,-1.932031989,-63.37600708,-5.665609837,0.4735879,-0.530462503,-0.394971311,-0.581654489
1588286,8.213479042,-0.834539056,5.356829166,2.339165926,-18.30433083,-0.220935434,0.722180247,-0.310819566,-0.360167116,-0.502122164,10.08113575,-0.313590616,0.723850369,-2.058966637,-59.61962128,-5.045085907,0.469526052,-0.53528291,-0.399337143,-0.577535689
1588453,8.212242126,-0.867825806,5.347534657,1.660684228,-16.29361153,-0.46831587,0.721309721,-0.311816424,-0.361978263,-0.501452744,9.680860519,-0.339634359,0.674957275,-1.673052788,-56.24536514,-4.636654377,0.465670019,-0.539787889,-0.403434187,-0.573603988
1588620,8.204082489,-0.837879419,5.34539175,1.207774282,-15.58092308,-0.396510541,0.720459461,-0.312810034,-0.363677621,-0.50082612,9.751940727,-0.324908584,0.536691725,-1.524434686,-57.79907608,-4.502381802,0.461732686,-0.544376493,-0.407621741,-0.569474936
1588786,8.241168976,-0.775939703,5.190063,-0.041748736,-15.44962025,-0.149744794,0.719580114,-0.313932478,-0.365263045,-0.500233889,10.24634171,-0.33884722,0.274733901,-1.329044342,-55.07854843,-4.279467106,0.457957804,-0.548704207,-0.411597461,-0.565496266
1588953,8.366168976,-0.806797922,5.112202168,0.200528383,-14.92793655,-0.323386163,0.718724966,-0.31497997,-0.366819143,-0.499665916,10.0432148,-0.331715792,0.066041611,-0.909130394,-48.83572388,-4.071889877,0.454578906,-0.552472949,-0.415151447,-0.561944067
1589120,8.389212608,-0.821481705,5.14400053,1.524142146,-12.6468029,-0.316573173,0.718048215,-0.315723687,-0.368231207,-0.499130607,9.565015793,-0.346045285,-0.01396386,-0.420717686,-47.88520432,-4.376964569,0.451256573,-0.556083381,-0.418692201,-0.558422685
1589286,8.436367989,-0.796262145,5.217971325,1.166652679,-11.44861507,0.018882973,0.717440426,-0.316435605,-0.369475603,-0.498633742,10.01935577,-0.281348914,-0.149558067,-0.319149703,-48.829319,-4.543257236,0.447867036,-0.559718728,-0.422308087,-0.554784834
1589453,8.346409798,-0.811845183,5.213503361,0.363245845,-10.4005909,-0.040775429,0.716846347,-0.317151159,-0.370554775,-0.498232663,10.36489391,-0.292955071,-0.277449369,-0.011781919,-43.13072586,-4.323477745,0.444840521,-0.562866688,-0.425536036,-0.551559091
1589620,8.342083931,-0.788406968,5.016690254,0.379215419,-10.68155098,-0.520309448,0.716203153,-0.317857534,-0.371686906,-0.497864068,10.09270668,-0.314049393,-0.353657722,0.537658036,-37.2268486,-3.935142279,0.442241937,-0.565509439,-0.428382009,-0.548735082
1589786,8.481046677,-0.794232666,4.944561481,1.701817155,-8.411188126,-0.020592617,0.715776563,-0.318289727,-0.372653723,-0.497478485,9.815612793,-0.290315956,-0.391432256,1.182204008,-34.69928741,-3.543378353,0.439861208,-0.567923427,-0.431066185,-0.546046913
1589953,8.440288544,-0.794193804,5.076312065,2.475755453,-6.673235416,0.700590611,0.715529144,-0.31855619,-0.373461246,-0.497058094,9.827664375,-0.247983783,-0.450942397,1.426844716,-34.85092926,-3.243657351,0.437521338,-0.570329785,-0.433756173,-0.543281376
1590120,8.341382027,-0.804891467,5.085096359,2.936356068,-8.565285683,0.620416641,0.715194404,-0.318906277,-0.374503106,-0.496531427,10.05999947,-0.216898963,-0.588808417,1.710095882,-32.85070419,-2.80714941,0.435349673,-0.572576165,-0.436291873,-0.540626347
1590286,8.401029587,-0.757949412,4.980068684,2.600822926,-10.02595329,-0.109327853,0.714709818,-0.31935665,-0.37570563,-0.496030837,9.958685875,-0.191341922,-0.646942079,1.744185328,-29.78054047,-2.754487991,0.433367133,-0.574571848,-0.438620865,-0.538212001
1590453,8.53380394,-0.796070755,4.959709644,2.451577902,-6.610767841,-0.302780598,0.714389741,-0.319565356,-0.376551032,-0.495716363,9.839047432,-0.133006349,-0.685848415,1.639594555,-26.83820534,-2.710483074,0.431568861,-0.576331973,-0.440752536,-0.536029279
1590620,8.458564758,-0.76843065,5.058961391,0.255429089,-3.87079668,-0.610798955,0.714094937,-0.319787711,-0.376968205,-0.495680839,9.465521812,-0.109035119,-0.616768897,1.143629551,-28.06177711,-2.789948225,0.429622531,-0.578211427,-0.44291243,-0.533783555
1590786,8.404712677,-0.770845771,4.954230785,1.948108673,-4.925809383,-0.287336141,0.713841319,-0.319930047,-0.377599955,-0.495473325,9.809136391,-0.122768804,-0.699247479,0.487814724,-30.90289116,-2.697295427,0.427447438,-0.580341995,-0.445190817,-0.5313164
1590953,8.361767769,-0.736522377,4.943112373,1.55595243,-7.081182003,0.257875085,0.713493407,-0.320295423,-0.37840423,-0.495124519,10.0553484,-0.145515472,-0.865293384,0.255250573,-29.3371067,-2.159131765,0.42536208,-0.582402468,-0.447282076,-0.528973997
1591120,8.539347649,-0.755419254,4.769088268,1.262686849,-4.935720444,0.43506369,0.713256896,-0.320549786,-0.378953427,-0.494880557,10.09104252,-0.166564316,-1.023132801,0.332792968,-25.62363243,-1.56304419,0.42356348,-0.584201992,-0.449091762,-0.526895463
1591286,8.57960701,-0.762959898,4.944530964,1.239148855,-0.655621111,0.658918738,0.71327883,-0.320505351,-0.379052222,-0.494802117,9.612146378,-0.171586365,-1.025874019,0.672059238,-23.23529434,-1.227554917,0.421969712,-0.585812569,-0.450746298,-0.524969876
1591453,8.491886139,-0.761164904,5.094799042,1.368134379,-0.586927831,0.807049811,0.713318944,-0.320452571,-0.379145235,-0.494707108,9.569499016,-0.214144662,-1.064364791,0.945001841,-25.45956612,-0.919216275,0.420271218,-0.587589204,-0.452526182,-0.522810876
1591620,8.313678741,-0.756244898,5.144219875,1.608150959,-3.099994898,0.841153145,0.713231504,-0.320559263,-0.379512995,-0.4944821,9.952187538,-0.225923911,-1.158922076,1.304809928,-25.6008606,-0.511102557,0.418619394,-0.589373827,-0.45430097,-0.52058351
1591786,8.317350388,-0.767223179,4.904680729,-0.073149867,-5.819858074,0.395620137,0.712883711,-0.321010739,-0.380062252,-0.494268924,10.11503792,-0.220182493,-1.287847161,1.908860087,-21.99497032,-0.300347894,0.417268395,-0.590855658,-0.455878347,-0.518605828
1591953,8.509281158,-0.805382788,4.777284622,0.275394171,-3.0154984,0.339336276,0.712703705,-0.321220607,-0.380348921,-0.494171739,9.934308052,-0.227172002,-1.387891054,2.422727346,-17.68106651,-0.333836317,0.416241288,-0.59197396,-0.457231611,-0.516961873
1592120,8.526507378,-0.804548919,4.984683037,0.798495114,-0.15211384,0.622792006,0.712725937,-0.321187019,-0.380363017,-0.49415046,9.654961586,-0.190744475,-1.372666001,2.732730389,-16.48004532,-0.541926801,0.415302277,-0.59296602,-0.458550572,-0.515409529
1592286,8.468332291,-0.776090562,5.007254124,0.918913305,-0.95594281,0.956884086,0.712734342,-0.321216553,-0.380454242,-0.494048864,9.853105545,-0.186185002,-1.448621154,2.630740166,-16.47867393,-0.626563966,0.414345503,-0.593955278,-0.459866464,-0.513865471
1592453,8.359204292,-0.795569301,5.006671429,1.431859016,-3.582781792,0.674107194,0.712602437,-0.321364939,-0.380868673,-0.49382329,10.04216957,-0.180256769,-1.467848063,2.450400591,-13.32460594,-0.481429398,0.413592786,-0.59472698,-0.460964173,-0.512594223
1592620,8.486548424,-0.779385507,4.875504494,1.278374791,-2.805000544,0.326465905,0.712475657,-0.321458489,-0.381203592,-0.493687004,10.00772476,-0.131219774,-1.455720305,2.301525831,-9.695638657,-0.529440284,0.413065463,-0.595232368,-0.461835265,-0.51164788
1592786,8.574372292,-0.777924955,4.906205654,1.413084626,0.829384089,0.460420281,0.712572932,-0.321279049,-0.381170183,-0.493689239,10.03599644,-0.109989844,-1.445861936,1.829291344,-6.061745167,-0.592165649,0.412735939,-0.595490634,-0.462457776,-0.511050642
1592953,8.461139679,-0.755728245,5.040629864,0.593388617,2.178443432,0.539589167,0.712711334,-0.32109338,-0.380933732,-0.493792742,10.00259686,-0.145774305,-1.458033323,1.369850516,-2.262151957,-0.373074561,0.412638187,-0.595508635,-0.462798893,-0.510799825
1593120,8.358515739,-0.749887705,4.988255024,-0.040993128,-0.105332226,0.391611785,0.712683499,-0.32112807,-0.380896032,-0.493839204,9.611190796,-0.168750867,-1.369018793,1.269448638,-0.034410659,-0.201520711,0.412694335,-0.595378637,-0.462983996,-0.510738313
1593286,8.380684853,-0.751489699,4.933640957,1.020518899,-2.268580914,0.376897305,0.71258235,-0.321209431,-0.381157488,-0.493730485,9.484034538,-0.161478296,-1.326725125,0.951172471,-1.948012471,-0.298759341,0.412587047,-0.595403254,-0.463268667,-0.510538161
1593453,8.344891548,-0.752179682,5.127783775,2.01668644,-3.333211184,0.469525605,0.712475479,-0.321268469,-0.381596953,-0.493506968,9.712373734,-0.170260563,-1.363407135,0.858761787,-3.065084457,-0.179737106,0.412405312,-0.59552443,-0.46360302,-0.510240376
1593620,8.433127403,-0.759714007,4.908351898,0.17441608,-4.149641514,0.199081093,0.712216735,-0.321562439,-0.381999999,-0.493377179,9.83368206,-0.154102638,-1.363704443,0.630219638,-2.271065235,-0.121621914,0.412261605,-0.595603883,-0.463867426,-0.510022879
1593786,8.569029808,-0.769938409,4.787812233,0.452569991,-1.857676148,-0.001126959,0.712085247,-0.321650743,-0.382196009,-0.493357658,9.840410233,-0.185106277,-1.398499727,0.603761733,-0.84373349,0.092378594,0.412228018,-0.595593572,-0.464025706,-0.509918153
1593953,8.545192719,-0.769280255,4.929941654,0.94638294,-0.228708625,0.36419338,0.712102473,-0.321585089,-0.382247567,-0.493335456,9.763298035,-0.177300945,-1.37723124,0.601046801,0.573564351,0.219955459,0.412299484,-0.595486939,-0.464087635,-0.509928584
1594120,8.445637703,-0.784963071,4.95574379,0.594195366,-0.140639335,0.662069023,0.712117016,-0.321575105,-0.382243484,-0.493324101,9.555561066,-0.164795578,-1.347325563,0.727970541,0.372568697,0.089740492,0.41235885,-0.595378757,-0.464182198,-0.509920835
1594286,8.366130829,-0.782176912,4.953680515,0.70952934,-1.587436557,0.587907434,0.712065578,-0.321641892,-0.382410228,-0.493225694,9.629479408,-0.155037791,-1.326658368,0.594861329,-0.985166848,-0.068526775,0.412303507,-0.595368505,-0.464361936,-0.509814024
1594453,8.406962395,-0.765319824,4.992122173,1.900033116,-3.581270218,0.614467859,0.711945355,-0.321742207,-0.382856905,-0.492987394,9.727267265,-0.176725253,-1.361378431,0.724704981,-1.26703465,0.274664193,0.412266016,-0.595394433,-0.464538306,-0.50965333
1594620,8.523620605,-0.754592657,4.832371712,1.42920804,-3.217288494,0.785804152,0.711837173,-0.32187286,-0.383225173,-0.492771983,9.813631058,-0.166730031,-1.424328685,0.993356586,-0.71356976,0.555545807,0.412310153,-0.595382154,-0.464676917,-0.50950563
1594786,8.608690262,-0.801378191,4.758859158,1.177127481,-1.314610004,0.779477596,0.711826563,-0.321889818,-0.383381635,-0.492654622,9.730625153,-0.160641894,-1.451671839,1.214368582,0.317693561,0.716573,0.412455231,-0.595291078,-0.464756012,-0.509422481
1594953,8.482834816,-0.763130426,4.935559273,1.121266246,0.018626835,0.63873589,0.711875081,-0.321812093,-0.383400977,-0.492620319,9.719068527,-0.154346392,-1.449967384,1.028394818,0.818844438,0.57586956,0.41260767,-0.595164537,-0.464803487,-0.509403527
1595120,8.466047287,-0.728590071,4.963289738,-0.323014557,-1.318131924,0.467246085,0.711759627,-0.321977496,-0.383456886,-0.492635399,9.7004776,-0.133660242,-1.445814252,0.9096542,1.524397373,0.445603341,0.412787884,-0.594984233,-0.464811116,-0.509461284
1595286,8.520338058,-0.735683322,4.87760973,0.095618606,-0.747814,0.316656232,0.711699784,-0.322037578,-0.38350147,-0.492647886,9.7078228,-0.13968429,-1.42308867,0.811557651,2.020899773,0.392418593,0.41298914,-0.594769359,-0.464786202,-0.509571671
1595453,8.485505104,-0.753055692,4.889807701,0.716790557,0.339285016,0.627171695,0.711746454,-0.321977586,-0.383459628,-0.492652208,9.74078846,-0.148602948,-1.461222053,0.711027741,2.589450121,0.709081113,0.413243622,-0.594539702,-0.464692324,-0.509718895
1595620,8.492930412,-0.732841194,4.873063564,0.574742556,-0.57732302,0.840038896,0.711751103,-0.322009414,-0.383492976,-0.492598861,9.677306175,-0.168000922,-1.436680794,0.841383517,3.398478508,0.890547156,0.413577437,-0.594254553,-0.46454379,-0.509916067
1595787,8.527826309,-0.76256901,4.855195045,0.075397372,-0.243371829,0.723744392,0.711743295,-0.322061956,-0.383461982,-0.492599785,9.618607521,-0.17411834,-1.392653704,0.96198082,3.308462858,0.789953232,0.413908005,-0.593962014,-0.464418203,-0.510102987
1595953,8.467636108,-0.757589459,4.919322968,-1.153058171,0.622138858,0.471433789,0.711711347,-0.322163254,-0.383267552,-0.492730975,9.652773857,-0.186907426,-1.372483492,1.045427203,2.855476856,0.765954256,0.414213359,-0.593696415,-0.464328051,-0.510246336
1596120,8.426482201,-0.749493599,4.861681938,-1.350506425,-0.507489979,0.244902223,0.711588085,-0.32235533,-0.383184731,-0.492847919,9.685613632,-0.164970323,-1.342077971,0.95519352,2.921890497,0.661544025,0.414507806,-0.593424201,-0.46423611,-0.510407627
1596287,8.502268791,-0.75962472,4.799462318,-0.318878114,-1.056216359,0.457474858,0.711498499,-0.322490871,-0.383223474,-0.49285841,9.556467056,-0.194746539,-1.287172079,0.86266768,2.470824957,0.65806067,0.4147636,-0.59319073,-0.464164615,-0.510536253
1596453,8.540915489,-0.779816806,4.81630373,0.062104389,0.120270826,0.620205104,0.711503923,-0.322511882,-0.383160383,-0.492885947,9.64063549,-0.175827518,-1.239520073,0.79537034,0.83761853,0.618937314,0.414900601,-0.593079865,-0.464189887,-0.510530829
1596620,8.470256805,-0.763574302,4.90908432,0.784292877,-0.342339367,0.681765199,0.711515665,-0.322500437,-0.383189708,-0.492853731,9.77229023,-0.201975942,-1.260329723,0.841947138,0.823736489,0.56890291,0.415037155,-0.592963696,-0.464223504,-0.510524154
1596787,8.5274086,-0.764443099,4.812210083,0.393583953,-1.711619973,0.415931076,0.711424947,-0.322603077,-0.383353263,-0.492790312,9.788777351,-0.230248541,-1.289279222,0.913585842,1.528277874,0.347468317,0.41521135,-0.592775822,-0.464238822,-0.510586798
1596953,8.584942818,-0.775442719,4.826664925,0.843816757,0.382442415,0.501080453,0.711481094,-0.322511464,-0.383330792,-0.492786586,9.751695633,-0.224217266,-1.322490931,1.109311581,2.268427372,0.151524723,0.415438056,-0.59250778,-0.464240551,-0.51071167
1597120,8.549946785,-0.784839392,4.910897732,0.587984383,2.374764919,0.376167297,0.71161741,-0.322305024,-0.383082956,-0.492917538,9.714421272,-0.19565174,-1.322264194,1.020275474,2.874340534,-0.27332592,0.415666699,-0.592171431,-0.464235574,-0.510920405
1597287,8.454723358,-0.78974247,4.97427845,-0.024562581,2.640214682,0.274817854,0.711734712,-0.322135717,-0.382769793,-0.493102044,9.748448372,-0.184909925,-1.343382835,0.824338257,3.257813454,-0.789575458,0.415866017,-0.591783524,-0.464237064,-0.511206329
1597453,8.424006462,-0.758774161,4.920601845,-0.281778157,1.672029138,0.21325776,0.711776733,-0.322062075,-0.382538468,-0.493269026,9.778747559,-0.170346096,-1.329354405,0.388551056,4.011441231,-1.256469369,0.416043937,-0.591334283,-0.464200586,-0.511614382
1597620,8.482642174,-0.736447096,4.930296421,0.129363313,1.848128796,0.303990662,0.711855233,-0.321937919,-0.382314295,-0.493410587,9.817873001,-0.132268265,-1.344132304,0.033392563,5.120254517,-1.337431312,0.416260034,-0.590818286,-0.464077294,-0.512146413
1597787,8.476305962,-0.751276255,4.907897472,0.826989293,2.113066912,0.490617663,0.711995542,-0.321731448,-0.382105172,-0.493504822,9.867253304,-0.120455675,-1.378924131,-0.435070127,6.621005058,-1.207433939,0.416546464,-0.590227127,-0.463816702,-0.512830555
1597953,8.470036507,-0.762830973,4.922820091,0.835134089,2.231320858,0.333803892,0.71213001,-0.321508318,-0.381890476,-0.493622243,9.935830116,-0.11804913,-1.391919136,-0.795889139,8.820458412,-0.79163748,0.416980743,-0.58952117,-0.463359803,-0.513701975
1598120,8.47324276,-0.781092584,4.917771816,0.830498159,2.621927261,0.282476068,0.712287307,-0.321250081,-0.381641448,-0.493756145,9.947857857,-0.103054926,-1.378080845,-1.094943404,11.5610199,-0.521769285,0.4175933,-0.588645637,-0.462690473,-0.514810801
1598287,8.48269558,-0.779968917,4.995875359,0.461265475,3.585950613,0.269631267,0.71247685,-0.320962906,-0.38126418,-0.493960828,9.918917656,-0.116311803,-1.420527816,-1.391538739,14.0742054,-0.014970629,0.418385714,-0.587632,-0.461801291,-0.516121805
1598453,8.420855522,-0.788138688,4.953505516,-0.143136606,4.006742477,0.094440438,0.712656438,-0.320691735,-0.38081333,-0.494225621,10.02717781,-0.138544261,-1.413267612,-1.523688197,16.90824699,0.382647723,0.419384778,-0.586437762,-0.460693806,-0.517656744
1598620,8.475392342,-0.760859847,4.88185358,-0.208589822,3.520984173,0.053844295,0.71278131,-0.320478618,-0.380394191,-0.494506538,10.20199203,-0.152287632,-1.463439941,-1.737593651,21.26768494,0.856483519,0.42069,-0.584955871,-0.459260583,-0.519544482
1598787,8.494766235,-0.814773083,4.964429855,-0.32259196,5.894705772,-0.000307352,0.713042319,-0.320091039,-0.379733741,-0.494888723,10.36609745,-0.122716539,-1.447353244,-1.738953114,27.34321213,1.112484097,0.422414601,-0.583025217,-0.457428366,-0.521926343
1598953,8.463162422,-0.777855992,5.052644253,-0.660205901,6.560175419,-0.099748664,0.713318288,-0.319683433,-0.378985643,-0.49532789,10.46647453,-0.091077745,-1.388695478,-1.976745367,34.98373795,1.476482391,0.424645722,-0.58054167,-0.455068737,-0.524937987
1599120,8.491980553,-0.79460156,5.032912731,0.041127596,7.282888412,0.185301498,0.713685453,-0.319167137,-0.378198475,-0.495733142,10.39812565,-0.097717501,-1.304983139,-1.98063004,42.96839142,1.746458054,0.427411437,-0.577448428,-0.452178776,-0.528589785
1599287,8.377814293,-0.799845219,5.109062672,1.079786658,8.340360641,0.702024937,0.714191973,-0.318497419,-0.377349883,-0.496080905,10.36007977,-0.10210342,-1.226338983,-2.044359922,50.19292831,2.193676949,0.430661261,-0.57380712,-0.448777229,-0.53279978
1599453,8.220514297,-0.769702494,5.202156067,0.577329516,5.561420918,0.890662611,0.714544296,-0.318083465,-0.376750201,-0.496295035,10.36165237,-0.079012491,-1.112999678,-1.969524503,57.67643356,2.900921822,0.434420466,-0.569600821,-0.444815695,-0.537561953
1599620,8.29647541,-0.780982733,5.073669434,-1.100577593,2.603485823,0.483228356,0.714618385,-0.318043292,-0.376347691,-0.496519417,10.12082863,-0.093078069,-0.949204803,-2.144032478,65.0827713,4.024564266,0.438709259,-0.564846337,-0.440255582,-0.54282403
1599787,8.455400467,-0.773281574,5.019828796,-0.794915795,4.295217991,0.660481095,0.714812875,-0.317856669,-0.375784636,-0.496785551,9.353515625,-0.188535556,-0.650112629,-1.816290498,68.26874542,4.81018877,0.443238616,-0.559823811,-0.43540445,-0.548233271
1599953,8.429662704,-0.765965939,5.111331463,0.731774092,5.195594311,1.341612577,0.715173662,-0.317485332,-0.3752051,-0.496941477,9.0616436,-0.263017803,-0.346125573,-1.14617157,63.21995163,4.927075386,0.447454005,-0.555128157,-0.430869848,-0.553144932
1600120,8.299393654,-0.802408874,5.160673141,-0.393321425,2.39023447,1.134482503,0.715316892,-0.317420632,-0.374847054,-0.497046888,9.427530289,-0.295338154,-0.097110517,-0.306895077,58.4424057,5.120341778,0.45140928,-0.550735831,-0.426658154,-0.55756855
1600287,8.415898323,-0.768956721,4.904310226,-2.283257008,2.152702808,0.202641293,0.715302944,-0.317510098,-0.37442717,-0.497326285,9.788751602,-0.253227919,0.064079076,0.356603324,57.34244537,4.978173733,0.455323279,-0.54633081,-0.422568381,-0.561818004
1600453,8.650923729,-0.75735122,4.668619156,-1.914306164,7.651237965,0.450354517,0.715607166,-0.317189395,-0.373439789,-0.497835308,10.00527954,-0.182360128,0.240598753,0.55431056,59.25655746,4.818083763,0.4593108,-0.541715443,-0.418340206,-0.566188753
1600620,8.754835129,-0.787598789,4.851260662,-0.036139548,15.17562008,1.703866959,0.716517091,-0.316177368,-0.371763468,-0.498424679,10.09795284,-0.080504172,0.418869317,0.039732255,62.80322647,4.693087101,0.463422626,-0.536794126,-0.41380766,-0.570836961
1600787,8.525764465,-0.818570673,5.1355896,1.269629598,18.85213089,1.976643562,0.717679024,-0.314794332,-0.369769365,-0.499111444,10.04953289,-0.099165916,0.555528045,-1.098635674,66.33029175,4.760534286,0.467615902,-0.531616569,-0.408897936,-0.575779498
1600953,8.269709587,-0.771312296,5.267177105,2.03843379,16.51989365,1.837002397,0.718745232,-0.313481361,-0.368086636,-0.499646932,10.04701042,-0.199317083,0.661063492,-1.72224021,69.40914917,5.324363232,0.471927524,-0.526214302,-0.403631777,-0.580917001
1601120,8.287409782,-0.772986054,5.207802296,1.240776181,14.81385231,1.929258704,0.719679892,-0.312385798,-0.366512179,-0.500144958,9.982592583,-0.215318516,0.769908488,-1.994550347,73.43153381,5.742611408,0.476498395,-0.52042532,-0.398036718,-0.586237013
1601287,8.220482826,-0.762955487,5.348998547,-0.842748404,18.97244453,1.606859446,0.720720172,-0.311181307,-0.364367843,-0.500963926,9.80507946,-0.256973743,0.97824949,-2.062582493,76.66657257,6.007526398,0.481216609,-0.514319122,-0.392144978,-0.591716826
1601453,8.193714142,-0.761100233,5.439741135,-2.923373222,20.0849247,0.642949998,0.721636117,-0.310070306,-0.361987025,-0.502058864,9.694202423,-0.31969896,1.326426983,-2.166562319,79.0824585,5.90844965,0.485994309,-0.507941484,-0.386033088,-0.597313583
1601620,8.156780243,-0.779120624,5.423210621,-3.22660327,20.27194977,0.476761937,0.722535133,-0.308961838,-0.359571576,-0.503183722,9.62635994,-0.303135306,1.733922124,-2.016290903,80.44674683,5.434723377,0.490753114,-0.501340151,-0.37982136,-0.602955401
1601787,8.049129486,-0.803101242,5.335986137,-4.105055809,20.71801567,0.497437835,0.723432362,-0.30789566,-0.357054174,-0.504339337,9.58288002,-0.348007381,2.009175539,-2.077852964,81.09738159,5.191501141,0.49545446,-0.494603902,-0.373523444,-0.608582199
1601953,8.046242714,-0.805801511,5.279046535,-2.629300117,18.11660576,0.77833873,0.724260271,-0.306888521,-0.354893357,-0.505289257,9.382364273,-0.402607888,2.231357336,-1.723852038,81.68006134,5.156041145,0.500140727,-0.487719476,-0.367165387,-0.614148855
1602120,8.132852554,-0.835501611,5.372406483,-0.660295963,16.58059502,1.697732806,0.725149453,-0.305840492,-0.352988929,-0.505983055,9.056717873,-0.428636879,2.391612768,-1.021560192,80.36993408,5.545295715,0.504772544,-0.480854154,-0.360886812,-0.619471312
1602287,8.219878197,-0.822753131,5.419137478,-1.268765211,18.50503922,1.629782915,0.726172805,-0.304655313,-0.350885034,-0.506693423,8.871184349,-0.436416984,2.627527237,-0.340924978,76.92124176,5.41726923,0.509193659,-0.474180132,-0.354884535,-0.62444526
1602620,7.929973125,-0.819263756,5.785335064,-0.827022791,22.19085121,1.87667799,0.728539228,-0.301754415,-0.34591186,-0.508448482,9.029880524,-0.368481249,3.000370264,0.001171803,73.1231308,4.952046394,0.513340116,-0.467745423,-0.349184394,-0.629099786
1602787,7.83727932,-0.818896413,5.640445232,-1.809258223,20.2840786,1.7014606,0.729559422,-0.300533056,-0.343531191,-0.509322524,9.301298141,-0.31720376,3.338238239,-0.249805212,71.86460114,3.984876633,0.517260432,-0.461343169,-0.343582124,-0.633684158
1602953,8.063156128,-0.843949378,5.388290405,-0.86645329,20.68316269,2.053328514,0.73065269,-0.299202442,-0.341154575,-0.510135412,9.20598793,-0.29702121,3.585634232,-0.594712257,72.27100372,3.163207769,0.521045864,-0.454837352,-0.337934941,-0.638305724
1603120,8.121684074,-0.873627484,5.569741726,0.101356074,23.83291817,2.434639454,0.731963098,-0.297553062,-0.338494062,-0.510993242,8.821044922,-0.29001525,3.804028273,-1.056567907,70.3739624,2.612188578,0.524600923,-0.448466301,-0.332388788,-0.642798364
1603287,7.898637772,-0.855359077,5.926497459,-0.075749725,24.87867546,2.825413704,0.733344495,-0.295854896,-0.335693836,-0.511845171,8.673933029,-0.275237739,3.934242725,-1.392929673,66.13733673,2.687972784,0.527885139,-0.442475766,-0.327096552,-0.646962404
1603453,7.664826393,-0.843707204,6.100560665,-0.595355451,22.52783775,3.16302681,0.734717011,-0.294325471,-0.333153248,-0.512418151,8.663676262,-0.241635382,4.01343441,-1.907467961,62.28392029,3.417325497,0.530976057,-0.436882675,-0.321976125,-0.650791228
1603620,7.508098602,-0.85732162,6.184625626,-1.344604611,18.76119423,2.796865702,0.735743999,-0.293201476,-0.330913454,-0.513039947,8.597862244,-0.268413812,4.029211044,-2.378168583,59.28130341,5.086470127,0.534013391,-0.431653529,-0.316911817,-0.654272079
1603787,7.453504562,-0.914699078,6.217377186,-2.271451473,15.09056187,2.366570711,0.736539066,-0.292414278,-0.329024971,-0.513562858,8.628493309,-0.340149313,4.131754398,-2.733905315,56.80133438,6.82922411,0.537041724,-0.426736981,-0.311874241,-0.657431722
1603953,7.487033844,-0.888174117,6.173508167,-3.015960693,11.95325375,2.282585621,0.737100601,-0.291963398,-0.327393144,-0.514056563,8.820593834,-0.368115723,4.196821213,-2.864505768,56.28626251,8.042537689,0.54011786,-0.421905547,-0.306767821,-0.660425723
1604120,7.682926178,-0.851019084,5.964385509,-3.550561905,10.72252464,2.495734453,0.737624586,-0.291651607,-0.325859934,-0.514455855,8.741734505,-0.420562804,4.203613281,-3.020414114,57.67270279,8.814261436,0.543282688,-0.416958243,-0.301469207,-0.663404942
1604287,7.871280193,-0.901937366,6.025324345,-2.256326437,14.5500536,2.883588791,0.738397181,-0.290940583,-0.323987424,-0.514932334,8.551772118,-0.474905103,4.150253773,-3.008889198,58.61146545,9.304933548,0.546497166,-0.41191107,-0.296046317,-0.666353345
1604453,7.534379959,-0.906290591,6.359776497,-2.245774984,16.63983917,2.814627171,0.73926121,-0.290066391,-0.321893871,-0.515498638,8.47158432,-0.537756622,4.178688049,-2.806919813,60.06824112,9.774709702,0.549790323,-0.40669629,-0.290477246,-0.669292092
1604620,7.394718647,-0.931784987,6.465774059,-2.44438839,14.63076019,2.649847269,0.740004182,-0.289355993,-0.320004702,-0.516007841,8.525156975,-0.57025367,4.259665489,-2.332453251,62.23461533,9.899824142,0.553170741,-0.401206106,-0.284750938,-0.67227453
1604787,7.448122025,-0.953023136,6.341118336,-2.44887042,13.91210556,2.195861578,0.740659356,-0.288687646,-0.318199843,-0.516557992,8.766861916,-0.587760746,4.619482994,-1.752026439,66.5991745,9.784125328,0.55670476,-0.395202965,-0.278712392,-0.675436199
1604953,7.697575092,-0.913816452,5.961593628,-0.948362291,15.19492054,2.124082327,0.74145323,-0.287741005,-0.316384643,-0.517061949,9.016082764,-0.577756107,5.099211216,-1.676166058,73.49254608,8.808794022,0.560367942,-0.388436466,-0.272150815,-0.678998411
1605120,8.171850204,-0.847957373,5.391134262,-0.744959533,22.25673866,3.196528196,0.742626727,-0.286306143,-0.313760489,-0.517772913,8.25909996,-0.677556574,5.438467503,-1.478398681,80.07470703,7.203139782,0.564073682,-0.380892456,-0.265129894,-0.682969987
1605287,8.28958416,-1.028179288,5.797091484,1.621554613,37.66256714,3.750057697,0.744638026,-0.283469439,-0.309629291,-0.518930852,7.437459469,-0.764523804,5.743862629,-0.993589342,78.07966614,5.80664587,0.567516208,-0.373402655,-0.258363128,-0.686836421
1605453,7.538966179,-0.959253848,6.540822983,2.672912359,41.16830063,4.091569901,0.746861279,-0.280255646,-0.305180609,-0.520115376,7.268945217,-0.807470918,5.997335911,0.201031372,72.00246429,4.95214653,0.570643067,-0.366344005,-0.252232105,-0.690316975
1605620,6.864749432,-0.918441296,6.804013729,1.704988122,36.99720383,4.029915333,0.748842359,-0.277443886,-0.301110357,-0.521145761,7.266503811,-0.779475808,6.249088764,1.370640278,66.59793854,4.520129681,0.573533535,-0.359677047,-0.246663421,-0.693432808
1605787,6.786142826,-0.931765199,6.865395546,-0.153433293,28.36563683,3.394210815,0.750291944,-0.275461406,-0.297849715,-0.521985352,7.341381073,-0.732776642,6.460359097,2.143179178,62.46857452,4.435726643,0.576257885,-0.35332647,-0.241498739,-0.696251214
1605953,7.138175964,-0.969398677,6.562355995,-1.918267131,24.75098419,2.576867342,0.751464486,-0.273892552,-0.294888943,-0.522804499,7.310501575,-0.730783343,6.65272665,2.417991638,60.13684464,4.67321825,0.578893423,-0.347168416,-0.236525133,-0.698865294
1606120,7.286856174,-0.993639469,6.464966297,-2.629445076,27.30931282,2.406825304,0.75266856,-0.272210419,-0.291583121,-0.523804307,7.140179634,-0.74109906,6.897060871,2.500103951,57.60544205,4.49255228,0.581385612,-0.341228127,-0.231763944,-0.70131284
1606287,7.165253162,-1.033693075,6.643321991,-2.600286245,29.50231171,2.438381433,0.753956497,-0.270354897,-0.288033664,-0.524875998,7.040341377,-0.729692876,7.176806927,2.047397852,53.83898544,4.034886837,0.583644211,-0.335671395,-0.227281645,-0.70358181
1606453,6.950351238,-1.018145084,6.77086401,-2.794699669,28.38664436,2.343716145,0.755184174,-0.268588901,-0.284598112,-0.52589047,7.109068394,-0.746655762,7.435247421,1.064172268,50.09565353,3.274017572,0.585620582,-0.330535501,-0.223039553,-0.705725491
1606620,7.020575047,-0.972235322,6.764953136,-1.636783242,24.61906624,3.164283514,0.756339908,-0.267020822,-0.281621784,-0.526629746,7.002593517,-0.762849748,7.695808411,0.014938722,46.87965775,2.25351882,0.587309062,-0.325768322,-0.219000623,-0.707800925
1606787,7.034789562,-1.001865983,6.747169018,-0.508374751,24.08091545,3.681353331,0.757577598,-0.265371591,-0.278782874,-0.527194917,6.774164677,-0.794508696,7.886620998,-0.743118823,42.56133652,1.403207064,0.588712513,-0.321468145,-0.215282381,-0.709739149
1606953,6.850461006,-0.984459877,6.891222,-0.310580224,24.3649559,3.389546871,0.758775532,-0.263678193,-0.275922239,-0.52782619,6.716426849,-0.897470415,8.049884796,-0.752402306,37.20178986,1.309871793,0.589918971,-0.317706585,-0.2120177,-0.711411953
1607120,6.69759798,-1.023418188,7.018529415,-0.9205603,21.666605,2.825693607,0.759776652,-0.262240797,-0.273324341,-0.528453588,6.789029121,-0.888643324,8.061942101,0.657691836,33.23022842,1.785384774,0.591102779,-0.314239621,-0.2092105,-0.712798893
1607287,6.662305832,-1.096388221,7.042726517,-0.529338241,17.8965168,2.416605711,0.760624766,-0.261020929,-0.271195978,-0.528934002,6.77996397,-0.728822887,8.071266174,1.939867258,30.33095741,2.363131285,0.592304826,-0.310972512,-0.20675312,-0.7139498
1607453,6.735135078,-1.138198495,6.959820747,-0.203185722,15.74264908,2.353738546,0.761407375,-0.259917974,-0.269339591,-0.529299498,6.808802128,-0.591914237,7.952787876,1.935051322,28.56572723,1.892559648,0.593394458,-0.307867885,-0.204463795,-0.715048969
1607620,6.618964672,-1.205964684,7.101919174,1.058759451,16.31932259,2.301232815,0.762233675,-0.258637249,-0.267507672,-0.529666185,6.673225403,-0.628269672,7.771326542,1.498417377,27.25182533,1.424742222,0.594367385,-0.304917395,-0.202259496,-0.716131389
1607787,6.481338978,-1.162019491,7.258391857,2.092386246,14.66697598,2.044016361,0.763008893,-0.257359326,-0.265945345,-0.529959261,6.533804417,-0.700316787,7.594853401,1.501759171,25.2360363,1.649365544,0.595295966,-0.302177817,-0.200216398,-0.717094719
1607953,6.360856056,-1.076072097,7.366822243,1.887048721,12.82129574,1.404927731,0.763659894,-0.256216973,-0.264597625,-0.530249596,6.624325275,-0.816310823,7.493634701,2.408622742,23.48204994,2.725554705,0.596318305,-0.299569577,-0.198369473,-0.717852473
1608120,6.411694527,-1.128481746,7.262644291,1.637234807,10.90229988,1.279258847,0.764207423,-0.255248815,-0.263442606,-0.530503035,6.816876888,-0.747059524,7.370269299,3.392928123,24.78210258,3.309187412,0.597474694,-0.296753258,-0.196484283,-0.718578875
1608287,6.487109661,-1.13641572,7.266223907,2.714518785,11.78310966,1.388740659,0.764818132,-0.254104704,-0.262259245,-0.530758142,6.439306259,-0.735774338,7.380344868,3.761842728,26.22678375,3.391712666,0.598688424,-0.293752313,-0.194505885,-0.71933943
1608453,6.358443737,-1.139852166,7.395490646,2.959312439,11.70205784,1.618473768,0.765478015,-0.252933711,-0.261107504,-0.530934036,6.195133686,-0.71555692,7.440003872,3.65821147,23.34779549,2.732144117,0.599739432,-0.291039109,-0.192792818,-0.720027804
1608620,6.270528316,-1.134104967,7.307917118,1.59537065,9.192317009,1.238022327,0.765955031,-0.252096355,-0.260139465,-0.531119645,6.408878326,-0.788582444,7.526664734,4.321605682,21.02000046,2.836975813,0.600757778,-0.288511187,-0.191345304,-0.720582008
1608787,6.426856518,-1.149039865,7.187791348,1.093259215,9.45615387,0.976913512,0.766394496,-0.251287788,-0.259107977,-0.531372845,6.449552536,-0.743299365,7.614757538,5.895073414,20.82581711,4.08959341,0.601962209,-0.285898298,-0.190025017,-0.720967591
1608953,6.47309494,-1.103927612,7.257767677,0.980678558,11.15075397,0.756989956,0.766885281,-0.250347078,-0.25789097,-0.531700611,6.366786003,-0.552806795,7.731558323,5.571956158,20.46245956,3.302410841,0.603054702,-0.283327341,-0.188733429,-0.721408784
1609120,6.530763149,-1.08971262,7.243374825,1.554032207,11.87559605,1.167203307,0.767447054,-0.249304563,-0.25661841,-0.531995714,6.301490307,-0.617631733,7.859046459,4.143711567,19.29258156,2.285084963,0.603943884,-0.280973643,-0.187434912,-0.721923709
1609287,6.393526554,-1.106035233,7.303750992,2.430396557,12.23927021,1.799632192,0.76810807,-0.248155326,-0.255352885,-0.532187819,6.280150414,-0.719803393,7.934780598,4.54548502,18.36164474,3.256293535,0.604921341,-0.278706312,-0.186219096,-0.722298741
1609453,6.325685024,-1.028370857,7.383966446,2.318417788,11.57535076,2.06021595,0.768753469,-0.247081414,-0.254140139,-0.532336235,6.098902702,-0.65534538,8.045060158,4.668943405,16.5669117,3.614364862,0.605888724,-0.276624233,-0.185158044,-0.722561002
1609620,6.29790163,-1.108657479,7.377211094,1.777976871,11.01107883,2.133430004,0.769368649,-0.246110275,-0.252948195,-0.532465041,6.116270065,-0.684215665,8.102502823,4.48017025,14.17503262,3.535496235,0.606772602,-0.274805963,-0.184289604,-0.722735167
