sampleTimeFine,W4_acc_x,W4_acc_y,W4_acc_z,W4_gyro_x,W4_gyro_y,W4_gyro_z,W4_quat_w,W4_quat_x,W4_quat_y,W4_quat_z,W5_acc_x,W5_acc_y,W5_acc_z,W5_gyro_x,W5_gyro_y,W5_gyro_z,W5_quat_w,W5_quat_x,W5_quat_y,W5_quat_z
3799358,0.010051195,-0.424714118,0.446428955,-0.335160047,0.111556664,-0.326552689,0.689537227,-0.321820319,-0.46865043,-0.448705792,-0.118937343,-0.507094502,0.045238871,-0.058519427,-0.101169281,-0.478999466,0.376929492,-0.619558036,-0.492179453,-0.481488436
3799525,9.195987701,-0.237817779,3.479195595,0.460112929,-0.396202803,0.472445428,0.689374864,-0.322022051,-0.468644947,-0.448816508,9.447417259,0.069103055,-2.485242367,0.646355689,0.024466533,0.336173087,0.377201647,-0.619475603,-0.492301017,-0.481257379
3799691,9.168622017,-0.22071366,3.456624985,0.768156886,-0.167378992,0.449163496,0.689290702,-0.322219521,-0.468521237,-0.448933184,9.419787407,0.081777133,-2.451794147,0.715074539,-0.041018739,0.200720325,0.377118737,-0.619604826,-0.492357492,-0.481098175
3799858,9.163534164,-0.22653842,3.482042074,0.544481158,-0.067054041,0.404405266,0.689115942,-0.322394222,-0.468452752,-0.449147254,9.43138504,0.097648337,-2.438994884,0.606809676,0.046390999,0.156756118,0.37715438,-0.619479299,-0.49254626,-0.481038719
3800025,9.172921181,-0.210284561,3.478044033,0.626813173,-0.335948974,0.398399115,0.689267874,-0.322226822,-0.468538463,-0.448944926,9.4467659,0.120325275,-2.458281994,0.406838536,-0.099761471,0.186364427,0.377066314,-0.619392395,-0.492572486,-0.481192887
3800191,9.17805481,-0.206802502,3.47752142,0.837451994,-0.271174431,0.445539296,0.689206719,-0.322225779,-0.468499899,-0.449079633,9.454884529,0.106302761,-2.461879015,0.167654321,-0.077568062,0.258374512,0.376987219,-0.619230688,-0.492716163,-0.481315821
3800358,9.177559853,-0.19445768,3.457488298,1.049832582,-0.145454496,0.353704959,0.689324558,-0.321998447,-0.46861136,-0.448945612,9.454479218,0.119438156,-2.450399399,-0.002087435,-0.004277321,0.371339291,0.37691617,-0.619122982,-0.492803872,-0.481420189
3800525,9.169141769,-0.205760509,3.498131037,0.762522042,-0.164382294,0.316540897,0.689302266,-0.321907371,-0.468678802,-0.448974818,9.438308716,0.118200801,-2.44756341,-0.176855683,-0.05233955,0.519034922,0.376814216,-0.619082391,-0.492807776,-0.48154822
3800691,9.186868668,-0.195775896,3.472268343,0.692714572,-0.18626833,0.289301842,0.689356685,-0.321756154,-0.468753368,-0.448921919,9.455399513,0.089301474,-2.462340355,-0.29744032,-0.044181909,0.537373662,0.376700997,-0.619079649,-0.492766678,-0.481682181
3800858,9.184908867,-0.203339577,3.488704681,0.528409183,-0.294661313,0.247975737,0.689303637,-0.321722955,-0.468783081,-0.448996007,9.436538696,0.08466661,-2.476412296,-0.21163772,-0.067899264,0.33453387,0.376647264,-0.619048536,-0.492781311,-0.481749266
3801025,9.185016632,-0.197577924,3.479460239,0.300661057,-0.204402134,0.190219104,0.689302027,-0.321655154,-0.468821734,-0.449006647,9.447431564,0.070097044,-2.472653866,-0.137642652,-0.170811087,0.311853826,0.376600951,-0.619049013,-0.492797822,-0.481768072
3801191,9.187916756,-0.206643984,3.488997936,0.270028263,-0.26174897,0.174121514,0.689286888,-0.321608067,-0.468860656,-0.449023038,9.454522133,0.08225999,-2.495241642,-0.005890922,-0.104922429,0.214423135,0.37655592,-0.619075954,-0.492781937,-0.481784761
3801358,9.166931152,-0.214779854,3.46244812,0.537834644,-0.270021886,0.200925231,0.689360678,-0.321470588,-0.468961507,-0.448902845,9.460173607,0.088085562,-2.4833076,0.047325872,0.150481015,0.071785994,0.376519054,-0.619091868,-0.492761165,-0.481814384
3801525,9.174895287,-0.195922524,3.471420765,0.436433971,-0.218655616,0.265123457,0.689367652,-0.321431011,-0.468997568,-0.44888255,9.438630104,0.103874519,-2.482009411,0.064422339,0.174736232,-0.034679592,0.376465291,-0.619117558,-0.492727935,-0.481857389
3801691,9.192337036,-0.206497356,3.461421728,0.652912498,-0.130765632,0.298368722,0.689438224,-0.321320713,-0.469072491,-0.448774904,9.441748619,0.089208491,-2.487123489,0.067508668,0.169088632,0.074731454,0.37644887,-0.61911869,-0.492729604,-0.481867045
3801858,9.165275574,-0.217429832,3.484009027,0.546773434,-0.108380139,0.211119071,0.689458191,-0.321262807,-0.469117314,-0.448739022,9.432250977,0.120114088,-2.487116575,0.025030009,0.015732601,0.131245881,0.3764036,-0.619160533,-0.492705345,-0.481873542
3802025,9.185098648,-0.191695437,3.482818127,0.433808655,-0.371448189,0.163863659,0.689471543,-0.321218342,-0.469186991,-0.448677272,9.444695473,0.143717051,-2.477077723,-0.071472242,-0.004507835,0.056674495,0.376354247,-0.619185388,-0.492707372,-0.481878042
3802191,9.177030563,-0.200360596,3.455925226,0.437650591,-0.300859541,0.219238296,0.689487278,-0.321178228,-0.469243079,-0.44862324,9.458088875,0.120521761,-2.462025642,-0.237378508,0.14817588,0.219571248,0.376311839,-0.619209826,-0.492685258,-0.481902391
3802358,9.172428131,-0.208546534,3.462201357,0.438316524,-0.308107942,0.19607161,0.689521849,-0.321116865,-0.469320089,-0.448533356,9.465577126,0.103398882,-2.437753916,-0.310400307,0.21779117,0.436766922,0.376275361,-0.61925596,-0.492618799,-0.481939465
3802525,9.206223488,-0.181049064,3.467386961,0.607667744,-0.056450393,0.169652104,0.689558923,-0.321046054,-0.469368756,-0.448476374,9.445716858,0.108970433,-2.477618217,-0.329853117,0.249602139,0.601648629,0.376264989,-0.619302511,-0.492536306,-0.481972069
3802691,9.176548004,-0.186052188,3.466689587,0.653783262,-0.172347829,0.308882713,0.68958807,-0.320996314,-0.469422311,-0.448410869,9.428211212,0.111198373,-2.480565071,-0.314626396,0.173929438,0.470588505,0.376249611,-0.619337738,-0.492479652,-0.481996804
3802858,9.170619011,-0.198593944,3.483898163,0.551563084,-0.272544712,0.350003928,0.689609528,-0.320964575,-0.469478965,-0.448341489,9.431256294,0.093092225,-2.437950373,-0.215838209,-0.031913418,0.530214906,0.37624231,-0.619377434,-0.492448658,-0.481983215
3803025,9.182080269,-0.201444179,3.481030226,0.494472355,-0.27669394,0.319601655,0.689609349,-0.320956111,-0.469517559,-0.448307276,9.456644058,0.099690355,-2.440625668,-0.183950424,0.061861079,0.47163865,0.376224995,-0.61942476,-0.492389143,-0.481996715
3803191,9.170146942,-0.186974838,3.464100361,0.4338983,-0.375443727,0.414022923,0.689638257,-0.320934802,-0.469578356,-0.448214501,9.407292366,0.130452886,-2.450660467,-0.041223634,-0.047037721,0.550474524,0.376227647,-0.619470417,-0.492342532,-0.481983662
3803358,9.210858345,-0.177172467,3.496250391,0.525899172,-0.184552312,0.387167931,0.689681172,-0.320891351,-0.469626933,-0.4481287,9.394410133,0.178030744,-2.474234819,-0.320722193,-0.418998122,0.170964748,0.376155674,-0.619523883,-0.492337912,-0.481975675
3803525,9.154221535,-0.183598906,3.499118567,0.407517254,-0.161974713,0.440327138,0.689674795,-0.320911527,-0.4696275,-0.448123425,9.435850143,0.122088403,-2.477802753,-0.492301673,-0.670899034,0.231276259,0.376019329,-0.619636476,-0.492297202,-0.481978863
3803691,9.176283836,-0.151180089,3.426020861,0.392149657,-0.414464712,0.22356683,0.689721465,-0.320845783,-0.469719559,-0.44800204,9.494483948,0.094747923,-2.497344971,-0.35909003,-0.84930414,0.708530486,0.375953108,-0.619750857,-0.492280751,-0.481900334
3803858,9.186715126,-0.170878336,3.413554192,0.102726132,0.045481745,0.195546538,0.689739227,-0.320820689,-0.469723254,-0.447988868,9.515473366,0.112748273,-2.47736764,-0.135068566,-0.49285236,1.068158388,0.375943631,-0.619871795,-0.492206156,-0.481828302
3804025,9.248583794,-0.179103613,3.439066887,0.032726627,0.233671024,0.630923927,0.689753354,-0.3208628,-0.469659597,-0.448003739,9.480355263,0.103097342,-2.456334829,-0.009399859,-0.135119781,1.072640538,0.375982046,-0.619951487,-0.492130607,-0.481772929
3804191,9.207912445,-0.230030447,3.492764473,-0.103347249,1.023912549,0.610882103,0.68982482,-0.320854098,-0.469521016,-0.448045135,9.449755669,0.070921369,-2.479705572,-0.048305549,-0.009668794,1.02487278,0.376031786,-0.620013535,-0.492056668,-0.481729835
3804358,9.129628181,-0.192564458,3.548101902,-0.071843617,0.488940001,0.237999603,0.689847291,-0.320845455,-0.469458014,-0.448082834,9.443855286,0.060115367,-2.467298031,0.399961501,0.194765374,0.823467493,0.376113921,-0.620035231,-0.492005199,-0.481690496
3804525,9.17893219,-0.187876225,3.486552,0.090342395,-0.277820945,0.522723138,0.689855635,-0.320878446,-0.469469339,-0.448034495,9.445280075,0.061888754,-2.447859049,0.769667983,0.320113897,0.738587022,0.376238465,-0.620019674,-0.491982371,-0.481636345
3804691,9.166516304,-0.228491038,3.480068207,0.035761729,-0.267972857,0.600585759,0.689919055,-0.320867598,-0.469508678,-0.447903246,9.439873695,0.088845976,-2.437560081,0.920514107,0.413920462,0.729494512,0.376383275,-0.619991362,-0.491960615,-0.481581897
3804858,9.164403915,-0.210395187,3.513784409,0.285549551,-0.385099739,0.619513512,0.689971864,-0.320860028,-0.469561487,-0.447771907,9.423013687,0.101073354,-2.451488256,0.880968034,0.587100685,0.505921245,0.376523525,-0.619935572,-0.491946578,-0.481558412
3805025,9.160618782,-0.198257342,3.496804714,0.405288935,-0.416347206,0.701051593,0.690001011,-0.320883721,-0.469594538,-0.447675407,9.426947594,0.130597144,-2.451182365,0.754582107,0.430107623,0.275073975,0.376636952,-0.619868696,-0.491968334,-0.481533587
3805191,9.149331093,-0.212426707,3.496055365,0.514194131,-0.260750055,0.621319234,0.690028667,-0.320894063,-0.46961236,-0.447606713,9.446561813,0.140866935,-2.455509424,0.404302895,0.325377315,0.422180563,0.376715451,-0.619843006,-0.491952449,-0.481521457
3805358,9.158037186,-0.18836242,3.479485273,0.62148571,-0.364712,0.405775547,0.690031707,-0.320895731,-0.469649464,-0.44756189,9.446012497,0.139650896,-2.453689575,-0.01964494,0.012543819,0.479885906,0.376736283,-0.619865417,-0.491919965,-0.481509596
3805525,9.173321724,-0.176829264,3.470023632,0.755376101,-0.542822719,0.450623393,0.690040469,-0.320889175,-0.469717443,-0.447481781,9.469772339,0.133800223,-2.459522247,-0.170081139,-0.068782911,0.644217074,0.376738667,-0.61992234,-0.491855085,-0.481500834
3805691,9.170768738,-0.188641354,3.45699811,0.625929475,-0.282930672,0.481883675,0.690060437,-0.320882678,-0.469748706,-0.447422773,9.463829041,0.103935242,-2.476931095,-0.360088944,-0.102540441,0.677628756,0.376722395,-0.619994402,-0.491775423,-0.481502205
3805858,9.192529678,-0.19072254,3.483973026,0.5083161,-0.255960524,0.469871402,0.690084159,-0.320876777,-0.469777197,-0.447360516,9.421021461,0.097816423,-2.455624104,-0.233715892,-0.194528461,0.759538233,0.376727909,-0.620060623,-0.491716921,-0.481472164
3806025,9.199392319,-0.196755573,3.488679171,0.408183217,-0.183117986,0.342115223,0.690051854,-0.320917815,-0.469763517,-0.447395265,9.404677391,0.108860143,-2.453711033,-0.463525832,-0.532718539,0.439187318,0.376680255,-0.620126307,-0.491707414,-0.481434524
3806191,9.168888092,-0.217519239,3.504744053,0.339387447,-0.515237808,0.292285681,0.69001025,-0.320963323,-0.469795048,-0.447393686,9.415703773,0.092035122,-2.487858295,-0.214058131,-0.860010386,0.231852561,0.376580089,-0.620224237,-0.491704464,-0.481389761
3806358,9.174417496,-0.207376033,3.460262537,0.425471753,-1.039849877,0.181677267,0.689970851,-0.320984632,-0.469917715,-0.447310418,9.434357643,0.090117604,-2.50223732,-0.209409446,-1.123962164,0.409694374,0.376479179,-0.620348394,-0.491707474,-0.481305659
3806525,9.228662491,-0.181396782,3.425332546,0.419965059,-0.877785683,0.089471571,0.68985796,-0.321072578,-0.469972044,-0.4473643,9.450080872,0.092841931,-2.483987808,0.071004808,-1.149472356,0.291504562,0.376390338,-0.620454431,-0.491738617,-0.481206715
3806691,9.205922127,-0.201405138,3.431893587,0.407568455,-0.757136941,0.447716355,0.689828157,-0.321123004,-0.470037103,-0.44730562,9.441847801,0.135631993,-2.515548706,0.063116089,-0.971796989,0.361837,0.376348138,-0.620523632,-0.491791129,-0.481096894
3806858,9.19463253,-0.20529893,3.438051939,0.345124751,-0.349101096,0.272794485,0.689814687,-0.32113871,-0.470068693,-0.447281897,9.455610275,0.124448441,-2.528167486,-0.07364931,-0.745316625,0.254161179,0.376288295,-0.620589733,-0.491816193,-0.48103261
3807025,9.201163292,-0.200593039,3.439395905,0.678486764,-0.387199968,0.224898711,0.689776957,-0.321156502,-0.470104367,-0.447289795,9.450964928,0.111842304,-2.498785496,-0.094472446,-0.502802908,0.423345894,0.376246691,-0.620660961,-0.491801739,-0.480988204
3807191,9.205064774,-0.171316251,3.484106779,0.691229105,-0.408599377,0.310022503,0.68978399,-0.321138382,-0.470168591,-0.447224438,9.465621948,0.111313097,-2.509296179,-0.08861994,-0.127653688,0.547861993,0.376239657,-0.620715678,-0.491754532,-0.480971158
3807358,9.163175583,-0.208375841,3.473570585,0.366460085,-0.708946705,0.285728842,0.689709187,-0.321216643,-0.470211029,-0.447238922,9.458389282,0.11342299,-2.516069174,-0.14983429,0.063436247,0.651375711,0.376269877,-0.62074554,-0.491711885,-0.48095265
3807525,9.193004608,-0.195408717,3.465744972,0.74488771,-0.527736843,0.423755705,0.68966949,-0.321259439,-0.470249534,-0.447228968,9.455065727,0.115096584,-2.508215904,-0.062661462,0.187862754,0.686951816,0.376303196,-0.620780826,-0.491645306,-0.480949163
3807691,9.170443535,-0.201383531,3.464221954,0.289506733,-0.780854404,0.344369113,0.689642608,-0.321299613,-0.470327973,-0.447159052,9.438519478,0.099100277,-2.48321104,-0.011128719,0.291952759,0.741468489,0.376351416,-0.620810747,-0.491571009,-0.480948836
3807858,9.201809883,-0.204916671,3.46752286,0.313774794,-0.619353533,0.352987826,0.689619422,-0.321337104,-0.470384449,-0.447108388,9.431581497,0.113079675,-2.47678113,0.098704942,0.345560104,0.694008052,0.376443923,-0.620793045,-0.491548955,-0.480921745
3808025,9.20800209,-0.202254996,3.465279102,0.418441087,-0.680503786,0.511927366,0.689623296,-0.321362525,-0.470457584,-0.447007209,9.449219704,0.096267954,-2.46727562,0.13316682,0.377102137,0.70036,0.376524627,-0.620789528,-0.491504163,-0.480908811
3808191,9.204496384,-0.207888499,3.497015715,0.201898515,-0.501791179,0.504256427,0.689578414,-0.321450859,-0.47046259,-0.447007746,9.45016861,0.088244721,-2.478476286,0.317488611,0.550141513,0.747448981,0.376631916,-0.620773315,-0.491450161,-0.480900943
3808358,9.181200981,-0.185487136,3.471241951,0.376346588,-0.529913962,0.519047737,0.689558446,-0.321506172,-0.47049275,-0.446966976,9.446416855,0.091858886,-2.45431447,0.326299369,0.569389522,0.735833645,0.376765281,-0.620729685,-0.491427869,-0.480875582
3808525,9.178799629,-0.208048552,3.457522154,0.540652037,-0.340213448,0.597563446,0.689580858,-0.321520388,-0.470522583,-0.446890712,9.433560371,0.115183882,-2.442271471,0.359980136,0.541202724,0.570811033,0.376912564,-0.620649576,-0.491455048,-0.480835885
3808691,9.162400246,-0.210456222,3.480740547,0.512542069,-0.381373107,0.487992316,0.689575553,-0.32155031,-0.470547706,-0.446851164,9.422579765,0.107761912,-2.446526289,0.257618904,0.345252752,0.57105428,0.377052486,-0.62057215,-0.491505951,-0.480774134
3808858,9.1746521,-0.199312761,3.475068569,0.481320232,-0.51002568,0.370839864,0.689549506,-0.321586967,-0.470585972,-0.446824431,9.434784889,0.131475657,-2.46544075,0.116723478,0.14803499,0.619449496,0.377142906,-0.620545924,-0.491519481,-0.480722964
3809025,9.205164909,-0.183549702,3.471195698,0.494562,-0.598824918,0.456002057,0.689536333,-0.321620584,-0.470638722,-0.446765065,9.44374752,0.134751484,-2.478286505,-0.066605821,-0.015687775,0.735052347,0.377206892,-0.620555222,-0.491511464,-0.480669051
3809191,9.177116394,-0.19323729,3.464437723,0.594182611,-0.480494201,0.436638862,0.689547062,-0.321621567,-0.470696062,-0.44668743,9.45471096,0.121393085,-2.447320223,-0.235611245,0.03040868,0.920155525,0.377296209,-0.620558023,-0.491504967,-0.480601996
3809358,9.17165947,-0.191797078,3.454906702,0.582157493,-0.523011327,0.47072944,0.689526975,-0.321659863,-0.470733792,-0.446651012,9.440969467,0.100671187,-2.473836422,-0.352212995,-0.050674729,0.874321461,0.377346396,-0.620589077,-0.491473675,-0.480554521
3809525,9.191836357,-0.193844736,3.472493649,0.327272713,-0.515161037,0.433667839,0.689479709,-0.321735114,-0.470745951,-0.446656942,9.422540665,0.101688705,-2.46356082,-0.388736725,-0.174550548,0.755414486,0.377420962,-0.620576262,-0.491515517,-0.480469584
3809691,9.206542015,-0.199187592,3.468896151,0.247489139,-0.507605314,0.402983814,0.689453661,-0.321787596,-0.470772475,-0.446631461,9.434331894,0.086726606,-2.454876661,-0.400262445,-0.316521734,0.636366725,0.377438098,-0.620604277,-0.491526067,-0.480409265
3809858,9.190749168,-0.186821073,3.459233046,0.210273847,-0.71131587,0.273421943,0.689375877,-0.32187736,-0.470802903,-0.446654797,9.439341545,0.058803577,-2.47909832,-0.261710525,-0.314882487,0.554303646,0.377470613,-0.620610178,-0.491564006,-0.480337292
3810025,9.175532341,-0.193032935,3.450750351,0.201347828,-0.53168118,0.226409867,0.689321578,-0.321937263,-0.470827699,-0.446669281,9.435976982,0.073348008,-2.489233494,-0.087941192,-0.313140869,0.349837422,0.377500921,-0.620596111,-0.491626978,-0.480267167
3810191,9.182167053,-0.212555066,3.446126223,0.342704326,-0.608711362,0.382442385,0.689268589,-0.322009236,-0.470854759,-0.446670711,9.443558693,0.096046202,-2.483625889,0.132846653,-0.205452263,0.180473477,0.377561957,-0.620535612,-0.49173364,-0.480188161
3810358,9.200033188,-0.224474609,3.445926666,0.433565378,-0.483106703,0.314261377,0.689249754,-0.322032422,-0.470896691,-0.446638823,9.438519478,0.108534314,-2.475393534,-0.066951595,-0.105409063,0.134242535,0.377604216,-0.620480239,-0.491819501,-0.48013854
3810525,9.182262421,-0.197825059,3.458256721,0.296960056,-0.704477251,0.260372311,0.689149797,-0.32213974,-0.470913678,-0.446697861,9.44304657,0.104718499,-2.498080969,0.024761075,-0.015662163,0.132488087,0.377658933,-0.620415151,-0.491904795,-0.480092227
3810692,9.195398331,-0.189218536,3.435073137,0.528473258,-0.651330948,0.231020153,0.689081132,-0.322198451,-0.470955074,-0.446717739,9.434049606,0.123547219,-2.505433559,-0.031759746,-0.021463443,0.241034716,0.37773338,-0.620343149,-0.492000073,-0.480029166
3810858,9.183600426,-0.193447784,3.44811821,0.530637443,-0.391656578,0.238563061,0.689026892,-0.322244495,-0.47096777,-0.446754783,9.454276085,0.132970542,-2.498438597,-0.144698963,0.075832807,0.179845974,0.377756178,-0.620310605,-0.492031723,-0.480020732
3811025,9.187021255,-0.208340093,3.421065331,0.65575552,-0.736134589,0.346405357,0.688992143,-0.322275788,-0.471039832,-0.446709871,9.448579788,0.1309288,-2.505029202,-0.204043582,0.185993016,0.300456136,0.37784037,-0.6202299,-0.492108881,-0.479979664
3811192,9.210015297,-0.194379792,3.411738157,0.542368054,-0.64487648,0.20749487,0.688893139,-0.322362572,-0.471061349,-0.446777314,9.456880569,0.12157695,-2.477256536,-0.212662235,0.237679437,0.427405506,0.377924323,-0.620166838,-0.492156744,-0.479946047
3811358,9.17664814,-0.187943995,3.453471899,0.6031726,-0.502188146,0.114354298,0.688863158,-0.32236132,-0.471122772,-0.446759671,9.44930172,0.117442645,-2.500698805,-0.147247404,0.298701674,0.554431677,0.378012717,-0.620119512,-0.492175788,-0.479918033
3811525,9.210079193,-0.195187017,3.455595493,0.491360396,-0.766280711,0.175005168,0.688744783,-0.322465301,-0.471150339,-0.446837842,9.401938438,0.133224458,-2.492827415,-0.192300141,0.230712771,0.504832745,0.378103226,-0.620060444,-0.492219537,-0.479878008
3811692,9.216890335,-0.190308273,3.428613424,0.234746769,-0.503648102,0.2028974,0.688685656,-0.322525352,-0.471170783,-0.446864188,9.426439285,0.121387206,-2.48171258,-0.251209348,0.1075157,0.386079431,0.378162324,-0.620013356,-0.492266208,-0.479844332
3811858,9.182924271,-0.193873346,3.428391933,0.339989364,-0.461079776,0.264880121,0.68864125,-0.322573155,-0.471193314,-0.44687447,9.46241188,0.127634838,-2.464393139,-0.231269881,0.095247239,0.402791739,0.378228426,-0.619961798,-0.492320597,-0.479803264
3812025,9.180829048,-0.184879646,3.435229301,0.548092544,-0.569895327,0.148700923,0.688611746,-0.322577715,-0.471260309,-0.446845859,9.427387238,0.120496891,-2.483865261,-0.268843681,0.148393586,0.507509232,0.378276676,-0.619941592,-0.492327124,-0.479784429
3812192,9.203233719,-0.178928375,3.446054697,0.506267071,-0.335398346,0.245645002,0.688595772,-0.322584927,-0.471291691,-0.44683221,9.40520668,0.136822119,-2.498720884,-0.326049715,-0.029838795,0.349632561,0.378306985,-0.619914114,-0.492368609,-0.479753613
3812358,9.200219154,-0.174079046,3.445929527,0.580441356,-0.058473796,0.451558322,0.688620329,-0.322575599,-0.471293896,-0.446798772,9.417834282,0.150479645,-2.48674798,-0.362688661,-0.327688873,0.256184608,0.378276944,-0.619931936,-0.492395878,-0.479726374
3812525,9.194822311,-0.177114978,3.395351171,0.222465515,-0.336499661,0.241124377,0.688574791,-0.322627008,-0.471295804,-0.446829766,9.488002777,0.096231751,-2.49235487,-0.434954882,-0.439309061,0.652016103,0.378266007,-0.619982719,-0.492397696,-0.479667425
3812692,9.192472458,-0.168203637,3.3949368,0.250165671,-0.185013339,0.184648365,0.688548088,-0.322650224,-0.471295446,-0.446854562,9.535165787,0.109139964,-2.481140614,0.089727685,-0.047895748,1.180047393,0.37837252,-0.62000972,-0.492373854,-0.479573041
3812858,9.272506714,-0.189156339,3.399228096,0.162429333,-0.045360088,0.509263635,0.688550711,-0.322691977,-0.471262932,-0.446854681,9.471546173,0.125163719,-2.47708869,0.10704188,0.616708994,0.93941623,0.378511101,-0.619972229,-0.492335945,-0.479551166
3813025,9.280935287,-0.226511955,3.422913313,0.040423244,0.850488961,0.708376884,0.688616514,-0.322706938,-0.471120358,-0.446892917,9.429115295,0.091179349,-2.448634624,0.123446815,0.737793088,0.929734647,0.378652543,-0.619930804,-0.492285281,-0.479544818
3813192,9.152654648,-0.201225057,3.527156115,-0.04565464,1.239814758,0.42822516,0.688689411,-0.322683364,-0.470948577,-0.446978658,9.412088394,0.075706638,-2.445192575,0.360786885,0.760306597,0.986389875,0.378822088,-0.619877636,-0.492246032,-0.479519993
3813358,9.119431496,-0.177143887,3.525621891,0.024261629,-0.054452598,0.24294284,0.688654006,-0.322735757,-0.470910221,-0.44703567,9.426263809,0.061911605,-2.449907303,0.643230975,0.763777137,0.90162468,0.37901774,-0.619796097,-0.49224174,-0.479475111
3813525,9.143496513,-0.19911249,3.507057667,0.173084229,-0.400031954,0.603467166,0.688627958,-0.322817385,-0.47089982,-0.447027832,9.45146656,0.084412865,-2.431586742,0.871350408,0.705303252,0.815822124,0.379227519,-0.619696319,-0.492268682,-0.479410619
3813692,9.170890808,-0.233687267,3.4766922,0.027988277,-0.25628069,0.63425374,0.688620269,-0.322892278,-0.470872551,-0.447014362,9.44819355,0.114222251,-2.446980715,0.805320978,0.815770984,0.801914513,0.379435927,-0.61959374,-0.492282689,-0.479363948
3813858,9.17315197,-0.198340774,3.435339451,0.581593931,-0.201853678,0.601430953,0.688629568,-0.322917521,-0.470868856,-0.446985751,9.422844887,0.14510417,-2.456963539,0.513502657,0.756772041,0.583246052,0.379598409,-0.619495273,-0.492299587,-0.479345262
3814025,9.1603508,-0.18766506,3.485325098,0.223592445,-0.03027421,0.574294329,0.688636601,-0.322960556,-0.470829248,-0.446985453,9.415173531,0.136067599,-2.450213194,0.210555568,0.479527354,0.437881082,0.379707903,-0.619417012,-0.492330581,-0.479327887
3814192,9.17048645,-0.198257759,3.451275587,0.300981224,-0.020874349,0.491578102,0.688659728,-0.322971225,-0.470809549,-0.446962863,9.460738182,0.154284731,-2.450946569,0.003758664,0.138110086,0.513233721,0.379772484,-0.619385779,-0.492351115,-0.479296088
3814358,9.187711716,-0.18751739,3.452453852,0.619628847,-0.408074349,0.467425346,0.688646972,-0.322997421,-0.470833778,-0.446938127,9.469611168,0.140355408,-2.440829515,-0.298170298,-0.000563479,0.56670022,0.379810512,-0.619376421,-0.492363513,-0.479265064
3814525,9.201523781,-0.173943147,3.437879562,0.342614681,-0.239299446,0.498403937,0.688641548,-0.323034972,-0.470826566,-0.446926951,9.473015785,0.12288028,-2.470386028,-0.50328958,-0.109968133,0.703894734,0.379829317,-0.61939764,-0.492352873,-0.479233712
3814692,9.193195343,-0.178406253,3.463077545,0.332382411,0.075294934,0.486814171,0.688672185,-0.323035181,-0.470799506,-0.446908057,9.458552361,0.105492264,-2.433704138,-0.563325703,-0.082549728,0.679703414,0.379845262,-0.619415402,-0.492342561,-0.479208618
3814858,9.21890831,-0.207005173,3.484827518,0.409322947,-0.040698577,0.424972296,0.688694656,-0.323030412,-0.470791996,-0.446884722,9.386128426,0.144825667,-2.434066772,-0.570061862,-0.159912899,0.448612869,0.379838109,-0.619422972,-0.492355943,-0.479190946
3815025,9.204460144,-0.188383877,3.479395866,0.187978014,-0.145582572,0.30466947,0.688691974,-0.323046118,-0.470786035,-0.446883887,9.405335426,0.079223283,-2.468621016,-0.582266271,-0.498423129,0.350951552,0.379804641,-0.619440854,-0.49240461,-0.479144514
3815192,9.160881042,-0.198593661,3.472092628,0.238063633,-0.553323984,0.317847192,0.688664734,-0.323083758,-0.470823348,-0.4468593,9.423624039,0.078761354,-2.4895432,-0.216004699,-0.689878047,0.482850581,0.379805028,-0.619455457,-0.492484868,-0.479042679
3815358,9.198750496,-0.192933559,3.419430017,0.597435474,-0.880833566,0.22929129,0.688626349,-0.323100269,-0.470920771,-0.446803868,9.436274529,0.090853468,-2.502836943,0.032060698,-0.593651175,0.418991745,0.379835129,-0.61943984,-0.492589772,-0.47893101
3815525,9.201681137,-0.21352461,3.417731285,0.253917903,-0.289525956,0.41348505,0.688624144,-0.323125273,-0.470928162,-0.446781337,9.449373245,0.12572515,-2.505898476,0.186543703,-0.457942247,0.271411389,0.379882216,-0.619391561,-0.492716819,-0.47882539
3815692,9.199185371,-0.221549615,3.397218227,0.080596767,-0.240720972,0.377780944,0.688614666,-0.323162168,-0.470921189,-0.446776509,9.493871689,0.13302061,-2.551065922,0.052294727,-0.099671818,0.061989129,0.379931629,-0.619306624,-0.492839217,-0.478770107
3815858,9.17906189,-0.208528653,3.441656113,0.434679508,0.063551508,0.14008224,0.688627064,-0.323127836,-0.470918208,-0.44678545,9.500842094,0.131368399,-2.524820328,-0.159106091,0.371941209,-0.03037666,0.37999332,-0.619188964,-0.492936134,-0.478773564
3816025,9.225613594,-0.182193264,3.460652828,0.428058684,-0.157300413,0.23043108,0.688629925,-0.323114485,-0.470932543,-0.446775466,9.473817825,0.141145617,-2.508915663,-0.240298331,0.977643073,0.323366731,0.380115211,-0.619058728,-0.492962718,-0.47881785
3816192,9.218797684,-0.187908232,3.422752142,0.27169311,0.087704286,0.206931382,0.688640714,-0.323098958,-0.47091338,-0.446790397,9.469717979,0.147530928,-2.500147343,-0.430600733,1.419897676,0.659379721,0.380278379,-0.618928015,-0.492927074,-0.478893995
3816358,9.194458008,-0.20667617,3.450196028,0.461777717,0.34924835,0.276239336,0.688682735,-0.323051929,-0.470877349,-0.446797639,9.448732376,0.126083016,-2.490949392,-0.477190167,1.594960451,0.804424465,0.380460709,-0.618796468,-0.492867857,-0.478980243
3816525,9.187265396,-0.176725462,3.456851006,0.689180076,0.016385727,0.405493885,0.68872112,-0.323012471,-0.47088325,-0.446760833,9.435503006,0.103113279,-2.499957085,-0.411224663,1.677791953,0.89931947,0.380665213,-0.618657768,-0.492805928,-0.479060709
3816692,9.194200516,-0.192628831,3.45772028,0.203537717,-0.205401033,0.483779043,0.688726544,-0.323040962,-0.470876127,-0.446739376,9.425925255,0.073655702,-2.480782509,-0.080923319,1.588685274,1.056658268,0.380905181,-0.618516505,-0.49276033,-0.479099125
3816858,9.194872856,-0.202366844,3.422119141,0.109180525,-0.350753099,0.478361964,0.688717246,-0.323087692,-0.470877618,-0.446718305,9.458597183,0.095891513,-2.457605362,0.3264018,1.661245942,1.005842566,0.381183892,-0.618343532,-0.492744684,-0.479116976
3817025,9.241645813,-0.214854956,3.411751747,-0.031362753,-0.032220773,0.623265862,0.688732505,-0.323137701,-0.470831424,-0.446707278,9.436694145,0.08557725,-2.43340373,0.505921245,1.686704993,0.881825984,0.381470263,-0.618151069,-0.492749691,-0.479132235
3817192,9.19844532,-0.209233165,3.456887245,0.081493199,0.594285071,0.578392386,0.688792944,-0.323132753,-0.470732152,-0.446722388,9.424583435,0.097265087,-2.425969362,0.785637617,1.326718807,0.790465593,0.381754011,-0.617956698,-0.492808312,-0.479096562
3817358,9.168232918,-0.208525077,3.458099365,0.366152734,0.465875745,0.558862627,0.688856602,-0.32310614,-0.470665008,-0.446714103,9.426197052,0.110748753,-2.409753323,0.846544623,1.040163755,0.647623539,0.382014066,-0.617766857,-0.4929021,-0.479037642
3817525,9.161180496,-0.185097456,3.46568799,0.338708729,0.099434897,0.599369228,0.688896835,-0.323108584,-0.470630735,-0.446686566,9.444836617,0.119206958,-2.390402555,0.858492851,0.691421211,0.584052801,0.382246137,-0.617594957,-0.49302277,-0.478949845
3817692,9.194718361,-0.200489327,3.438898802,0.229688272,-0.124759451,0.53458184,0.688912332,-0.323131561,-0.470614702,-0.446662694,9.456363678,0.129616663,-2.391951561,0.696825564,0.504141152,0.730058014,0.382461578,-0.617453694,-0.493131459,-0.478848189
3817858,9.199683189,-0.204250231,3.435126305,0.586678147,0.423512429,0.527192712,0.688981771,-0.323082536,-0.470567465,-0.446641088,9.465490341,0.140495941,-2.395376444,0.341987163,0.369572014,0.909897506,0.382647932,-0.617353618,-0.493207306,-0.478750259
3818025,9.174812317,-0.186551735,3.454037666,0.629368067,0.384625882,0.52704531,0.689050376,-0.323031545,-0.470526874,-0.446614712,9.446800232,0.122524448,-2.383085489,0.186569333,0.212668672,0.88571918,0.382808894,-0.617268801,-0.493286043,-0.478649884
3818192,9.172474861,-0.182907388,3.484600544,0.665949404,0.356842518,0.602276146,0.68912369,-0.322983503,-0.470488042,-0.446577281,9.45375061,0.118025579,-2.391745806,-0.141932756,-0.010385948,0.73465538,0.382910579,-0.617209256,-0.493364245,-0.478564411
3818358,9.165440559,-0.182061255,3.471424103,0.272397459,0.094107464,0.461982697,0.689151585,-0.322981775,-0.470456332,-0.446568906,9.452722549,0.10498441,-2.388554811,-0.166738659,-0.193785682,0.843650222,0.383005291,-0.617170215,-0.493442863,-0.478457958
3818525,9.181346893,-0.18792969,3.45407629,0.226858094,-0.204824775,0.411589712,0.689153612,-0.323000163,-0.470453948,-0.446555018,9.460262299,0.088171393,-2.403508186,-0.205759645,-0.27444014,0.616068661,0.383075893,-0.617120922,-0.493545353,-0.478359312
3818692,9.179545403,-0.193401232,3.465309858,0.389793307,0.022443131,0.377102226,0.689176619,-0.322984755,-0.470441043,-0.446544319,9.484419823,0.093399808,-2.427887201,-0.158184022,-0.198101416,0.461239845,0.383145601,-0.617052078,-0.493661255,-0.478272885
3818858,9.189043045,-0.188834488,3.469800472,0.26371482,-0.031490814,0.420131564,0.689192832,-0.322988063,-0.470423281,-0.446535707,9.470111847,0.087756552,-2.423910379,-0.113502674,0.083407752,0.255230546,0.383225203,-0.616945624,-0.493783623,-0.478220046
3819025,9.173293114,-0.199112594,3.464475632,0.45791024,0.065574914,0.3093566,0.689217567,-0.322957546,-0.470413506,-0.446529627,9.442263603,0.102504827,-2.451976538,-0.012639866,0.268004864,0.262459725,0.383327961,-0.616820514,-0.493902951,-0.478175908
3819192,9.168122292,-0.188601747,3.490449905,0.387590587,0.10585089,0.184328198,0.68923372,-0.322922647,-0.470400959,-0.446543068,9.456465721,0.119577646,-2.466095448,0.069083847,0.462725431,0.262626201,0.383452863,-0.616675675,-0.49401921,-0.478142262
3819358,9.170010567,-0.192800492,3.494090319,0.272077292,0.021457037,0.239075333,0.689242482,-0.322908074,-0.470386624,-0.446555346,9.481499672,0.120211959,-2.461761951,-0.11439912,0.883939028,0.303260744,0.38359195,-0.616516531,-0.494093686,-0.478158981
3819525,9.188066483,-0.208743215,3.471832037,0.283206046,-0.118625216,0.251535952,0.689243138,-0.322901845,-0.470386207,-0.44655934,9.495178223,0.108439907,-2.484942913,-0.135785744,1.257923007,0.418722838,0.383764565,-0.616339505,-0.494137347,-0.478203565
3819692,9.175600052,-0.199219778,3.48650527,0.309548646,0.035018962,0.22461696,0.689253807,-0.322880924,-0.470373213,-0.446571648,9.517666817,0.122857273,-2.474111319,-0.072227821,1.583230019,0.639914155,0.383982509,-0.616150558,-0.494149864,-0.478259116
3819858,9.165565491,-0.185826883,3.505723715,0.106785737,-0.168749258,0.267864019,0.689244032,-0.322896123,-0.470365226,-0.446584076,9.489897728,0.108525984,-2.453053713,-0.016904384,2.244869947,0.659699857,0.384252578,-0.615914941,-0.494126469,-0.478369862
3820025,9.210295677,-0.18860206,3.481359005,-0.015303588,-0.062687084,0.278851837,0.689236701,-0.322916836,-0.470337898,-0.446609199,9.454045296,0.113829903,-2.437545538,-0.101093329,2.390580654,0.625173986,0.384521872,-0.615672112,-0.494091511,-0.478502333
3820192,9.189465523,-0.203271627,3.487967968,-0.116819516,0.212847903,0.285229385,0.689243972,-0.322929919,-0.470276028,-0.446653813,9.446968079,0.095671192,-2.41002202,0.043010127,2.339099169,0.513323367,0.384792686,-0.615415752,-0.494080693,-0.478625476
3820358,9.184332848,-0.204727024,3.465090752,0.405212104,-0.127512813,0.296370924,0.689253211,-0.32291317,-0.470281422,-0.446645796,9.431528091,0.118159525,-2.41054821,0.178001866,2.193683147,0.468821317,0.385060698,-0.61515969,-0.494090259,-0.478729278
3820525,9.187648773,-0.181792915,3.449276924,0.71629107,-0.172360659,0.258476973,0.689271629,-0.322865337,-0.470313281,-0.446618378,9.42579937,0.141715735,-2.421660185,0.235502362,2.014752626,0.568416238,0.385325491,-0.614921749,-0.494102836,-0.478809059
3820692,9.235555649,-0.18575497,3.463571072,0.342627496,0.165682152,0.231058553,0.689293742,-0.322830856,-0.470288426,-0.446635395,9.432954788,0.134465903,-2.427631617,0.338132471,1.963462949,0.528281093,0.385591716,-0.61467886,-0.494128913,-0.478879571
3820858,9.208296776,-0.191931248,3.427898645,0.203281596,0.52313298,0.39056167,0.689343989,-0.322797775,-0.470211416,-0.446662843,9.480192184,0.153776914,-2.452532768,0.261076659,1.799401164,0.492026389,0.385836214,-0.614448786,-0.494162887,-0.478942871
3821025,9.193113327,-0.172273055,3.396753311,-0.01353631,0.600726604,0.049912747,0.689366996,-0.322758019,-0.470128864,-0.446742982,9.544810295,0.083805695,-2.463779688,0.38015008,2.072355509,1.056952953,0.38614881,-0.614233971,-0.494139373,-0.478990763
3821192,9.213852882,-0.173839048,3.393439293,-0.500766754,0.966770589,0.053921141,0.68939209,-0.322743475,-0.469978273,-0.446873367,9.60001564,0.104431093,-2.434837341,0.690114975,2.964932442,1.534744859,0.386586189,-0.613973677,-0.494045287,-0.479068577
3821358,9.290356636,-0.186042324,3.438897371,-0.476421803,1.216711998,0.443451852,0.689460158,-0.32273677,-0.469786465,-0.446974695,9.593748093,0.101347536,-2.466501474,0.721746683,4.214960575,1.333339572,0.387100369,-0.613611102,-0.493899763,-0.479268044
3821525,9.269248962,-0.223764673,3.470587969,-0.884355366,1.959173203,0.562256455,0.689567208,-0.32273075,-0.469488621,-0.447126865,9.602750778,0.061443105,-2.443949699,0.619001329,5.62266016,1.149107456,0.387693673,-0.613141954,-0.493685573,-0.479609698
3821692,9.143418312,-0.209232077,3.54103899,-1.08962822,2.359371185,0.183867157,0.689667106,-0.322693527,-0.469155103,-0.447349668,9.633886337,0.029424051,-2.439766407,0.926238656,7.280724525,0.840461671,0.388411134,-0.612517118,-0.493426472,-0.480093479
3821858,9.16462326,-0.182764977,3.49985218,-1.286717892,1.629537463,0.123536445,0.689704359,-0.322718799,-0.46888423,-0.447557956,9.655462265,0.011201479,-2.457561016,1.461044669,9.404670715,0.592466652,0.389311016,-0.611695349,-0.493106574,-0.480740786
3822025,9.175654411,-0.180238619,3.520812511,-2.111280441,1.978536367,0.094491646,0.689724743,-0.322801679,-0.468525916,-0.447842032,9.648090363,0.015013417,-2.440790892,1.904119253,11.60447216,0.454222143,0.390395224,-0.610685945,-0.492701709,-0.481559247
3822192,9.182944298,-0.21288836,3.492794752,-3.139681339,2.685126543,-0.172539949,0.689727426,-0.322922885,-0.468041956,-0.448256314,9.62625885,0.034593884,-2.42784071,2.464794874,13.66432667,0.387910992,0.391671866,-0.609492898,-0.49222514,-0.482520431
3822358,9.2007761,-0.227426067,3.472823858,-3.420192003,3.508651972,-0.551326215,0.689747989,-0.322992414,-0.467474759,-0.448766261,9.628650665,0.079654545,-2.388090372,2.894653797,15.45556736,0.377461106,0.393110752,-0.608148038,-0.491674274,-0.483607739
3822525,9.177379608,-0.205099612,3.493119717,-2.737549305,4.79431963,-0.490841776,0.689891398,-0.322913498,-0.466820061,-0.449283719,9.620916367,0.092149578,-2.343243599,3.267460108,16.95546341,0.29021138,0.394680232,-0.606667876,-0.491068572,-0.484802723
3822692,9.132628441,-0.228609055,3.58421874,-0.970004141,4.919527531,-0.206297487,0.69014442,-0.322668046,-0.46625489,-0.449658304,9.69778347,0.103599258,-2.313196182,3.503148794,18.39969063,0.424191594,0.3963238,-0.605133891,-0.490312606,-0.48614198
3822858,9.10743618,-0.208631292,3.57322979,-1.009294271,3.838594913,-0.466087162,0.690305233,-0.322479069,-0.465807021,-0.450010836,9.780726433,0.11187537,-2.275693655,3.634735584,20.57931519,0.889024556,0.398162931,-0.60346657,-0.489396572,-0.487632364
3823025,9.203518867,-0.199050382,3.490194321,-0.740411997,4.161455631,-0.268254608,0.690513492,-0.322254777,-0.465334684,-0.450340599,9.801169395,0.089540184,-2.226996183,3.650514126,22.84492302,1.185184956,0.400180578,-0.60165298,-0.488320649,-0.489297748
3823192,9.245397568,-0.202879503,3.532104015,-0.401197314,5.786542892,-0.030389469,0.690862536,-0.321905941,-0.464710504,-0.450699329,9.849941254,0.06771221,-2.168072701,3.752826452,25.73308182,1.358507276,0.402418405,-0.599632859,-0.487063557,-0.491191506
3823358,9.213647842,-0.207055658,3.552608728,-0.443919361,6.883804321,-0.064531207,0.691280425,-0.32148689,-0.463974863,-0.451115221,9.816296577,0.098286003,-2.13266325,4.042559624,28.61507988,1.32250905,0.404875904,-0.597378194,-0.48565504,-0.493309587
3823525,9.15827179,-0.199835375,3.623653412,-0.204517454,7.118852615,0.150545076,0.691738486,-0.321042508,-0.463221103,-0.451503992,9.813592911,0.048027512,-2.06675458,4.063194275,31.25530815,1.309498668,0.407511562,-0.594920874,-0.484085709,-0.495645761
3823692,9.141359329,-0.179931462,3.609833002,-0.033411767,6.801036835,0.312519759,0.692193151,-0.320612013,-0.462502509,-0.451849639,9.750658989,0.061131805,-2.012551546,4.453330517,33.61091995,1.684829473,0.410363615,-0.592284381,-0.482362866,-0.498123616
3823858,9.207144737,-0.191937834,3.565551281,1.448020816,7.28926754,0.427111089,0.692756414,-0.320007294,-0.461826563,-0.452106565,9.690955162,0.110326216,-1.933624983,4.309310913,35.42319107,1.55586946,0.413309216,-0.589502037,-0.480521798,-0.500761211
3824025,9.14413929,-0.214630455,3.664634943,2.857666969,8.379509926,1.118948579,0.693502545,-0.319234937,-0.461101264,-0.45224905,9.665155411,0.123280756,-1.809355736,3.918499231,36.63046265,1.291455865,0.416273206,-0.586621344,-0.478591055,-0.503530264
3824192,9.098735809,-0.19249858,3.753783464,1.143908262,7.886298656,1.054250956,0.69413054,-0.318662882,-0.460315257,-0.452489406,9.725414276,0.12682794,-1.694250107,3.350254059,37.6636734,1.224248409,0.419241756,-0.583678305,-0.476550013,-0.506415069
3824358,9.086227417,-0.194794223,3.656403542,-1.010395408,7.137830734,0.298087001,0.694558382,-0.318305939,-0.459497213,-0.45291543,9.820544243,0.12844032,-1.610723734,2.810528517,39.21014786,1.381870389,0.422268569,-0.580647588,-0.474348664,-0.50944227
3824525,9.235675812,-0.166491017,3.583791494,0.527973831,7.987802029,0.725025177,0.695141137,-0.317765802,-0.45867455,-0.453234553,9.921215057,0.127085373,-1.552204609,2.398304462,41.42470169,1.70988214,0.425421387,-0.57748121,-0.471938729,-0.51264596
3824692,9.201629639,-0.182394654,3.594228983,2.224470139,9.979447365,1.797083616,0.696003914,-0.316993624,-0.457713515,-0.453422457,9.972394943,0.146012977,-1.480409622,1.591142297,44.53631973,1.710511327,0.428701729,-0.574111342,-0.469260156,-0.516145229
3824858,9.19024086,-0.194374532,3.711140871,3.185087919,11.24479389,1.965180159,0.697001576,-0.316053808,-0.456678748,-0.453589767,10.00039196,0.11571265,-1.350252151,0.806889772,48.08932495,1.845480442,0.432147771,-0.570507824,-0.466271311,-0.519961715
3825025,9.128733635,-0.177395627,3.759534836,3.158105612,12.60985088,2.266014576,0.698106527,-0.315044641,-0.455489755,-0.453787774,10.02734661,0.100672387,-1.174385667,0.386505723,52.15044785,2.06830287,0.43582648,-0.566609681,-0.462954968,-0.524100661
3825192,9.088066101,-0.187588036,3.833037853,3.531538963,13.21636009,2.753104448,0.699298799,-0.313987613,-0.454241067,-0.453936458,10.05295181,0.032458659,-1.051766157,0.040999986,56.02288055,2.568758488,0.439747274,-0.562438011,-0.459299505,-0.52851671
3825358,9.067678452,-0.20723623,3.873971701,3.263540506,14.06311607,2.978432417,0.700545907,-0.312915564,-0.45287621,-0.454117358,10.00485325,-0.003347458,-0.939076543,0.465074778,59.68259811,3.295799971,0.44397074,-0.557968199,-0.455352992,-0.533118248
3825525,9.108201027,-0.218461484,3.851188183,4.807130337,15.15509415,2.835437536,0.701922953,-0.311602145,-0.451507002,-0.454257458,9.901106834,-0.02392987,-0.818752885,0.804717481,62.86653137,3.750641346,0.448431641,-0.553217411,-0.451156914,-0.53788203
3825692,9.069517136,-0.21644035,3.914981604,4.336650848,16.7257576,3.040044785,0.703391612,-0.310244083,-0.449935585,-0.454474628,9.842352867,-0.078949228,-0.643792629,1.392384887,65.49423981,4.06421423,0.453096449,-0.548197508,-0.446773648,-0.542749107
3825858,9.024715424,-0.211357698,4.042711258,2.738288641,18.02251625,2.482750416,0.704829991,-0.308926046,-0.448147744,-0.45490998,9.753174782,-0.050545584,-0.409318596,2.077934265,67.61190033,4.914625168,0.457977206,-0.542971611,-0.442197889,-0.547631145
3826025,8.979164124,-0.232265741,4.111253262,-0.41702655,19.05271721,1.792859316,0.706140637,-0.307817817,-0.446071684,-0.45566839,9.756835938,0.018397104,-0.157085896,2.683686495,69.05644226,5.949553013,0.463034868,-0.537605286,-0.437451273,-0.552463114
3826192,8.941121101,-0.262579679,4.183438778,-2.226015329,19.44002914,0.936561525,0.707337856,-0.306806922,-0.443873554,-0.456639111,9.708644867,0.028926922,0.066254303,2.783387184,70.30379486,6.516913891,0.468176693,-0.532114506,-0.432542115,-0.557289958
3826358,9.518078804,-0.411223263,3.799093008,-7.662045479,13.88353634,0.76658237,0.707917869,-0.306711286,-0.441889644,-0.457727194,9.621012688,0.05393799,0.33065629,2.233192205,70.79399109,6.287127495,0.473237723,-0.526552081,-0.427529842,-0.562145174
3826525,9.534247398,-0.383517027,3.738008976,0.178565577,18.30766869,6.324904442,0.709492683,-0.305874735,-0.439722478,-0.45793581,9.649432182,0.006254456,0.63144201,1.316048741,70.81351471,5.908103466,0.478147745,-0.520972669,-0.422427565,-0.567024887
3826692,8.51253891,-0.167003632,4.407529831,-2.14004755,21.81604767,3.606498718,0.710996449,-0.30487287,-0.437157691,-0.458726436,9.635015488,-0.026867177,0.929240167,0.65828985,70.22564697,6.184224129,0.482944101,-0.51545012,-0.417248607,-0.571821511
3826858,8.647331238,-0.260136515,4.332062721,-1.834076762,19.81646347,3.338370085,0.712363183,-0.303950101,-0.434826672,-0.459433287,9.4893713,-0.029511156,1.266690612,0.097131379,68.77606964,6.629094124,0.487598389,-0.5100618,-0.412050337,-0.576454043
3827025,8.705649376,-0.279836863,4.339072704,0.560771763,21.44469833,2.664499998,0.713890493,-0.302621454,-0.432513952,-0.460122198,9.344020844,-0.04301041,1.493068218,-0.705884039,65.80529785,6.861792564,0.491988629,-0.504943788,-0.406939507,-0.580843687
3827192,8.866406441,-0.291428149,4.190342903,1.860413551,21.97567749,2.444179296,0.715486825,-0.301104963,-0.430238068,-0.460770637,9.313205719,-0.071957543,1.682132006,-1.321902394,62.00557709,7.082822323,0.496085703,-0.500158906,-0.401997477,-0.58492583
3827359,8.833805084,-0.260767102,4.280688763,1.365460396,23.55379486,2.275814056,0.717139482,-0.299521863,-0.42776829,-0.461532295,9.291424751,-0.087454975,1.837477922,-1.86270678,58.6677742,6.698143959,0.499878258,-0.495634645,-0.397247523,-0.588780642
3827525,8.695053101,-0.252188802,4.437556744,2.382107019,22.93116188,2.514665604,0.718805432,-0.29788512,-0.425418288,-0.462171495,9.451662064,-0.127256155,2.026028633,-2.387284279,56.38044739,5.929003716,0.503400803,-0.491263896,-0.39264676,-0.592516661
3827692,8.652950287,-0.277694076,4.572402,2.142999411,23.31612396,2.757577181,0.72049123,-0.296260536,-0.422995925,-0.462813944,9.648486137,-0.21120128,2.264081717,-2.530293941,56.10894775,5.573930264,0.506834388,-0.486872733,-0.388052911,-0.596228898
3827859,8.455120087,-0.302289039,4.679265499,1.681714177,23.59549904,2.821084499,0.722164094,-0.294670075,-0.420502007,-0.463493943,9.649148941,-0.245996803,2.469720602,-2.336071253,56.70583725,5.27902317,0.510257125,-0.482365102,-0.383426398,-0.599955082
3828025,8.117905617,-0.33735767,4.751266479,6.361253262,22.80055046,3.519454479,0.724033892,-0.292675316,-0.418374717,-0.463765889,9.427197456,-0.285927117,2.586505413,-1.963184476,56.54971313,5.0841465,0.513647199,-0.477798641,-0.378831148,-0.603624284
3828192,8.980731964,-0.315654159,4.708533764,4.023919582,17.59586143,2.607254267,0.725427806,-0.291211635,-0.416675359,-0.464038789,9.338563919,-0.296750337,2.673159361,-1.578297734,55.80614853,4.518021584,0.516940773,-0.473204672,-0.374338537,-0.607223511
3828359,8.802864075,-0.302732378,4.673580647,2.068811893,22.74586487,2.074843884,0.7270028,-0.28957659,-0.414317757,-0.464707762,9.20508194,-0.283770353,2.721083164,-0.923718929,54.703125,3.9004004,0.520133018,-0.468594044,-0.370004624,-0.610719264
3828525,8.61233139,-0.265208721,4.881549835,-0.027380025,22.86127853,1.661518097,0.728459477,-0.288128346,-0.411820143,-0.465546101,9.177184105,-0.292295635,2.77751708,-0.286288887,53.6061554,3.211961269,0.523217499,-0.463966221,-0.365834266,-0.614120781
3828692,8.39552021,-0.296994597,5.03602314,-0.236482501,23.30977249,1.689679503,0.729927063,-0.286670297,-0.409254849,-0.466408819,9.267411232,-0.323233008,2.941602945,0.466399163,53.12996674,2.844805479,0.526264012,-0.459276319,-0.361770391,-0.617441237
3828859,8.317305565,-0.333580613,5.129789352,-0.943202198,22.15873337,1.141989112,0.731248558,-0.285331577,-0.40677911,-0.467324734,9.517518997,-0.254487157,3.170123339,1.507188439,53.79450607,3.105782986,0.52940774,-0.454433441,-0.357710153,-0.62069416
3829025,8.307021141,-0.352660865,5.117959023,-0.369796783,21.89988708,0.713244438,0.73254621,-0.283917248,-0.404383987,-0.468231678,9.229944229,-0.174712107,3.416238546,1.94418478,54.62686539,3.509713173,0.532627702,-0.449474663,-0.353577167,-0.623909831
3829192,8.302769661,-0.299962223,5.098240852,0.264176309,23.0737896,0.46962899,0.733915389,-0.282337248,-0.401911557,-0.469170421,8.99130249,-0.154374972,3.606747866,1.778211355,53.02360916,3.981168747,0.535765231,-0.444669783,-0.349501133,-0.626955628
3829359,8.408322334,-0.327228755,5.011956692,0.376206547,25.20217705,0.689386547,0.735418856,-0.280609667,-0.399204701,-0.470162809,8.908164978,-0.191085562,3.7344203,1.680240273,50.69048309,4.180959225,0.538766563,-0.440068275,-0.345565081,-0.629805803
3829525,8.532297134,-0.367886305,5.175407887,0.292209595,27.15731049,1.018306017,0.737044036,-0.278772503,-0.396264523,-0.471196949,8.892947197,-0.240885466,3.855025291,1.779233098,48.35816956,4.512604237,0.541660368,-0.435664684,-0.341781348,-0.632444382
3829692,8.223744392,-0.371908814,5.412537098,-0.079361178,28.99721336,1.05256331,0.73875159,-0.276845634,-0.393095076,-0.472312421,8.891815186,-0.290585935,3.900443554,2.167344332,46.86660385,4.651232243,0.544492483,-0.431352228,-0.33812511,-0.634928882
3829859,7.972893715,-0.303807348,5.585378647,0.357099473,25.85316467,1.172609687,0.74029237,-0.275090873,-0.390280277,-0.473258555,9.107956886,-0.345614612,4.09044075,2.754865885,46.89927673,4.596600056,0.547333539,-0.426966697,-0.334507942,-0.637361884
3830025,8.048048973,-0.316916913,5.563689709,-0.22584039,23.29615784,1.411742568,0.741672695,-0.273583263,-0.387683898,-0.474104494,9.190484047,-0.339769036,4.274384499,3.543886185,48.88817215,4.415737629,0.55027765,-0.422303975,-0.330800176,-0.639863431
3830192,8.102705002,-0.303624272,5.579755306,-0.660744846,23.64249229,1.475953579,0.743051231,-0.272098511,-0.385011315,-0.474977672,8.982837677,-0.296048552,4.435780525,3.918157339,50.43806458,4.065483093,0.553258836,-0.417427689,-0.327007264,-0.642437041
3830359,8.030974388,-0.336369991,5.546524048,-1.06894815,24.62482262,1.507495999,0.744461477,-0.270587444,-0.38219738,-0.475904167,8.714677811,-0.250843883,4.514979362,4.216932297,50.14154434,3.77284193,0.556187749,-0.412517577,-0.32326594,-0.644968033
3830525,8.1434021,-0.313500881,5.555251598,-0.578297555,24.79621315,1.010365605,0.74601537,-0.268854231,-0.379502147,-0.476609677,8.55032444,-0.250579327,4.617755413,4.240172863,48.1049614,3.714544296,0.558989227,-0.407771319,-0.319678158,-0.647348166
3830692,8.08889389,-0.337389469,5.60677433,-0.755704641,27.07510567,0.914689362,0.747519791,-0.26709348,-0.376460463,-0.477653414,8.575852394,-0.258565277,4.698164463,4.524325371,46.03773117,3.912382364,0.561704516,-0.40318495,-0.316257775,-0.649546802
3830859,7.962657452,-0.332797468,5.832357407,-0.410841614,28.19198036,0.434091598,0.749222279,-0.265055448,-0.373427749,-0.478501201,8.625673294,-0.256610155,4.81610918,4.923545361,44.94337082,4.40630579,0.564415336,-0.398673117,-0.312921345,-0.65159446
3831025,7.90862608,-0.295335084,5.851974964,-0.704095066,29.07582855,1.215754986,0.750987172,-0.263039738,-0.370230496,-0.479330778,8.792796135,-0.250162303,4.945400238,4.998938084,45.60985565,4.581511974,0.567153215,-0.394081414,-0.309513479,-0.653634846
3831192,7.806416512,-0.354513377,5.912321091,-0.982352495,29.78178978,1.45050931,0.75278151,-0.26101467,-0.366918802,-0.480168611,8.68762207,-0.250364929,5.067845821,4.551508904,47.09140778,4.084803581,0.569858968,-0.38934502,-0.305955648,-0.655791521
3831359,7.779162407,-0.361786067,5.953183651,-0.823053896,30.00221443,1.501927137,0.754568815,-0.258967161,-0.36357522,-0.481014609,8.448525429,-0.202114165,5.195372105,3.868182898,47.45483017,3.23431468,0.572434187,-0.384573698,-0.302336603,-0.658038616
3831525,7.81430912,-0.338692069,5.979818821,-1.45825088,29.67383575,1.781477809,0.756340384,-0.257008821,-0.36021474,-0.481810063,8.306497574,-0.213385448,5.275162697,2.604299545,46.40107346,1.590490103,0.5747087,-0.379916966,-0.298762381,-0.660389364
3831692,7.764667511,-0.342985928,6.054805279,-1.991406798,29.964468,1.888231874,0.758091211,-0.255098253,-0.356768042,-0.482637793,8.180548668,-0.224414349,5.317905426,1.348217368,44.97626877,0.07689628,0.576681793,-0.375418395,-0.295257181,-0.662814081
3831859,7.725054264,-0.335349441,6.000584126,-0.777706385,30.30753136,1.845458388,0.759881139,-0.253028691,-0.353359133,-0.483419687,8.239214897,-0.146125078,5.35612154,0.237053558,43.96221542,-1.31957531,0.578392446,-0.371034235,-0.291793972,-0.66532135
3832025,7.663580894,-0.317840576,6.121567726,-0.508593261,32.23177719,2.283989191,0.761781752,-0.250822604,-0.349725842,-0.484219581,8.478051186,-0.144112289,5.326684952,-1.84832859,45.67389679,-2.66119194,0.579908609,-0.366586417,-0.288045913,-0.668094277
3832192,7.604990005,-0.368671507,6.176775932,-1.040404916,34.14570236,2.530179977,0.763764501,-0.248545334,-0.345827758,-0.485069305,8.068102837,-0.384698957,5.283891201,-3.166293144,47.50680161,-2.436607122,0.581425786,-0.362065136,-0.28399235,-0.67097038
3832359,7.514994144,-0.460389555,6.140474319,0.423616767,35.91231155,3.081304789,0.765927374,-0.24599053,-0.341816843,-0.485803753,7.967454433,-0.500515342,5.443366528,-2.691800356,47.06805038,-1.09837079,0.583053231,-0.357586324,-0.279939085,-0.673658133
3832525,7.73606205,-0.189801946,6.307616711,0.480605632,38.78378296,3.417053461,0.768216491,-0.243252322,-0.33745718,-0.486615151,8.26566124,-0.364982307,5.871593475,-1.846485496,47.34187317,0.36041835,0.584852159,-0.353053302,-0.275856316,-0.676169217
3832692,7.195204258,-0.292301804,6.640248299,-1.050780773,43.1567421,2.981254816,0.77060169,-0.240351155,-0.332502276,-0.487695158,7.983103752,-0.218560904,6.299260616,-2.361983299,47.34778214,0.824101508,0.58664304,-0.348566413,-0.271685988,-0.678629577
3832859,7.102861404,-0.361774445,6.630002499,-2.65069747,38.3384552,2.069855928,0.77261132,-0.237916037,-0.327993959,-0.488761514,7.697047234,-0.227766752,6.647310734,-2.964613199,43.3272171,0.629942238,0.588200927,-0.344503373,-0.267796904,-0.68089807
3833025,6.961873531,-0.470820993,6.628664494,-1.997414827,34.78585052,0.916957796,0.774382114,-0.235591829,-0.323965311,-0.48977083,7.332184792,-0.317737907,6.867621899,-3.240610838,36.63799286,0.680398166,0.589470744,-0.341113359,-0.264439017,-0.682816327
3833192,7.285732746,-0.460242331,6.461998463,-1.158171892,31.1199398,1.105800152,0.77598685,-0.233451158,-0.320384294,-0.490610778,7.233766556,-0.371064991,7.018063545,-2.910686255,27.96475601,0.513350308,0.590395749,-0.338537961,-0.261856079,-0.684292793
3833359,7.113589287,-0.44491756,6.629515648,-1.275093675,30.11966896,1.171368361,0.777518928,-0.231403232,-0.31689477,-0.491421163,7.295120716,-0.437653691,7.07457304,-2.290303707,19.9363575,0.629055202,0.591051996,-0.336703926,-0.260010868,-0.685333967
3833525,6.903141022,-0.461163521,6.758145809,-0.96926403,28.29435349,1.334931135,0.778984725,-0.229449958,-0.313626796,-0.492111623,7.523519516,-0.464813918,7.105119705,-1.354272366,14.0160532,0.407069296,0.5915066,-0.335365146,-0.258772761,-0.68606627
3833692,6.711946011,-0.467860967,6.894384861,-0.275734067,24.00676346,1.368265271,0.780277133,-0.227719679,-0.310891032,-0.492603809,7.654351234,-0.421018451,7.077972412,-0.641496003,10.88772678,0.07786905,0.591845214,-0.334260911,-0.257886469,-0.68664664
3833859,6.65517664,-0.518164873,7.000566959,0.257478476,20.62940407,1.215241194,0.781402767,-0.226169869,-0.308570653,-0.492991924,7.479908943,-0.443089724,7.014341354,-0.100670733,8.439314842,-0.429422587,0.592067719,-0.333332777,-0.25728628,-0.687131047
3834025,6.650062561,-0.518192232,7.085630417,0.434308529,15.81596375,0.715843558,0.782276988,-0.224921882,-0.306821585,-0.493268311,7.413902283,-0.383657873,6.90245676,0.645869076,5.410113811,-0.304752737,0.592226207,-0.332645118,-0.257012099,-0.687430203
3834192,6.707052708,-0.508069098,7.144757271,0.700987935,12.2697897,0.38960135,0.782969177,-0.223886177,-0.305499524,-0.493461579,7.385723114,-0.325482875,6.810249805,0.953464746,2.563799143,-0.111248754,0.592313349,-0.332220614,-0.257001817,-0.687564194
3834359,6.65661478,-0.504666567,7.165278435,0.855355501,9.592412949,0.045878757,0.783507168,-0.223017693,-0.304495841,-0.493621349,7.487231731,-0.327365667,6.719099045,1.371617556,0.697785974,0.181177825,0.592380881,-0.331955761,-0.257177979,-0.687568069
3834525,6.549470425,-0.498173416,7.206702709,1.394118786,6.70457983,-0.275643945,0.783906996,-0.222282588,-0.303866416,-0.493705958,7.611321926,-0.322038323,6.661026955,1.459738255,0.249217972,0.345035106,0.592452586,-0.331733197,-0.257392317,-0.687533617
3834692,6.541301727,-0.490330219,7.172964096,1.619407773,4.719479561,-0.160591632,0.784241498,-0.221664548,-0.303476304,-0.493692726,7.590853691,-0.312910438,6.603084087,1.449736476,0.501272559,0.509673476,0.592549682,-0.331491977,-0.257575125,-0.687497675
3834859,6.556714535,-0.461940169,7.18637085,1.4939183,3.16239357,-0.118714854,0.784509182,-0.221171901,-0.303252727,-0.493625522,7.51163435,-0.297165483,6.565809727,1.51924932,0.548873782,0.741045892,0.592675149,-0.331248462,-0.257749021,-0.687441826
3835025,6.626284599,-0.455451727,7.176558971,1.287646532,2.043566942,-0.139550805,0.784698784,-0.220793933,-0.303131789,-0.493567675,7.495922089,-0.269818842,6.523742199,1.524589539,0.134152904,0.919745624,0.59280318,-0.331052214,-0.257949859,-0.687350631
3835192,6.610750198,-0.432807922,7.200450897,1.48611927,1.844825149,-0.079296924,0.784901798,-0.220402941,-0.303049475,-0.493470252,7.594894409,-0.239330664,6.543418884,1.268597126,0.242104068,0.860497117,0.592916906,-0.330864698,-0.258118123,-0.687279642
3835359,6.591461658,-0.463860601,7.189085007,1.612556458,1.364100575,0.003976372,0.785086513,-0.220039204,-0.303024083,-0.493354321,7.609005928,-0.292832941,6.570077419,1.102850914,0.770026684,1.084153652,0.593064547,-0.330646873,-0.258213401,-0.687221289
3835525,6.545439243,-0.454390109,7.219624043,2.02512598,0.880929649,0.281477183,0.785277724,-0.219677985,-0.303070813,-0.493182272,7.544537067,-0.30752638,6.628238678,1.067108274,0.823211432,1.189665079,0.593222857,-0.330430746,-0.258295089,-0.68715781
3835692,6.599462986,-0.425939977,7.209676266,2.203198195,0.252726912,0.350016743,0.785457492,-0.219340503,-0.303200573,-0.492966384,7.505097389,-0.282251418,6.640516281,0.796036184,0.163709953,1.07535553,0.593332171,-0.330299228,-0.258411229,-0.687083006
3835859,6.605138779,-0.43449229,7.231480598,2.371614218,0.175991252,0.641668558,0.785661519,-0.219000533,-0.30334121,-0.492705584,7.5353508,-0.27111569,6.656128883,0.573807716,-0.88512373,0.926776409,0.593376696,-0.33028549,-0.258601904,-0.686979532
3836025,6.618368626,-0.417831302,7.219098091,2.177073002,-0.390081435,0.666551352,0.785832703,-0.218725979,-0.303528935,-0.492438883,7.572379112,-0.289457619,6.678869724,0.479271293,-1.922911882,0.963351369,0.593381405,-0.330384314,-0.258870095,-0.686826944
3836192,6.577294827,-0.386109233,7.20970583,2.287553549,-0.494325131,0.743748009,0.786017299,-0.218443632,-0.303736717,-0.492141455,7.693189144,-0.317389131,6.637344837,0.608154297,-2.593643904,1.018047094,0.593372345,-0.330540508,-0.25920552,-0.686632872
3836359,6.63125658,-0.387351364,7.174971104,2.282289982,-1.515503407,0.718967676,0.786158264,-0.218230948,-0.304061949,-0.491809905,7.663808823,-0.29246816,6.575470448,0.755081594,-3.028445482,0.69688952,0.593321979,-0.330715418,-0.25960815,-0.68644011
3836525,6.674192429,-0.391944319,7.141135216,2.056040287,-1.552693009,0.697593808,0.786266387,-0.218058258,-0.304365605,-0.49152571,7.62252903,-0.24160476,6.485644817,0.656639218,-3.978805542,0.197979793,0.593180895,-0.330974877,-0.260106504,-0.686248422
3836692,6.730877399,-0.37770775,7.154186249,1.982211828,-1.927791238,0.564856112,0.786362171,-0.217904776,-0.3047176,-0.491222143,7.739597797,-0.256556153,6.418812275,0.397515506,-4.898198605,-0.106920213,0.59296149,-0.331336856,-0.260672808,-0.686048269
3836859,6.758237839,-0.359872252,7.125558376,1.458598375,-2.442875147,0.41221717,0.786386967,-0.217852861,-0.305087,-0.490976095,7.751790047,-0.300433666,6.375509262,0.373452395,-5.398683071,0.414983362,0.592773318,-0.331771314,-0.261254996,-0.685779512
3837025,6.805951118,-0.363188744,7.077206135,1.145867348,-1.537466168,0.237461716,0.786438227,-0.217758656,-0.305339813,-0.490778625,7.792842865,-0.268306583,6.331746101,0.447101712,-5.438345432,0.773433208,0.592622161,-0.332217753,-0.261830717,-0.685474455
3837192,6.831645012,-0.37041229,7.07437849,1.143651962,-0.625065148,0.340245515,0.786514163,-0.217617512,-0.305475533,-0.490635097,7.835150719,-0.274523765,6.291675568,0.309209377,-4.993746758,0.775245309,0.59248054,-0.33263284,-0.262354761,-0.685195267
3837359,6.778865814,-0.429201066,7.107800007,0.795741737,-1.176660299,0.267953664,0.786559999,-0.217545971,-0.305656821,-0.490480483,7.806896687,-0.292270422,6.254846573,0.304438919,-4.229001999,0.572834432,0.592346668,-0.332965463,-0.262822747,-0.684969842
3837525,6.833078384,-0.401631624,7.061555386,1.790321231,-1.919108391,0.189975798,0.786595106,-0.217412248,-0.305994779,-0.490272492,7.767370701,-0.285794586,6.220756054,0.450520992,-3.577851057,0.235758528,0.592210531,-0.333209068,-0.263266116,-0.684798837
3837692,6.838611603,-0.351830393,7.068881512,1.602080822,-2.492218256,0.236078665,0.786605895,-0.217340872,-0.306385487,-0.490043104,7.852348804,-0.270530015,6.220103741,0.280388594,-2.676898479,0.183944002,0.592094898,-0.333376795,-0.263617963,-0.684681833
3837859,6.840075493,-0.369835258,7.056287766,1.075022578,-2.47765708,0.035018962,0.786572039,-0.217327669,-0.30673787,-0.489882618,7.858796597,-0.305902719,6.243475914,0.304464549,-1.337098122,0.340821803,0.592046738,-0.333416402,-0.263850033,-0.684614718
3838025,6.808093071,-0.371170938,7.04833889,1.312631488,-2.235117674,0.082991548,0.786557198,-0.217273727,-0.307077259,-0.489717662,7.769582272,-0.247223213,6.263616085,0.237154394,-0.486269891,0.450418472,0.592038453,-0.333382726,-0.263997465,-0.684581459
3838192,6.826293468,-0.36017096,7.023296833,1.310633898,-1.791813254,0.131975845,0.786584139,-0.217179671,-0.307372242,-0.48953113,7.76059866,-0.21574901,6.303462505,-0.458211243,-0.498064607,0.428519696,0.591993332,-0.333410114,-0.2640782,-0.684575975
3838359,6.836802959,-0.374351382,7.004020214,1.408768892,-0.891680539,0.13092573,0.786636233,-0.217020631,-0.307564318,-0.489397287,7.81431675,-0.303555638,6.349863529,-0.640842438,-0.397150487,0.310880512,0.591931164,-0.333439261,-0.264138222,-0.684592426
3838525,6.777551174,-0.385797441,7.054121017,1.624094963,-0.641854346,0.084259383,0.786701262,-0.216818288,-0.307744294,-0.489269316,7.780750751,-0.278693944,6.3542943,-0.480020374,-0.267844796,0.440173447,0.591894507,-0.333447427,-0.264196932,-0.684597552
3838692,6.815308094,-0.34966594,7.020512581,1.593116045,-1.000931382,0.157870263,0.786752105,-0.216649756,-0.307959795,-0.489126682,7.802111149,-0.285610229,6.367916107,-0.595239103,-0.388608664,0.143347859,0.591817856,-0.333466738,-0.264269024,-0.684626579
3838859,6.842902184,-0.349196017,7.038615704,1.117385983,-0.243832901,0.219532833,0.786830962,-0.21648182,-0.308055133,-0.489014149,7.791275501,-0.29377827,6.41986084,-0.671904385,-0.171752349,-0.117888853,0.591719627,-0.333461583,-0.264327556,-0.68469131
3839025,6.816544056,-0.3700459,7.092675209,0.953746498,-0.051302236,0.114315875,0.786892712,-0.216321573,-0.308115304,-0.488947749,7.735125542,-0.331303418,6.41580534,-0.500331283,-0.461028606,0.077804975,0.591638029,-0.333478481,-0.264418423,-0.68471849
3839192,6.817162991,-0.370568633,7.096926212,0.902380168,-0.357348412,0.363578647,0.786974251,-0.216190383,-0.308205783,-0.488817304,7.713675022,-0.283559918,6.43924427,-0.514226139,-1.122450948,0.097142562,0.59153235,-0.333563566,-0.264563441,-0.684712291
3839359,6.798985958,-0.390947104,7.130153179,0.969062984,-0.745893002,0.341026694,0.787022591,-0.216087282,-0.308339745,-0.488700688,7.687014103,-0.303552717,6.443882465,-0.473962992,-1.88450551,0.128415674,0.591402531,-0.333722413,-0.26477614,-0.684665084
3839525,6.773510933,-0.387224168,7.094847679,1.041559696,-1.882098079,0.308101565,0.787010729,-0.216060653,-0.30860579,-0.488563627,7.668694019,-0.297210604,6.451515675,-0.327637672,-2.976900101,0.308024734,0.591255665,-0.333984256,-0.265088022,-0.68454355
3839692,6.827890873,-0.335446626,7.052446365,1.347157598,-1.095032573,0.189527586,0.787036419,-0.215937465,-0.308807135,-0.488449484,7.711700439,-0.26667437,6.508442402,-0.417845666,-3.836987734,0.107547745,0.59105128,-0.334331542,-0.265473843,-0.684400737
3839859,6.719731808,-0.38397029,7.078817844,0.822020292,-1.629646182,0.139301077,0.78702414,-0.215906709,-0.309036553,-0.488337845,7.741578579,-0.294911325,6.567616463,-0.78249377,-4.657029629,-0.183297321,0.590768635,-0.334780246,-0.265907377,-0.684257329
3840025,6.749284744,-0.375391543,7.034520149,1.138542056,-2.315605879,0.124496929,0.786972344,-0.215897411,-0.309360087,-0.488220334,7.596912861,-0.295178592,6.604335308,-0.8761338,-6.305373669,-0.16935119,0.590418816,-0.335400879,-0.266471446,-0.684035718
3840192,6.745507717,-0.323083788,7.064040661,1.317510843,-3.065737486,0.161993921,0.786909044,-0.215915218,-0.309786052,-0.48804453,7.645143032,-0.329689205,6.614993095,-0.730346382,-8.64212513,-0.053812295,0.589996874,-0.336244643,-0.267243326,-0.683684409
3840359,6.8185215,-0.334523529,7.037621021,1.047194481,-4.292278767,0.276546746,0.786781311,-0.216060519,-0.31032607,-0.487843275,7.625387669,-0.297766805,6.597250462,-0.595444262,-10.67567158,0.134703651,0.589520693,-0.337284833,-0.268191844,-0.683211148
3840525,6.726927757,-0.368174076,7.079435349,1.303001404,-4.76281023,0.139339492,0.786634922,-0.216201171,-0.310943991,-0.487623215,7.686251163,-0.270414621,6.502867222,-0.758315563,-12.53379726,0.031778973,0.58895278,-0.338517636,-0.269286305,-0.68266052
3840692,6.745639801,-0.361739665,7.10550642,0.817602277,-5.597617626,-0.053761061,0.786443412,-0.216435447,-0.311636925,-0.487386048,7.704724789,-0.270567536,6.448932171,-1.062914848,-14.11333656,-0.24033691,0.588279009,-0.33992067,-0.270497113,-0.682065189
3840859,6.715658665,-0.360907644,7.114215851,0.929965138,-6.3838377,-0.081358746,0.78619808,-0.216720819,-0.312420756,-0.487152934,7.633081913,-0.276190042,6.448889256,-1.372086406,-16.23787689,-0.336192578,0.587494433,-0.34155488,-0.271861434,-0.681382537
3841025,6.759011269,-0.350703001,7.100892067,0.9212569,-7.85448122,-0.027533656,0.785893083,-0.217111573,-0.313370496,-0.486861229,7.676856995,-0.29547143,6.480797291,-1.715861201,-18.89967537,-0.446032941,0.586573184,-0.343474567,-0.273421288,-0.680586576
3841192,6.740281105,-0.340373099,7.076179028,0.98313731,-9.036751747,0.094248362,0.785550058,-0.217580602,-0.314456999,-0.486504674,7.769708157,-0.343480498,6.47673893,-1.775257587,-21.35426331,-0.461848915,0.585545242,-0.345637619,-0.275181592,-0.679666519
3841359,6.783547878,-0.336879551,6.996464729,0.831907153,-10.11940098,0.103801891,0.785148621,-0.21814467,-0.31565389,-0.486125052,7.750690937,-0.368167073,6.444769859,-1.284927487,-23.82279015,-0.234228611,0.58446008,-0.348007381,-0.277184427,-0.678576648
3841525,6.739735603,-0.329479784,6.981223106,1.135994077,-11.43174553,0.138315037,0.784693182,-0.21876964,-0.31701833,-0.485691369,7.431110859,-0.356246471,6.446393013,-0.817149997,-28.72744179,-0.521258354,0.583164871,-0.350803673,-0.279658854,-0.67723465
3841692,6.820245266,-0.343842536,6.963857174,1.720002651,-13.12200928,-0.019068668,0.78416127,-0.21944049,-0.318619281,-0.48519963,7.124094486,-0.342346966,6.472316742,-0.576877713,-37.52547073,-1.27913022,0.581436872,-0.354404867,-0.282932252,-0.675483406
3841859,6.868329048,-0.350764275,6.944565296,1.876906157,-13.80316639,-0.386265337,0.783561468,-0.220129952,-0.320314646,-0.48473981,7.256598473,-0.290857553,6.50039196,-0.398664981,-48.77972794,-2.206846952,0.579142511,-0.359040976,-0.287207425,-0.673198044
3842025,6.791540146,-0.37334317,6.896453857,2.677944422,-15.67056847,-0.597006857,0.782884657,-0.220848277,-0.32228446,-0.484200776,7.726418972,-0.26944086,6.429672718,-0.394786,-57.78717041,-2.878927231,0.576373041,-0.364505231,-0.292255402,-0.670460284
3842192,6.713030815,-0.330556273,6.823852062,4.222061157,-19.65207481,-0.688624024,0.782060444,-0.221664384,-0.324816942,-0.483467311,8.102478981,-0.15645285,6.263939381,-0.880038977,-62.80425262,-2.996036291,0.573310077,-0.37046352,-0.297657043,-0.667437315
3842359,6.762761593,-0.316150457,6.802575111,5.500845432,-24.07611847,-0.478100508,0.781063497,-0.222658664,-0.327927619,-0.482520878,8.093894005,-0.136546478,6.00261879,-1.501068592,-66.41539764,-2.584720612,0.570047617,-0.376807064,-0.303248912,-0.664155424
3842525,7.049837112,-0.273725867,6.793063164,5.062486649,-28.55830956,-0.49401921,0.779823124,-0.22401537,-0.33150962,-0.48145014,7.975135803,-0.15556848,5.766755581,-2.440741777,-71.09152985,-1.400348067,0.566585541,-0.383692503,-0.309040308,-0.660496056
3842692,7.27758503,-0.310943007,6.755747318,4.260615826,-29.54314041,-0.563404322,0.778493047,-0.225523397,-0.335144073,-0.480381459,7.958724499,-0.127472982,5.625173092,-2.946406603,-77.55712891,-0.483001679,0.562827587,-0.391235024,-0.315226316,-0.65634799
3842859,7.210993767,-0.319299817,6.802358627,3.876834631,-30.73940277,-0.739287436,0.777048528,-0.227152243,-0.338882387,-0.479328692,8.110333443,-0.110467084,5.427602291,-3.809151411,-83.99315643,-0.388964117,0.558658123,-0.399410367,-0.321805447,-0.651777506
3843025,7.083478928,-0.222647771,6.751296997,2.696062088,-35.15562057,-1.140423179,0.77532202,-0.229190901,-0.343046576,-0.47819078,8.307190895,-0.108431518,5.159069061,-4.623901367,-89.52857208,-0.578812182,0.554076374,-0.408101827,-0.328714579,-0.646837831
3843192,7.247520447,-0.226393893,6.603682041,2.277666569,-39.3885498,-1.082475543,0.773336947,-0.23157458,-0.347640604,-0.476937622,8.500988007,-0.154446498,4.888911724,-5.589711189,-94.02572632,-0.94727689,0.549089968,-0.417201996,-0.335856527,-0.641594291
3843359,7.362220287,-0.251963586,6.44870615,1.237247944,-40.75577164,-1.174912691,0.771223187,-0.234149784,-0.352312148,-0.47567296,8.392578125,-0.205150858,4.591500282,-6.263569832,-98.45167542,-1.100039244,0.543725729,-0.426678389,-0.343230575,-0.636003852
3843525,7.428375244,-0.230025828,6.383958817,0.172163144,-40.97611618,-1.132075071,0.76904434,-0.236854464,-0.356920034,-0.47442472,8.397497177,-0.272447139,4.281394005,-6.303235054,-104.6738129,-0.633119226,0.537974238,-0.436662197,-0.350986868,-0.629855692
3843692,7.406465054,-0.215050712,6.301421165,-1.034900784,-43.24441147,-1.538526654,0.76663655,-0.239826545,-0.361695051,-0.473210633,8.734717369,-0.216631651,3.879318237,-6.27397871,-109.0122299,-0.524903059,0.53188473,-0.446940303,-0.358991593,-0.6232723
3843859,7.61725378,-0.171912059,6.164317608,-1.940188408,-44.93883896,-1.632616162,0.764068365,-0.243003577,-0.36658299,-0.471980929,8.932598114,-0.232808366,3.337203264,-6.530314445,-110.0309906,-0.863351345,0.525560737,-0.457199216,-0.366981477,-0.616505921
3844026,7.672731876,-0.15020901,6.000866413,-2.369844437,-44.81389618,-1.409361362,0.761449397,-0.246235654,-0.371394962,-0.470774949,8.916950226,-0.194467351,2.891367912,-6.66884613,-110.0873566,-1.709938526,0.519014359,-0.467312336,-0.374925107,-0.609651268
3844192,7.702143669,-0.207729429,6.023188591,-2.751501322,-43.78570557,-1.598832369,0.75886178,-0.249402821,-0.376068681,-0.469573706,8.969198227,-0.230301797,2.511875153,-7.263079166,-111.0450745,-2.67887187,0.512155294,-0.47738263,-0.382857114,-0.602680087
3844359,7.579752445,-0.262386978,6.008919716,-3.72750783,-45.89010239,-2.356577873,0.756029308,-0.252776712,-0.380914301,-0.468431503,9.188266754,-0.286564291,2.20381403,-7.120707989,-111.5911636,-2.681139946,0.505141079,-0.487366438,-0.390742153,-0.595505714
3844526,7.627158165,-0.137961537,5.873952866,-5.346506596,-49.95021439,-2.785149574,0.752843678,-0.256570339,-0.386090904,-0.467260331,9.58932209,-0.269373417,1.845543385,-6.806777,-110.0198822,-2.617076874,0.498112738,-0.497069925,-0.39843297,-0.588265538
3844692,7.864485264,-0.175966635,5.641457081,-6.676154137,-51.21413803,-3.014092445,0.749487162,-0.260563731,-0.391304493,-0.466108024,9.971491814,-0.283733726,1.455804467,-6.243402958,-105.0582962,-2.413309813,0.491307855,-0.506200433,-0.405700952,-0.581192613
3844859,7.947773933,-0.225224048,5.528241158,-4.914557457,-50.58443451,-2.521695375,0.746235549,-0.264332592,-0.396530032,-0.464784652,9.912941933,-0.256974876,1.072751403,-5.526964188,-98.98602295,-2.025573969,0.484837621,-0.514680326,-0.412478447,-0.574367881
3845026,8.090208054,-0.218733519,5.362845421,-4.19661665,-52.00947571,-2.426711321,0.742904663,-0.268104345,-0.40193668,-0.463313937,9.723534584,-0.230654359,0.710600972,-5.061560631,-93.93264008,-2.071479082,0.478605181,-0.522603869,-0.418861926,-0.56778276
3845192,8.248124123,-0.184253529,5.217226505,-3.293310404,-50.48308182,-2.045858622,0.739681065,-0.271684229,-0.407201409,-0.461786479,9.663060188,-0.186180249,0.379539251,-4.995042324,-90.18829346,-2.124275923,0.47251454,-0.530119181,-0.42492047,-0.561379015
3845359,8.303995132,-0.18187204,5.184151649,-5.894686222,-49.36064911,-2.484005451,0.736351013,-0.275430113,-0.412165612,-0.460483551,9.538354874,-0.197118029,0.121020332,-5.345592499,-87.64556122,-1.99190259,0.466484338,-0.537373304,-0.430695921,-0.555088639
3845526,8.412208557,-0.215071127,4.987255096,-5.825596333,-49.8123436,-1.939987183,0.732997596,-0.279214829,-0.417140722,-0.459072322,9.400759697,-0.195011675,-0.037040845,-5.194127083,-87.46456146,-1.537213326,0.46043697,-0.544546545,-0.436367303,-0.548680723
3845692,8.498762131,-0.258069128,4.81282711,-5.147834301,-46.60783386,-1.58090508,0.729853868,-0.282721758,-0.421784401,-0.457689643,9.383622169,-0.122860633,-0.170655563,-5.348441124,-89.1818924,-1.76723659,0.454172879,-0.551764905,-0.442088634,-0.542070329
3845859,8.532605171,-0.281349391,4.57597208,-2.804853439,-44.41172028,-1.255402565,0.726931572,-0.285841525,-0.426319659,-0.456198424,9.616707802,-0.113081157,-0.3614977,-6.589954853,-90.69980621,-3.037869692,0.447532386,-0.559010565,-0.447839469,-0.535408258
3846026,8.531731606,-0.194493279,4.635488033,-3.610493183,-43.53406143,-0.949123502,0.724020779,-0.288996369,-0.430679172,-0.454742551,9.854372025,-0.256746262,-0.645806074,-6.982260704,-89.80124664,-3.925310135,0.440771013,-0.566058755,-0.453496635,-0.528809369
3846192,8.875041008,-0.294827759,4.038443089,-4.212100506,-43.28367233,-1.670253515,0.721024156,-0.292141438,-0.434985906,-0.453393072,9.632208824,-0.34233889,-0.948936701,-6.663059711,-88.3436203,-4.049005985,0.43404761,-0.572872639,-0.459019035,-0.522227168
3846359,9.242052078,-0.275076985,4.042644501,-3.882456303,-37.61964798,-1.233731389,0.718402267,-0.294897616,-0.438688785,-0.452200979,9.588366508,-0.320443064,-1.214906931,-5.837434769,-87.72381592,-4.310594559,0.427342653,-0.579477608,-0.464511693,-0.515570581
3846526,8.946875572,-0.181922093,4.281611443,-3.688823462,-37.59213638,-0.196155846,0.715836167,-0.297691137,-0.442346305,-0.450875312,9.589164734,-0.177932218,-1.49892056,-5.335662842,-86.00054169,-4.911082268,0.420682341,-0.585790753,-0.469911397,-0.508978426
3846692,8.900868416,-0.209211633,4.127538681,-3.209646702,-38.74175644,-0.224957511,0.713192701,-0.30049932,-0.446143299,-0.449458152,9.68446064,-0.11145667,-1.823101997,-6.06926012,-83.73329163,-6.2670331,0.413948655,-0.591800332,-0.475162268,-0.502633095
3846859,9.064692497,-0.31577462,3.818806171,-4.111829758,-35.33039093,-1.07051301,0.710654795,-0.303114951,-0.449552149,-0.448323548,9.74834919,-0.197983846,-2.111916065,-6.101547241,-80.45381165,-6.853297234,0.407334894,-0.59744817,-0.480196297,-0.496533722
3847026,9.024814606,-0.32829836,3.890694618,-2.879801035,-33.19589233,-1.305151463,0.708277285,-0.305442542,-0.452821285,-0.447214931,9.805276871,-0.209993154,-2.407720089,-5.469397068,-75.83145142,-7.005998135,0.401033491,-0.602638125,-0.484953344,-0.490733951
3847192,9.132387161,-0.255741775,3.641520739,-1.92138195,-32.08507538,-1.446892142,0.705990255,-0.307583779,-0.456035197,-0.446096569,9.853069305,-0.224234834,-2.68174839,-4.609354019,-69.82859802,-7.068356037,0.395222545,-0.607236981,-0.489424378,-0.485310435
3847359,9.232196808,-0.269198477,3.619389534,0.86149174,-26.18983269,-0.068360463,0.704294562,-0.309143841,-0.458755821,-0.444907457,9.784110069,-0.235527635,-2.942994595,-3.554926872,-63.34285355,-6.845360756,0.389954507,-0.611265063,-0.493547171,-0.480314404
3847526,9.31416893,-0.31723091,3.531471968,-0.169876471,-21.23283195,-0.670592725,0.702835143,-0.310445875,-0.460924923,-0.444065839,9.686268806,-0.209553629,-3.149965286,-2.108731031,-57.2623291,-6.627875805,0.385255396,-0.614733756,-0.497396767,-0.475686073
3847692,9.353695869,-0.281788558,3.558124542,4.911053658,-16.15330315,0.088920966,0.701988637,-0.31095019,-0.462866485,-0.443031281,9.499674797,-0.143116981,-3.288407564,-0.844625533,-52.26075745,-6.312427521,0.380995572,-0.617800534,-0.500957668,-0.471387625
3847859,9.261583328,-0.288082778,3.606661558,4.506524563,-11.29569149,0.202321231,0.701454282,-0.311190009,-0.46427995,-0.442229629,9.433685303,-0.018071415,-3.336815834,-0.038906015,-48.43005753,-6.24486351,0.377073526,-0.620527923,-0.504335761,-0.467339307
3848026,9.078873634,-0.320722282,3.812069893,5.440607071,-9.737132072,0.213001713,0.70106566,-0.311234832,-0.465593368,-0.441432774,9.359399796,0.055433877,-3.333785057,-0.049791448,-45.06160355,-6.333963871,0.37337938,-0.622983634,-0.507524848,-0.463570595
3848192,8.948001862,-0.323394269,3.928796291,6.157469749,-13.73544693,0.446397662,0.700451553,-0.311478049,-0.467347741,-0.440380782,9.324334145,0.098431617,-3.336646557,-0.547013879,-42.31850815,-6.776676655,0.369776756,-0.625243425,-0.510527909,-0.460105777
3848359,9.034659386,-0.276657701,3.797024012,-0.008272911,-18.23504639,-1.019373894,0.699155211,-0.312536001,-0.469228238,-0.439691186,9.289566994,0.102800019,-3.366086245,-0.853701711,-40.27321625,-6.156624317,0.366332144,-0.627397418,-0.513336778,-0.456791937
3848526,9.259877205,-0.296731949,3.446521282,3.953357935,-20.4145298,-0.412211418,0.697923899,-0.313369274,-0.471551627,-0.438566953,9.241232872,0.13818799,-3.356333971,-1.33056128,-38.8134613,-5.348626614,0.362995952,-0.629515409,-0.515950441,-0.453585207
3848692,9.421092033,-0.279879957,3.25393486,3.780304432,-18.01578903,0.6753757,0.696912825,-0.314140022,-0.473567814,-0.437449783,9.116887093,0.211293578,-3.352031708,-2.07777667,-38.05064774,-4.447756767,0.359684318,-0.631682217,-0.518361568,-0.450450957
3848859,9.285264015,-0.306002527,3.483813763,1.812951446,-15.13993454,0.166988522,0.695972562,-0.314891428,-0.475188941,-0.436647773,8.965791702,0.209716484,-3.381291628,-3.359072208,-38.69168472,-3.80572176,0.356233448,-0.633989453,-0.520643771,-0.447308838
3849026,9.126964569,-0.27478981,3.327126503,2.892836332,-18.68752289,-0.307429612,0.694802225,-0.315724552,-0.477256596,-0.435653657,8.945407867,0.202165559,-3.486780882,-4.315611839,-40.33820724,-3.379487514,0.352593064,-0.636454284,-0.522904813,-0.444043607
3849192,9.159954071,-0.222735062,3.433765888,-1.398621798,-20.19721794,-0.125950634,0.693335891,-0.317097604,-0.479193121,-0.434866101,9.081724167,0.102803677,-3.630681038,-4.858911991,-40.81869125,-3.343258619,0.348848581,-0.638964951,-0.525125504,-0.440762699
3849359,9.484640121,-0.261161298,2.891849756,-1.028671622,-19.9826355,-0.770571947,0.691855252,-0.31837219,-0.481157005,-0.434124053,9.023159981,0.01892505,-3.79542017,-4.25009346,-40.25802994,-3.252678156,0.345209271,-0.641377747,-0.527348518,-0.437457144
3849526,9.748417854,-0.228094146,2.653326273,-1.471591115,-10.41777802,-1.110029221,0.690997183,-0.319063336,-0.48214525,-0.433886886,8.961555481,0.014686091,-3.924100876,-3.17927146,-39.82217026,-3.473985672,0.341676801,-0.643669963,-0.529620707,-0.434105843
3849692,9.590747833,-0.269676447,2.893940926,0.833930314,-2.175376177,-0.998037159,0.690828443,-0.319011897,-0.482447416,-0.433857471,8.920751572,0.041041911,-4.030682087,-2.208467007,-38.86149979,-3.978390932,0.338276297,-0.645779967,-0.531952441,-0.430771649
3849859,9.331018448,-0.244268537,3.155318737,2.935503721,0.594387591,-0.646029174,0.690972507,-0.318600386,-0.482589006,-0.433772832,8.867757797,0.094973452,-4.101947308,-1.460456371,-37.63084412,-4.522136688,0.334981978,-0.647730649,-0.534284532,-0.427518725
3850026,9.373602867,-0.222291037,3.174825907,2.496027708,3.121925116,-0.886903703,0.691258013,-0.318057001,-0.482460231,-0.433859944,8.857270241,0.133871078,-4.22549963,-0.949620962,-36.46453857,-5.000237465,0.331745297,-0.649579287,-0.536558449,-0.424378186
3850192,9.296972275,-0.2295589,3.257800102,1.687012553,5.05034399,-1.542473435,0.691599369,-0.317427486,-0.482117057,-0.434158474,8.893659592,0.167833641,-4.318155289,-0.488935798,-34.93849945,-5.194329262,0.328649998,-0.651278913,-0.538790703,-0.421342671
3850359,9.275860786,-0.214275241,3.266523123,0.309254169,5.525614262,-2.280222178,0.691863239,-0.316854745,-0.481672794,-0.434649169,8.931413651,0.155497208,-4.420231819,0.239101872,-32.80643463,-5.026139736,0.325792819,-0.652810216,-0.540936232,-0.418432802
3850526,9.300654411,-0.20102711,3.296088934,1.779103279,7.152161598,-2.362311125,0.692302823,-0.316025406,-0.481161207,-0.43511951,8.918775558,0.210746378,-4.466711998,1.009854317,-30.122015,-4.372178555,0.323252916,-0.654179335,-0.542927444,-0.415676445
3850692,9.257309914,-0.187342957,3.402117729,1.932344198,8.119272232,-2.108924627,0.692831993,-0.31513685,-0.480549604,-0.435597301,8.93638134,0.293103278,-4.532407284,1.510084033,-27.23305702,-3.802279234,0.321017414,-0.655383587,-0.544749022,-0.413120776
3850859,9.217995644,-0.217733622,3.449959755,1.695362687,8.445809364,-2.481564045,0.693348527,-0.314224869,-0.479906172,-0.436143398,8.887760162,0.365511626,-4.561042309,1.26243341,-24.08935738,-3.393382311,0.319027305,-0.656433642,-0.546361983,-0.410859227
3851026,9.154418945,-0.189806208,3.480592251,1.56872046,7.474382877,-2.792463541,0.693770766,-0.313365072,-0.479365706,-0.436684489,8.799964905,0.37689954,-4.614264011,0.786522388,-21.24809837,-3.185123444,0.317226261,-0.657344937,-0.547788501,-0.408892483
3851192,9.105782509,-0.160261542,3.509706497,1.477308631,5.263224125,-2.68857789,0.694040716,-0.312661707,-0.479036778,-0.437120259,8.678106308,0.405430764,-4.668554783,0.116454683,-18.89165688,-2.818898916,0.315567672,-0.658170223,-0.549026787,-0.407184005
3851359,9.107174873,-0.134911343,3.624301434,1.203431845,2.800895929,-2.034326792,0.69416821,-0.312187791,-0.478908598,-0.437396973,8.589365005,0.419103742,-4.749595165,-0.744088054,-17.25859642,-2.696507692,0.313961744,-0.658943236,-0.550123513,-0.405691922
3851526,9.129421234,-0.081980444,3.556902409,0.916889727,-0.169492021,-1.623576045,0.694102228,-0.311959803,-0.47904253,-0.437517464,8.583255768,0.43124193,-4.794999599,-1.288435221,-16.32584572,-2.161483288,0.312407404,-0.65972507,-0.551091194,-0.404305756
3851692,9.134336472,-0.06028457,3.515644312,0.545646608,-2.090687752,-1.692781568,0.693881333,-0.311886281,-0.479349583,-0.437583923,8.573901176,0.398059696,-4.841710091,-1.440625906,-15.37094784,-1.421416283,0.310956299,-0.660513401,-0.551932752,-0.402987361
3851859,9.199180603,-0.076262139,3.429779053,1.16692102,-3.0637784,-1.484627366,0.693633974,-0.31182611,-0.479784608,-0.4375422,8.642019272,0.404489338,-4.913687706,-1.328749299,-13.92857933,-0.739426315,0.309669822,-0.661263824,-0.55264771,-0.401765496
3852026,9.329567909,-0.067586459,3.32651639,0.709170878,-1.973266482,-1.012841344,0.693471849,-0.311775446,-0.480059057,-0.437534332,8.67320919,0.415849626,-4.972118855,-1.523815393,-11.841012,-0.376750171,0.308552206,-0.661927879,-0.55322057,-0.400742173
3852192,9.340714455,-0.088512756,3.357601404,0.103071898,-0.667620599,-0.748569489,0.693389893,-0.311721355,-0.480151772,-0.437601089,8.678303719,0.365004361,-5.020759106,-1.424309611,-9.401027679,-0.15667291,0.307652175,-0.6624614,-0.553667247,-0.39993456
3852359,9.324857712,-0.083043255,3.393529654,-0.306750476,-0.182656959,-0.877401412,0.693314731,-0.311668873,-0.480175674,-0.437731355,8.552703857,0.3252545,-5.059658051,-0.817608774,-6.847083092,0.278416485,0.30704096,-0.662853539,-0.55399245,-0.399303883
3852526,9.288275719,-0.080534495,3.422705889,-0.278038651,-0.661307156,-0.74115473,0.693215907,-0.311653525,-0.480243713,-0.4378241,8.453158379,0.354440629,-5.043550491,-0.238377392,-4.771620274,0.7209782,0.306677967,-0.663134754,-0.55421567,-0.398805916
3852692,9.252277374,-0.07422056,3.406096697,-0.777358174,-1.80426085,-0.392399341,0.693036795,-0.311785609,-0.480379432,-0.437864751,8.445874214,0.348689914,-5.052272797,0.164964989,-3.325770617,1.088225961,0.306491256,-0.663343728,-0.554362416,-0.398397595
3852859,9.21586132,-0.10628996,3.39249301,0.137469769,-3.781062126,0.125086024,0.692793787,-0.31198734,-0.480749309,-0.437699556,8.44492054,0.381750971,-5.022975445,0.461316735,-1.865398526,0.995341599,0.306445152,-0.663447559,-0.55447042,-0.398109853
3853026,9.264823914,-0.109438024,3.308400154,0.723731637,-5.427792072,-0.256895363,0.69243753,-0.312208295,-0.481339455,-0.437457114,8.419516563,0.374618351,-4.967255592,0.360569149,-0.49158451,0.95066011,0.306497157,-0.66347295,-0.554515839,-0.397964299
3853192,9.321334839,-0.062213223,3.254408598,-1.195268035,-5.012815952,-0.669656932,0.691996455,-0.312567174,-0.481784552,-0.437408924,8.392522812,0.388272434,-4.929115772,0.234605923,0.606361508,0.998081982,0.306627989,-0.66344434,-0.55450058,-0.397932351
3853359,9.258859634,-0.058233198,3.274453878,-2.076869726,-5.103816986,-0.49049601,0.691519558,-0.313033074,-0.482174724,-0.437399894,8.374892235,0.361081362,-4.884154797,-0.312833488,1.262558699,0.764212489,0.306745142,-0.663383365,-0.554447174,-0.398018152
3853526,9.27688694,-0.063731782,3.268788099,-0.597826123,-6.858288288,0.122255839,0.691025019,-0.313504815,-0.482807517,-0.437145412,8.322582245,0.345272243,-4.846205235,-0.560764432,1.241351366,0.642795503,0.306829482,-0.663324952,-0.554392099,-0.398127049
3853692,9.298108101,-0.044042505,3.26311779,-0.853210449,-8.006851196,0.605849266,0.690468013,-0.314108878,-0.483517319,-0.436807305,8.318435669,0.318560392,-4.850458145,-0.506516695,0.67515713,0.850463271,0.306885421,-0.663313687,-0.554345608,-0.398167491
3853859,9.286830902,-0.029389843,3.203026056,-2.280516624,-8.508616447,0.207046703,0.68978399,-0.314859599,-0.48420468,-0.436585963,8.326896667,0.334533125,-4.830752373,-0.107611753,0.132641748,1.098714232,0.30695045,-0.663336217,-0.554322422,-0.398112088
3854026,9.379431725,-0.099275485,3.099929571,-0.962884009,-8.628972054,0.399551809,0.689162791,-0.315498888,-0.484978735,-0.436246485,8.372830391,0.375374228,-4.80517149,-0.266692221,-0.410033673,0.929196656,0.306946546,-0.663383663,-0.554330587,-0.398024619
3854192,9.415355682,-0.149219155,3.048255444,0.564664066,-6.331562996,0.197544381,0.688759685,-0.315825015,-0.485628754,-0.435923994,8.423612595,0.312205404,-4.845439911,-0.276399434,-0.515506744,0.868891597,0.306929678,-0.663432658,-0.554348826,-0.397930413
3854359,9.376089096,-0.101389997,3.082994461,1.025564432,-4.006966114,0.13097693,0.688536823,-0.315953344,-0.486078501,-0.435681731,8.450105667,0.288224757,-4.841074944,-0.030927338,-0.293559968,0.888562143,0.306955755,-0.663459599,-0.55436939,-0.397836953
3854526,9.373392105,-0.089162722,3.116420269,0.815822124,-2.081454515,0.290851384,0.688450217,-0.315991938,-0.48631534,-0.435526103,8.473810196,0.286540538,-4.853919506,0.288008392,0.18687667,0.8081128,0.30704692,-0.663437963,-0.554394662,-0.397767574
3854692,9.358698845,-0.118143521,3.166345358,-0.082600959,-0.35447979,0.668177664,0.68846792,-0.316038191,-0.486305267,-0.435475588,8.466670036,0.305836886,-4.83166647,0.824248731,0.86854589,0.929337561,0.30725199,-0.663362682,-0.55440855,-0.397715122
3854859,9.307236671,-0.122711979,3.196414709,0.041819133,0.711450338,0.702447474,0.688568771,-0.316007197,-0.486195028,-0.43546176,8.490151405,0.325221837,-4.807153225,0.931207299,1.563418388,0.976477683,0.30752632,-0.663246214,-0.554392874,-0.397718996
3855026,9.286710739,-0.099874288,3.242136955,0.446000367,0.961916983,0.672519028,0.688703895,-0.315917939,-0.486086637,-0.435433865,8.516324997,0.317385167,-4.783720016,0.945780993,2.622349977,0.889855683,0.307882726,-0.663060844,-0.554339111,-0.397827983
3855192,9.251562119,-0.092934899,3.288780451,0.370199531,0.257401198,0.635470271,0.688783765,-0.315877795,-0.486046016,-0.435381979,8.50795269,0.35273391,-4.764465809,0.553650498,3.59085536,0.665219367,0.30826658,-0.662818313,-0.554240406,-0.398071885
3855359,9.209018707,-0.102314889,3.3218081,-0.780931294,-0.404334903,0.321228087,0.688744009,-0.315972775,-0.486012965,-0.435413003,8.509716988,0.334104925,-4.76749897,0.12243513,4.463327408,0.818012118,0.308688223,-0.662556767,-0.554062784,-0.398428023
3855526,9.234791756,-0.082804836,3.274764299,-1.784897923,-1.572888851,0.441005886,0.688583255,-0.316250533,-0.486027509,-0.435449362,8.475553513,0.312948436,-4.79144907,-0.010578047,5.074306011,1.059232593,0.309160262,-0.662284553,-0.553826332,-0.398842931
3855692,9.308306694,-0.107695095,3.21259737,-1.420903087,-1.721506476,0.302428365,0.688419819,-0.316491365,-0.486086071,-0.435467243,8.475476265,0.297585517,-4.794920921,0.222721666,5.790590286,1.384181023,0.309731334,-0.661986172,-0.553539395,-0.399293214
3855859,9.28819561,-0.089515738,3.236294985,-1.066717625,-1.465481877,0.216677025,0.688285232,-0.31667462,-0.486145407,-0.435480535,8.497577667,0.294868529,-4.765857697,0.399551749,6.472425461,1.463106394,0.31037879,-0.661646128,-0.553224146,-0.399790972
3856026,9.292172432,-0.119735025,3.226277351,-0.710893273,-0.984424174,0.281387508,0.688204944,-0.316796631,-0.486175925,-0.435484737,8.524569511,0.246749565,-4.782466888,0.844457388,7.181847572,1.604283929,0.311134249,-0.66125524,-0.552888453,-0.40031448
3856192,9.286230087,-0.145111769,3.205590725,-0.590231836,-0.210049748,0.172098115,0.68817842,-0.316849351,-0.48614189,-0.435526401,8.560542107,0.245241821,-4.770950794,1.208042383,8.191512108,1.39354229,0.31199345,-0.66077137,-0.552547634,-0.400914609
3856359,9.286598206,-0.135394946,3.233450174,-0.568922043,0.392610669,0.120834306,0.688191652,-0.316858858,-0.486050785,-0.435600042,8.589715958,0.229485691,-4.758607864,1.581347585,9.339756012,1.273098707,0.312973529,-0.660192907,-0.552186966,-0.401599854
3856526,9.284656525,-0.133758575,3.221939087,-1.269583106,1.008788109,0.151428685,0.688216269,-0.31690377,-0.485850811,-0.435751677,8.578133583,0.243057162,-4.751430988,1.774928689,10.46717834,1.285085797,0.314063042,-0.659539461,-0.551783919,-0.402376205
3856692,9.2990942,-0.155700356,3.207046747,-1.137562394,1.43092382,0.329167992,0.688289165,-0.316920191,-0.485609353,-0.435893655,8.568943977,0.263152331,-4.730368614,2.149476051,11.42043114,1.088187933,0.315252841,-0.658795714,-0.551376581,-0.403221726
3856859,9.315893173,-0.128001601,3.223083735,-1.303237915,1.480164051,0.238217279,0.688352704,-0.31694293,-0.485357195,-0.436057597,8.554042816,0.291950256,-4.683716774,2.293803692,12.35719204,0.868904769,0.31651777,-0.657970905,-0.550954044,-0.404154062
3857026,9.314238548,-0.114115827,3.193803549,-1.53341949,1.44151473,-0.142432228,0.688379049,-0.316963851,-0.485112131,-0.436273336,8.518907547,0.340723991,-4.676252365,1.894566178,12.80211258,0.999978125,0.317786783,-0.657146573,-0.550473034,-0.405153424
3857192,9.282155037,-0.121337853,3.205888271,-1.528168797,1.635620594,-0.395844251,0.688403368,-0.316953808,-0.484860003,-0.436522424,8.532866478,0.333461106,-4.631854534,1.320931077,13.12785721,1.06733954,0.319029689,-0.656332731,-0.549935162,-0.406225234
3857359,9.22837162,-0.125785723,3.281115294,-0.898954511,-0.533051491,-0.12287692,0.688323379,-0.317034841,-0.48485437,-0.436596125,8.588862419,0.323071688,-4.608711243,1.118398428,13.41677952,1.344661236,0.32029134,-0.65553081,-0.549343407,-0.407326192
3857526,9.35208416,-0.132269189,3.109146357,-1.57577014,-1.53681314,-0.125438198,0.688138902,-0.317249924,-0.484904259,-0.436675251,8.667190552,0.286808252,-4.577760696,0.71835351,14.0597229,1.655189753,0.321583122,-0.654731929,-0.548666358,-0.408504367
3857692,9.397819519,-0.095351107,3.121835947,-1.776368976,-0.388762385,-0.101490326,0.688023329,-0.31741932,-0.484822482,-0.436825037,8.671848297,0.28286171,-4.506097794,0.528819323,14.94632053,1.850922108,0.322937846,-0.653901756,-0.547915697,-0.409770906
3857859,9.335186958,-0.121828653,3.142423868,-1.682280421,0.977322936,0.172098115,0.68802917,-0.317507237,-0.484600782,-0.436998039,8.669484138,0.284845173,-4.468848228,0.1174151,15.55102444,1.94125843,0.324305445,-0.653058946,-0.547100723,-0.411121577
3858026,9.285438538,-0.126562476,3.183437586,-2.023377895,0.992677808,-0.01978581,0.688006818,-0.317616105,-0.484364182,-0.43721652,8.682784081,0.25949505,-4.449617386,-0.201712981,16.00395012,1.76050961,0.325666308,-0.652186275,-0.546259701,-0.412547022
3858192,9.253778458,-0.143537253,3.193644285,-2.866662979,0.193561584,-0.063160919,0.687881172,-0.317863375,-0.48415187,-0.437469333,8.717292786,0.218269363,-4.428267002,-0.35620895,16.62727356,1.505944848,0.327044934,-0.651259661,-0.545401037,-0.41405344
3858359,9.312346458,-0.137111023,3.188918352,-2.997147322,-0.91384846,-0.297837317,0.687660635,-0.318172485,-0.484056383,-0.437697202,8.80194664,0.185834944,-4.399262428,-0.16144982,17.80885696,1.530136347,0.328535169,-0.650250673,-0.544492304,-0.415652484
3858526,9.370726585,-0.109349996,3.146402121,-2.435498953,0.210914195,-0.155366644,0.687554955,-0.3183631,-0.483878076,-0.437921435,8.863365173,0.214966089,-4.362452507,0.086244479,19.08094215,1.506854773,0.330145985,-0.649146557,-0.543536007,-0.417350054
3858692,9.345746994,-0.119324125,3.167243242,-2.506983757,1.85795176,0.023826217,0.687574565,-0.318467081,-0.483523607,-0.438206643,8.889260292,0.240513742,-4.314700127,-0.008823589,20.68869591,1.473891497,0.331870377,-0.64794153,-0.542495251,-0.41920495
3858859,9.347213745,-0.146536887,3.186049938,-2.3639884,3.177800179,-0.102963068,0.687684298,-0.318464339,-0.483051747,-0.438556671,8.881114006,0.269334733,-4.257993221,-0.337332636,22.3239975,1.249011874,0.333675921,-0.646628618,-0.541371465,-0.421246529
3859026,9.312945366,-0.137092888,3.243190527,-2.72756052,4.25921917,-0.415578902,0.687838197,-0.318400621,-0.482467204,-0.439004928,8.932388306,0.224910259,-4.179634094,-0.680569232,23.90506554,0.798381448,0.335542262,-0.645192981,-0.540186524,-0.423481017
3859192,9.227833748,-0.141697317,3.305594444,-4.274682522,3.952417135,-0.569062948,0.687883615,-0.318506509,-0.481817305,-0.439570189,8.969305038,0.187121615,-4.126041889,-0.365634918,25.53673172,0.983728468,0.337573498,-0.643647611,-0.538916886,-0.425829202
3859359,9.280165672,-0.140900493,3.29522109,-3.9458673,3.587692738,-0.494978309,0.687924683,-0.318606228,-0.481222153,-0.440085471,8.97769928,0.264215648,-4.065331936,-0.062264625,27.44026566,0.967759073,0.339776635,-0.641958952,-0.537566125,-0.42832616
3859526,9.313638687,-0.145054132,3.264695883,-2.145012379,4.332112312,0.156269491,0.688131511,-0.318536729,-0.48062852,-0.440460771,8.995661736,0.285760343,-4.007493496,-0.161193997,29.01746178,0.775945485,0.342076153,-0.640151143,-0.536140323,-0.430980355
3859692,9.174309731,-0.140161037,3.346509218,-1.797192097,4.123907566,-0.072701648,0.688336551,-0.318415314,-0.48009795,-0.440806776,9.105182648,0.229879662,-3.982185125,-0.240055799,30.73394012,0.965160072,0.344477415,-0.63828063,-0.534551024,-0.433806837
3859859,9.218997955,-0.134373233,3.255144119,-1.474779129,3.808102369,-0.58667171,0.688503981,-0.318242013,-0.479645431,-0.441162884,9.220667839,0.202734068,-3.935451746,0.127775848,33.03108978,1.198992729,0.347098321,-0.636251092,-0.532837272,-0.436797142
3860026,9.345515251,-0.130818009,3.232181311,-0.386175483,5.020121098,0.182881072,0.688857734,-0.317932576,-0.479107529,-0.441418082,9.304742813,0.182203472,-3.860447407,0.624766946,35.85346603,1.656720042,0.349995524,-0.634047031,-0.530945063,-0.43998301
3860192,9.37002182,-0.123713903,3.27429986,0.214922577,7.015402317,1.453143001,0.689454675,-0.3175309,-0.478344679,-0.441602558,9.348241806,0.174979806,-3.772320271,1.263257027,39.06422806,2.07543993,0.353215307,-0.631618202,-0.528876305,-0.443381608
3860359,9.2926054,-0.142367125,3.335566044,0.664720237,9.632818222,1.336349487,0.690241039,-0.316911697,-0.477350354,-0.441895008,9.328122139,0.165799171,-3.69794035,2.062187195,42.43336868,2.562880278,0.356801748,-0.628927231,-0.526645958,-0.446975559
3860526,9.283960342,-0.155670211,3.369859457,1.123936892,11.34573936,0.753308177,0.69113034,-0.316092491,-0.476241082,-0.442288548,9.319104195,0.158182383,-3.61084795,2.967195511,45.7063942,2.649633884,0.360686898,-0.625987411,-0.524239421,-0.450796843
3860693,9.216129303,-0.157107979,3.446359873,1.992509007,12.42532349,1.155613542,0.692156434,-0.315146893,-0.475057125,-0.442631871,9.399353027,0.178122282,-3.524152994,3.498960972,48.7959137,2.195481539,0.364801943,-0.62275964,-0.521714687,-0.454866678
3860859,9.061317444,-0.132350251,3.664133549,0.041255675,11.65499401,0.968282223,0.693029225,-0.314426571,-0.473836273,-0.443086624,9.487441063,0.106779277,-3.418663025,4.008983612,52.37680817,1.928430915,0.369189084,-0.619221628,-0.519021213,-0.459217876
3861026,9.03730011,-0.192461729,3.583224058,-3.249215126,7.534406662,0.004347757,0.693393946,-0.314250708,-0.472851723,-0.443692267,9.588474274,0.151780054,-3.329596281,5.008766651,56.31033707,2.089359999,0.373945981,-0.615343928,-0.51613307,-0.463813633
3861193,9.268342018,-0.181226045,3.399949312,-1.811484218,7.993168354,0.210965469,0.693873048,-0.313907623,-0.471907049,-0.444191486,9.664304733,0.211983547,-3.206850052,5.739823818,60.7580719,2.503770113,0.379105777,-0.611106753,-0.512985468,-0.468693227
3861359,9.346105576,-0.150167927,3.379862785,0.022801714,10.06262398,0.728290915,0.694619596,-0.313268214,-0.47085619,-0.444591194,9.689200401,0.293691605,-3.041206598,5.977025032,65.53242493,2.517760277,0.384603173,-0.606487095,-0.509539306,-0.473945141
3861526,9.240376472,-0.139244765,3.506873369,1.375972509,11.73353577,0.772741854,0.695543945,-0.312384546,-0.46972245,-0.444966882,9.698462486,0.307348013,-2.881967068,5.44100666,69.92988586,2.068831444,0.390295565,-0.601514339,-0.505785882,-0.479614884
3861693,9.139331818,-0.149333283,3.575041533,1.795854568,11.71967888,0.634036303,0.696476758,-0.311450362,-0.468621731,-0.44532305,9.73696804,0.264316916,-2.663668156,4.574306011,74.10861969,1.793429732,0.396161318,-0.596204937,-0.501714587,-0.48567304
3861859,9.185753822,-0.11409986,3.605634212,1.725521922,10.79831314,0.804885805,0.697348416,-0.310598105,-0.467597783,-0.445630401,9.73757267,0.159746736,-2.525140524,4.1109972,78.20645905,2.198980808,0.402259052,-0.590592384,-0.497275263,-0.492042184
3862026,9.226822853,-0.121835969,3.632385015,0.469948292,9.798326492,1.46391356,0.698122323,-0.309997231,-0.466553092,-0.445931911,9.675377846,0.158993483,-2.316119671,4.627279282,81.55102539,3.010004282,0.408636093,-0.584696412,-0.492533773,-0.498555154
3862193,9.150391579,-0.096059769,3.702209473,0.750215411,8.526041985,1.688959599,0.698850989,-0.30944708,-0.465656757,-0.446109682,9.688073158,0.133491442,-2.098726034,5.271988392,84.26538849,4.31325531,0.415384829,-0.578483164,-0.487604231,-0.505029678
3862359,9.116315842,-0.116940923,3.725180387,-0.692849338,8.437253952,1.36198771,0.699479699,-0.309036046,-0.464683652,-0.446423739,9.678225517,0.142986372,-1.877898216,6.200086594,87.12953949,5.446258545,0.422432572,-0.571994543,-0.482399195,-0.511531234
3862526,9.249862671,-0.108974047,3.589880466,-1.418367624,9.312363625,0.411781907,0.700085998,-0.30855763,-0.463628948,-0.446900874,9.558728218,0.099022649,-1.660745263,6.606798649,89.44749451,5.593953609,0.429616988,-0.565224946,-0.47699061,-0.518102229
3862693,9.280088425,-0.142849952,3.635933399,0.588048697,12.23974609,1.515305758,0.701023459,-0.30779168,-0.462334603,-0.447299957,9.497420311,0.018107364,-1.414296031,6.975856304,91.02944946,4.950357437,0.436818033,-0.558171868,-0.471482396,-0.524727285
3862859,9.172919273,-0.183715373,3.700190306,0.151582479,14.67443085,2.588031054,0.702166378,-0.30698818,-0.460710675,-0.447734773,9.399586678,0.019378144,-1.138849735,7.736310482,91.7791748,4.168252468,0.443994313,-0.550861597,-0.465965122,-0.531316459
3863026,9.090902328,-0.10848929,3.861116171,-2.358944893,16.09322357,2.990432978,0.703312337,-0.306376874,-0.458756477,-0.448361069,9.414860725,0.083260484,-0.69334352,8.246631622,91.47689056,3.835981131,0.451085627,-0.543422043,-0.460451126,-0.537772477
3863193,9.08589077,-0.165227801,3.805694818,-3.916891098,19.07137489,2.640359163,0.704577982,-0.305683076,-0.456422746,-0.449228436,9.558458328,0.252788067,-0.265540183,8.175260544,91.64649963,3.830448627,0.458101362,-0.535877407,-0.454839349,-0.544150651
3863359,9.072136879,-0.21080713,3.894699335,-1.888632894,23.27178764,2.167075396,0.706179678,-0.304466099,-0.453812003,-0.450184196,9.595723152,0.326594025,0.071234681,6.619102001,91.653862,3.877449274,0.464918047,-0.528343499,-0.449019819,-0.550532162
3863526,8.872513771,-0.213842198,3.945934534,0.408376247,25.42613983,1.872222304,0.707997262,-0.302847326,-0.451138556,-0.451106906,9.492008209,0.352927536,0.284657896,4.890856266,91.12460327,4.250596523,0.471514761,-0.520899594,-0.442990452,-0.556863785
3863693,8.973468781,-0.224836558,3.624871492,2.390636683,23.96567917,2.440504551,0.70983839,-0.301150411,-0.44871676,-0.451764613,9.476256371,0.252067924,0.473906875,3.276094198,90.82518768,4.833302021,0.477934062,-0.51353687,-0.436729908,-0.563139498
3863859,9.408788681,-0.217763916,3.759497404,4.413560867,27.69759369,2.834290028,0.712015927,-0.299033165,-0.446011782,-0.452422529,9.459048271,0.105415598,0.64931345,2.624219418,90.82648468,6.220616817,0.484334856,-0.506218076,-0.430237055,-0.569262207
3864026,9.053031921,-0.227238342,4.154630661,4.910708427,31.38271904,3.806822538,0.714508295,-0.29667455,-0.442911744,-0.453090966,9.366407394,0.106767118,0.885204852,3.075131655,90.89715576,8.247806549,0.490856051,-0.498900175,-0.423552573,-0.575119317
3864193,8.645700455,-0.112123385,4.385435104,5.609796047,30.69682693,4.25178051,0.716985285,-0.294327557,-0.43988964,-0.45365271,9.659337044,0.149001449,1.387426138,2.851565123,91.00015259,9.740995407,0.497405827,-0.491594374,-0.416659981,-0.580789983
3864359,8.764683723,-0.123082362,4.347541332,5.733712196,31.14706993,5.32710886,0.719560385,-0.291991413,-0.436778605,-0.454091161,9.739132881,0.177691758,1.78021884,2.038122654,92.56838226,10.43922997,0.503962219,-0.484169066,-0.409461111,-0.586467683
3864526,8.764315605,-0.196638122,4.403718948,5.342889309,34.11069489,5.392923832,0.722307265,-0.289482951,-0.433327883,-0.454641849,9.181159973,0.170139864,2.098326445,0.614717007,92.32579041,10.11120796,0.510284245,-0.476760596,-0.402107537,-0.59213084
3864693,8.618218422,-0.211122245,4.320505142,4.590294838,34.2131691,4.949347973,0.724973738,-0.287018627,-0.429819137,-0.455290079,9.112045288,0.055768147,2.287868738,-0.094692878,89.85597229,9.567675591,0.51627624,-0.469500899,-0.394843072,-0.597600937
3864859,8.806149483,-0.204434246,4.320761204,5.151727676,33.4324379,5.406459332,0.727623045,-0.28457135,-0.426398218,-0.455816418,9.057522774,-0.074861601,2.486937046,-0.246528983,87.67474365,9.389891624,0.522031069,-0.462352842,-0.387675375,-0.602844596
3865026,8.939360619,-0.178983316,4.498982906,5.393144131,35.93843079,5.491689205,0.730425656,-0.281928778,-0.422714978,-0.456406265,9.13845253,-0.223587319,2.805521488,0.401496023,85.9885788,9.726185799,0.527680457,-0.455247879,-0.380607575,-0.607816339
3865193,8.553222656,-0.22113879,4.776568413,7.096838474,38.88497925,6.728845596,0.733536363,-0.278978616,-0.418767661,-0.456868887,9.455311775,-0.24831,3.243250847,1.172215104,85.86863708,10.18015671,0.53333205,-0.448047787,-0.373526871,-0.612607479
3865359,8.534409523,-0.240965977,4.991165638,5.629230022,39.5345459,6.571450233,0.7365973,-0.276116818,-0.414649308,-0.457438648,9.226658821,-0.233473778,3.610343218,1.581671357,86.35270691,10.26592731,0.538960695,-0.440706253,-0.366379946,-0.617304802
3865526,8.262770653,-0.233531103,4.984043121,4.251173973,38.51006699,6.167052269,0.739486337,-0.273439914,-0.410549045,-0.458083183,8.616054535,-0.128096804,3.868266582,1.621701717,83.28670502,10.29506874,0.544349253,-0.433570027,-0.359418064,-0.621707141
3865693,8.478354454,-0.24976556,4.806176186,4.066120625,38.55053711,5.434947014,0.742295682,-0.270729184,-0.406446397,-0.458807439,8.32104969,-0.07337524,4.10995388,0.928652585,76.42945099,9.652765274,0.54920429,-0.427014619,-0.352927029,-0.625680387
3865859,8.606006622,-0.273832023,5.100634575,2.643688679,41.32881546,4.201705933,0.745109499,-0.267900646,-0.401986688,-0.459834754,8.246307373,-0.143405735,4.357401371,-0.560773909,68.88204193,8.113516808,0.553378344,-0.421135962,-0.346958071,-0.62931484
3866026,8.183170319,-0.263098598,5.431982994,1.180809617,39.36249542,3.65282011,0.747689426,-0.265320152,-0.39765045,-0.460912138,8.356395721,-0.334192097,4.543562412,-1.009781599,61.62545776,7.210348129,0.557026744,-0.415872067,-0.341554701,-0.632544279
3866193,7.980825424,-0.317053288,5.538235188,0.539412498,36.98629379,3.145222902,0.750048578,-0.262931973,-0.393535554,-0.461978436,8.483243942,-0.448594093,4.725476742,-0.630092204,55.96614838,6.024641991,0.560267866,-0.411007106,-0.336689919,-0.635462821
3866359,8.038537025,-0.28475371,5.487006664,1.381292582,35.44351578,3.710765362,0.752206564,-0.260720551,-0.389517993,-0.463126659,8.559411049,-0.487405777,4.851759434,0.204410523,51.98831177,4.856464863,0.563222766,-0.406358063,-0.33227393,-0.638159394
3866526,8.028992653,-0.270204306,5.557888031,1.167169809,36.16190338,3.726056814,0.754539013,-0.258336455,-0.385490328,-0.464037329,8.63476181,-0.475583553,4.992818356,0.931381881,49.39390945,3.498654604,0.565939546,-0.401801586,-0.328198731,-0.640744627
3866693,7.832642555,-0.333314002,5.612336159,0.300303817,35.15523148,3.416448355,0.756594598,-0.25621441,-0.381432474,-0.465218544,8.64260006,-0.450329959,5.044204712,2.104068518,47.98233032,2.931595802,0.568577111,-0.397232026,-0.324364543,-0.643206477
3866859,7.875183582,-0.345243514,5.788143158,1.468683004,33.48295593,2.996294737,0.758556902,-0.254041314,-0.377646893,-0.46630168,8.437936783,-0.402111202,5.054530621,3.19051528,46.43494415,2.820882559,0.571168005,-0.392692745,-0.320749938,-0.64550674
3867026,7.78348875,-0.32556656,5.914972305,0.901576757,32.37194443,2.759644508,0.760421634,-0.251969874,-0.373956501,-0.46736151,8.344502449,-0.334759116,5.011917114,3.727244139,44.41415024,2.064877987,0.573599935,-0.388245434,-0.317381978,-0.647701561
3867193,7.80079031,-0.355559379,5.97811079,0.150302246,31.03910828,2.40879941,0.762164235,-0.250030488,-0.370377928,-0.468413055,8.324593544,-0.275053829,5.074908257,3.069695711,43.04584885,0.897122622,0.57579875,-0.38391161,-0.314118713,-0.64992094
3867359,7.786430359,-0.321332067,6.048167229,-0.380324334,32.3953476,2.043023586,0.763902426,-0.248044059,-0.366609633,-0.469600677,8.808001518,-0.230444074,5.320784092,2.497056723,43.92724228,0.305158168,0.577927232,-0.379499525,-0.310747713,-0.652239621
3867526,7.613228321,-0.303595483,6.109456539,0.053383477,33.45009232,2.229562283,0.765701711,-0.245943934,-0.362736285,-0.470781356,8.636270523,-0.255182981,5.495766163,1.678035498,46.94527435,0.608031034,0.580150366,-0.374866813,-0.307015061,-0.654707968
3867693,7.527600765,-0.309834361,6.161453247,0.575718045,33.18144989,2.332909584,0.767522931,-0.243778631,-0.358932465,-0.471855968,8.126223564,-0.279635757,5.700073242,1.23797965,45.55215073,1.247494817,0.58232224,-0.370415062,-0.303309172,-0.657036722
3867859,7.450462341,-0.302850842,6.245978832,-0.343749285,31.98336601,2.253778219,0.769242108,-0.241774321,-0.355202883,-0.472908825,7.992776871,-0.233065993,5.894672871,0.422765791,41.63144302,1.53386426,0.584281683,-0.366403759,-0.299829125,-0.659140229
3868026,7.705997467,-0.32022649,6.170610428,-1.466293454,30.37112045,1.915688992,0.770778477,-0.239998341,-0.351570338,-0.474025309,7.771186829,-0.272259116,6.089974403,-0.279064417,35.64069748,2.193001032,0.585987806,-0.363042325,-0.296745449,-0.660878837
3868193,7.47650528,-0.279129833,6.264868736,-2.240582228,33.04817581,1.765419722,0.772404253,-0.238104731,-0.347586751,-0.475269943,7.775671959,-0.264194906,6.324095249,-0.834617913,28.52383995,2.413741827,0.587366581,-0.3604123,-0.294195503,-0.662233055
3868359,7.381634712,-0.34658125,6.364405632,-2.271521568,31.87938499,1.685392022,0.773947954,-0.236283153,-0.343728751,-0.476471961,7.868965149,-0.305202365,6.442718983,-1.466854453,22.20082474,2.12373805,0.588406324,-0.358426183,-0.292134583,-0.663299501
3868526,7.150867462,-0.441247076,6.52112484,-1.977370739,29.64748192,1.77013135,0.775394917,-0.234570161,-0.340140551,-0.477539599,7.801709652,-0.343581468,6.47339201,-1.870215297,16.61857605,1.629961371,0.589136243,-0.356987566,-0.290534467,-0.664129674
3868693,7.032281876,-0.415684551,6.575088024,-1.371485949,23.79248428,1.705265045,0.776560247,-0.23318477,-0.337253362,-0.47837168,7.819820881,-0.388437897,6.424564362,-1.862293959,11.33019352,0.998319566,0.589580297,-0.356029361,-0.289418399,-0.664736986
3868859,7.087614059,-0.357495874,6.602552891,-0.996962786,19.23112106,1.731324553,0.777520418,-0.232063815,-0.334908724,-0.479003996,7.908485413,-0.443810821,6.317738056,-1.177134275,7.512007713,0.721029639,0.589871943,-0.355367899,-0.288708508,-0.665140867
3869026,7.017436981,-0.391078264,6.662111282,-1.157797456,15.16886997,1.678459287,0.778262854,-0.231243208,-0.333008736,-0.479519218,7.964902878,-0.400130123,6.199466228,-0.309516728,5.150773048,0.775507927,0.590114534,-0.354861498,-0.288280934,-0.665381551
3869193,6.997862816,-0.449983031,6.730538845,-0.462219834,11.18949509,1.587764025,0.778808832,-0.230628371,-0.33160013,-0.479905009,8.000756264,-0.364284813,6.061598301,0.007434087,3.842705965,0.619744182,0.590303719,-0.354447186,-0.288003385,-0.665554702
3869359,7.025213718,-0.437529355,6.73981142,0.014464777,9.206763268,1.452093124,0.779280782,-0.230078414,-0.330460906,-0.480188698,8.072004318,-0.361942261,5.948952675,0.144878224,3.36412549,0.203390449,0.590439618,-0.354049385,-0.287801176,-0.665733099
3869526,6.970893383,-0.445413768,6.759026051,0.007293218,7.40446043,1.227047086,0.779667139,-0.229630798,-0.329540938,-0.480408043,8.147986412,-0.328999877,5.842580318,0.359391034,4.037029266,0.316208005,0.590625644,-0.353572577,-0.287555844,-0.66592747
3869693,7.009225368,-0.426165849,6.742276192,0.351617545,5.963206291,1.048961639,0.779963255,-0.229249671,-0.328803778,-0.480614573,8.093382835,-0.306289107,5.809936523,0.382211864,4.83768177,0.489362627,0.59086287,-0.353023469,-0.287235022,-0.666146815
3869859,7.053347111,-0.411201864,6.749322414,0.591429293,5.131985188,0.963722706,0.78023237,-0.228886932,-0.328185439,-0.480772972,8.135667801,-0.29219833,5.77646637,0.220992789,5.7189641,0.576894104,0.591136694,-0.352406442,-0.286818296,-0.666410267
3870026,7.067747593,-0.422090083,6.783272743,0.472791314,5.094552517,0.867214024,0.780499399,-0.228527859,-0.327571005,-0.480929375,8.190666199,-0.275898129,5.785974026,-0.504262865,7.294811249,0.55527693,0.591436207,-0.351697922,-0.286196858,-0.666785896
3870193,7.066405773,-0.42216748,6.756951809,0.378792644,4.898153782,0.765160203,0.780740619,-0.22819221,-0.326972246,-0.481104791,8.127559662,-0.306566209,5.765204906,-1.385135293,8.937163353,0.3585715,0.59173888,-0.350897461,-0.285358697,-0.667297959
3870359,7.071784496,-0.408968002,6.765538216,0.308101594,5.140078545,0.831330657,0.781000257,-0.227846965,-0.326340944,-0.481275648,8.058497429,-0.287918419,5.772086143,-2.710464954,9.839692116,-0.49199453,0.591927588,-0.350087851,-0.284357399,-0.667982876
3870526,7.105066776,-0.398881257,6.789069653,0.383543849,5.241594791,0.927301526,0.78127116,-0.227491856,-0.325698733,-0.481438726,8.180902481,-0.380368114,5.834703922,-3.583333731,10.91651535,-0.893922091,0.592075646,-0.349231541,-0.283198684,-0.668791592
3870693,7.148465633,-0.349877626,6.721445084,0.130118936,5.837678909,0.908911645,0.781552136,-0.227128267,-0.324967355,-0.481648564,8.178384781,-0.377733797,5.934894562,-3.850538492,12.43628407,-1.034638286,0.592257261,-0.348243982,-0.281889588,-0.669698358
3870859,7.128849506,-0.32630235,6.773075581,-0.318942189,8.131347656,0.731428385,0.781923652,-0.226639003,-0.323954523,-0.48195824,8.022702217,-0.365734816,6.014723301,-4.103579998,12.65325069,-1.772194862,0.592360735,-0.347225934,-0.280573577,-0.670687377
3871026,7.050815582,-0.375484943,6.816631794,-1.233226061,7.844203472,0.555392265,0.782239676,-0.226263806,-0.322916508,-0.482318342,7.962819576,-0.368500203,6.0842309,-4.669442177,11.81263161,-2.649507761,0.592313647,-0.346301675,-0.279318064,-0.671730101
3871193,7.173386574,-0.430390686,6.715370178,-0.978930354,8.366933823,-0.016443357,0.782554269,-0.225790665,-0.321858525,-0.482736707,7.961761475,-0.401701599,6.213067055,-4.624746323,10.08704758,-3.048719168,0.592157841,-0.345524818,-0.278234631,-0.67271626
3871359,7.091784954,-0.376296997,6.774365902,-0.852186024,8.659420013,-0.238633603,0.782866538,-0.225273967,-0.320781678,-0.483188123,7.881486893,-0.370231032,6.287875652,-4.102617741,7.834536076,-2.877984762,0.591952682,-0.344929487,-0.277386874,-0.673551977
3871526,7.034562111,-0.38731724,6.799014568,-0.891821563,7.597246647,-0.465907902,0.783118844,-0.224820018,-0.319833994,-0.483619124,7.838445663,-0.336459547,6.34732914,-3.74394989,4.733298302,-2.586844921,0.591668308,-0.344618082,-0.276825875,-0.674191654
3871693,7.03848362,-0.442074686,6.790459633,-0.443227828,6.498551369,-0.68398726,0.783307791,-0.224388763,-0.319044799,-0.48403424,7.903169632,-0.360390276,6.358902931,-3.317830801,1.904297709,-2.331447363,0.591316283,-0.344557077,-0.276536703,-0.674650431
3871859,7.004331112,-0.464691758,6.785064697,-0.281112224,5.207940102,-0.84984237,0.783446074,-0.224011138,-0.318427056,-0.484392047,7.901053429,-0.377077341,6.333897591,-2.681752205,-0.325204432,-1.898477197,0.590948761,-0.344677061,-0.276479483,-0.674934328
3872026,7.011554241,-0.468364656,6.771521091,-0.050713148,3.620682001,-0.706334293,0.783506989,-0.223739997,-0.317991585,-0.484704733,7.903584957,-0.371893644,6.231163025,-2.038258553,-1.84919858,-1.547685623,0.590586841,-0.344905227,-0.276598483,-0.675085962
3872193,7.008058071,-0.462182552,6.841844082,0.318628401,2.080423594,-0.577899337,0.783523321,-0.223537564,-0.317756206,-0.484926045,7.910943985,-0.345729202,6.139856339,-1.420236945,-2.704816341,-1.159538031,0.590259552,-0.345179707,-0.276831806,-0.675136149
3872359,7.011855602,-0.476693541,6.876583099,0.525450885,1.067607641,-0.40605092,0.783520222,-0.223385289,-0.317649245,-0.485071331,7.969271183,-0.365132242,6.082146645,-0.993529439,-2.873962879,-1.028029799,0.589959741,-0.345439464,-0.277114838,-0.675149381
3872526,6.971234322,-0.482973278,6.89454937,0.896783769,0.202474773,-0.410725206,0.783484757,-0.223254487,-0.31766513,-0.485178441,8.013062477,-0.366371959,6.037747383,-0.596212447,-2.276264668,-0.788000345,0.589727223,-0.345616132,-0.277373433,-0.675155699
3872693,6.947444916,-0.457541138,6.888366222,0.854087412,-0.467713475,-0.516198337,0.783396602,-0.223179907,-0.317751467,-0.485298663,7.943309784,-0.31897831,6.019076824,-0.315100253,-1.481809974,-0.830850422,0.589536667,-0.345689207,-0.277593702,-0.675194144
3872859,6.936000824,-0.424201876,6.8972826,1.153038979,-1.234250546,-0.503007829,0.783308327,-0.223109409,-0.317957282,-0.485338628,7.928247452,-0.312390029,6.028769493,-0.598159015,-1.063234448,-0.894971788,0.589342475,-0.34574306,-0.277753621,-0.675270498
3873026,6.969735622,-0.424563497,6.865828037,1.319944263,-1.539746046,-0.556871355,0.783202112,-0.223042697,-0.318208635,-0.485375941,7.936258316,-0.30233863,6.027358532,-0.571227193,-0.648615956,-0.98800981,0.589157104,-0.345750183,-0.277885377,-0.675374448
3873193,6.94692564,-0.398844808,6.86619854,1.371143818,-1.440675855,-0.597313762,0.783085048,-0.222971037,-0.318446696,-0.485441625,7.938782692,-0.260852128,6.040588856,-0.820438862,-0.424632967,-1.066205502,0.58896035,-0.345753521,-0.277977407,-0.675506294
3873359,6.939812183,-0.409909606,6.87874794,1.503958344,-1.316364408,-0.475166708,0.782992721,-0.222877175,-0.318678737,-0.48548162,7.938134193,-0.284517854,6.075413704,-0.954585314,-0.270546943,-0.684140861,0.588800669,-0.34576872,-0.278024048,-0.675618649
3873526,6.945055485,-0.377860546,6.870976925,1.614067435,-0.950026155,-0.460874915,0.782933056,-0.222737923,-0.318881482,-0.485508353,7.939212322,-0.262545526,6.092807293,-1.118237734,-0.266039133,-0.346437365,0.588666022,-0.345811099,-0.278037161,-0.67570889
3873693,6.938823223,-0.390177935,6.875717163,1.921548009,-0.776167274,-0.427629679,0.782874167,-0.222566247,-0.319075644,-0.485554546,7.944887161,-0.280361593,6.132441044,-1.303186893,-0.597787559,-0.187113568,0.588524222,-0.345908284,-0.278052509,-0.675776303
3873859,6.976045609,-0.377072811,6.878650188,1.853904843,-0.64158529,-0.512548506,0.782822192,-0.222382843,-0.319256485,-0.485603482,8.005144119,-0.304842621,6.158931255,-1.262731671,-0.766344786,-0.13481243,0.58838284,-0.346020609,-0.278083652,-0.675829113
3874026,6.952654839,-0.37584129,6.894595623,1.627117157,-0.668901265,-0.341596544,0.782763541,-0.222242102,-0.31941393,-0.485659093,7.992327213,-0.336280107,6.146460056,-1.001648784,-0.88147378,0.066112787,0.588269591,-0.346130073,-0.278140098,-0.675848365
3874193,6.980025768,-0.355358124,6.877799511,1.699114323,-0.880039513,-0.248571232,0.782711148,-0.222107425,-0.319600761,-0.485681981,7.958672523,-0.32620284,6.146458149,-0.697651565,-1.162432313,0.016500982,0.588155508,-0.34623912,-0.2782529,-0.675845385
3874359,6.998775005,-0.33497861,6.867928028,1.250546336,-1.08529973,-0.217093229,0.782637417,-0.222039536,-0.319778383,-0.485714853,7.951968193,-0.293573022,6.138539791,-0.632697642,-1.598526955,-0.45164153,0.587980926,-0.346366554,-0.278432816,-0.675857842
3874526,7.00895071,-0.35367766,6.887105942,1.11669457,-1.13565433,-0.229438573,0.782564163,-0.221984506,-0.319956362,-0.48574096,7.976498604,-0.344212145,6.115567207,-0.547702014,-2.121615171,-0.753179848,0.587759733,-0.346525818,-0.278680921,-0.675866246
3874693,7.006169796,-0.339161068,6.903924942,1.038370967,-1.286372185,-0.39898181,0.782451928,-0.2219529,-0.320143163,-0.485813111,8.001038551,-0.309996605,6.108817101,-0.269151092,-2.505434275,-0.796542108,0.587532938,-0.346697211,-0.278991282,-0.675847709
3874859,6.993409157,-0.34165442,6.85464716,1.102095246,-1.694997191,-0.408099979,0.782336652,-0.221932724,-0.320387989,-0.485846639,8.000305176,-0.303247929,6.071217537,-0.452576458,-2.83875823,-0.969171822,0.587266207,-0.34691003,-0.279320657,-0.675834298
3875026,7.001019478,-0.327619195,6.865216255,1.429182291,-1.903599977,-0.348844975,0.782239735,-0.221883759,-0.320683956,-0.485829741,7.99559927,-0.261630952,6.051041603,-0.503328025,-3.243234158,-1.167708635,0.586960673,-0.347158879,-0.27968955,-0.675819397
3875193,7.029500008,-0.341336787,6.834504128,1.526958585,-2.458101749,-0.4825432,0.782090425,-0.221870169,-0.321044743,-0.485838175,7.98416996,-0.239886761,6.01632452,-0.8921417,-3.673450708,-1.375466228,0.586597383,-0.347474575,-0.280067384,-0.675816
3875359,7.049828053,-0.319401413,6.83677721,1.308187842,-2.564253569,-0.57281518,0.781933188,-0.221877709,-0.321409911,-0.485846221,8.021655083,-0.233795002,5.991755486,-1.151150107,-4.062942982,-1.435668588,0.586198926,-0.347848207,-0.280456036,-0.675808489
3875526,7.05812788,-0.31734103,6.845180511,1.23201561,-2.852921724,-0.542477012,0.781765461,-0.221913531,-0.321803093,-0.485839754,7.992760658,-0.191320181,5.97013998,-1.573759556,-4.522306442,-1.522495866,0.585751414,-0.348299265,-0.280846715,-0.675801933
3875693,7.059560299,-0.306640595,6.772533417,1.440182805,-3.015524149,-0.586658895,0.781585336,-0.221940383,-0.32222712,-0.48583594,8.011779785,-0.139926091,5.951323032,-2.488549471,-5.101378441,-2.008452177,0.585185528,-0.348865092,-0.28122136,-0.675844371
3875859,7.078346252,-0.287616551,6.817869186,1.483980656,-2.767132282,-0.540466428,0.781425476,-0.221944466,-0.322626382,-0.485826522,8.117436409,-0.159892514,5.934328556,-3.728582382,-5.302483082,-2.372645855,0.584512115,-0.349541008,-0.281509846,-0.675957859
3876026,7.093420506,-0.300297469,6.733263016,1.133880734,-2.534415245,-0.763296902,0.781252742,-0.221958965,-0.322983265,-0.485860348,8.166200638,-0.284311086,5.9287467,-4.233101368,-4.608557701,-1.864924908,0.583890676,-0.350212216,-0.281663924,-0.676083446
3876193,7.162911892,-0.285751402,6.730156898,0.753724217,-1.108645797,-0.562800646,0.781148195,-0.22192584,-0.323144734,-0.485936284,8.11465168,-0.303675652,5.95909977,-3.998923779,-4.056821346,-0.844463587,0.583403587,-0.350851029,-0.281742066,-0.67614013
3876359,7.156252384,-0.329148501,6.757624149,0.262011498,0.749805331,-0.564017296,0.781104624,-0.22182408,-0.323055893,-0.48611182,8.047970772,-0.328083903,6.020177841,-3.579848766,-4.046806812,-0.449272394,0.582976699,-0.351469457,-0.281840265,-0.67614615
3876526,7.075139999,-0.357955188,6.810775757,0.054907229,0.903110266,-0.627408683,0.781063974,-0.221727744,-0.32294032,-0.486297905,7.944542885,-0.379949331,6.051450253,-2.824728727,-5.030814648,-0.724589765,0.582520723,-0.352109164,-0.282109946,-0.676093817
3876693,7.016654491,-0.300673217,6.843873501,0.427264631,-0.143956169,-0.302614033,0.781015754,-0.221674144,-0.322962582,-0.486384869,7.982492924,-0.399885237,6.083389759,-1.471193671,-6.464146614,-1.171601892,0.582030952,-0.352756441,-0.282656491,-0.675949872
3876859,6.994323254,-0.287523776,6.865337372,0.041614234,-1.431404114,-0.248609677,0.780887425,-0.221765012,-0.32309708,-0.486460328,8.011588097,-0.353155673,6.15139389,-0.314972222,-7.812732697,-1.15054822,0.581546903,-0.353438824,-0.283428997,-0.675686657
3877026,6.993266582,-0.331003129,6.812362671,0.21433349,-3.047348022,-0.154675111,0.78070581,-0.22194837,-0.323428661,-0.48644796,7.973474979,-0.262581527,6.170670509,0.20545873,-9.613165855,-0.58112669,0.581070423,-0.354276806,-0.284374774,-0.675260246
