sampleTimeFine,W4_acc_x,W4_acc_y,W4_acc_z,W4_gyro_x,W4_gyro_y,W4_gyro_z,W4_quat_w,W4_quat_x,W4_quat_y,W4_quat_z,W5_acc_x,W5_acc_y,W5_acc_z,W5_gyro_x,W5_gyro_y,W5_gyro_z,W5_quat_w,W5_quat_x,W5_quat_y,W5_quat_z
3869301,-0.383500874,-0.338937819,-0.051998626,-0.187885389,0.020125287,-0.183766648,0.605787098,-0.382014275,-0.515981793,-0.469946623,-0.209860176,0.327385843,0.210225672,0.000614212,-0.082382016,-0.217351764,0.382135808,-0.603016913,-0.540018141,-0.445783705
3869468,9.67209816,0.201799437,1.711244941,0.715906858,-1.572376251,1.927131534,0.60583508,-0.382145405,-0.516250968,-0.469482303,9.205774307,0.128231376,-3.032941818,3.184459686,-2.229086161,2.647873402,0.382361829,-0.603593051,-0.539618194,-0.44529444
3869634,9.661252022,0.207650214,1.705217361,0.424536914,-1.915279388,2.01012969,0.605716586,-0.382652044,-0.516267657,-0.469204307,9.195150375,0.09968356,-3.070451021,3.582941055,-2.843598843,3.173624754,0.382994711,-0.60413003,-0.539563537,-0.444087029
3869801,9.694009781,0.187584519,1.643325329,0.683558106,-2.181638479,2.356502771,0.605665147,-0.383057028,-0.516362846,-0.468835324,9.174456596,0.144263491,-3.06057024,3.889154673,-3.640691996,3.136141062,0.383539557,-0.604796708,-0.539673865,-0.4425731
3870301,9.769050598,0.228564382,1.630565286,0.0340841,-1.803582311,1.538279653,0.605213583,-0.384627968,-0.51737982,-0.467007548,9.226103783,0.150512412,-3.083551168,3.66044569,-4.126167774,2.771339178,0.383819163,-0.605222404,-0.540025413,-0.441317677
3870468,9.718231201,0.178358823,1.59748745,0.647917986,-1.012495518,1.432498813,0.605006039,-0.384968787,-0.51763314,-0.466714859,9.255679131,0.10783793,-3.083699226,3.616903782,-4.195014954,2.553771973,0.383897364,-0.605591357,-0.540347338,-0.440348744
3870634,9.697965622,0.148169622,1.622047782,1.278874159,-0.755574703,1.882757664,0.605034292,-0.385115355,-0.517930686,-0.466226876,9.320031166,0.106476672,-3.080168486,3.612216949,-3.85948801,2.566309452,0.384109229,-0.605817854,-0.540675342,-0.439448535
3870801,9.73380661,0.2016166,1.70298481,0.698272645,-0.528979123,1.94198668,0.605077684,-0.385316402,-0.518069208,-0.465850472,9.355642319,0.10509491,-3.107382059,3.551540375,-2.871990681,2.818159103,0.384429574,-0.605978012,-0.540840507,-0.43874374
3870968,9.646710396,0.16304253,1.723221302,-0.209921673,-0.753192604,1.80974853,0.605147302,-0.38546446,-0.518154383,-0.465542853,9.333224297,0.131451175,-3.108796358,3.183460474,-1.956208467,2.810577869,0.384763032,-0.606113732,-0.540875673,-0.438220471
3871134,9.664624214,0.160341635,1.682261586,-0.362291634,-1.071584105,1.515074372,0.605184257,-0.3856197,-0.518180728,-0.46533668,9.258885384,0.090636425,-3.092508554,2.911786079,-1.17653203,2.686650515,0.385145545,-0.606123447,-0.540938914,-0.437792659
3871301,9.674554825,0.129993036,1.676018357,-0.626217723,-1.519294143,1.446906209,0.605142474,-0.385858327,-0.518174291,-0.465200216,9.261031151,0.044525415,-3.103984356,2.740732193,-0.638742447,2.624693871,0.385553002,-0.606105566,-0.540965319,-0.437426209
3871468,9.637181282,0.098823979,1.648299217,-0.074648216,-1.631580234,1.658275127,0.605096757,-0.386136293,-0.518139362,-0.465067953,9.268237114,0.017110016,-3.105764866,2.675905943,-0.267140418,2.559470415,0.386006474,-0.606063128,-0.540980577,-0.43706581
3871634,9.662902832,0.116860315,1.670008421,-0.073290743,-1.626035213,1.501538277,0.605089903,-0.386370301,-0.518134832,-0.464887559,9.253973007,0.003336431,-3.127717018,2.771531105,0.114533588,2.031682491,0.386428326,-0.60602808,-0.540946066,-0.436784446
3871801,9.697750092,0.112887897,1.641760945,0.269772142,-1.577383637,1.239187121,0.605139911,-0.386499912,-0.518194616,-0.464648008,9.26890564,0.005712152,-3.101871252,2.886352539,0.220518932,1.526395082,0.386850834,-0.605941772,-0.540972888,-0.436496764
3871968,9.710331917,0.13621369,1.599619627,0.388909608,-1.195062876,1.16466701,0.605171621,-0.386644781,-0.518195987,-0.46448496,9.270129204,0.042297672,-3.104674339,2.698509455,0.324519306,1.055454493,0.387249023,-0.605814159,-0.541033685,-0.436245412
3872134,9.713585854,0.148345828,1.623176455,0.854164362,-1.152264118,1.02295208,0.6052441,-0.386703163,-0.518272579,-0.464256257,9.24264431,0.053006828,-3.101831675,2.359089851,0.512964785,0.574319959,0.387624741,-0.605612934,-0.541155517,-0.436040014
3872301,9.722379684,0.137728035,1.650945783,0.797419488,-1.060903788,0.939313769,0.605294406,-0.386767209,-0.518337905,-0.464064449,9.24864006,0.064968988,-3.10118103,1.902364135,0.806332588,0.487121582,0.387931079,-0.605453253,-0.541198015,-0.435936511
3872468,9.706562042,0.118974909,1.572471142,0.52774334,-1.068856478,1.095487237,0.605307698,-0.386898369,-0.518351793,-0.463922203,9.198138237,0.080807723,-3.110285759,1.388073802,0.659789622,0.686593235,0.388180852,-0.605346382,-0.541203797,-0.435855478
3872634,9.716386795,0.142744377,1.567479849,0.378293186,-1.027683973,0.939966798,0.605349123,-0.386977404,-0.518411756,-0.463735104,9.174278259,0.096418805,-3.11744976,0.76672256,0.307640553,0.736935019,0.388354063,-0.605278492,-0.541219831,-0.435775459
3872801,9.742465019,0.163809031,1.569195151,0.555814743,-0.876312852,0.496828765,0.605379105,-0.386994064,-0.518508494,-0.463573903,9.190134048,0.076748982,-3.106637001,0.147830084,0.14341189,0.71160394,0.388436496,-0.605261922,-0.541209579,-0.435737818
3872968,9.69691658,0.135177568,1.564301252,0.272858471,-0.817288399,0.473662049,0.605380297,-0.387038559,-0.518584013,-0.4634507,9.207042694,0.063162975,-3.099498749,-0.283058733,-0.133787945,0.667319655,0.388434112,-0.60530293,-0.541175008,-0.435725838
3873134,9.706821442,0.134387672,1.55702436,0.5104931,-0.515442729,0.435844898,0.605364621,-0.387092888,-0.518616378,-0.463389546,9.238595009,0.032679416,-3.115527868,-0.47104314,-0.232819468,0.712180316,0.388423353,-0.605345488,-0.541153193,-0.435703456
3873301,9.694549561,0.131397173,1.57832408,0.810148835,-0.413760304,0.325018734,0.605376244,-0.387092233,-0.518681407,-0.463302135,9.232601166,0.034524705,-3.11501956,-0.564465463,-0.199945539,0.421655446,0.388381541,-0.605380774,-0.541137397,-0.435711414
3873468,9.730628014,0.133131847,1.571396112,0.696300387,-0.373394728,0.210004926,0.605381727,-0.387083739,-0.518747568,-0.463227957,9.253372192,0.025054907,-3.072416306,-0.693745553,-0.197653219,-0.014855366,0.388291866,-0.605402827,-0.541137636,-0.435760081
3873634,9.728321075,0.13471216,1.585547209,0.799698889,-0.093678445,0.056354329,0.605417788,-0.387019038,-0.518819332,-0.463154376,9.239492416,0.050842967,-3.089084387,-0.689071298,-0.043323882,-0.285415083,0.388203532,-0.60539186,-0.541151047,-0.435837567
3873801,9.714753151,0.162070215,1.601207018,0.873489022,0.064012535,-0.015969519,0.605448604,-0.386949688,-0.518873096,-0.463111967,9.218274117,0.048955899,-3.082752228,-0.687432051,0.012556626,-0.562710941,0.388091862,-0.605368495,-0.541169703,-0.435946077
3873968,9.703798294,0.17312479,1.609626293,1.137709618,0.020560596,-0.102796562,0.605457127,-0.386881679,-0.518930554,-0.463093191,9.209763527,0.090422876,-3.092413902,-0.737171948,-0.069602527,-0.652650058,0.387972534,-0.605336487,-0.541207731,-0.436049551
3874134,9.697770119,0.175432503,1.587381005,1.22849381,0.152875811,-0.141061947,0.605520546,-0.386743039,-0.5190202,-0.46302554,9.224388123,0.102993801,-3.062443972,-0.839827597,-0.047152977,-0.47337389,0.387861013,-0.605314672,-0.541232049,-0.43614921
3874301,9.7051754,0.176754043,1.607147574,0.614736855,0.299367636,-0.376532286,0.60552156,-0.386653692,-0.51905179,-0.463063598,9.244363785,0.130680367,-3.069492579,-1.133810163,0.05340888,-0.309939295,0.387701184,-0.605363071,-0.541162133,-0.436310738
3874468,9.670485497,0.151251927,1.629536629,0.727663219,0.297894895,-0.363495439,0.605538666,-0.386543125,-0.519097924,-0.463081717,9.249749184,0.134900689,-3.063595533,-1.305607438,0.255838871,-0.198216677,0.387586653,-0.605365515,-0.54111582,-0.436466545
3874634,9.673018456,0.159448862,1.630252719,1.081400275,0.00833053,-0.349037111,0.605512679,-0.386469841,-0.519153893,-0.463114142,9.266479492,0.106051438,-3.049252748,-1.424091697,0.440416783,-0.037522603,0.387473941,-0.605386794,-0.541022599,-0.436652422
3874801,9.693516731,0.179923669,1.677757025,0.896783888,0.119131096,-0.126155362,0.605531931,-0.386386126,-0.519199252,-0.463107884,9.253735542,0.082816929,-3.053835154,-1.249220967,0.591544509,0.203332812,0.387386322,-0.605429351,-0.540883601,-0.436843425
3874968,9.690566063,0.155228049,1.65137279,0.815591633,0.236232311,-0.072535172,0.60556668,-0.386296332,-0.519227922,-0.463105261,9.257613182,0.073840186,-3.076753139,-0.97891736,0.755837202,0.179641068,0.387361974,-0.605411649,-0.540789425,-0.437006146
3875134,9.692680359,0.161601469,1.634494901,0.659366846,0.213014379,-0.024037516,0.605597794,-0.386222482,-0.519245028,-0.463107169,9.233827591,0.067617357,-3.076116085,-0.631942153,0.757566035,0.284947664,0.387372017,-0.605388582,-0.540701032,-0.437138319
3875301,9.697225571,0.167219847,1.649468422,0.57237339,0.029012782,0.039347507,0.605583727,-0.386207998,-0.519241929,-0.463140994,9.203372955,0.076748982,-3.071583033,-0.346014768,0.630206943,0.239113778,0.387402952,-0.605345964,-0.540651739,-0.437231004
3875468,9.704628944,0.154502943,1.625303984,0.48544392,0.061604951,0.1756455,0.60559988,-0.386183262,-0.519240081,-0.463142663,9.223174095,0.062733829,-3.044003248,0.074744254,0.433219522,0.152363524,0.387449831,-0.605286896,-0.54064703,-0.437276989
3875634,9.697740555,0.166772857,1.629516721,0.261819392,0.511568844,0.12757045,0.605637431,-0.38614133,-0.519188106,-0.463186771,9.248880386,0.074739337,-3.037118435,0.493985653,0.415021747,0.39628607,0.387545377,-0.605230391,-0.540641308,-0.437277585
3875801,9.65681839,0.159920841,1.660529613,0.08286348,0.359442204,0.006819381,0.60563159,-0.386131704,-0.519132376,-0.463264912,9.236949921,0.121226273,-3.029884338,0.498506337,0.402702093,0.331152976,0.387654781,-0.605148256,-0.540664732,-0.437265545
3875968,9.674570084,0.171432644,1.637724161,0.065920681,-0.053658597,0.031753343,0.605617404,-0.386129051,-0.519126654,-0.463292122,9.204371452,0.145773306,-3.060432911,0.359570265,0.129376143,0.479399294,0.387718171,-0.605128646,-0.540651798,-0.437252551
3876134,9.701174736,0.176492631,1.583709121,0.159983322,-0.195117533,0.054574255,0.605595589,-0.386133522,-0.51913482,-0.463307798,9.191986084,0.124755993,-3.062091827,0.120296456,-0.535267055,0.499236315,0.387710184,-0.60516268,-0.540664196,-0.437196881
3876301,9.685789108,0.192239016,1.586527109,0.110461161,-0.097533159,0.220467702,0.605581999,-0.386156172,-0.519117773,-0.463325679,9.179110527,0.127880663,-3.067972898,-0.068129778,-1.075451493,0.423678845,0.387625486,-0.605250418,-0.540686429,-0.43712303
3876468,9.734650612,0.179597124,1.582246423,0.692151189,-0.15563558,0.152465999,0.605590284,-0.386127383,-0.519149601,-0.463303149,9.21992588,0.119273379,-3.063263893,-0.178341225,-1.522495627,0.165105864,0.387504935,-0.605319679,-0.540787697,-0.437009037
3876634,9.708362579,0.19730185,1.59627533,1.041188121,0.236770198,0.293092549,0.605629683,-0.38608253,-0.519141614,-0.463298053,9.241505623,0.120391041,-3.072781324,-0.335974604,-1.50482285,0.108450562,0.387346834,-0.605417907,-0.540854096,-0.436930656
3876801,9.689772606,0.192931071,1.608392954,1.251711845,0.407696545,0.281310678,0.605710208,-0.385986298,-0.519149482,-0.463264048,9.258289337,0.146034971,-3.076156855,-0.361587286,-1.364542127,0.06684275,0.387182802,-0.60552007,-0.540898502,-0.436879545
3876968,9.685602188,0.216119319,1.638949275,0.906273246,0.481512398,0.195546538,0.605789244,-0.3858881,-0.519148469,-0.463243783,9.248760223,0.155274451,-3.068283558,-0.482018262,-1.091536522,0.233133197,0.387069434,-0.605587125,-0.540947318,-0.436826587
3877134,9.671895981,0.216643065,1.647419214,0.345765024,0.256440729,0.113240145,0.605798662,-0.385864407,-0.519121349,-0.463281423,9.241978645,0.15731208,-3.08533287,-0.692119122,-1.004030585,0.432182282,0.386939257,-0.605696797,-0.540936947,-0.436802745
3877301,9.723167419,0.218635008,1.674963117,-0.193760067,0.163620323,0.042856447,0.605764389,-0.385889947,-0.519068658,-0.463364035,9.230841637,0.134838045,-3.107776403,-0.762323678,-0.715682924,0.670226753,0.386864901,-0.605779529,-0.540920258,-0.436774701
3877468,9.688453674,0.174901575,1.672005653,0.036197145,0.226397052,0.28645882,0.605777264,-0.385893881,-0.519022584,-0.463395596,9.240826607,0.092163607,-3.112554312,-0.791445315,-0.719012499,1.128066659,0.386798531,-0.605922043,-0.540838003,-0.436737776
3877634,9.660770416,0.168521762,1.667847037,-0.370474875,0.179807544,0.459690303,0.605768979,-0.385957718,-0.518936276,-0.463449955,9.242580414,0.091142491,-3.127413511,-0.386931062,-0.537059844,1.17295289,0.386793971,-0.606023729,-0.540779233,-0.436673343
3877801,9.747860909,0.19634451,1.648366928,0.00643519,0.171739563,0.14811182,0.605708957,-0.386023432,-0.518849254,-0.463571012,9.251054764,0.14058429,-3.092035294,-0.285389483,-0.393628776,0.484022379,0.386785746,-0.60603267,-0.540807247,-0.436633438
3877968,9.740497589,0.238779485,1.650230527,0.397131294,0.31736055,-0.236635715,0.605711579,-0.385953218,-0.518844008,-0.463631958,9.252961159,0.123636641,-3.06801033,-0.401914477,-0.161052644,-0.228119493,0.386730909,-0.605988503,-0.540865183,-0.436671555
3878134,9.674206734,0.182772622,1.651227951,1.533567071,0.882031024,0.233171642,0.605846763,-0.385785103,-0.518835485,-0.463604897,9.275594711,0.125424623,-3.066822767,-0.331940591,0.187491342,-0.271212876,0.386691183,-0.605934381,-0.540889263,-0.436752021
3878301,9.672365189,0.212659225,1.715246677,1.317280412,0.695391238,0.681124926,0.605986297,-0.385682076,-0.518803596,-0.463543892,9.307655334,0.157560542,-3.082300901,-0.192248911,0.623854935,0.263253719,0.386736304,-0.605881989,-0.540855229,-0.436826974
3878468,9.637677193,0.209215477,1.711543441,0.700270355,0.28656128,0.733810186,0.606073976,-0.385653198,-0.518770158,-0.463490665,9.273921013,0.195702538,-3.050440311,-0.364238232,1.074267149,0.588547885,0.386825442,-0.605831563,-0.540760875,-0.436934829
3878634,9.661478043,0.167931542,1.684883595,-0.121173695,-0.069410421,0.461572886,0.606031299,-0.385743618,-0.518693984,-0.463556349,9.212575912,0.188024357,-3.059690475,-0.690864205,1.200435162,0.959816694,0.386929691,-0.605806112,-0.5406214,-0.437050492
3878801,9.688664436,0.183802754,1.696552753,0.098307945,-0.356451929,0.574179053,0.606025517,-0.385800034,-0.51868242,-0.463529855,9.184179306,0.099711642,-3.055360079,-0.642904341,1.019904137,1.284137726,0.387036949,-0.605822563,-0.540457726,-0.437134862
3878968,9.672134399,0.147280917,1.6334517,0.241969585,-0.437695444,0.931873322,0.60603708,-0.385886163,-0.518659472,-0.46346876,9.183372498,0.063048109,-3.087509394,-0.063186526,0.518586695,1.774812698,0.38719961,-0.605862558,-0.540332079,-0.437090755
3879134,9.674995422,0.146373451,1.631878018,0.408375293,-0.121250518,0.98047334,0.606065333,-0.385963053,-0.518600225,-0.463433981,9.198759079,0.058722459,-3.044388294,0.50487113,0.117351003,1.716134191,0.387348831,-0.605927944,-0.540230215,-0.436993897
3879301,9.680878639,0.194813892,1.648774624,0.338708729,0.067726366,0.745041311,0.606096327,-0.386007339,-0.518539429,-0.463424742,9.205104828,0.059763663,-3.092742443,0.99516207,-0.103910707,1.534027576,0.387542963,-0.605929077,-0.540228605,-0.436822206
3879468,9.694349289,0.180099815,1.638169885,0.099626996,0.404059559,0.803976178,0.606149375,-0.386047035,-0.518435121,-0.463438928,9.24957943,0.083874173,-3.086452246,1.186450839,-0.164856151,1.181571484,0.387716681,-0.605909348,-0.540258825,-0.436657906
3879634,9.703624725,0.184071988,1.646464348,0.071222521,0.760946929,0.811070919,0.606232464,-0.386060864,-0.51830107,-0.46346873,9.286922455,0.125906125,-3.129101276,1.214547873,0.129248083,0.989834785,0.387883216,-0.605880439,-0.540262043,-0.436546087
3879801,9.700438499,0.201377422,1.680097699,0.008317724,0.936291397,0.843138099,0.606316447,-0.386082947,-0.518136621,-0.463524342,9.311461449,0.136655062,-3.179391861,0.93597126,0.814554274,0.975926995,0.388088018,-0.605809629,-0.540225565,-0.436507523
3879968,9.693843842,0.166226625,1.675174475,-0.457852602,0.519918561,0.960316062,0.606331527,-0.386204064,-0.517954826,-0.463606983,9.271490097,0.116765678,-3.203954458,0.699655712,1.575008273,1.572331667,0.388377041,-0.605740011,-0.540092051,-0.436512232
3880134,9.701734543,0.160143971,1.696523428,-0.38317883,0.629899502,1.095435977,0.606399834,-0.386286199,-0.517786741,-0.463637084,9.270004272,0.153426617,-3.216209173,0.4218027,2.585640192,1.665324807,0.3887164,-0.605641663,-0.539863825,-0.436629266
3880301,9.737067223,0.173652321,1.665735245,-0.444277883,0.506971359,0.730864763,0.606405437,-0.386382699,-0.517624021,-0.463730693,9.280260086,0.107699394,-3.236546278,-0.04667915,3.526389122,1.691956043,0.389085293,-0.60551548,-0.539548278,-0.436865568
3880468,9.70377636,0.173900574,1.683524966,-0.207462862,1.243566871,0.860823572,0.606511831,-0.386392653,-0.517424583,-0.463805944,9.339147568,0.060534783,-3.2114923,-0.154303715,4.62833643,1.592642665,0.389505386,-0.605340302,-0.539148808,-0.437226832
3880634,9.696194649,0.193918198,1.665525436,-0.464716852,1.766347885,1.039984465,0.606674254,-0.386381865,-0.517167449,-0.463889331,9.37202549,0.029866654,-3.183914185,-0.061649773,5.974527836,1.576481104,0.390064746,-0.605039597,-0.538719118,-0.437673807
3880801,9.674870491,0.174982294,1.665543675,-1.087156773,1.762723684,1.025705457,0.606755197,-0.386474848,-0.516832352,-0.46407944,9.285834312,0.026491286,-3.127260685,0.393161386,7.230561256,1.200998664,0.390740812,-0.604601443,-0.538283229,-0.438212544
3880968,9.690924644,0.176907063,1.632367969,-0.640330315,1.132202864,0.721464932,0.606830657,-0.38650617,-0.516631663,-0.464178175,9.252391815,0.030275045,-3.097723722,0.563268125,7.583646297,0.722131014,0.391439855,-0.604079306,-0.537895739,-0.438783854
3881134,9.724579811,0.17689687,1.629589319,-0.308133572,1.099431515,0.588214934,0.606895268,-0.386520088,-0.51644969,-0.464284688,9.255397797,0.049080931,-3.055282831,0.770654202,7.570634842,0.15729402,0.392098635,-0.603527725,-0.53754288,-0.439386725
3881301,9.713887215,0.181422934,1.611147881,0.090406433,1.168905973,0.480795205,0.607004404,-0.386458606,-0.516315937,-0.464341938,9.247134209,0.08428745,-3.011070967,0.698631406,7.412425995,-0.088325411,0.39271605,-0.602978766,-0.537206769,-0.43999964
3881468,9.731180191,0.170269459,1.624242783,0.422872096,1.315218687,0.347980559,0.607111692,-0.386372298,-0.516182184,-0.464422137,9.256522179,0.120735422,-2.9672544,0.508892357,6.97821331,-0.012447774,0.393312395,-0.60244298,-0.536911309,-0.440561503
3881634,9.73002243,0.183137,1.607419014,0.502758086,1.629102111,0.262280434,0.607177138,-0.386321843,-0.515978992,-0.464604378,9.255051613,0.129940405,-2.931286573,0.106401578,6.686010361,0.175376579,0.393862098,-0.601962388,-0.536590219,-0.441117734
3881801,9.735988617,0.173381269,1.629341006,0.638620615,2.010923624,0.299495727,0.607338786,-0.386172086,-0.515798628,-0.464717865,9.297531128,0.132450595,-2.890016079,-0.29163906,6.34018755,0.311444074,0.394360453,-0.601533532,-0.536255002,-0.441664904
3881968,9.680768013,0.167544886,1.649679542,0.558171153,2.293892622,0.239920557,0.607529581,-0.385987103,-0.515606105,-0.464835614,9.299750328,0.105383627,-2.872467518,-0.775040388,6.191710949,0.43400088,0.39483124,-0.601128042,-0.535911441,-0.442213178
3882134,9.690325737,0.168794245,1.694898248,0.783191502,2.262696028,0.346981645,0.607701838,-0.385831803,-0.515396476,-0.464971721,9.318098068,0.083248712,-2.842088938,-0.995373726,6.184309006,0.559695184,0.395287514,-0.600747347,-0.535539329,-0.442773134
3882301,9.67361927,0.172051355,1.69367969,0.717930377,2.174153328,0.338106841,0.607906282,-0.385639817,-0.515226603,-0.465051979,9.321480751,0.075079642,-2.814395666,-1.063810825,6.248174191,0.604120493,0.395699441,-0.60042417,-0.535092533,-0.443383396
3882468,9.670001984,0.177840561,1.738654971,0.611727238,1.848525882,0.282770544,0.608062685,-0.385490119,-0.515070438,-0.465144873,9.357046127,0.067295223,-2.78109622,-0.982977033,6.361279488,0.551153302,0.396140188,-0.600064993,-0.534669578,-0.443985969
3882634,9.653165817,0.162756383,1.766425252,0.495381624,1.848052144,0.348351896,0.608232439,-0.385337859,-0.514915526,-0.465220451,9.38217926,0.045242839,-2.752154589,-0.97580564,6.721458435,0.47761929,0.396601021,-0.599680126,-0.534226418,-0.444627732
3882801,9.651021004,0.153769344,1.799008727,0.430914491,1.715903759,0.348198265,0.608369529,-0.385221571,-0.514751136,-0.465319633,9.404871941,0.034834046,-2.754622459,-0.607815027,7.128853321,0.428686172,0.397120565,-0.59924531,-0.533783495,-0.445281327
3882968,9.660902977,0.144830093,1.84060955,0.306769699,1.484518528,0.306385547,0.608516097,-0.385088533,-0.514630258,-0.465371668,9.443961143,0.031513419,-2.723915339,-0.293239862,7.834382534,0.4398022,0.397731125,-0.598738253,-0.533327281,-0.445964664
3883134,9.638109207,0.121687666,1.845071077,0.593145311,1.352305889,0.285562426,0.608632505,-0.384975821,-0.514511347,-0.465444207,9.452137947,0.057902481,-2.685467958,0.0336615,8.635497093,0.373042673,0.398437262,-0.598143995,-0.532861352,-0.446688235
3883301,9.637976646,0.144623384,1.883895755,0.801632702,1.184260845,0.381994247,0.608744919,-0.384874284,-0.514406085,-0.465497434,9.434965134,0.044781089,-2.689350605,0.373631716,9.383156776,0.354934454,0.399223715,-0.597485542,-0.532366097,-0.447457343
3883468,9.626582146,0.136324897,1.869071007,0.717379749,0.962979972,0.28871277,0.608847976,-0.384768277,-0.514333129,-0.465530902,9.411165237,0.062514685,-2.645859241,0.561385751,9.888113022,0.396888107,0.400086552,-0.596764266,-0.531871796,-0.448236257
3883634,9.632704735,0.144279018,1.848363161,0.819343805,0.731991708,0.360364258,0.608943105,-0.384676099,-0.514280498,-0.465540916,9.409804344,0.082850717,-2.634418488,0.686849773,10.43792915,0.4216429,0.400973648,-0.596034527,-0.531311035,-0.449078858
3883801,9.626099586,0.143878579,1.835960269,0.966181517,0.699450791,0.355113685,0.609048128,-0.384568185,-0.514243066,-0.465534151,9.424998283,0.101713493,-2.643578768,0.781731963,11.0125494,0.385977149,0.401914358,-0.595252335,-0.53072983,-0.449961841
3883968,9.650229454,0.17070435,1.810125232,1.057695627,0.641566157,0.429966807,0.609125376,-0.38449809,-0.514184058,-0.465555906,9.428483963,0.094919413,-2.619106293,0.656088829,11.43600559,0.508213818,0.402866811,-0.594475925,-0.530082524,-0.450898379
3884135,9.642686844,0.182141393,1.81071949,1.041034579,0.849784493,0.444053769,0.609242618,-0.384389818,-0.514124155,-0.465558052,9.411705017,0.126639009,-2.609993696,0.531713486,11.75830269,0.53722024,0.403854907,-0.593662918,-0.529430449,-0.451850981
3884301,9.66696167,0.197451934,1.800920367,0.98282975,0.846506059,0.326299399,0.609351993,-0.384274006,-0.514069676,-0.465570807,9.419527054,0.12077871,-2.574381828,0.317207009,11.82979965,0.306872278,0.404802769,-0.592848778,-0.528766453,-0.452847868
3884468,9.680683136,0.182853892,1.773650289,0.787558496,1.088699818,0.242878839,0.609432638,-0.38418451,-0.513960838,-0.465659112,9.395820618,0.143630877,-2.557282209,0.079002395,12.08157825,0.192569152,0.405733407,-0.592028737,-0.528072298,-0.453896612
3884635,9.680186272,0.203651324,1.744706392,0.716611326,1.083730936,0.375962466,0.609581172,-0.38404277,-0.513892055,-0.465657562,9.432689667,0.125751942,-2.55889082,-0.330711335,12.03798103,0.01327379,0.406612843,-0.591218531,-0.527369738,-0.454981267
3884801,9.701216698,0.209081277,1.736252546,0.801799119,1.218991518,0.489413857,0.609691918,-0.383957028,-0.513762593,-0.465726256,9.507022858,0.084662028,-2.562478304,-0.165086746,12.44878387,0.218943879,0.407561958,-0.590371609,-0.526650429,-0.456063807
3884968,9.694477081,0.21894756,1.715089202,0.779157519,1.339717031,0.321637869,0.609821498,-0.383827299,-0.513649762,-0.465787798,9.542092323,0.092032552,-2.536036253,0.011903509,13.4131279,0.688693881,0.408622801,-0.589491069,-0.525836468,-0.457191259
3885135,9.725610733,0.212605,1.712110162,0.370724648,1.512461901,0.25553152,0.609922528,-0.383731365,-0.513487756,-0.465913266,9.552225113,0.084450327,-2.525489569,0.513003588,14.75384235,1.264211774,0.40986672,-0.588531613,-0.524927318,-0.458357334
3885301,9.667692184,0.16918008,1.720537066,0.062181234,1.367020369,0.143949792,0.610003889,-0.383646518,-0.513338208,-0.466041446,9.636978149,0.183130234,-2.506320953,0.779081404,16.47761726,1.760087252,0.411293685,-0.587477922,-0.523887038,-0.459619254
3885468,9.699690819,0.161045715,1.730356574,-0.784875572,1.541506886,0.126456305,0.610088587,-0.383581996,-0.513148844,-0.466192216,9.615249634,0.149326041,-2.516362906,0.526821792,17.81753922,1.761342406,0.412796408,-0.586346745,-0.522746801,-0.461012453
3885635,9.747900963,0.172710091,1.787222028,-0.639894843,1.476360679,-0.147964552,0.610117495,-0.383530974,-0.512958944,-0.466405123,9.928022385,0.275702506,-2.333930016,-0.032348882,20.0915184,1.03067565,0.414373785,-0.585033536,-0.521496356,-0.462678999
3885801,9.66646862,0.159282744,1.817450762,2.188919067,0.727048576,-0.102309935,0.610261381,-0.38327238,-0.513033211,-0.466347814,10.46691513,0.528208017,-1.91209197,-2.018003941,26.41822433,-1.179442048,0.416102767,-0.583243072,-0.519908905,-0.465167612
3885968,9.339316368,0.149170816,1.839460611,7.690451622,-6.116915703,0.608448982,0.610256135,-0.383034259,-0.514053881,-0.465425491,10.41669083,0.433983803,-1.760268688,-5.751396656,35.36239243,-4.236039639,0.41797784,-0.580822229,-0.517778814,-0.4688766
3886135,9.62315464,0.150100887,1.411220551,8.395140648,-15.07565022,1.619691253,0.609671474,-0.383429945,-0.515845776,-0.463880777,9.711806297,0.064884365,-1.926653266,-6.929402828,40.10192871,-4.321028233,0.420082897,-0.578130007,-0.515259624,-0.473078996
3886301,9.761018753,0.332092524,1.7551893,7.327987194,-15.24432468,2.50117898,0.609057426,-0.38400948,-0.517521679,-0.462339133,8.764192581,-0.030656761,-2.061801195,-6.083633423,36.18230057,-1.705455184,0.422132075,-0.575832963,-0.512800694,-0.476714224
3886468,9.691174507,0.34874025,2.135431051,1.982917666,-17.2104435,2.156879663,0.607969761,-0.38516438,-0.519029379,-0.461117923,8.628568649,-9.00E-05,-1.978661418,-5.035804272,27.76388168,1.659995914,0.423872143,-0.574286878,-0.510648489,-0.479338408
3886635,9.67256546,0.237627164,1.916241527,-0.46968618,-16.12852287,1.403788567,0.60677886,-0.386395991,-0.520317674,-0.460203558,9.111966133,0.078721024,-1.888585925,-3.758977652,21.57093048,4.349831581,0.425439268,-0.573287964,-0.50873667,-0.481174946
3886801,9.75204277,0.087448448,1.497215867,-2.184981346,-10.81335163,0.098307967,0.605806947,-0.387318999,-0.521092892,-0.459830821,9.479919434,0.068143502,-1.815307498,-2.533842802,19.09344482,5.47633028,0.426998913,-0.572465897,-0.506966472,-0.482638329
3886968,9.873245239,-0.00765404,1.425002098,-1.639366269,-3.841264248,-0.301294982,0.605362833,-0.387701303,-0.521309614,-0.459847689,9.643198967,0.011114671,-1.79236424,-1.187880516,19.22043228,5.441317558,0.428673297,-0.571544945,-0.505282402,-0.484010011
3887135,9.790294647,0.069299474,1.583856583,-1.476597667,0.459280491,0.045148786,0.605266869,-0.38782075,-0.521131098,-0.460075647,9.58813858,-0.07574112,-1.807416916,0.276060432,19.88775635,5.26102829,0.430501491,-0.570468366,-0.503670752,-0.485335082
3887301,9.679821968,0.108419947,1.746204257,-2.067303658,2.489483833,0.67979306,0.60534817,-0.387889415,-0.520709395,-0.460388035,9.620045662,-0.130209401,-1.764379859,1.858069301,20.0615139,4.768329144,0.432434767,-0.569241166,-0.502197027,-0.486583054
3887468,9.718509674,0.150122374,1.728699446,-2.094222069,4.397936821,1.013590336,0.605577052,-0.387877911,-0.520081699,-0.460806221,9.679865837,-0.049037393,-1.745623589,3.109943628,20.68208885,3.813871384,0.434445113,-0.567818224,-0.500847578,-0.487843841
3887635,9.742206573,0.175025806,1.636927962,-1.49984169,6.778473854,1.02232492,0.606043816,-0.38762784,-0.519301951,-0.461282074,9.822460175,0.051336028,-1.707647324,3.310773611,22.01329994,2.55614543,0.436474532,-0.566192508,-0.499528229,-0.489272416
3887801,9.796179771,0.162214026,1.601216793,-0.034513123,9.536628723,1.211051941,0.606829524,-0.387058854,-0.51837939,-0.461764097,9.874508858,0.133326352,-1.652498126,2.688704491,23.93579674,1.073026896,0.438480198,-0.564356565,-0.498160601,-0.490991533
3887968,9.838567734,0.209613383,1.604060769,0.109680042,10.85114002,1.494226456,0.607708275,-0.386444122,-0.51730758,-0.462325126,9.840912819,0.114427827,-1.622761846,1.528063655,25.84023094,-0.255871445,0.440425843,-0.562355757,-0.496693313,-0.493028373
3888135,9.792131424,0.241392508,1.645878434,0.071184143,12.90727901,1.244220972,0.608726859,-0.385666639,-0.516070426,-0.463016719,9.860654831,0.059063409,-1.550486565,0.765994728,27.75995827,-0.525548458,0.44241941,-0.560239136,-0.495065093,-0.49528566
3888301,9.697540283,0.220693633,1.714069486,0.21347557,13.73214722,1.183083296,0.609801531,-0.384821415,-0.514766693,-0.463756502,9.788205147,0.040103998,-1.466365099,0.413915247,29.37953377,-0.066016927,0.444524586,-0.558053195,-0.493263304,-0.497660398
3888468,9.698486328,0.203072816,1.673949003,1.247793913,12.95781136,0.591480792,0.610873759,-0.383846074,-0.513666511,-0.464372933,9.702727318,0.053597976,-1.311642051,0.494678974,30.37700081,0.802288473,0.446760654,-0.555843174,-0.491324991,-0.500043094
3888635,9.688456535,0.191842914,1.673211813,2.830338955,12.45988655,-0.032438498,0.611930132,-0.382739663,-0.51273334,-0.464926541,9.711290359,0.080150843,-1.17813921,0.597245395,30.67837524,1.449434042,0.44906348,-0.553640962,-0.489314288,-0.50238961
3888801,9.771220207,0.146350414,1.559640527,1.842712879,11.67931366,-0.476844639,0.612819493,-0.381761909,-0.511809826,-0.465575814,9.798856735,0.068960115,-1.122242689,0.976225078,31.23002625,1.81378901,0.451452345,-0.551389217,-0.487257689,-0.5047189
3888968,9.810972214,0.107014731,1.625416517,2.287721157,12.85920048,-0.303946048,0.613839567,-0.380666763,-0.510810196,-0.466226339,9.870246887,0.063688353,-1.001378417,1.184380531,32.30399323,1.659830809,0.453911543,-0.549022913,-0.485149264,-0.507117629
3889135,9.749883652,0.100543208,1.728573561,2.029865503,13.51543999,0.019228747,0.614923596,-0.379561871,-0.509725332,-0.466885537,9.930420876,0.011751903,-0.910514653,1.443736196,34.19255066,1.367768645,0.456491679,-0.546467602,-0.482949018,-0.509655714
3889301,9.7853508,0.154642195,1.859925747,1.516830087,14.21717834,0.447230071,0.616058588,-0.378484696,-0.508519292,-0.467578262,10.03470135,-0.049300086,-0.800357759,2.008794308,36.99585724,1.463702202,0.459307671,-0.543659925,-0.480585158,-0.512355745
3889468,9.709653854,0.193481669,1.956047773,0.661518753,14.46528721,0.6175161,0.617175341,-0.377476186,-0.507223666,-0.468327343,10.04018402,-0.058570016,-0.627587616,3.129448175,40.59090424,1.819261432,0.462475061,-0.540518045,-0.478022099,-0.515220463
3889635,9.604311943,0.17268981,2.073389053,0.491975427,13.73213673,0.362861753,0.618208468,-0.376512259,-0.505994618,-0.469069779,9.854626656,0.051076017,-0.471252233,3.597064972,43.30400848,1.717041969,0.465842962,-0.537114918,-0.475302517,-0.518252671
3889801,9.574975014,0.166768566,2.110071182,0.719275355,12.06470776,0.083900839,0.619105279,-0.375623971,-0.504940331,-0.469734579,9.714641571,0.144634962,-0.343503237,3.341961622,44.42697525,1.247916937,0.469213605,-0.533589959,-0.472505778,-0.521400571
3889968,9.597963333,0.181254774,2.136414051,1.382145286,12.25654793,0.204690427,0.620044529,-0.374684095,-0.503894866,-0.470368594,9.63822937,0.144005463,-0.18472445,2.880724669,44.29157257,0.93084228,0.472494781,-0.530062675,-0.469690114,-0.524570107
3890135,9.642010689,0.172205538,2.168698072,1.267630935,13.62928867,0.579212368,0.621130288,-0.373658419,-0.502716482,-0.471012533,9.706001282,0.107767373,-0.046246152,2.415595055,44.06981659,1.048033953,0.475713521,-0.526569843,-0.466827124,-0.527725101
3890301,9.580486298,0.168448657,2.215180635,0.712244987,15.2841301,1.241339684,0.622336447,-0.372628361,-0.50130266,-0.471742928,9.970639229,0.065903053,0.208244592,2.138771772,44.96313858,1.403105736,0.478978425,-0.523029149,-0.463835418,-0.530920804
3890468,9.554346085,0.194056451,2.284496069,0.068379574,16.49142456,1.546963692,0.62361598,-0.371591091,-0.499717444,-0.472552329,9.979820251,0.010218322,0.50702852,2.354798794,47.07141495,1.931302428,0.482421875,-0.519321978,-0.460653216,-0.534202695
3890635,9.499450684,0.163816974,2.178337812,0.693240225,14.1935873,1.207415462,0.624735892,-0.370627731,-0.498399138,-0.473221451,9.609068871,0.021149378,0.656302452,2.785024881,46.4108696,2.025179625,0.485839933,-0.515616596,-0.457521766,-0.537376046
3890801,9.545062065,0.176314086,2.232861996,2.357221365,11.26718044,0.691011786,0.625710785,-0.369662553,-0.497497976,-0.473636568,9.393957138,0.062703595,0.801213145,2.710052252,42.76704407,1.532065392,0.488952279,-0.512144864,-0.454658866,-0.540294945
3890968,9.567819595,0.265818447,2.294851065,2.483850241,10.45615292,0.03891211,0.626574993,-0.368703842,-0.496705562,-0.474072814,9.405163765,0.106136113,0.910145402,2.547048569,37.94591141,0.952240109,0.491672426,-0.509005427,-0.452152729,-0.542890012
3891135,9.542513847,0.254036367,2.241385937,1.657878757,11.09983826,-0.231564492,0.627418637,-0.367756277,-0.4958103,-0.474629939,9.494458199,0.08446762,0.987585843,2.211133957,33.65648651,0.71626842,0.494054556,-0.506197095,-0.449931473,-0.545193851
3891301,9.529157639,0.202209696,2.288464308,1.439568758,11.98774242,-0.179890871,0.628323495,-0.366763502,-0.494820625,-0.475233674,9.708744049,0.161664441,1.063507795,1.977710485,31.01892281,1.046660066,0.496262997,-0.503623009,-0.447846413,-0.547284842
3891468,9.537301064,0.240738168,2.490299225,0.843561232,12.96728992,-0.168659747,0.62923032,-0.365783304,-0.493678331,-0.475976527,9.917711258,0.287581295,1.22020185,0.652351201,30.65619087,0.573258877,0.498303264,-0.501130342,-0.445707589,-0.549460828
3891635,9.498537064,0.208095834,2.452338934,-1.376158237,13.02249527,0.645651698,0.630096316,-0.365044087,-0.492343336,-0.476780444,9.876676559,0.239448935,1.289938211,-1.135286808,31.52184296,-0.023013089,0.500211358,-0.498646051,-0.443397999,-0.551850557
3891801,9.622676849,0.0982299,2.473187208,-2.81258297,10.35426426,3.801342249,0.630902469,-0.364851922,-0.490979522,-0.477267683,9.68836689,0.129635528,1.260344148,-2.387777805,31.59144974,0.288944274,0.502047598,-0.496254116,-0.440951049,-0.554294288
3891968,9.414997101,0.209847853,2.586354494,-0.872394383,7.337112427,4.657805443,0.631671131,-0.364740342,-0.489989609,-0.477353662,9.650495529,0.003196105,1.227638245,-2.38971138,30.85167122,1.564409733,0.503929019,-0.493991971,-0.438457042,-0.556581676
3892135,9.45473671,0.252900988,2.704679489,-1.062363744,6.910596371,2.434378862,0.632233918,-0.364522755,-0.489137262,-0.477648675,9.752012253,-0.105123967,1.208079219,-1.361665249,30.85825157,2.966427803,0.505988061,-0.491732836,-0.435936123,-0.558690131
3892301,9.417118073,0.124629349,2.675787449,-1.628327608,8.125828743,1.779487491,0.632805884,-0.364224583,-0.488166928,-0.478111267,9.794109344,-0.22137101,1.166463256,0.92687577,32.21605682,4.658237457,0.508423984,-0.489292473,-0.433371216,-0.560613513
3892468,9.488905907,0.047764093,2.734784126,-0.125182092,9.464541435,1.562496662,0.633542597,-0.36367479,-0.487190157,-0.478550225,9.814466476,-0.171743691,1.221870542,3.499599457,33.95697784,5.011625767,0.511169732,-0.486532539,-0.430852175,-0.562457323
3892635,9.502733231,0.093961187,2.925952196,-1.181693673,11.41244125,1.815781236,0.634373307,-0.363105834,-0.485942632,-0.479149908,9.829417229,-0.103056163,1.319832802,4.891363621,36.31612778,3.509667158,0.514024854,-0.48337087,-0.428367108,-0.564475596
3892801,9.496398926,0.110465355,2.980845213,-6.383752346,13.27090359,2.443613291,0.635120094,-0.362919569,-0.484131575,-0.48013413,9.807545662,-0.032996062,1.464940548,5.694444656,39.01412201,2.06323576,0.516969383,-0.479824364,-0.425836235,-0.566722989
3892968,9.466154099,-0.003053962,2.872956514,-4.061716557,14.61541843,2.524729013,0.636101127,-0.36242035,-0.482355297,-0.48099941,9.703680992,0.044568021,1.61636889,5.236681938,40.5074501,0.695856333,0.51984334,-0.47608918,-0.423237741,-0.569185376
3893135,9.520777702,0.028372901,2.834201574,-2.433080673,15.63519096,3.181503534,0.637265444,-0.361752361,-0.480552286,-0.48176527,9.660298347,0.073099397,1.785472631,4.295179844,41.48469925,0.296744108,0.5226596,-0.472302943,-0.420501471,-0.571782768
3893301,9.456799507,0.146147639,2.803658009,-1.720099211,17.15694618,3.57929492,0.638601363,-0.360935897,-0.478634566,-0.482517093,9.585651398,0.068690382,1.916826963,3.194236994,41.62496948,0.920993388,0.525440812,-0.468609452,-0.417606115,-0.574388683
3893468,9.511192322,0.139376104,2.823219299,-1.367707014,19.04353333,3.253450632,0.640076339,-0.359920949,-0.476586312,-0.483347386,9.530550957,0.09453015,2.078886747,2.082228661,40.9947052,1.433019876,0.528131127,-0.465067536,-0.41461727,-0.576959491
3893635,9.423699379,0.09126164,2.814956188,-3.067151546,20.54144478,3.167399645,0.641544044,-0.358953923,-0.474276245,-0.484391749,9.60645771,0.101562887,2.280708551,0.401795059,39.74363327,1.285886288,0.530601323,-0.461734265,-0.411580324,-0.579539001
3893801,9.374736786,0.09758351,2.773758173,-3.262807131,21.15248299,3.016560078,0.643035889,-0.357943535,-0.471903086,-0.485477895,9.552172661,-0.008354781,2.408258677,-0.617154002,38.92071533,0.981746316,0.532910705,-0.45851472,-0.408528805,-0.582129598
3893968,9.475650787,0.106658623,2.796328306,-2.611653805,20.31820679,2.265542507,0.644464135,-0.356871158,-0.469694853,-0.486513823,9.423887253,-0.042857472,2.47687602,-0.886575043,37.39289474,0.482347101,0.535052955,-0.455401033,-0.405593783,-0.584655643
3894135,9.444395065,0.087166294,2.945525885,-1.378285527,21.09721947,1.698681593,0.64595294,-0.355591536,-0.467523485,-0.487566859,9.434118271,-0.046837706,2.476351261,-0.689407289,35.93919754,0.207162842,0.537084341,-0.452365935,-0.402795285,-0.58707881
3894301,9.352333069,0.080576323,3.082673788,-0.258509517,23.7786293,1.345508337,0.647611201,-0.353999704,-0.465183377,-0.488762319,9.642179489,-0.027751932,2.45438242,-0.585521877,36.99824905,-0.05469618,0.539147377,-0.449204564,-0.399929404,-0.589569509
3894468,9.362474442,-0.020989541,3.21390152,0.088908322,27.96702385,1.478490591,0.649604321,-0.352072746,-0.462468475,-0.490083635,9.715280533,-0.047629334,2.487313032,-0.493854165,40.6720047,-0.659223497,0.541360319,-0.445672572,-0.396811515,-0.592322528
3894635,9.393958092,-0.003976107,3.401000977,0.084067568,31.05974579,1.642170072,0.651790917,-0.349934876,-0.459439605,-0.491558313,9.590888977,-0.170087665,2.544486046,-0.104385301,44.62781906,-1.415534258,0.543739855,-0.441709995,-0.393451333,-0.595344901
3894801,9.307218552,0.066966839,3.497504234,-1.154957414,30.9538269,1.928956628,0.653922081,-0.347927302,-0.45631212,-0.493063718,9.402827263,-0.172783986,2.566251755,0.767074406,47.44133759,-2.238695621,0.546240449,-0.43737039,-0.389980912,-0.598534644
3894968,9.326011658,0.045969546,3.535262823,-0.022244716,33.29880524,1.247272968,0.656207919,-0.345588118,-0.453068405,-0.494660795,9.418791771,-0.044323992,2.686434507,1.40209651,50.07484436,-3.348544359,0.548806131,-0.432668865,-0.386409163,-0.601911545
3895135,9.182179451,0.009320557,3.51779294,2.88284421,36.29904556,0.196008474,0.658738434,-0.342676193,-0.449788123,-0.496314079,9.530830383,0.050498042,2.873895884,1.742557645,52.67518997,-4.155636787,0.55143708,-0.427645445,-0.382691383,-0.605462015
3895301,9.245212555,0.042907123,3.552150965,4.73629427,39.38876343,0.064742856,0.661523879,-0.339346677,-0.446335822,-0.498010576,9.654079437,0.234140441,3.217738152,1.940139532,57.38119888,-4.030256271,0.554316282,-0.422173083,-0.378583968,-0.609243453
3895468,9.205785751,0.075803049,3.516341448,2.69658947,38.71629333,0.014106268,0.664141357,-0.336247176,-0.442789823,-0.499791443,9.119235039,0.257951587,3.513178825,1.749041557,57.99362183,-2.658027887,0.55729872,-0.41670838,-0.374302596,-0.612919271
3895635,9.255214691,0.07024961,3.579722643,2.839480877,34.29031754,0.942544878,0.66652894,-0.33350578,-0.43962568,-0.501240969,8.673748016,0.244275779,3.786856174,1.971101642,51.86236954,-0.129396588,0.560150146,-0.411882102,-0.370362461,-0.615968227
3895801,9.043678284,0.153141394,3.563522816,-0.486758292,31.96480751,2.485971212,0.668702126,-0.33134827,-0.436361343,-0.502627909,8.535721779,0.214243144,3.893120766,1.756024361,43.31663895,1.98819232,0.56269145,-0.407930791,-0.366954654,-0.618316472
3895968,8.885154724,-0.017583981,3.457641363,-4.585805416,32.97359085,3.607389688,0.670803547,-0.329582036,-0.432635903,-0.504206777,8.870619774,0.183086306,4.00613451,1.114343047,35.62362671,2.914885521,0.564849257,-0.4047575,-0.364051282,-0.620147943
3896135,8.79479599,0.014973724,3.684356689,-4.153949738,35.08844376,4.022447109,0.673071742,-0.32763809,-0.428707868,-0.505803823,9.348053932,0.19226712,4.199626446,-0.581372201,33.70413589,2.512571096,0.566755056,-0.401863635,-0.361167312,-0.621974766
3896301,8.929902077,0.024722377,3.894135952,-2.599060535,36.12098694,3.609729767,0.675419033,-0.325438589,-0.424797922,-0.507391036,9.246958733,0.080439389,4.304662228,-1.953706503,34.36639786,2.026901245,0.568557382,-0.398986876,-0.358125061,-0.623937905
3896468,9.038142204,0.043231402,4.219881535,-1.097969413,33.1532402,3.143862486,0.677600801,-0.323274285,-0.421303034,-0.508777618,9.006011009,0.007203795,4.44024992,-2.321698189,33.8529129,1.444408298,0.570244968,-0.396146476,-0.355117053,-0.625923932
3896635,8.898058891,0.181259811,4.428594589,-1.536228895,29.30550766,2.293067217,0.679448545,-0.321378827,-0.418187231,-0.510083199,8.660840034,-0.000198596,4.61577177,-2.318123102,29.84624672,0.268876582,0.571607411,-0.393600255,-0.352500826,-0.627763569
3896801,8.812765121,0.064172626,4.327562332,-3.482323408,25.56048965,1.71387136,0.680923283,-0.31991145,-0.415317982,-0.511381924,8.670829773,-0.131707698,4.795483589,-1.239030004,25.34589386,-0.744024992,0.572700739,-0.391314864,-0.350407571,-0.629365921
3896968,8.644456863,-0.051965997,4.236035824,-3.674917221,23.78351974,1.33786273,0.682244062,-0.318567872,-0.412623197,-0.512640119,8.621808052,0.042644184,4.849831104,-0.080872223,21.20065689,-1.320900083,0.573591411,-0.389276475,-0.348791212,-0.630715072
3897135,8.561655045,-0.101910636,4.388497353,-1.965547442,22.09191704,0.785459518,0.683493078,-0.317144603,-0.410245478,-0.513765812,8.593943596,0.085111178,4.845425129,-0.004956063,18.26660538,-1.408469439,0.574326277,-0.38749069,-0.347426474,-0.631898284
3897301,8.496544838,-0.109554343,4.518226624,-0.654943287,19.81819344,0.84625119,0.684665084,-0.315761983,-0.408185154,-0.514697313,8.672628403,0.092447191,4.796345234,-0.25549975,16.72087669,-0.408292443,0.575058103,-0.385913342,-0.346107244,-0.63292104
3897468,8.43815136,-0.112773485,4.707548618,-0.619840801,18.2933197,0.802081704,0.685739875,-0.314484954,-0.406277627,-0.515556872,8.692146301,0.078405268,4.780630589,-0.531502366,16.5414257,0.864058018,0.575879812,-0.384435654,-0.344702959,-0.633838892
3897635,8.426776886,-0.103034124,4.873130798,-0.66763413,17.67194176,0.777813673,0.686770022,-0.313255042,-0.404425442,-0.516389847,8.686418533,0.086987711,4.802206993,-0.744677246,17.97893906,1.01542294,0.576772451,-0.382847071,-0.343147069,-0.634832084
3897801,8.437763214,-0.108791813,5.054686546,-1.503863931,17.87695885,0.922525465,0.687781632,-0.312098622,-0.402478874,-0.517264009,8.651230812,-0.085400008,4.836285591,-1.189813852,19.49796867,0.436652303,0.577658772,-0.381122768,-0.341451645,-0.635976851
3897968,8.355003357,-0.12122827,5.12655735,-2.393726826,18.17830658,1.249075055,0.688791513,-0.311023802,-0.400415003,-0.51816839,8.532959938,-0.127198562,4.924741268,0.025286179,20.61146164,-0.206758842,0.5786044,-0.379157752,-0.339806378,-0.637171924
3898135,8.320541382,-0.072172783,5.150624752,-1.176392555,18.20015335,0.983445466,0.689834535,-0.309805989,-0.398447037,-0.519026697,8.453764915,-0.039306648,4.986431122,0.591788709,21.23644066,-1.276551843,0.57950902,-0.377030075,-0.338214844,-0.638457894
3898301,8.267211914,-0.16579552,5.18073988,-0.411481291,18.85584068,0.489990681,0.690909147,-0.308429122,-0.396487951,-0.519917011,8.475530624,0.057861414,5.100904942,0.800302088,20.97972107,-2.276780605,0.580315292,-0.374854684,-0.336714208,-0.639798522
3898468,8.229680061,-0.13954629,5.14145422,1.031098127,19.11223984,0.401870191,0.692052782,-0.306879014,-0.394610167,-0.520741045,8.480101585,0.091564193,5.189423561,0.486904621,20.88217545,-2.31002593,0.581091821,-0.372707874,-0.33518967,-0.641146719
3898635,8.239154816,-0.121289037,5.192581177,2.011515141,19.28585625,0.628773332,0.693263173,-0.305226356,-0.392773658,-0.521490097,8.413815498,0.146969751,5.248835087,0.105185091,19.72129631,-1.206462145,0.581889629,-0.370750278,-0.333663464,-0.642352998
3898801,8.241203308,-0.091832757,5.194717884,1.374616027,18.85896683,0.671572208,0.69441998,-0.303669155,-0.390924931,-0.522248924,8.458211899,0.232249215,5.254975319,-0.715517223,18.34409904,-0.340687722,0.582653403,-0.369027793,-0.332126558,-0.643448234
3898968,8.25449276,-0.120705329,5.181609154,0.90549314,18.48646545,0.644614756,0.695528328,-0.302182674,-0.389074743,-0.523017108,8.490321159,0.191209525,5.279747486,-1.572096467,16.91757202,0.484227806,0.583375573,-0.367546648,-0.330583245,-0.644435525
3899135,8.268583298,-0.104649141,5.206079006,1.179472566,17.88696098,1.172313571,0.696650684,-0.300741196,-0.387278885,-0.523686588,8.680058479,0.080269694,5.336791039,-1.379168272,16.44185066,1.23722899,0.5841524,-0.36612612,-0.329055607,-0.645321667
3899301,8.297279358,-0.110034809,5.223938942,1.241263151,17.01908875,1.625300407,0.697757363,-0.299382538,-0.385552317,-0.524265409,8.629574776,0.099293329,5.389838696,-0.548880696,16.28948021,1.449417591,0.58498317,-0.364656836,-0.327605188,-0.646138787
3899468,8.350541115,-0.128220215,5.253779411,1.223410726,14.79337406,1.90759027,0.698756456,-0.29820928,-0.3840352,-0.524716854,8.44388485,0.014976471,5.469564915,0.003989181,14.75796413,0.9589082,0.585721195,-0.363258302,-0.326360673,-0.646887183
3899635,8.347100258,-0.066260785,5.246555328,0.466106534,11.80368805,2.438541412,0.699593663,-0.297369659,-0.382739037,-0.525024712,8.35798645,-0.020120746,5.469815254,0.777454793,11.58465004,0.947945774,0.586347044,-0.362089455,-0.325457096,-0.647430539
3899801,8.25633812,-0.016767718,5.216266632,0.45808965,9.476056099,2.311335802,0.700289369,-0.296700656,-0.381683707,-0.525244057,8.389762878,0.137292743,5.401120186,1.233014941,8.427740097,0.834519565,0.586836338,-0.361171842,-0.324869156,-0.647794783
3899968,8.267251968,-0.044057172,5.172755718,0.736320496,8.761217117,1.78409791,0.700915396,-0.29602769,-0.380744755,-0.525470018,8.386058807,0.24443993,5.225252628,0.376705259,6.870165825,0.064255871,0.587133706,-0.360436261,-0.324372977,-0.648183525
3900135,8.278936386,-0.016717704,5.218835354,1.077827454,8.687835693,1.743540049,0.701547384,-0.295322895,-0.379841179,-0.525677085,8.513648987,0.242269456,5.137966633,-0.590718508,5.948441505,-0.361267179,0.587295413,-0.359849364,-0.32388705,-0.648606062
3900301,8.232798576,-0.047257863,5.335791111,1.236011505,9.162643433,2.1429317,0.702241242,-0.294587165,-0.378884137,-0.525854349,8.795351028,0.245050877,5.285898209,-1.654388547,7.846215725,0.367228568,0.587557614,-0.359208584,-0.32310167,-0.649115264
3900468,8.22109127,-0.028525334,5.392211914,1.292961359,8.312994003,2.20942235,0.70289433,-0.293913245,-0.378014654,-0.525984466,8.4117136,0.200256214,5.340279102,-2.254058599,8.584807396,2.10172081,0.587984741,-0.358630925,-0.322107136,-0.649542093
3900635,8.316732407,-0.081619091,5.351198196,0.931463659,6.126616478,2.045308828,0.703398347,-0.293433666,-0.377347589,-0.526057601,8.319947243,0.220562369,5.364106178,-3.211244106,6.589937687,2.921775579,0.588344514,-0.358361006,-0.321149856,-0.649839222
3900802,8.152240753,-0.034434065,5.349822044,-1.282658458,5.085868835,1.748239756,0.703727067,-0.293243825,-0.376630276,-0.526237667,8.360649109,0.109700136,5.346343517,-3.945125103,4.400371552,2.82808423,0.588553727,-0.358355343,-0.320315421,-0.650064647
3900968,8.178338051,-0.060481723,5.239566803,-1.161920309,5.314936638,1.552148938,0.704057872,-0.293012768,-0.375906944,-0.526440978,8.523137093,-0.042362217,5.334690571,-3.226227045,3.659831047,2.377607822,0.588722587,-0.358336836,-0.31963557,-0.650256515
3901135,8.180287361,-0.06165402,5.339408875,-0.736621261,5.749212742,1.411471367,0.704418898,-0.292697221,-0.375178188,-0.526653528,8.481113434,-0.151710123,5.26889801,-1.791403651,4.623304367,1.420217991,0.588920057,-0.358060747,-0.319058746,-0.650513172
3901302,8.273190498,-0.103686944,5.367868423,0.098359182,5.447559357,1.52756083,0.704806983,-0.292325258,-0.374539375,-0.526795447,8.417629242,-0.23240146,5.281511307,0.619065285,4.664091587,1.443755746,0.589247048,-0.357576847,-0.318704784,-0.650656641
3901468,8.15527153,-0.127081901,5.516976833,-0.280292571,4.969959259,1.523693204,0.705151796,-0.292028666,-0.373920947,-0.526937604,8.502411842,-0.075177133,5.333024979,2.667505026,5.182723522,1.337808967,0.589694738,-0.356864959,-0.3185049,-0.65073967
3901635,8.194537163,-0.154477239,5.464725971,-0.520065904,5.156701565,0.506997049,0.705418646,-0.291686624,-0.373307377,-0.52720505,8.461409569,0.084077418,5.367646694,3.292417288,5.96329689,0.567058921,0.590137482,-0.355990857,-0.318337023,-0.650899231
3901802,8.217684746,-0.143727869,5.495060444,0.57579273,5.491382599,0.381686896,0.705740154,-0.291199625,-0.372748256,-0.527439535,8.388792992,0.170538709,5.410969734,2.849612236,6.286146164,0.556698561,0.590570033,-0.355123818,-0.318100363,-0.651096225
3901968,8.14263916,-0.06439843,5.511764526,0.555494785,5.204469681,0.624175191,0.70606339,-0.290749818,-0.37220639,-0.527637601,8.333095551,0.249086589,5.453161716,1.459738374,5.822401047,0.941964746,0.590944648,-0.3544375,-0.317752361,-0.651300311
3902135,8.126008987,-0.090518042,5.498064518,-0.022590401,4.923650742,0.76104933,0.706357002,-0.29038772,-0.371642858,-0.52784121,8.334602356,0.205045626,5.533922672,-0.046423018,4.680260181,1.741484404,0.591263294,-0.354024827,-0.317318976,-0.65144676
3902302,8.083773613,-0.074556321,5.495581627,-0.189111397,4.436561584,0.96464473,0.706632674,-0.290090829,-0.371107787,-0.528012335,8.355853081,0.186374798,5.62092638,-1.205896974,3.643412828,1.754758,0.591474712,-0.353809834,-0.316864282,-0.651592791
3902468,8.10965538,-0.099822275,5.493602753,-0.146709561,3.806323051,1.01613915,0.706879437,-0.289840221,-0.370638192,-0.528149247,8.211948395,0.045503218,5.607199669,-1.584696054,2.202915907,1.945162773,0.591618001,-0.353771776,-0.31648764,-0.651666641
3902635,8.126476288,-0.095479093,5.504743099,0.321458548,2.936233282,1.570961356,0.707141459,-0.289638042,-0.37027052,-0.528167129,8.254009247,-0.031152146,5.570822239,-1.014134884,0.028871916,2.398354053,0.591733634,-0.353910685,-0.31632781,-0.651563764
3902802,8.010716438,-0.131072447,5.530650616,-0.225481406,2.420048237,1.640051723,0.707357883,-0.289535403,-0.369911104,-0.528185666,8.459719658,-0.020000147,5.577031612,-0.541798234,-0.48160845,2.216363192,0.591833174,-0.354048789,-0.316265076,-0.651428878
3902968,8.0645895,-0.193481684,5.52566576,-0.931457162,2.035140514,1.621649027,0.707522273,-0.289533675,-0.369537264,-0.528227925,8.364727974,-0.029841803,5.538399696,-0.168838918,0.234106466,2.032604456,0.591967404,-0.354078829,-0.316185087,-0.651329279
3903135,8.135008812,-0.174492165,5.626979828,-1.140572071,1.116220713,1.772405267,0.70764029,-0.28963241,-0.369235039,-0.528227031,8.277166367,-0.08463414,5.49554348,0.222644806,-0.240055025,2.668568134,0.592160285,-0.35414958,-0.316149801,-0.651132524
3903302,8.06170845,-0.176144063,5.636834145,-0.813804984,0.413741082,1.77722013,0.707734883,-0.289751709,-0.369029433,-0.528178692,8.244080544,-0.03378265,5.512687683,0.902533829,-1.089820266,3.070623159,0.592387557,-0.3542611,-0.316230655,-0.650825977
3903468,8.031077385,-0.225919709,5.597157001,-0.558011055,0.417685509,1.43905592,0.707814813,-0.289825916,-0.36885643,-0.528151691,8.350440979,-0.045066781,5.579573631,1.104272485,-2.620653629,2.918663502,0.592540383,-0.354493022,-0.31646952,-0.65044421
3903635,8.002664566,-0.23040089,5.490016937,0.480398208,0.47749117,1.375831127,0.707937181,-0.289785355,-0.368758827,-0.52807796,8.381402016,-0.026933679,5.62519598,1.448789001,-3.235678673,2.917651653,0.59268266,-0.354753435,-0.316793323,-0.650015056
3903802,8.129742622,-0.183150172,5.481839657,0.832560062,-0.299578965,1.414851904,0.708036005,-0.289770693,-0.368766218,-0.527948558,8.181159973,0.021949776,5.593100548,1.232143879,-4.785413265,2.241348267,0.592678249,-0.355147451,-0.317264199,-0.649573982
3903968,8.087962151,-0.166623101,5.554738522,0.593350232,-1.297360063,1.440106034,0.70807302,-0.289859027,-0.368856996,-0.52778697,8.123605728,0.004782439,5.574340343,0.593235195,-7.9947896,1.849820137,0.592455387,-0.355880558,-0.317970216,-0.649030566
3904135,7.974480152,-0.120742001,5.531440735,1.126837015,-2.365806818,1.102492213,0.708049178,-0.289956331,-0.3691127,-0.52758652,8.274563789,-0.026786657,5.619147301,0.198460087,-11.54286766,2.178297043,0.592078149,-0.356996208,-0.318925858,-0.64829272
3904302,7.96806097,-0.156885266,5.446423054,2.505684376,-2.77115345,0.692804396,0.708030343,-0.28992033,-0.369532883,-0.527337432,8.584863663,0.110545591,5.641842365,-0.357937664,-12.25718212,1.849974513,0.591606557,-0.358210146,-0.3199054,-0.64757067
3904468,8.102702141,-0.153064132,5.415687084,3.406315804,-3.519761562,0.093415909,0.70796299,-0.289816767,-0.370124251,-0.527070045,8.261136055,0.087808222,5.522807598,-1.653493166,-13.37081337,0.713141322,0.590906084,-0.359585732,-0.320916593,-0.646947265
3904635,8.167192459,-0.124268852,5.580806255,3.039965153,-5.698083401,0.213296205,0.707771361,-0.289924681,-0.370906949,-0.526717901,8.177779198,-0.003094219,5.455953598,-2.205319405,-16.50097084,0.591826797,0.590016425,-0.361294836,-0.32214886,-0.64619422
3904802,8.012373924,-0.078397512,5.530117989,2.77050066,-7.006009579,0.289129019,0.707502842,-0.290164143,-0.371799856,-0.526316941,8.753770828,0.035212953,5.540033817,-2.536454678,-18.09201622,0.55635339,0.589027941,-0.363177001,-0.323484957,-0.645372927
3904968,8.016936302,-0.145896032,5.381328583,3.089910269,-7.827191353,-0.068385914,0.707175314,-0.29041335,-0.372816026,-0.525900662,8.643295288,0.029110191,5.512374401,-3.135215044,-16.25982475,-0.648488522,0.587976992,-0.364879489,-0.324669242,-0.644776225
3905135,8.345198631,-0.149222404,5.465600014,3.443301916,-9.788344383,-0.102002606,0.70675236,-0.290774167,-0.374061704,-0.525385082,8.42195034,0.035408735,5.355345249,-3.834851503,-15.93263721,-1.778496146,0.586794794,-0.366555035,-0.325817198,-0.644323289
3905302,8.19794178,-0.04168579,5.587676048,2.204095602,-13.00115395,0.010405164,0.706108391,-0.291513771,-0.375537515,-0.524787903,8.342748642,-0.005353332,5.264354229,-4.520750046,-17.57491875,-2.149561405,0.585459769,-0.368422538,-0.327057928,-0.64384383
3905468,8.072847366,-0.077716284,5.504510403,1.138786197,-14.34290409,-0.024280857,0.705340624,-0.292461544,-0.377069324,-0.524194419,8.476411819,-0.039156489,5.298270226,-4.80388546,-19.61954689,-2.101204872,0.584012508,-0.370504469,-0.32844007,-0.643259704
3905635,8.070725441,-0.130335912,5.367134094,2.416822672,-15.14477634,-0.563467145,0.704539239,-0.293307722,-0.378801376,-0.523550093,8.506249428,-0.03919439,5.225866318,-4.926085949,-20.8922863,-2.136973381,0.582489371,-0.372710228,-0.329916507,-0.642610669
3905802,8.186410904,-0.083843216,5.306883335,2.799618244,-15.46556473,-1.040914059,0.703696728,-0.294111311,-0.380613357,-0.522917688,8.574401855,-0.1221461,5.15703249,-4.466477871,-21.54332542,-1.666172981,0.580998361,-0.374956399,-0.331461102,-0.641858459
3905968,8.239845276,-0.031561814,5.279659271,2.641997337,-15.87179565,-1.474473238,0.702788234,-0.294936419,-0.382471681,-0.522318661,8.494127274,-0.076119676,5.070854664,-3.471859217,-22.52017593,-0.949106038,0.579575777,-0.37724039,-0.333137274,-0.640937805
3906135,8.222586632,-0.055286031,5.329888344,0.253790051,-16.24059105,-1.387236357,0.701759458,-0.296036899,-0.384180337,-0.521825016,8.554394722,0.027097229,5.055308342,-3.102395535,-23.71178436,-0.99777025,0.578104913,-0.379597396,-0.334946066,-0.639931083
3906302,8.153449059,-0.172165915,5.254733562,-0.817980886,-17.82526779,-1.453944921,0.700586557,-0.297360808,-0.385969788,-0.521327555,8.538359642,-0.007552099,5.026165485,-3.187021255,-25.70542717,-1.368848324,0.576490283,-0.382123441,-0.336929828,-0.638842165
3906468,8.211231232,-0.212828293,5.200098991,-0.073060326,-19.75518036,-1.402796745,0.699334264,-0.298756391,-0.388005912,-0.520699263,8.425469398,-0.076874956,5.024095058,-2.958250284,-29.23552895,-1.37987566,0.574705184,-0.384950757,-0.339224666,-0.637537181
3906635,8.26559639,-0.137709811,5.080173492,0.857572138,-21.45049286,-1.535688758,0.698013723,-0.300176144,-0.390286386,-0.519949734,8.465803146,-0.088019557,4.9874897,-2.693519592,-34.53791046,-1.568348885,0.572644234,-0.388228983,-0.341988415,-0.635925293
3906802,8.251272202,-0.133105651,4.991748333,3.161336184,-22.16511536,-1.962013006,0.696713507,-0.301388174,-0.392828733,-0.51907742,8.689592361,-0.06507647,4.9558568,-2.371415377,-38.20999527,-1.879956245,0.570374846,-0.391792417,-0.345093608,-0.634099185
3906968,8.32125473,-0.074785724,4.961027622,4.974757195,-22.76844978,-2.371023178,0.695419431,-0.302436292,-0.39558199,-0.51811111,8.89857769,-0.023218445,4.789856911,-2.582222939,-39.40629196,-3.007895231,0.567912102,-0.395413548,-0.348329812,-0.632289886
3907135,8.436055183,-0.080055483,4.955863953,4.490920544,-24.18320274,-2.44092083,0.694015384,-0.303629518,-0.398442566,-0.517102838,8.715946198,-0.06265118,4.627989292,-2.21261692,-40.80729675,-3.233019829,0.565359712,-0.399107575,-0.351715446,-0.6303792
3907302,8.493558884,-0.048550606,4.964391708,4.749394894,-26.87524796,-2.421968937,0.692447066,-0.304998428,-0.401585579,-0.515967309,8.389313698,-0.025298232,4.533112526,-1.753022671,-45.62455368,-2.851495266,0.562600732,-0.403208584,-0.355501473,-0.628109753
3907468,8.467630386,-0.072288275,4.823864937,6.137007713,-29.53631401,-2.440167665,0.69077307,-0.306419909,-0.405094832,-0.514623821,8.146597862,-0.038356882,4.403786182,-1.547958136,-54.64620209,-2.66214776,0.559375584,-0.408103943,-0.360012114,-0.625253201
3907635,8.363605499,-0.086070135,4.6419034,6.221581936,-29.38622284,-2.907678366,0.689062297,-0.307788879,-0.40860799,-0.51332128,9.004489899,0.092448018,4.298235893,-2.188494205,-61.90901947,-3.61015892,0.555606842,-0.413631022,-0.365082771,-0.62203294
3907802,8.396185875,-0.017412418,4.468369961,6.787916183,-27.7884388,-2.94184494,0.687460721,-0.308974981,-0.411997318,-0.512045503,9.423069954,-0.023437858,4.017691135,-2.331758976,-60.14728165,-4.418734074,0.551806211,-0.418934077,-0.370016694,-0.618944168
3907968,8.925200462,0.045828585,4.426870346,8.268015862,-28.8420887,-2.725455523,0.685866475,-0.310100824,-0.415584624,-0.510601878,9.324800491,0.008303355,3.724627018,-1.950071096,-57.13222504,-4.660067081,0.548129082,-0.42389217,-0.374729902,-0.615993083
3908135,8.764562607,0.107560687,4.629343987,5.771555424,-32.52576828,-2.609790325,0.683909714,-0.311749548,-0.419341505,-0.509148777,8.917047501,0.049203962,3.49296093,-1.827282071,-56.42168808,-4.671719551,0.544459462,-0.428748071,-0.379372209,-0.613038182
3908302,8.719280243,0.13221401,4.586527348,6.086239338,-36.17187119,-2.795856714,0.681733131,-0.313618392,-0.423482299,-0.507489979,8.784118652,0.160221517,3.334235907,-2.008906603,-60.076931,-4.490514278,0.540553629,-0.433923721,-0.384248465,-0.609807432
3908468,8.736895561,0.079542659,4.495063782,5.730618954,-36.08469772,-2.845123529,0.679519355,-0.315500796,-0.427580178,-0.505853772,9.193680763,0.205197334,3.182138681,-3.401465178,-62.78979492,-5.334405422,0.536289811,-0.439367533,-0.389236391,-0.606501877
3908635,8.816725731,0.05020785,4.260644436,4.486249447,-33.69630814,-2.557297468,0.677423537,-0.317338377,-0.431327134,-0.504332006,9.715340614,0.168600306,3.003139973,-4.039304256,-60.90022278,-5.262839317,0.532054067,-0.444663018,-0.393984199,-0.603299022
3908802,8.98993969,0.14009437,4.193461418,5.264857769,-32.27909088,-2.097970009,0.675442457,-0.319020301,-0.434956968,-0.502808213,9.703448296,0.077956401,2.766524315,-4.267432213,-56.76268387,-4.515711784,0.528066158,-0.449624181,-0.398314744,-0.600274682
3908968,9.043294907,0.145344272,4.16100502,2.282913208,-32.56071472,-1.64806819,0.673323393,-0.321036428,-0.43836686,-0.501404047,9.186899185,-0.055600606,2.565003157,-3.16945219,-55.31099319,-3.525933266,0.524284661,-0.454403013,-0.402538508,-0.597165287
3909135,9.091212273,0.235059008,4.149537563,-1.9339329,-33.88796234,-1.265733361,0.670945346,-0.323582172,-0.441569299,-0.500143707,8.817446709,-0.043636501,2.338835955,-1.22241962,-59.21878052,-3.172927618,0.520397425,-0.459363252,-0.407177597,-0.593614697
3909302,9.221731186,0.340274423,4.039620399,-5.50129509,-32.15378189,-1.037587166,0.668510973,-0.326357573,-0.444321156,-0.499161929,8.995529175,0.232570097,2.196442127,-0.380840898,-65.13451385,-4.298912048,0.516076505,-0.464667439,-0.412378371,-0.58965534
3909468,9.020647049,0.163100347,3.805308342,-6.237209797,-28.25807381,-1.103449583,0.666278124,-0.328909606,-0.44663626,-0.498405546,9.552038193,0.367873877,2.079722404,-1.546084762,-67.80827332,-6.739502907,0.511257827,-0.470099002,-0.417806119,-0.585713565
3909635,9.082322121,-0.031607982,3.609009266,-5.136562347,-25.35558128,-0.630919099,0.664296925,-0.331173837,-0.448717386,-0.497680902,9.98138237,0.10539832,1.92529273,-1.849751592,-65.45269775,-7.019343853,0.506487906,-0.475291729,-0.423012972,-0.581917346
3909802,9.237153053,0.146993458,3.560741901,-3.713350296,-24.36773109,0.299240232,0.662513793,-0.333284974,-0.450757086,-0.496804506,9.711575508,0.123114385,1.720179081,-0.444578767,-63.29928589,-4.585736752,0.502108395,-0.480307877,-0.427974582,-0.577952504
3909968,9.120538712,0.1248601,3.664505482,-2.895151377,-25.74252892,0.07569211,0.660649717,-0.335399687,-0.452992857,-0.495829225,9.380155563,0.207656339,1.48732686,0.78630203,-64.33421326,-1.772552609,0.497943491,-0.485456347,-0.432881892,-0.573583424
3910135,9.060523033,0.081879847,3.63161397,0.02043259,-28.09533882,-1.323834538,0.658658922,-0.337307751,-0.455725431,-0.49467805,9.269165039,0.434935451,1.322822332,1.099282861,-68.04173279,0.705545366,0.493727237,-0.491003484,-0.437868744,-0.568700194
3910302,9.215229988,0.000852018,3.468880653,1.326811433,-26.952528,-2.001214743,0.656752288,-0.338957518,-0.458468765,-0.493549407,9.647732735,0.557643056,1.102638125,-0.11344061,-70.3433609,1.020715833,0.489252865,-0.496799171,-0.442854494,-0.563650787
3910468,9.302834511,0.028169613,3.293219805,1.071157098,-23.92822456,-1.187406898,0.655084074,-0.340465158,-0.460858196,-0.492501974,9.919157028,0.287739664,0.879618049,-0.996158779,-69.23429871,1.625185251,0.484783411,-0.502555192,-0.447600782,-0.558638513
3910635,9.384421349,0.071275853,3.298574924,-2.213248014,-21.24324226,0.250627041,0.653527856,-0.342187703,-0.462680519,-0.491666347,9.736456871,0.128259137,0.690191567,0.186303377,-67.92359924,3.588121653,0.480596066,-0.508200645,-0.452163339,-0.55345118
3910802,9.24779892,0.138286069,3.300246,-4.680114746,-22.9062748,0.251779705,0.65173173,-0.344260454,-0.46448037,-0.490905881,9.428770065,0.087737583,0.453392208,1.690396905,-69.70278168,5.469846249,0.476505697,-0.513958335,-0.456786901,-0.547845781
3910968,9.253536224,0.091379568,3.198375225,-4.586835384,-26.08370018,-0.308953911,0.649675488,-0.346509665,-0.466609687,-0.490028948,9.37319088,0.175224915,0.203705415,2.927529573,-73.11425781,6.228160381,0.472289622,-0.519898474,-0.461639464,-0.541790664
3911135,9.404667854,0.13609156,3.086315393,-3.800548315,-23.88903999,-0.957891345,0.647750497,-0.348480791,-0.468613416,-0.489266872,9.696268082,0.255167931,-0.049953185,3.135420799,-74.36382294,6.162350655,0.467944771,-0.525859773,-0.466546357,-0.535568535
3911302,9.381528854,0.069290638,3.089311838,-2.02622366,-20.51872444,-0.980212331,0.646136463,-0.350040257,-0.470422566,-0.488551199,9.881124496,0.178158373,-0.279872626,3.134726286,-72.38144684,5.86813879,0.463656425,-0.531588137,-0.471288204,-0.529456556
3911468,9.498373985,0.098433368,3.021713495,-1.090871692,-17.72156143,-0.003688233,0.644824564,-0.351378232,-0.471981525,-0.48781985,9.811691284,0.088500142,-0.48732689,3.719932318,-70.19425964,6.259245396,0.459541976,-0.537079751,-0.475847125,-0.523389101
3911635,9.344753265,0.08686582,3.088077545,-2.474842072,-16.4349041,0.623138309,0.643572748,-0.352795422,-0.473287642,-0.487184167,9.854427338,0.078507029,-0.643983603,4.342417717,-68.32543182,6.996091366,0.455613524,-0.542385221,-0.480222821,-0.517320752
3911802,9.314277649,0.079919145,3.069202662,-2.211761713,-18.17523003,0.462725997,0.642205656,-0.354295909,-0.474782079,-0.486444682,9.995503426,0.106155813,-0.811005235,4.651650429,-65.17172241,7.296483517,0.451907963,-0.547403693,-0.484343618,-0.511409402
3911968,9.444939613,0.148006544,2.954469919,-0.739631295,-15.23369026,0.61992389,0.641112804,-0.355464309,-0.476090491,-0.485754579,9.920109749,0.016445911,-0.988997757,4.795972347,-61.27184677,6.741206169,0.44840768,-0.552037954,-0.488222092,-0.505790532
3912135,9.398762703,0.143047556,3.007982016,0.228459001,-13.07215309,0.692599773,0.640235782,-0.356388032,-0.477264494,-0.485081732,9.656775475,-0.056839157,-1.109559536,6.012446404,-59.09519196,6.364471912,0.445096225,-0.556364238,-0.492040545,-0.50024426
3912302,9.272055626,0.216766968,3.076982737,-0.243077531,-15.39510155,0.836645901,0.639173865,-0.357530653,-0.478609532,-0.484315753,9.568761826,-0.005801812,-1.151087403,6.831293106,-59.08080292,5.841285706,0.44178021,-0.560558498,-0.495923132,-0.49463585
3912468,9.211051941,0.116286792,2.924128771,-1.32385838,-20.24952126,0.687221825,0.63769871,-0.359103888,-0.480331928,-0.483390272,9.521312714,0.002940666,-1.289182901,7.098223686,-60.46092224,5.182099819,0.438304782,-0.564745128,-0.49992919,-0.488899738
3912635,9.58749485,0.013713353,2.514310837,-0.999997854,-18.55874252,0.065510958,0.63630873,-0.360482424,-0.481947601,-0.48258692,9.671887398,-0.016726967,-1.4836303,7.477028847,-60.69418335,5.075485706,0.434800863,-0.568872392,-0.503946006,-0.483084768
3912802,9.543961525,0.160751849,2.544643641,1.497441173,-14.41916656,0.739752948,0.635391653,-0.361382395,-0.48332116,-0.481747776,9.725340843,-0.011729569,-1.689374685,7.785150528,-59.54878616,4.899701118,0.431359917,-0.572843254,-0.507887244,-0.477315307
3912968,9.516264915,0.147428825,2.650896072,1.861038923,-10.63657475,1.102262139,0.634774208,-0.362011909,-0.484347999,-0.481057405,9.530704498,-0.050929852,-1.89356935,8.187247276,-58.73102188,4.953616142,0.427983552,-0.576693535,-0.511762202,-0.471544564
3913135,9.453709602,0.144120887,2.756098509,1.827370644,-9.333514214,1.881733537,0.634301007,-0.362607181,-0.485210806,-0.48036325,9.53806591,-0.046220653,-1.976852655,8.339463234,-58.29535294,5.366765976,0.424669832,-0.580475032,-0.515568435,-0.46571818
3913302,9.323170662,0.163624465,2.892850161,0.462315887,-12.03223705,2.415106058,0.633602917,-0.363552839,-0.486198217,-0.479570776,9.618749619,0.038851228,-2.079213619,7.706795216,-57.92040634,4.569355011,0.421232462,-0.584179342,-0.519326329,-0.459997863
3913468,9.403784752,0.078749776,2.612343788,-3.236590385,-17.44740295,1.81507802,0.632295609,-0.365166128,-0.487459928,-0.478789181,9.660961151,0.044937942,-2.229623318,6.168793201,-56.44975281,3.594712734,0.417662501,-0.587780237,-0.522920072,-0.454562545
3913635,9.612627983,0.118064739,2.306875467,-1.473589778,-15.56148529,2.10233736,0.631216586,-0.366511136,-0.488646895,-0.477974325,9.626588821,-0.005934347,-2.430577517,4.614989758,-54.3359108,2.697897196,0.414040595,-0.591222942,-0.526331902,-0.449444771
3913802,9.606164932,0.128816545,2.419961452,-0.380540818,-10.82350826,2.187536478,0.630539954,-0.367430031,-0.489471197,-0.477318347,9.558197975,-0.043079302,-2.626000881,2.998244762,-51.84939194,1.846481919,0.410413414,-0.594477773,-0.529554963,-0.444666803
3913968,9.486863136,0.158993483,2.561902523,0.320523798,-9.367156029,2.7556777,0.630044222,-0.368222415,-0.490180403,-0.476633906,9.542292595,-0.105318435,-2.79791069,1.591375351,-48.89581299,0.863853216,0.406835526,-0.597490191,-0.532598972,-0.440260082
3914135,9.442316055,0.119756199,2.587753534,-0.131201074,-8.131663322,2.703491688,0.629597783,-0.368970513,-0.49074313,-0.476065844,9.524337769,-0.141934067,-2.951068878,0.38349539,-45.73356247,-0.079758532,0.403307587,-0.600278616,-0.53542608,-0.436265588
3914302,9.464885712,0.100596339,2.629285097,-0.403028667,-6.722962379,2.463256836,0.629226983,-0.369624883,-0.491172522,-0.475605398,9.572609901,-0.113394074,-3.065346956,-0.604156196,-42.1892128,-0.925623178,0.399879783,-0.602827728,-0.538014948,-0.432706416
3914468,9.500975609,0.076401927,2.57575798,-0.364724904,-6.755746841,2.123325109,0.628828943,-0.370254517,-0.491623223,-0.475176096,9.601362228,-0.148651659,-3.188920259,-1.860554457,-38.16036606,-1.368109584,0.396638513,-0.605118275,-0.540336847,-0.429588228
3914635,9.514338493,0.040256079,2.557755947,-0.16121918,-6.636713028,1.695913315,0.628428876,-0.370822191,-0.492102474,-0.474766552,9.471764565,-0.201587841,-3.279595375,-2.683594465,-34.39816284,-1.673348546,0.393568277,-0.607201517,-0.542378366,-0.426891387
3914802,9.465576172,0.051721599,2.555821657,-0.310092956,-7.222781658,1.083923101,0.627935112,-0.371400207,-0.49265641,-0.474393517,9.317968369,-0.248775437,-3.360515594,-2.848219156,-31.51767921,-1.47756362,0.390701115,-0.609129369,-0.544200838,-0.424451917
3914968,9.502022743,0.071884461,2.519175053,-0.372011781,-8.683962822,0.777403295,0.627312183,-0.37206167,-0.493354887,-0.473973095,9.15790844,-0.253965348,-3.437195778,-2.666777134,-29.77615166,-0.892502964,0.388044178,-0.61094588,-0.545904458,-0.422084242
3915135,9.574510574,-0.022178251,2.389248133,-1.526389241,-9.812432289,0.158677116,0.626499653,-0.372862309,-0.494107723,-0.473634332,9.060188293,-0.182894722,-3.537778139,-2.632455587,-29.162323,-0.829572201,0.385437995,-0.612714291,-0.547562957,-0.419754028
3915302,9.689131737,-0.023569077,2.220293283,-2.485879421,-7.131024837,-1.063400984,0.625744283,-0.373476803,-0.494615853,-0.473618269,9.069090843,-0.106864773,-3.609439373,-3.014098167,-28.75243568,-1.364456296,0.382774413,-0.614442647,-0.549194932,-0.417527437
3915468,9.559523582,-0.010170206,2.277569056,-2.124560595,-5.80205822,-1.114626408,0.625089407,-0.373968959,-0.495026082,-0.473666221,8.991223335,-0.064946547,-3.683654547,-4.212174416,-28.7142868,-2.213443279,0.379959285,-0.616144598,-0.550832093,-0.415428519
3915635,9.564947128,-0.029025484,2.268916607,-0.590590537,-7.27421236,-0.89538157,0.624434292,-0.374434948,-0.495666623,-0.473492384,8.93341732,-0.051295646,-3.775227785,-5.262157917,-29.01072693,-2.448735476,0.376987487,-0.617910802,-0.552413583,-0.413407832
3915802,9.613827705,0.015132813,2.200092554,0.338094145,-7.481894493,-0.249992818,0.623861074,-0.374876261,-0.496355116,-0.473177612,8.892395973,-0.03531212,-3.797030926,-6.249275208,-29.39866829,-2.127500057,0.373912871,-0.619763136,-0.553924799,-0.411400557
3915968,9.60963726,0.018840291,2.141289234,1.432960272,-7.937491894,-0.266602606,0.623313904,-0.375247717,-0.497161299,-0.472757727,8.808153152,-0.055983178,-3.890957832,-7.317586422,-30.368927,-1.517070889,0.370669812,-0.621792972,-0.555331826,-0.409370601
3916135,9.677934647,0.035416204,2.047763348,1.373116136,-7.859693527,-0.51362437,0.622747183,-0.375603467,-0.49796775,-0.472373098,8.775283813,-0.049972445,-3.944660425,-7.659927368,-31.31098366,-1.118702531,0.367335111,-0.623916745,-0.556721449,-0.407252014
3916302,9.699058533,0.075535379,2.025806427,0.843599141,-7.098854542,-0.945275128,0.622180581,-0.375921279,-0.498694628,-0.472099721,8.751779556,-0.067994542,-4.012076855,-8.081003189,-31.88246346,-0.923968792,0.3639189,-0.626099169,-0.558086574,-0.405095458
3916468,9.659609795,0.022878973,1.987080097,0.107887104,-7.619856358,-0.979890883,0.621532023,-0.376339406,-0.499419987,-0.47185412,8.801519394,-0.101316653,-4.127842903,-7.984955788,-31.89164543,-0.862152338,0.360505909,-0.628268361,-0.559439421,-0.402916968
3916635,9.647982597,-0.011215081,1.938197732,-0.05377388,-7.409576893,-1.004696846,0.620880663,-0.376759708,-0.500113785,-0.471641392,8.886042595,-0.141636074,-4.225978374,-7.327013016,-30.97279358,-0.872153997,0.357219189,-0.630334854,-0.560770988,-0.400759667
3916802,9.711083412,0.018229187,1.961622,0.361260772,-6.716982365,-1.02466166,0.620292485,-0.377098441,-0.500771105,-0.471447051,8.942500114,-0.086296163,-4.353060722,-6.492493153,-29.06859589,-1.040096402,0.354147732,-0.632221282,-0.562056363,-0.398708701
3916968,9.679293633,0.067851625,2.014081478,0.647534013,-7.205596924,-1.701362491,0.619639933,-0.377394438,-0.501530588,-0.471261054,9.047381401,-0.01961581,-4.428389072,-5.795604706,-26.19178963,-1.552402377,0.351339787,-0.63385272,-0.563271105,-0.396884084
3917135,9.613963127,0.018251365,2.091295242,0.605247378,-6.777851582,-1.905521154,0.619002461,-0.377649605,-0.502260029,-0.471117795,9.136707306,-0.050942931,-4.47286272,-4.81121397,-21.91129494,-1.679056406,0.348961562,-0.635168433,-0.564328074,-0.395374268
3917302,9.561983109,0.016213216,2.173137665,0.626877308,-7.287723064,-1.103600144,0.618388891,-0.377992958,-0.502994657,-0.470864177,9.156690598,-0.035077624,-4.552149296,-3.419298887,-16.755373,-1.598387718,0.347137332,-0.636118352,-0.565190911,-0.394218773
3917469,9.60560894,0.036313985,2.200836658,0.184878901,-7.969597816,-1.14738512,0.617694438,-0.378421336,-0.503759921,-0.470613509,9.14193058,0.001539481,-4.617913723,-2.079841614,-11.549757,-1.42350328,0.345873922,-0.636713803,-0.565848708,-0.393423885
3917635,9.596273422,0.015037423,2.195192814,0.333227724,-8.535088539,-1.085991621,0.616975129,-0.378876179,-0.504583597,-0.470308185,9.016905785,0.050551035,-4.626801491,-0.874750614,-6.606489182,-1.299025059,0.345135599,-0.636974633,-0.566313803,-0.392980069
3917802,9.595871925,0.047421508,2.200503826,0.782653928,-8.578144073,-1.008103251,0.616280198,-0.379300386,-0.505435228,-0.469963312,8.861809731,0.079457611,-4.665130615,0.040205535,-2.480602741,-1.093431711,0.344833672,-0.63697058,-0.566604912,-0.392832398
3917969,9.573691368,0.051083434,2.159190655,0.970920026,-8.934621811,-0.807286978,0.615583241,-0.379745692,-0.506319106,-0.469565511,8.763152122,0.070113443,-4.663627625,0.791605353,0.373746932,-0.575619876,0.344865859,-0.636808515,-0.566747963,-0.392860532
3918135,9.633825302,0.094677798,2.083900928,1.134802938,-8.769546509,-0.639510751,0.614915729,-0.380178362,-0.507187307,-0.469152689,8.713056564,0.094592668,-4.657334328,1.66549778,2.601296663,-0.180057287,0.345184863,-0.636508346,-0.566792905,-0.393002361
3918302,9.681721687,0.12368831,2.00458765,1.362115622,-7.529571533,-0.505735636,0.614358068,-0.380517215,-0.507950187,-0.46878311,8.714964867,0.108741909,-4.656883717,2.374470472,4.486058712,0.132424086,0.345742106,-0.636090517,-0.566754758,-0.393243551
3918469,9.729324341,0.156381726,1.910993695,1.385564208,-6.160560131,-0.322246283,0.613918543,-0.380771577,-0.508583426,-0.468465716,8.694497108,0.14066568,-4.614377022,2.989406109,5.802013397,0.312340528,0.346474379,-0.635581374,-0.566669106,-0.393545777
3918635,9.66586113,0.161306024,1.898426175,1.710819602,-4.805185795,-0.112977624,0.613609076,-0.380921215,-0.509105027,-0.468183011,8.675227165,0.145748273,-4.547199249,3.271491528,6.910455227,0.245171219,0.347319216,-0.634988487,-0.566549778,-0.393929511
3918802,9.691333771,0.209895149,1.891996026,1.801450014,-4.399058342,0.092865251,0.613346994,-0.381050974,-0.509584367,-0.467899084,8.656698227,0.097369418,-4.532527447,3.771990061,7.401669502,0.437125713,0.348260909,-0.634357393,-0.566416264,-0.394306809
3918969,9.789347649,0.189369649,1.72720921,1.362563491,-3.982569695,0.533275545,0.613125622,-0.381221086,-0.509974778,-0.46762529,8.574505806,0.113061301,-4.475024223,4.24544096,7.377375126,0.886679888,0.349269122,-0.633740127,-0.566269159,-0.39461875
3919135,9.769010544,0.209930792,1.72954917,1.322607636,-2.941592932,0.740725577,0.612990916,-0.381340683,-0.51025784,-0.467395514,8.526058197,0.186858639,-4.453651428,4.253495216,6.687239647,0.890380859,0.350220531,-0.633161604,-0.566156864,-0.394865066
3919302,9.737809181,0.211866602,1.686179519,1.262354016,-2.555878639,0.545172751,0.612871051,-0.381422698,-0.51051569,-0.467203856,8.515375137,0.198168844,-4.40309906,3.942121744,5.473889351,1.091607094,0.351053804,-0.632684708,-0.566069841,-0.395014316
3919469,9.75250721,0.180041954,1.64804244,1.239609838,-2.450764179,0.640490353,0.612756312,-0.381511807,-0.510754347,-0.46702075,8.467809677,0.210144758,-4.360002518,3.356935024,3.853360653,1.381670713,0.351715565,-0.632354379,-0.566005409,-0.395047247
3919635,9.761711121,0.188925982,1.616119623,1.163232803,-1.70986557,0.993894339,0.6127249,-0.381578118,-0.510907769,-0.466840327,8.470773697,0.201958016,-4.332252026,2.502866983,2.162909746,1.964551926,0.352192134,-0.63221252,-0.565925002,-0.394964784
3919802,9.759469986,0.163518205,1.618178368,0.927467883,-1.330579638,0.957588375,0.612698197,-0.381641924,-0.511010468,-0.466710478,8.56456089,0.196002275,-4.315265179,1.428465128,1.001373291,2.420111895,0.352499783,-0.632229865,-0.565800905,-0.39484033
3919969,9.732459068,0.175191537,1.616547942,1.388240337,-0.926859558,0.869647205,0.612720788,-0.381631196,-0.511114359,-0.466575891,8.62331295,0.157879278,-4.325345993,0.271833986,0.648417532,2.566603899,0.352679878,-0.632338703,-0.565615296,-0.394771069
3920135,9.717795372,0.223506093,1.643090367,1.257705331,0.142502651,0.92105186,0.612813771,-0.381567121,-0.511109531,-0.466511786,8.728933334,0.115455285,-4.370234013,-0.531053662,0.90620923,2.449374437,0.35280028,-0.63246417,-0.565381408,-0.394797653
3920302,9.676727295,0.199979097,1.779308558,0.852358699,0.79303968,0.962826252,0.612932563,-0.381499648,-0.511016548,-0.466512412,8.788152695,0.064661436,-4.378461838,-0.9341591,1.9810462,2.302306175,0.352963239,-0.632536411,-0.565082967,-0.394963652
3920469,9.673330307,0.183141902,1.825618267,0.522454262,0.992741764,0.844930887,0.613044441,-0.381436169,-0.510892689,-0.466552973,8.849855423,0.005943761,-4.380016804,-0.990327835,3.577997923,2.091180801,0.353239954,-0.632502139,-0.564718604,-0.395291686
3920635,9.695955276,0.141292766,1.85854125,0.609319627,1.557271123,0.987555087,0.613216996,-0.381334156,-0.510719001,-0.466599822,8.876303673,-0.018915884,-4.366388321,-0.571163237,5.245539188,1.860692263,0.353679061,-0.632331431,-0.564313769,-0.395750225
3920802,9.661260605,0.131827518,1.915861011,0.497968554,2.082203627,1.165999055,0.613430202,-0.381222606,-0.510478795,-0.466673672,8.903063774,-0.041283969,-4.345939636,-0.142637163,7.26595974,1.400189161,0.354296803,-0.631984174,-0.563871503,-0.396382511
3920969,9.648086548,0.093925633,1.961315036,0.450392932,2.084803343,1.179548025,0.613647521,-0.381112039,-0.510237217,-0.466742337,8.945315361,-0.051227041,-4.321024895,0.362323731,9.519583702,0.96839726,0.355120718,-0.631444514,-0.563380957,-0.397201836
3921135,9.659045219,0.097643383,1.987484932,0.696095586,2.508590937,1.322838306,0.613913298,-0.380966008,-0.509962559,-0.466812462,8.927959442,-0.059681095,-4.285586834,0.648007929,11.64132881,0.573871911,0.35612154,-0.630733728,-0.562831998,-0.398211777
3921302,9.608194351,0.106190436,2.016988993,0.487966746,2.387712002,1.524371862,0.614170194,-0.380862921,-0.509671628,-0.46687609,8.901880264,-0.069595732,-4.255731106,0.882761359,13.12188625,0.407146126,0.357254773,-0.629909575,-0.562233508,-0.399345428
3921469,9.613007545,0.067354374,1.984786153,0.040781826,2.282405376,1.502614021,0.614395559,-0.380803674,-0.509361565,-0.466966361,8.900224686,-0.065959662,-4.176074982,1.384655595,14.5450573,0.393187225,0.358548433,-0.628972828,-0.561589003,-0.400567085
3921635,9.620675087,0.078075707,1.999509692,0.348018944,2.167711735,1.406847954,0.614626527,-0.380715132,-0.50908941,-0.467031479,8.876289368,-0.063775592,-4.10234642,1.803257227,15.57199097,0.53061235,0.359971106,-0.627962947,-0.560900033,-0.401839226
3921802,9.647496223,0.039628591,1.931748986,0.541676521,2.264514685,1.254234552,0.614869833,-0.380587935,-0.508832276,-0.467095047,8.873405457,-0.051651664,-4.03486824,2.019633532,16.16227531,0.772908807,0.361474365,-0.626923323,-0.560167491,-0.403132439
3921969,9.641901016,0.033236586,1.915430427,0.73929143,2.848932743,1.11216116,0.615157902,-0.380392969,-0.508544028,-0.467188776,8.889544487,-0.059454668,-3.984447479,2.190406799,16.75130653,0.942670047,0.363049537,-0.625850499,-0.559395194,-0.404454231
3922135,9.661507607,0.022106402,1.889220119,0.888344526,2.637397289,1.102978945,0.615428984,-0.380204886,-0.5082798,-0.467272103,8.86493969,-0.078938253,-3.953119755,2.48704052,16.85853195,0.966208041,0.364660203,-0.624753892,-0.558629036,-0.405757815
3922302,9.684440613,0.036775865,1.869521976,0.97366035,3.283234119,0.930182755,0.615747631,-0.379947722,-0.507976949,-0.467390716,8.847447395,-0.073284313,-3.926199913,2.673103809,16.47224045,0.793322086,0.366244346,-0.623652279,-0.557906449,-0.407017529
3922469,9.653570175,0.043709368,1.891992211,0.92454809,3.468055725,0.950327218,0.616079807,-0.379683107,-0.507653892,-0.467519104,8.847967148,-0.090937346,-3.863008976,2.958455324,15.86199284,0.634958625,0.367793828,-0.622555375,-0.557244539,-0.408204705
3922635,9.676317215,0.039049312,1.866448522,1.10527122,3.465571404,0.890367925,0.6164096,-0.379404038,-0.507341921,-0.46764943,8.889493942,-0.099378429,-3.789810896,3.178416967,15.15480995,0.28803423,0.369283885,-0.621457458,-0.556661963,-0.409326106
3922802,9.693463326,0.051667251,1.885129452,1.171262264,3.977902174,0.673287451,0.616769791,-0.379065573,-0.507002771,-0.467816889,8.934499741,-0.097451761,-3.757559299,3.403936386,14.86671638,-0.111722663,0.370745748,-0.620329022,-0.556141257,-0.410422385
3922969,9.636577606,0.073757462,1.905311584,1.263340116,4.139633179,0.752366662,0.617151737,-0.378713995,-0.506650805,-0.467979282,9.022744179,-0.068390191,-3.727573633,3.623950243,15.00195408,-0.425721854,0.37221837,-0.619152188,-0.555651903,-0.411527812
3923135,9.638726234,0.066064946,1.92428422,1.388765454,4.205355644,0.627402306,0.617539823,-0.378335088,-0.506310225,-0.468142509,9.084933281,-0.086350858,-3.67798686,3.854016304,15.75768185,-0.781047106,0.373750001,-0.617885649,-0.555164158,-0.412699759
3923302,9.63001442,0.071059741,1.9969455,1.914530396,4.273780346,0.65935427,0.617961586,-0.37790823,-0.505996108,-0.468270123,9.151685715,-0.068570241,-3.665557146,4.030360699,17.07075882,-1.209932327,0.375393271,-0.616471887,-0.554673135,-0.413980693
3923469,9.617409706,0.095409423,2.03524518,1.94513762,4.224642277,0.577688098,0.618377745,-0.377474278,-0.505693972,-0.468397021,9.171825409,-0.037583895,-3.630561352,4.075107574,18.54554367,-1.708983898,0.377109796,-0.614942968,-0.554121852,-0.415430427
3923635,9.60868454,0.086043902,2.065096617,1.928284526,4.377486706,0.568762124,0.618802488,-0.377031326,-0.505376637,-0.468535393,9.130070686,-0.008223047,-3.609504461,4.012663841,20.04078102,-2.122168779,0.378911704,-0.613290668,-0.5535146,-0.417039812
3923802,9.585541725,0.07170739,2.114812613,2.204747677,4.351207256,0.554892659,0.61923337,-0.376568794,-0.505077183,-0.4686611,9.146356583,0.057396628,-3.581559181,3.574995041,21.46447372,-2.558073044,0.380772263,-0.611520052,-0.55285269,-0.418819755
3923969,9.58757019,0.089595608,2.151440859,2.205785036,4.411192417,0.456616819,0.619661689,-0.37609458,-0.504777253,-0.468798906,9.121799469,0.089129843,-3.541635036,2.825437784,22.64320755,-2.741511106,0.382637829,-0.60970664,-0.552080214,-0.420777321
3924135,9.636334419,0.114744648,2.162158251,2.662920713,4.273780346,0.40206179,0.620102525,-0.375583112,-0.504524112,-0.468898654,9.199790001,0.068267748,-3.500880957,2.109728813,23.65156364,-2.710994482,0.384493798,-0.607894897,-0.551167846,-0.422897607
3924302,9.63130188,0.091433212,2.071247339,2.881832838,4.448139191,0.745476961,0.620593131,-0.375063181,-0.504252017,-0.46895808,9.24637413,0.035495702,-3.451318979,1.509135485,24.85637856,-2.198906183,0.386424959,-0.606069624,-0.550106168,-0.425133735
3924469,9.572242737,0.11695946,2.131903887,2.144967794,5.507838726,0.874859452,0.621126711,-0.374549389,-0.50382483,-0.469121426,9.269682884,0.030612852,-3.418899775,1.167218328,25.99676704,-1.547599792,0.388455957,-0.604232192,-0.548899531,-0.427451611
3924635,9.640205383,0.141784146,2.142152309,1.6978724,5.62814188,0.3047207,0.621612191,-0.37401998,-0.503391266,-0.469366342,9.219337463,0.081795678,-3.319507122,0.735745847,26.7356987,-1.442690253,0.390498251,-0.602384388,-0.547594428,-0.429865956
3924802,9.592213631,0.157441273,2.162043333,2.437861681,4.715713978,-0.370167553,0.622024536,-0.373436391,-0.5031268,-0.469568282,9.235011101,0.096431576,-3.253837109,0.154118404,27.16227913,-1.440410733,0.392502248,-0.600550354,-0.546202004,-0.432370871
3924969,9.637834549,0.117476016,2.18258357,2.850046873,4.796663284,-0.113092884,0.622477174,-0.372832805,-0.502865613,-0.469728082,9.250224113,0.082728274,-3.148844242,-0.407319844,27.57170486,-1.336615205,0.394518673,-0.598688781,-0.544769645,-0.434917152
3925135,9.633913994,0.145748064,2.159683704,2.642686367,5.073498249,0.250293732,0.622962713,-0.372255653,-0.502544641,-0.46988523,9.348239899,0.051482908,-3.076536179,-0.730540335,28.35827637,-1.068334341,0.396571606,-0.596815825,-0.543229997,-0.437541962
3925302,9.559314728,0.137258679,2.197955608,1.666215181,5.072640896,0.171112061,0.623399019,-0.37175262,-0.502167344,-0.470108122,9.349726677,0.043051302,-2.967999697,-0.830801547,29.09833336,-0.715953887,0.39867568,-0.594934344,-0.54158473,-0.440223724
3925469,9.550483704,0.082084149,2.151358843,0.63637954,2.894715309,-0.05452944,0.623604536,-0.371475905,-0.501928687,-0.470309436,9.386479378,0.053199962,-2.875167131,-0.751030743,29.95675278,-0.496183574,0.400871158,-0.592987955,-0.539878547,-0.442943394
3925635,9.661075592,0.091721602,2.078535318,1.361871958,3.483115673,0.060439564,0.623893142,-0.37110737,-0.501675487,-0.470487744,9.417539597,0.047273748,-2.840462208,-0.753118336,30.96124077,-0.373895437,0.403139621,-0.590980887,-0.538085997,-0.445739239
3925802,9.588769913,0.075198874,2.150000572,2.431189537,3.694369555,0.153388053,0.62425679,-0.370637685,-0.501468658,-0.470595837,9.498373985,0.044365697,-2.765898705,-0.570140719,32.24674988,-0.220372424,0.405522734,-0.588882387,-0.536202431,-0.4486157
3925969,9.572340012,0.080261126,2.17144537,2.377889633,4.366805553,0.152555659,0.624668598,-0.370124698,-0.501198649,-0.470740885,9.567621231,0.015063185,-2.683753729,-0.093525156,34.03195572,-0.127935961,0.40808478,-0.586629808,-0.534227729,-0.451589674
3926135,9.596510887,0.097175784,2.213446856,2.70199275,4.820099354,-0.021450639,0.625118613,-0.369538367,-0.500918806,-0.470901817,9.639932632,-0.015949177,-2.634144783,0.481770694,36.08235931,-0.17738156,0.410835594,-0.584195018,-0.532153308,-0.454690188
3926302,9.628793716,0.104118042,2.209738255,2.724070787,5.257115364,-0.01712209,0.625602901,-0.368919015,-0.500601172,-0.471082062,9.668718338,-0.003670347,-2.538221121,1.340927958,38.70700455,-0.371847123,0.413837224,-0.581503153,-0.529979885,-0.457945615
3926469,9.587800026,0.107317492,2.301883698,3.128072262,5.20768261,-0.035319913,0.626105428,-0.368263185,-0.500317693,-0.471229017,9.677948952,-0.044435553,-2.407186031,2.26391387,41.28252029,-0.391261965,0.417087644,-0.578575432,-0.527683377,-0.461344421
3926635,9.524606705,0.10671287,2.298330307,2.838200569,3.452726126,0.345483273,0.626495302,-0.36777705,-0.500156403,-0.471261591,9.643588066,-0.064810842,-2.296666384,3.629375696,43.57000732,-0.069551744,0.420642018,-0.575405478,-0.525302291,-0.464786559
3926802,9.59006691,0.094112225,2.27500248,0.389152974,2.332222223,0.674747348,0.626688719,-0.367620766,-0.499907047,-0.471390694,9.568548203,0.026197271,-2.193764925,4.745562077,44.99463654,0.033764187,0.424385071,-0.572057366,-0.522876441,-0.468239337
3926969,9.588825226,0.117396161,2.269703865,0.533057928,3.366181374,0.456936985,0.626949012,-0.367365658,-0.499584168,-0.47158578,9.550230026,0.050319601,-2.053853989,5.433192253,45.85635376,0.113330632,0.428236425,-0.568589568,-0.52041465,-0.471686691
3927135,9.57672596,0.079279073,2.298477888,1.193007469,3.971460104,0.268888503,0.627268732,-0.367002159,-0.499256194,-0.47179094,9.583599091,0.053809475,-1.914349675,5.855626106,46.31513977,0.427216709,0.432153195,-0.565067232,-0.5178985,-0.475104481
3927302,9.567934036,0.090553507,2.336996794,2.204926729,4.193022728,0.927506208,0.627704382,-0.366577178,-0.49894315,-0.471873015,9.631635666,0.067146629,-1.777636409,6.270146847,46.84988022,1.079410911,0.436214864,-0.561459303,-0.515349567,-0.478429794
3927469,9.595423698,0.116705239,2.292925358,0.991205156,4.379023075,0.98777312,0.628096879,-0.366250873,-0.498529047,-0.472041994,9.669862747,0.055468272,-1.605540514,6.506734848,47.46391296,1.846722722,0.440374374,-0.557824492,-0.512691319,-0.481715798
3927635,9.609604836,0.117691495,2.274902105,2.55279851,4.660851955,1.011516094,0.628593862,-0.36576432,-0.498194724,-0.472110659,9.608844757,0.002278002,-1.464012623,6.976284504,47.79623413,2.291568041,0.444606483,-0.554142356,-0.509983659,-0.484941542
3927802,9.59245491,0.102974758,2.224971533,3.831333637,5.434868336,0.962685406,0.629213691,-0.365101516,-0.497881681,-0.472128242,9.543530464,-0.038528718,-1.362971902,7.701679707,47.31993484,2.599358082,0.448861808,-0.550442755,-0.507308245,-0.488031149
3927969,9.558781624,0.118119501,2.320993662,5.620867729,5.042622566,1.26213634,0.629920244,-0.36432305,-0.497711509,-0.471966684,9.517757416,-0.071347229,-1.266449094,8.722414017,46.15665054,2.540856838,0.453087628,-0.546728909,-0.504762053,-0.490932524
3928135,9.576078415,0.157467991,2.352588177,4.717673779,5.426543713,1.06975925,0.630586326,-0.363592863,-0.497449547,-0.471916527,9.532988548,-0.020460498,-1.166784525,9.631419182,44.94554901,2.199084282,0.457251877,-0.542991996,-0.502364755,-0.493670404
3928302,9.591917038,0.125317901,2.376755714,4.298778534,6.56162262,0.917517483,0.631305218,-0.362807989,-0.497065097,-0.471964598,9.633552551,0.056746282,-1.108483434,9.88428688,44.10259628,1.922406912,0.461334318,-0.539254963,-0.500041664,-0.496319354
3928469,9.581687927,0.11727608,2.41003561,4.232467651,7.831718445,0.888741732,0.632108986,-0.361939669,-0.496560097,-0.472086936,9.814220428,0.10613846,-0.979952812,9.451404572,44.80115891,1.613912821,0.46539101,-0.535451055,-0.497643501,-0.499053359
3928635,9.611028671,0.151123524,2.494509459,3.50009799,9.199872971,1.06009078,0.632969022,-0.361070931,-0.495858908,-0.472336978,9.991251945,0.15805082,-0.906121433,8.363377571,47.46609116,1.240951777,0.469506681,-0.531475663,-0.494992405,-0.502075315
3928802,9.564723015,0.205367804,2.598957539,0.772152781,10.30025959,1.249893785,0.633794546,-0.36037305,-0.494870305,-0.47279951,10.11621952,0.199864462,-0.759446681,6.503196716,51.8470726,0.771506667,0.473734111,-0.527245462,-0.491917104,-0.505574822
3928969,9.551589966,0.229150385,2.640171528,-1.701913595,11.09694481,1.747792125,0.634578466,-0.359884858,-0.49360913,-0.473437816,10.27803802,0.18185024,-0.61537075,4.313940525,57.90435028,0.064397499,0.47814396,-0.522636294,-0.488286883,-0.509711564
3929135,9.480336189,0.19446747,2.51225543,-1.59277761,11.08496952,1.386614561,0.635342896,-0.359357834,-0.492375553,-0.474096954,10.04813862,0.142092898,-0.481500864,2.421657801,63.50575256,-0.341102004,0.482739747,-0.51767391,-0.484120458,-0.514396548
3929302,9.538731575,0.153094232,2.502681732,-0.860061884,11.0795126,1.184389234,0.636125803,-0.358751565,-0.491199762,-0.474725425,9.728825569,0.138804168,-0.373775989,0.557014465,66.53791046,-0.756213903,0.487333894,-0.51254034,-0.479590476,-0.519423902
3929469,9.554603577,0.165218443,2.610321522,0.646868289,13.04080868,1.29588151,0.637141824,-0.35786882,-0.489945412,-0.475325167,9.535684586,0.078012094,-0.273694277,-0.891502619,67.1578064,-1.098648667,0.49179095,-0.507390976,-0.474888623,-0.524573326
3929635,9.596842766,0.205594882,2.625304937,0.484278828,14.85622883,1.321532965,0.638270438,-0.356882393,-0.488503367,-0.47603628,9.570907593,0.018257879,-0.0901483,-1.748824358,67.28070831,-1.232143998,0.496135384,-0.502236545,-0.47007817,-0.529749632
3929802,9.582332611,0.174850494,2.667310953,-0.496156961,18.50064278,1.148826838,0.639587224,-0.3557235,-0.486658931,-0.477024257,9.742272377,-0.135161564,0.140641317,-2.023602724,67.99533844,-1.008631706,0.500477493,-0.497014582,-0.465134382,-0.534928918
3929969,9.562856674,0.078068212,2.666175842,-2.19474268,20.76210022,0.671662033,0.64094466,-0.354522347,-0.484511733,-0.478280574,9.826295853,-0.387459099,0.353902906,-0.754729509,69.81578064,-0.193238318,0.505047619,-0.491565078,-0.460051864,-0.540039957
3930135,9.651165009,0.005957062,2.753065825,-2.822652578,23.02636337,0.009367862,0.642377257,-0.353171051,-0.482139647,-0.479753226,9.709627151,-0.468919218,0.505445719,2.352204084,71.64881897,0.607102394,0.509972453,-0.485746533,-0.454973072,-0.544956982
3930302,9.668577194,-0.064709365,2.807883501,-4.319066525,25.81876945,-1.825869679,0.64380455,-0.351621002,-0.47949788,-0.481622547,9.666073799,-0.451937318,0.749490499,5.381783009,72.6966095,0.496838003,0.515116155,-0.47956115,-0.450014383,-0.549694002
3930469,9.7016716,-0.044195972,2.761033058,-2.192914724,29.01109505,-4.569959641,0.645357311,-0.349454224,-0.476836532,-0.483758926,9.5204916,-0.204012007,1.008782983,7.5674963,72.56684113,-1.713752031,0.520169735,-0.47302568,-0.445343912,-0.554381609
3930635,9.693649292,-0.035952214,2.736324787,-1.353777528,33.39141846,-6.680280209,0.647083461,-0.346755981,-0.473913997,-0.486260206,9.633130074,-0.047114573,1.362772107,7.97141552,72.07846069,-4.777650833,0.524914443,-0.466248751,-0.44090423,-0.559178412
3930802,9.51581955,0.073232897,2.884117126,3.172577381,36.80244064,-7.300014019,0.649214923,-0.343335688,-0.471011698,-0.488660216,9.711261749,0.03686855,1.805495143,7.620938301,72.05222321,-6.910755157,0.529401839,-0.45931232,-0.436533779,-0.564095855
3930969,9.448739052,0.261716425,2.818454027,1.596696496,35.53768158,-5.842334747,0.651268423,-0.340242237,-0.46803242,-0.490948558,9.471217155,0.252186984,2.207162142,6.021035671,71.27513123,-7.754656315,0.533605754,-0.45245859,-0.432100058,-0.569065809
3931135,9.473067284,0.379127473,2.828425884,-0.779551268,33.71225739,-4.524591446,0.653159201,-0.337583333,-0.464981437,-0.493166417,9.11269474,0.530926883,2.501651525,2.7980721,66.89001465,-8.12372303,0.537237108,-0.446147293,-0.427719742,-0.573920548
3931302,9.425993919,0.349705607,3.04050827,-1.427990556,33.67393875,-3.892108679,0.655041218,-0.335025609,-0.46184516,-0.49535656,8.88454628,0.622469068,2.700351954,-1.512974381,59.63303757,-8.024995804,0.540099502,-0.440744579,-0.423503339,-0.578516901
3931469,9.228092194,0.32073912,3.196925879,-0.832838655,33.41636276,-2.928925991,0.656985819,-0.332487911,-0.458718508,-0.497392356,8.903969765,0.622957766,2.899358511,-5.539991379,51.57237244,-7.455687046,0.542219102,-0.436339885,-0.419516355,-0.582762539
3931635,9.100272179,0.356397808,3.399159908,-0.909459472,34.33868027,-1.663372278,0.65905726,-0.329971045,-0.455423534,-0.499351829,9.234584808,0.446730882,3.077923536,-8.483887672,45.6516037,-6.227097034,0.543866813,-0.43271938,-0.415646762,-0.586686313
3931802,8.991373062,0.215036407,3.516077042,-1.92869544,34.30625916,-0.232602715,0.661174178,-0.327633798,-0.451983005,-0.501214981,9.479502678,0.25417611,3.219605207,-9.288868904,43.40224457,-4.155292511,0.545481145,-0.429459006,-0.411737323,-0.590328574
3931969,9.043516159,0.191880077,3.654519081,-1.907871604,33.23982239,0.388450116,0.663253665,-0.325403154,-0.448607475,-0.502950191,9.53763485,0.252970248,3.310604572,-9.008948326,44.24977493,-2.99105978,0.547241211,-0.426154077,-0.407693744,-0.593890309
3932135,9.029245377,0.2065337,3.925246,-3.905437231,30.75339508,-0.008682734,0.665026784,-0.323518246,-0.445331663,-0.504732847,9.341504097,0.265812814,3.398892164,-9.063812256,44.97027206,-2.835372448,0.549030721,-0.422780812,-0.403559983,-0.597462118
3932302,8.975985527,0.221933559,4.084116936,-4.431099415,27.80877876,0.139006913,0.666583955,-0.321902841,-0.442286938,-0.506385922,9.198637009,0.245745927,3.494816542,-9.302449226,45.46152496,-3.302795649,0.550769508,-0.419336557,-0.399376243,-0.601089299
3932469,8.834549904,0.221908107,4.254045963,-6.509790421,26.16495514,1.064652085,0.668002307,-0.320659578,-0.439200819,-0.507989287,9.053061485,0.168526024,3.537951946,-9.352315903,45.07863998,-3.071421146,0.552479029,-0.415923268,-0.395186037,-0.604650974
3932635,8.786155701,0.143792808,4.363852501,-6.354245663,26.11665344,1.717739224,0.669459283,-0.319443345,-0.436090976,-0.509514391,9.024155617,0.069689065,3.632888794,-8.560964584,43.92031097,-2.6934762,0.554179668,-0.412551165,-0.391117662,-0.60804069
3932802,8.712454796,0.148443177,4.409829617,-5.927498817,26.80214119,1.968834281,0.670977831,-0.318151861,-0.43292138,-0.511025786,9.06675148,0.084333807,3.724514484,-7.201355457,43.70750046,-2.532396555,0.555941522,-0.409079671,-0.387159824,-0.611302137
3932969,8.68993187,0.095494613,4.370569229,-5.238514423,27.15621948,1.631987572,0.672524273,-0.316733807,-0.429780602,-0.512522757,9.077739716,0.171215698,3.864770651,-6.407958508,44.43068314,-2.842338085,0.557740927,-0.405444652,-0.383215457,-0.614561379
3933135,8.722242355,0.093733341,4.480659962,-6.053488731,28.21990204,1.690154791,0.674092829,-0.315314114,-0.42646423,-0.51410538,9.129725456,0.161391616,3.908170462,-6.148554325,46.13667297,-3.20494175,0.559594154,-0.4015975,-0.379159778,-0.617909312
3933302,8.694672585,0.158322304,4.535038948,-7.672653675,28.76379585,2.008432627,0.675643146,-0.314019322,-0.422955245,-0.515758634,8.800913811,0.192670837,3.917185307,-5.951490402,47.10535812,-2.936352491,0.561510623,-0.397643,-0.375009209,-0.621252179
3933469,8.685459137,0.096032828,4.60428381,-8.012317657,28.7921505,2.003527641,0.67715621,-0.312755823,-0.419404656,-0.517438948,8.539647102,0.211579219,3.906045198,-5.829555035,44.05179596,-2.779970646,0.563256681,-0.39394474,-0.371092767,-0.624371171
3933635,8.501683235,0.057167158,4.670879841,-5.048943996,29.66510963,2.058543682,0.678848743,-0.311131716,-0.415979862,-0.518962801,8.596816063,0.21870099,4.026125431,-5.392374992,39.75981522,-2.075908422,0.564839184,-0.39062345,-0.367513269,-0.627139628
3933802,8.490002632,0.0558201,4.559634686,-2.599634647,32.74492264,2.231213808,0.680837333,-0.309036732,-0.412418425,-0.520449817,8.943908691,0.21059075,4.174922466,-4.771169662,37.61111832,-1.631101608,0.566364706,-0.387457997,-0.364129573,-0.629696131
3933969,8.549952507,0.010283148,4.544400692,-0.748483241,36.02112579,2.694346428,0.683123529,-0.306530267,-0.40864113,-0.521913826,9.159866333,0.173984125,4.290006161,-4.314264297,38.74766541,-1.621612668,0.567959309,-0.38413921,-0.360682249,-0.632271826
3934136,8.692809105,0.038606554,4.635238647,-0.786032081,37.45202637,3.092063904,0.685503423,-0.303933918,-0.404689103,-0.523388982,8.919771194,0.177499354,4.312777042,-3.564450026,39.86702728,-1.305704474,0.569664896,-0.380659908,-0.357182175,-0.63482362
3934302,8.73946476,0.056663126,4.691381454,-0.59771353,36.3216629,3.096263409,0.687805235,-0.301396519,-0.400852412,-0.524787009,8.735466957,0.274926603,4.274096966,-3.171753645,39.72935486,-1.566442966,0.571341753,-0.377134621,-0.353732288,-0.637347221
3934469,8.56398201,0.087608494,4.785088539,1.185956836,36.45093155,2.881896496,0.690156698,-0.298650205,-0.397137463,-0.526093006,8.600852013,0.28947711,4.274391651,-3.460344791,38.35186386,-1.627375245,0.572907686,-0.373746037,-0.350362539,-0.639794469
3934636,8.506207466,0.053117894,4.801909447,1.491070032,37.9070549,3.116895676,0.692602575,-0.295766741,-0.393277973,-0.527405143,8.822131157,0.095380351,4.342863083,-3.400500059,37.64611435,-1.296201348,0.574453831,-0.370423853,-0.347028941,-0.642152786
3934802,8.394681931,0.088405997,4.892549515,3.088582516,40.04731369,3.591810942,0.695253134,-0.292576015,-0.389292687,-0.528652608,8.910887718,0.093670473,4.453933239,-2.172775507,39.43972015,-0.562624454,0.576206923,-0.366857916,-0.343610197,-0.64446348
3934969,8.498475075,0.114451915,5.013656616,1.822501779,41.26456833,2.95131135,0.697844505,-0.289373338,-0.385100842,-0.530069232,8.807015419,0.110260136,4.548776627,-0.892185271,41.38702011,-0.396640629,0.578121066,-0.362998933,-0.340128243,-0.646777272
3935136,8.452143669,0.037118193,5.094961166,1.0935601,42.04140091,2.231180668,0.700367033,-0.286134034,-0.380790651,-0.531612635,8.791057587,0.19812578,4.738533974,0.114239827,44.05162811,-1.535645485,0.580090523,-0.358735353,-0.336564481,-0.649252117
3935302,8.329284668,0.072522551,5.339794159,0.316581309,41.58818054,2.07595396,0.702793658,-0.282990038,-0.37645939,-0.533175826,8.494006157,0.205911189,4.850387573,0.6396752,44.45901489,-2.108400583,0.582029104,-0.354346931,-0.333032638,-0.651743412
3935469,8.308418274,0.046780754,5.280682087,0.64380455,40.90660477,2.177117586,0.70517838,-0.279860854,-0.372205496,-0.534662962,8.383704185,0.233994126,5.019011497,1.179517508,43.63019943,-2.272015572,0.583916008,-0.349969476,-0.329617351,-0.654152811
3935636,8.165581703,0.045280628,5.362615585,2.319250822,41.49124908,2.279986143,0.707645178,-0.276510298,-0.368004978,-0.536053061,8.557235718,0.235937119,5.187153816,1.647400498,43.41139603,-1.782399416,0.585839331,-0.345582902,-0.326227337,-0.656460643
3935802,8.085706711,0.014325211,5.435545921,3.151477098,42.14070511,2.337410688,0.710157812,-0.273016512,-0.363786936,-0.537398279,8.447385788,0.313719273,5.372492313,2.04587388,45.13082886,-0.81610322,0.587932169,-0.34103021,-0.322667211,-0.658726096
3935969,8.071228981,0.034568515,5.733429909,1.307914138,41.87598038,2.463783979,0.712566078,-0.269730777,-0.359433949,-0.538796961,8.223299026,0.385940135,5.508646011,0.921455503,44.90946579,-0.622738779,0.58995235,-0.336589605,-0.318995357,-0.660988569
3936136,7.932067394,0.040188443,5.734575272,-0.627271414,40.33267975,2.226005793,0.714773357,-0.266744643,-0.35508588,-0.540241301,8.067801476,0.395714343,5.734344482,-0.095318288,43.56476593,-0.480407774,0.591849566,-0.332358152,-0.315321296,-0.663193107
3936302,7.818352222,0.079440027,5.926925182,-0.412635684,39.62009048,2.111132383,0.716918349,-0.263777316,-0.350821435,-0.541640043,7.9967103,0.457787007,5.966266155,-1.626365066,41.54645157,-0.535065413,0.593552291,-0.328437448,-0.311663896,-0.665349782
3936469,7.689283848,0.066568956,5.975222111,0.345267415,38.61220932,1.890886664,0.71900028,-0.260790527,-0.346718967,-0.542966783,7.989667892,0.421032876,6.216053486,-2.976826668,39.35546875,-0.535692573,0.595070779,-0.324833214,-0.308054209,-0.667440474
3936636,7.637369633,0.062567323,6.068165779,1.098911762,37.41871643,2.014032364,0.721038163,-0.257817358,-0.342785597,-0.544180512,7.862154007,0.305217862,6.435649395,-4.045341969,37.47672272,-0.592616856,0.596430719,-0.321490288,-0.304496169,-0.66947484
3936802,7.571956635,0.025458498,6.196484566,-0.982712269,35.03684616,2.352607012,0.722885549,-0.255260587,-0.33891502,-0.545357883,7.638021946,0.035818547,6.620564938,-3.672390461,35.08923721,0.413576454,0.597784162,-0.318382084,-0.301125169,-0.671275437
3936969,7.379339218,-0.065828919,6.469583511,-1.999296308,32.41717148,2.416266203,0.724553466,-0.253015459,-0.335228711,-0.54646796,7.629138947,-0.05270391,6.847142696,-2.192019463,31.73680305,1.18125546,0.599120855,-0.315497637,-0.29814589,-0.672773719
3937136,7.19388628,-0.215634242,6.640465736,-2.932868242,30.37983894,2.013055801,0.726040542,-0.251005381,-0.331689954,-0.547579467,7.540803909,-0.122994043,7.006417751,-0.585802436,28.19267082,0.395646811,0.600290477,-0.312779218,-0.295661181,-0.674095809
3937302,7.191970348,-0.273747653,6.644015789,-2.168876171,27.87303734,1.177284479,0.727355301,-0.249069154,-0.328500003,-0.548640847,7.443555832,0.000433955,7.081258297,0.867945731,24.1029892,-1.00359726,0.601205528,-0.310269177,-0.293733239,-0.675282121
3937469,7.122673512,-0.17055203,6.649974823,0.341808587,24.37194824,0.024172036,0.728491426,-0.247088,-0.325916559,-0.54956913,7.354792118,0.205798283,7.054122925,0.24930799,20.30873108,-3.558390617,0.601674318,-0.308072269,-0.292186499,-0.676540315
3937636,7.035188675,-0.041494485,6.669445515,1.46315968,20.3074131,-0.73696816,0.729407012,-0.245274127,-0.32387647,-0.550373077,7.269584656,0.197581589,6.92333746,-1.256675363,16.91358757,-5.340598583,0.601751983,-0.306261539,-0.290864646,-0.67786181
3937802,6.92279911,0.001600183,6.721910954,3.305533171,16.59496498,-1.09137094,0.730179489,-0.243542969,-0.322387129,-0.550991058,7.167021275,0.184540033,6.788693905,-1.941098332,14.05574703,-4.864624023,0.60172224,-0.30480969,-0.289701164,-0.679039776
3937969,6.837593079,0.069901086,6.768940926,4.174674034,13.57811356,-1.480338097,0.730806887,-0.241941318,-0.321299285,-0.55150032,7.384041786,0.334194809,6.730519772,-2.242329121,11.58585358,-3.93042469,0.601665318,-0.303665131,-0.288680196,-0.680036783
3938136,6.766796112,-0.03808894,6.780944824,1.535334706,12.00437737,-2.086654902,0.731216669,-0.240716383,-0.320186377,-0.552140117,7.457890511,0.345068783,6.657975197,-3.030304432,10.97353077,-4.346426487,0.60150516,-0.302630961,-0.287651777,-0.6810745
3938302,6.919802189,-0.079962432,6.785980701,-0.403489858,10.67593384,-2.141312122,0.731490493,-0.239800557,-0.319059014,-0.552828133,7.617966175,0.263323665,6.581316471,-3.054661989,10.79176903,-4.365468979,0.601332724,-0.301614672,-0.286636502,-0.682105064
3938469,6.975372791,0.017588269,6.804283142,-0.001984985,9.371335983,-2.047748566,0.731723964,-0.238950521,-0.318098009,-0.55344075,7.567212105,0.323213279,6.534664631,-2.19024539,11.20657825,-4.05647707,0.601244152,-0.300493538,-0.285656065,-0.683088422
3938636,7.114878178,0.018218836,6.792120457,-0.066464975,8.770591736,-2.306833982,0.731905103,-0.238142893,-0.317203611,-0.554062009,7.497479439,0.392441869,6.476760864,-1.695510387,10.67961121,-4.178803921,0.601141393,-0.299375594,-0.284775466,-0.684036911
3938802,7.099704266,0.015282213,6.764879227,0.558785975,8.48178196,-2.555469513,0.732073486,-0.237280086,-0.316398233,-0.554670095,7.6445117,0.470397234,6.492860794,-1.652801037,10.43018055,-4.008145809,0.601045191,-0.298284858,-0.283912838,-0.684955895
3938969,7.089612484,0.037123326,6.751957417,0.870966315,8.847735405,-2.192216873,0.73229748,-0.236370757,-0.315565795,-0.555236638,7.66966486,0.458033383,6.519694805,-1.786205173,11.43568707,-2.726793289,0.60111028,-0.297157764,-0.282893181,-0.68580991
3939136,7.151590347,0.083422549,6.815290451,0.171829239,9.084589958,-1.567920089,0.732557237,-0.23554495,-0.314629585,-0.555775821,7.634099483,0.56658411,6.585238457,-2.113624811,11.52290916,-1.946297169,0.601240695,-0.29608205,-0.281799197,-0.686610878
3939302,7.133430958,0.125805974,6.831927299,-0.647655666,8.864793777,-1.3955338,0.732791424,-0.234831676,-0.313644171,-0.556325614,7.59903717,0.489881843,6.637928963,-3.438019276,10.38166237,-1.641134143,0.60129559,-0.295247674,-0.280659497,-0.687388241
3939469,7.194111347,0.124580689,6.744015217,-1.284643531,8.868738174,-1.106865883,0.733026087,-0.234198615,-0.31259653,-0.556872845,7.678814888,0.419350147,6.651355267,-3.212012529,9.387434959,-0.934402883,0.601388752,-0.294521183,-0.279598832,-0.688050568
3939636,7.245778084,0.213642597,6.690393925,-1.702079415,8.624713898,-1.003659368,0.733242154,-0.233634144,-0.311537325,-0.557418704,7.612176895,0.390304506,6.592408657,-3.018316269,8.215050697,-1.596862555,0.601374745,-0.293867797,-0.278688371,-0.688711107
3939802,7.257028103,0.132908329,6.689553738,-2.006704092,7.643298626,-1.15083003,0.733390033,-0.233174786,-0.310563356,-0.557959735,7.579702854,0.4113006,6.548875809,-2.442773104,7.641723156,-2.382250309,0.601282418,-0.293189585,-0.277919322,-0.689391375
3939969,7.207093239,0.176409215,6.78411293,-1.766200662,7.042935848,-0.928345263,0.733535707,-0.232748553,-0.30966568,-0.558444977,7.496376514,0.399791896,6.55462122,-1.854871988,7.377425671,-2.49448514,0.601191878,-0.29248178,-0.277237207,-0.690045118
3940136,7.157726765,0.165966853,6.805893898,-1.975111246,7.106277466,-0.830965817,0.733683825,-0.232343614,-0.308741122,-0.558930635,7.661763191,0.349622577,6.558033466,-0.870550334,8.167117119,-1.459937215,0.601278007,-0.291650295,-0.276540905,-0.690601349
3940302,7.113658905,0.076125942,6.856445789,-1.848532915,7.927471161,-0.593126237,0.733891249,-0.231868848,-0.307731241,-0.55941236,7.591364861,0.514066517,6.602344513,0.434718162,10.43189716,-0.658259571,0.60158968,-0.290509552,-0.275743693,-0.691129267
3940469,7.128942013,0.073311783,6.927546024,-2.234272957,8.128568649,-0.631711721,0.734090269,-0.231416941,-0.306669652,-0.559921145,7.327976227,0.546795249,6.656138897,-0.050124075,10.95611286,-0.840878069,0.601881683,-0.289350808,-0.274859667,-0.691713035
3940636,7.038589001,0.046803582,6.926092625,-2.499492407,7.989107609,-0.040660162,0.734320879,-0.231030762,-0.305581123,-0.560373008,7.326479912,0.374832243,6.756556511,0.147029743,10.2586956,0.787834108,0.60231632,-0.288309187,-0.27398783,-0.692115426
3940802,6.91237402,0.073443308,6.914243698,-0.952241957,8.706865311,0.638748765,0.734689713,-0.230450794,-0.304518849,-0.560706735,7.389237881,0.470693409,6.874392033,1.006208062,10.02952671,2.217817307,0.602920294,-0.287271827,-0.273162067,-0.692347109
3940969,6.898171902,-0.000833398,6.915501595,-1.701759458,9.134381294,0.576253831,0.735045671,-0.229912773,-0.303351313,-0.561093628,7.183697701,0.409202993,6.933548927,1.000240207,9.828799248,2.585820436,0.603551805,-0.286269188,-0.272337645,-0.692537069
3941136,6.888947964,-0.026055045,6.996376514,-1.650380492,8.788905144,1.242709279,0.735441208,-0.229426578,-0.302202076,-0.561394453,7.107038975,0.310615957,6.98936224,1.226189137,8.587101936,2.734175444,0.604157329,-0.285376728,-0.271638095,-0.692652106
3941302,6.760001659,0.023561513,7.04766798,-1.089487791,8.459025383,1.721628547,0.735878944,-0.228928074,-0.301117301,-0.561607361,7.091809273,0.237282127,7.058215618,2.318942547,6.555489063,3.589755297,0.604813457,-0.284626067,-0.271190912,-0.692563593
3941469,6.674402714,-0.024164587,7.087961674,-0.092525907,8.320396423,1.685450554,0.736339569,-0.228331983,-0.300129145,-0.561774909,7.283548832,0.324977636,7.163687229,3.248107195,6.029236794,3.952827692,0.605523407,-0.283860445,-0.270867676,-0.692383945
3941636,6.680607319,-0.056883011,7.079156399,-0.070742294,8.150456429,1.502191424,0.736777782,-0.227738962,-0.299166173,-0.561954677,7.157393932,0.468046099,7.172797203,3.144541979,6.347897053,2.736851931,0.606118619,-0.283023387,-0.270555466,-0.692327917
3941802,6.735517979,-0.040779624,7.156231403,-0.13847509,7.006182194,1.268603683,0.737144053,-0.227236211,-0.298327267,-0.562123835,7.06363821,0.42436403,7.121197224,2.004725218,5.567401409,2.115705013,0.606572986,-0.282340109,-0.270222366,-0.692338884
3941969,6.670794964,0.030019898,7.215957642,0.90949434,5.582122326,1.791518927,0.737525463,-0.226759925,-0.29770878,-0.562143922,7.044572353,0.442392617,7.164705753,1.175782919,3.969615936,2.488945961,0.606967866,-0.281904906,-0.269930989,-0.692283869
3942136,6.62100172,-0.001829848,7.189896107,1.001232505,4.566750526,1.875970125,0.737872422,-0.226359978,-0.297203362,-0.562117338,7.083086491,0.416455567,7.157080173,0.142579511,2.501240253,2.874968052,0.607301474,-0.281723201,-0.269648999,-0.69217521
3942302,6.638561726,0.050338261,7.181837559,1.161260605,3.92282176,1.871321321,0.738196254,-0.225994885,-0.296779722,-0.56206286,7.185564518,0.431176871,7.172497749,-0.653828144,1.33700192,3.112704754,0.607580721,-0.281737804,-0.269379616,-0.692029059
3942469,6.637736797,0.046510175,7.16727972,-0.797861159,3.203079224,1.581155062,0.738400757,-0.225886062,-0.296282291,-0.56210041,7.089890003,0.341667235,7.106831074,-1.622116208,0.883196294,2.868090868,0.607777715,-0.281873673,-0.269062698,-0.691923916
3942636,6.70140934,0.000595649,7.205267429,-1.217512488,2.279447079,1.563098311,0.738550067,-0.225896716,-0.295850039,-0.56212765,7.146975517,0.250617653,7.050223351,-1.391730189,-0.159964129,2.247572184,0.60788101,-0.282069594,-0.268886298,-0.691821933
3942802,6.662218094,0.036413889,7.166790485,-0.473822117,1.474401474,1.3843472,0.738674521,-0.225885391,-0.295570612,-0.56211555,7.278412819,0.207522675,7.02764082,-0.731076002,0.283743858,0.833033741,0.607886493,-0.282107115,-0.268794864,-0.691837311
3942969,6.715403557,-0.029476391,7.153284073,0.004245305,1.112839937,1.140463114,0.738779187,-0.225841567,-0.295376986,-0.562097311,7.172916889,0.196802258,6.983056068,0.084528305,0.367228419,0.186710179,0.607863665,-0.282039076,-0.268804461,-0.691881418
3943136,6.719650745,0.004751714,7.180537224,0.42589435,0.371595442,0.861374259,0.738843203,-0.225800991,-0.295306414,-0.562066555,7.196372032,0.343068749,6.970146179,0.856546283,0.105902106,0.011301603,0.60784483,-0.28192237,-0.268921793,-0.691900015
3943302,6.703822136,0.00181656,7.166018009,0.341205955,0.099089123,0.454478115,0.738859415,-0.225774199,-0.295271397,-0.562074304,7.213142395,0.454464436,6.964684963,0.129376158,0.263458639,-0.185205445,0.607782423,-0.281846464,-0.268960088,-0.691970825
3943469,6.76927042,0.00264997,7.13790226,0.240522444,0.209415823,0.175619885,0.738854468,-0.225737154,-0.295225352,-0.56212014,7.205717564,0.501020789,6.950248718,-0.72608155,-0.548521578,0.379548162,0.607709885,-0.281949848,-0.268961102,-0.691991985
3943636,6.72572279,0.023141637,7.164845467,0.252419561,-0.119880252,0.324493706,0.738847733,-0.225732058,-0.295210719,-0.562138498,7.25821352,0.493773222,6.982117176,-1.431212068,-1.15622139,1.679226398,0.607715249,-0.282227427,-0.268891841,-0.691901028
3943802,6.7762146,0.013017275,7.125164032,0.096182093,-0.090784207,0.558107078,0.738856375,-0.225751311,-0.295172453,-0.56213963,7.262240887,0.463088095,7.02013731,-2.175043344,-1.554332137,2.444315672,0.607751131,-0.282640547,-0.2687518,-0.691755235
3943969,6.80416441,-0.037947327,7.093937874,-0.583406031,-0.326805204,1.043941617,0.73887229,-0.225883752,-0.295088112,-0.562109947,7.188038826,0.314900517,7.092808247,-2.037643671,-3.175833941,3.399464607,0.60782522,-0.283241808,-0.268729746,-0.69145292
3944136,6.746246815,-0.012759114,7.136438847,-0.414592803,-0.987702489,1.385000348,0.738893092,-0.226066813,-0.295077384,-0.562014461,7.208334923,0.138323143,7.219073772,-0.537354648,-5.696522236,4.126892567,0.60793525,-0.283991992,-0.269051105,-0.690923333
3944302,6.757454872,-0.026118012,7.089950085,-0.312628627,-1.95286572,1.673040748,0.73889935,-0.226330176,-0.295169145,-0.561852038,7.298213959,0.245462611,7.354887962,1.443576813,-8.528940201,4.087204933,0.608011723,-0.284849674,-0.269822568,-0.6902017
3944469,6.762563229,-0.057863742,7.027924538,0.084144115,-3.847411394,1.448558092,0.738818944,-0.226696089,-0.295504332,-0.561634183,7.239377975,0.344975829,7.38410759,2.257382631,-10.9160738,2.809080601,0.607898712,-0.285823882,-0.270938694,-0.689460874
3944636,6.844209194,-0.06464114,7.08171463,0.154425383,-6.207008362,1.532171011,0.738645792,-0.227250814,-0.296095848,-0.561326146,7.046079159,0.335593998,7.271799088,2.376648903,-14.43802929,2.596585512,0.607628524,-0.287130803,-0.272385538,-0.688585579
3944802,6.755259514,-0.02944587,7.161368847,1.077955604,-9.203350067,2.088210106,0.738418519,-0.227974743,-0.297065943,-0.560818672,7.004544735,0.350187689,7.16953373,2.520324707,-18.76378632,3.527059078,0.607282341,-0.288892537,-0.274187833,-0.687437594
3944969,6.668609142,-0.031042669,7.143597603,1.555197477,-11.39188099,2.340854645,0.738131523,-0.228836283,-0.298300862,-0.560189724,6.965817451,0.397782803,7.107326031,2.053002834,-23.80561638,4.348174095,0.606791675,-0.291228741,-0.276350886,-0.686017513
3945136,6.630369186,-0.0369412,7.062886238,1.921408057,-12.97358036,2.445559263,0.737794399,-0.229791015,-0.299730718,-0.559479356,7.228451252,0.463941693,7.155518532,0.718086243,-28.1040287,4.488901615,0.606076956,-0.294112176,-0.278749436,-0.684446931
3945302,6.667592525,-0.052293736,6.971287727,2.785402298,-13.84446812,2.78565836,0.73747319,-0.230737612,-0.301311463,-0.558663547,7.237907887,0.399772584,7.081031322,-0.80335772,-30.73181915,4.664068699,0.605196774,-0.2973921,-0.281215101,-0.682797909
3945469,6.793318748,-0.027287601,6.981451511,4.199993134,-15.2068634,2.995785475,0.73715353,-0.231651261,-0.303144664,-0.557714999,7.177283764,0.281803817,7.001581192,-2.220553637,-34.88124466,5.337255478,0.604138374,-0.301228672,-0.283869117,-0.680952668
3945636,6.708738804,-0.002537847,6.985575199,4.774231911,-17.27039337,2.877609253,0.736748159,-0.232664019,-0.305247635,-0.556680977,7.270519257,0.227767989,6.972085476,-2.490233898,-38.93631744,7.115919113,0.603059232,-0.305554301,-0.286765516,-0.67876488
3945802,6.740463257,-0.007966292,6.955540657,5.426499844,-19.65817261,2.102722406,0.736190617,-0.233763799,-0.307682902,-0.555616081,7.324620724,0.363117903,6.878275871,-3.10165453,-42.86872101,7.984972,0.601852894,-0.310346037,-0.289896488,-0.676327229
3945969,6.82879734,-0.058055945,6.929065228,4.481429577,-21.82402992,1.503192663,0.735448718,-0.235110551,-0.310290873,-0.55457896,7.34344244,0.29107666,6.715435982,-4.152773857,-46.87782669,7.32328701,0.600338757,-0.315581769,-0.293291569,-0.673781753
3946136,6.912826061,0.036948189,6.956254959,3.030493975,-23.4205265,1.911690831,0.73461026,-0.236757055,-0.312934935,-0.553503096,7.503568649,0.082224786,6.519484043,-4.509349346,-50.33530807,6.090736866,0.598509371,-0.321117789,-0.296994388,-0.67116636
3946302,6.945719242,0.032734234,6.867284775,1.654641628,-24.70277214,2.611252308,0.733713508,-0.238682434,-0.31557703,-0.55236429,7.737330437,-0.157747835,6.373684883,-2.985433102,-52.57901382,5.373731613,0.596550584,-0.326690674,-0.30105713,-0.668405056
3946469,7.056718349,0.014449795,6.780076504,2.398308277,-25.2991581,3.473416805,0.73287493,-0.240612581,-0.318308264,-0.551071644,7.874804974,-0.147906154,6.235074997,-0.379161417,-53.55833435,4.977077961,0.59459877,-0.332095742,-0.305458069,-0.665477395
3946636,7.095511913,-0.04799886,6.712905407,2.25054884,-27.11094475,3.108948231,0.731907427,-0.242683172,-0.321228683,-0.549753308,7.883646965,-0.014664464,6.087206841,1.553599596,-55.02068329,4.252988815,0.592568517,-0.337422282,-0.310187548,-0.662414193
3946802,7.191659451,-0.144522056,6.588218689,3.200886011,-28.8444519,1.989824295,0.730790854,-0.244734898,-0.324443638,-0.548439503,7.954898357,0.172531754,5.950824261,2.124758005,-56.82374191,2.655920029,0.590291977,-0.342778742,-0.315184683,-0.659330606
3946969,7.243896008,-0.101176463,6.512806892,5.372864246,-30.57987022,1.093121648,0.729584575,-0.246647537,-0.328041971,-0.547046602,8.077644348,0.178061709,5.828576088,1.638586044,-58.64925003,1.081451774,0.587715089,-0.348255336,-0.320347756,-0.656267345
3947136,7.336088657,-0.086770959,6.449079514,6.453213692,-31.86673355,0.887553751,0.728324175,-0.2485331,-0.331863195,-0.545566082,8.185446739,0.087572016,5.648026466,1.416458249,-60.49230194,1.739540935,0.585059702,-0.35393101,-0.325589389,-0.653015852
3947302,7.378265381,-0.01159185,6.433424473,5.099156857,-33.93348312,1.627290368,0.726956785,-0.250756204,-0.335761368,-0.54398495,8.265275955,0.119389236,5.491136074,1.280133963,-62.37585068,2.685739517,0.582351387,-0.359813511,-0.330903172,-0.649541557
3947469,7.496797085,-0.027605686,6.331762314,4.25097847,-35.88805008,1.120067716,0.725403666,-0.253192544,-0.339808792,-0.542414308,8.311124802,0.220878378,5.352808475,0.284023404,-64.64562988,2.638531446,0.57942766,-0.365961641,-0.336288959,-0.645945311
3947636,7.549003601,0.066878423,6.238506794,4.826154709,-37.38920593,0.362568736,0.723718464,-0.25564158,-0.3440786,-0.540822566,8.314401627,0.19742161,5.169947624,-0.961119175,-67.50813293,2.184266806,0.576201737,-0.372427255,-0.341791838,-0.64223671
