sampleTimeFine,W4_acc_x,W4_acc_y,W4_acc_z,W4_gyro_x,W4_gyro_y,W4_gyro_z,W4_quat_w,W4_quat_x,W4_quat_y,W4_quat_z,W5_acc_x,W5_acc_y,W5_acc_z,W5_gyro_x,W5_gyro_y,W5_gyro_z,W5_quat_w,W5_quat_x,W5_quat_y,W5_quat_z
1172428,0,0,0,0,0,0,0.671029508,-0.338176042,-0.435762107,-0.49544704,0,0,0,0,0,0,0.513405025,-0.502339125,-0.480125695,-0.503537536
1172594,9.007511139,-0.214840651,3.897969484,0.646983147,-0.060599647,0.481166542,0.671863735,-0.337449193,-0.435942233,-0.494653225,9.857243538,-0.329915851,0.354616702,-0.40128696,0.348415911,0.643435776,0.513702571,-0.502053857,-0.480147809,-0.503497481
1172761,8.992791176,-0.228483886,3.927380085,0.455272138,-0.258637011,0.642616272,0.672121882,-0.337201923,-0.435536295,-0.494828582,9.853702545,-0.337905109,0.350611359,-0.239760473,0.5243752,0.40416199,0.513962507,-0.501949489,-0.479995668,-0.503481328
1172928,9.01770401,-0.246861666,3.924057484,0.185660064,-0.34890905,0.507048249,0.672500849,-0.33691135,-0.435002625,-0.49498105,9.840953827,-0.334318161,0.365352482,-0.015572521,0.636917412,0.310995787,0.514259517,-0.501858175,-0.479889661,-0.503370166
1173261,8.998835564,-0.215877488,3.940346956,0.158151999,-0.604485273,0.33774823,0.67288363,-0.336767226,-0.43422097,-0.495245218,9.81141758,-0.335119069,0.364794821,0.336608469,0.388102829,0.45915243,0.514384687,-0.501907587,-0.479651928,-0.503419518
1173428,8.996822357,-0.233776674,3.906466484,0.330282152,-0.572546244,0.459280491,0.673062921,-0.336625218,-0.434051961,-0.495246202,9.831665993,-0.329261392,0.371314019,0.414560765,0.222337455,0.505498648,0.514600992,-0.501845837,-0.479577929,-0.503330588
1173594,9.006842613,-0.221960887,3.900597811,0.441569358,-0.529709101,0.426573157,0.673132241,-0.336592138,-0.433918774,-0.495291203,9.856871605,-0.296303183,0.411324322,0.364014089,0.044149891,0.621280849,0.514740348,-0.501833379,-0.479490608,-0.503283799
1173761,9.021533012,-0.237260222,3.925163031,0.405596316,-0.240592882,0.398296684,0.67326355,-0.336493403,-0.433880687,-0.495213151,9.871920586,-0.278286159,0.394434482,0.284140855,-0.045206413,0.595309556,0.51479435,-0.501812816,-0.479366034,-0.503367603
1173928,9.032716751,-0.225969926,3.891375542,0.372389406,-0.096611097,0.399398029,0.673439503,-0.336366683,-0.433873832,-0.495065898,9.882146835,-0.280753762,0.386091083,0.109436654,-0.171054423,0.542188883,0.514912307,-0.50166595,-0.47940737,-0.503354013
1174095,9.026042938,-0.222264856,3.883485794,0.494293123,-0.044566095,0.417454988,0.6735515,-0.3362903,-0.433876008,-0.494963557,9.849164963,-0.288875282,0.406207085,-0.036254782,-0.169005409,0.642949224,0.514921844,-0.501617432,-0.47937274,-0.503425539
1174261,9.033678055,-0.220830932,3.909921169,0.473726064,-0.096816003,0.405109674,0.673605561,-0.336262643,-0.433885813,-0.494900137,9.81184864,-0.321925431,0.362553328,-0.051583972,-0.334553063,0.809149921,0.514928758,-0.501599014,-0.479331344,-0.503476083
1174428,9.01272583,-0.217340425,3.930874109,0.622228503,-0.289128959,0.415521204,0.673617423,-0.336264342,-0.433910578,-0.494861126,9.851819038,-0.322505683,0.357859671,0.0776513,-0.53631705,1.051907182,0.514945149,-0.501637161,-0.479297698,-0.503453612
1174595,9.018898964,-0.251375467,3.879043818,0.417390972,-0.705527425,0.542368174,0.673632443,-0.336291909,-0.43397069,-0.494769335,9.813511848,-0.288968176,0.357348621,0.016769914,-0.590615988,0.74481082,0.514960766,-0.501654387,-0.479322165,-0.503397107
1174761,9.038345337,-0.199638203,3.912309885,0.357521236,0.190411195,0.491475612,0.673689902,-0.336277515,-0.433943152,-0.494724929,9.855101585,-0.310711741,0.361555815,-0.088799223,-0.777332604,0.308767498,0.514918804,-0.501664817,-0.479399413,-0.503356099
1174928,9.048459053,-0.23449935,3.872377872,0.215921447,-0.400428921,0.101624787,0.673693597,-0.336267442,-0.434005499,-0.49467203,9.861902237,-0.316587299,0.336013287,-0.073610894,-0.511383176,0.422820777,0.514916778,-0.501659811,-0.479461432,-0.503304005
1175095,9.015561104,-0.20249933,3.885284662,0.545941055,0.083836764,0.260769308,0.673747241,-0.336212486,-0.434042901,-0.494603455,9.882266045,-0.306016058,0.333130866,-0.061278377,-0.240387946,0.64415288,0.514904559,-0.501703441,-0.479448169,-0.503285706
1175261,9.029694557,-0.211518362,3.897007465,0.597358584,0.055714019,0.498493522,0.673787773,-0.33619079,-0.434061348,-0.49454686,9.881912231,-0.298595428,0.330105394,-0.102386765,0.007062702,0.723962188,0.514942408,-0.501713216,-0.479445159,-0.503240168
1175428,9.02691555,-0.231659427,3.89888835,0.50927645,-0.205208972,0.520968735,0.673805773,-0.336198956,-0.434097499,-0.49448505,9.889715195,-0.310014248,0.338906437,-0.055502716,0.217112437,0.707838953,0.514938056,-0.501760483,-0.479379624,-0.503259838
1175595,9.01824379,-0.230754614,3.905486107,0.391009897,-0.114604026,0.448510349,0.673887849,-0.336149752,-0.434164077,-0.494348109,9.866809845,-0.3191908,0.346369982,-0.068437129,0.461534411,0.607078612,0.514972866,-0.501758873,-0.479331911,-0.503271222
1175761,9.006356239,-0.23013252,3.924139977,0.197224215,-0.003278426,0.37908718,0.673910618,-0.33615455,-0.434169739,-0.494308829,9.869211197,-0.327799439,0.367626995,-0.016353711,0.628618956,0.561129451,0.515028059,-0.501735508,-0.479282051,-0.503285706
1175928,9.011538506,-0.239305481,3.937264681,0.234990105,-0.221716344,0.406198174,0.67388624,-0.336206615,-0.434165806,-0.4943102,9.848502159,-0.314865947,0.355546355,0.120117165,0.764263809,0.469973862,0.515093505,-0.501693249,-0.479226619,-0.503313482
1176095,9.03008461,-0.234195217,3.907206774,0.307973474,-0.076005682,0.300545812,0.673931301,-0.336179942,-0.434193432,-0.494242787,9.840276718,-0.327873707,0.368395954,0.16067487,0.594822884,0.510326564,0.51517415,-0.501645386,-0.479202121,-0.503302038
1176261,9.037154198,-0.222425789,3.876372576,0.329206437,-0.260506749,0.272499889,0.673921943,-0.336200535,-0.434213042,-0.494224161,9.849046707,-0.306323618,0.371356934,0.214768887,0.509788752,0.530688703,0.515261352,-0.501598537,-0.479186416,-0.5032745
1176428,9.039779663,-0.224349782,3.907875538,0.402842939,-0.097072132,0.392149627,0.673950672,-0.336196035,-0.434231609,-0.494171709,9.842219353,-0.290942341,0.388225913,0.149469301,0.375962406,0.502220213,0.51530993,-0.501585841,-0.479153126,-0.503269136
1176595,9.031417847,-0.228773549,3.897382975,0.402868509,-0.031324327,0.409182042,0.673962474,-0.3362073,-0.434227824,-0.494151264,9.846783638,-0.285903454,0.386105329,-0.064339094,0.166770682,0.564715147,0.515333414,-0.501606345,-0.479113609,-0.503262222
1176761,9.017903328,-0.230919287,3.885982037,0.353077471,-0.040224746,0.410513967,0.673966825,-0.336228639,-0.434218526,-0.494139045,9.838109016,-0.293717533,0.383733958,-0.153701827,0.180345431,0.557851017,0.515356004,-0.501625061,-0.479071379,-0.503260434
1176928,9.029719353,-0.217283204,3.889604568,0.411487192,0.099191576,0.353679329,0.673995554,-0.33621645,-0.434214652,-0.494111508,9.845974922,-0.304050684,0.371730208,-0.238300547,0.14123483,0.795792878,0.515385151,-0.501671076,-0.479005098,-0.503247976
1177095,9.03810215,-0.227900967,3.9003582,0.444937378,0.0812755,0.473790109,0.674025655,-0.336215734,-0.434205502,-0.494078964,9.867760658,-0.307943642,0.37222597,-0.280497462,0.246605456,0.663144767,0.515408576,-0.501703918,-0.478936553,-0.50325644
1177261,9.014513969,-0.22437124,3.886983395,0.494229078,0.071324967,0.403752208,0.67404002,-0.336217731,-0.434195757,-0.494066477,9.858216286,-0.325570703,0.377687007,-0.161257565,0.354191601,0.743005216,0.515452981,-0.501727521,-0.478860557,-0.503259718
1177428,9.017624855,-0.221413866,3.918682337,0.408388048,0.058582645,0.405737162,0.674038351,-0.336238921,-0.434173882,-0.49407357,9.855135918,-0.319037676,0.374020725,-0.089106575,0.560463488,0.737024605,0.51553309,-0.501716912,-0.478788108,-0.503257155
1177595,9.000894547,-0.234702677,3.906395435,0.363553017,0.1504682,0.472189277,0.674077034,-0.336233526,-0.434156656,-0.494039595,9.851798058,-0.325392932,0.400702447,0.167705536,0.692202389,0.633062601,0.515651524,-0.501654327,-0.478748798,-0.503235638
1177761,9.017484665,-0.243743464,3.939950705,0.200336143,0.058582645,0.458320051,0.674081802,-0.336267292,-0.434122652,-0.494040191,9.857077599,-0.301305681,0.398593396,0.209710389,0.663157701,0.728021801,0.515772343,-0.50160408,-0.478698641,-0.503209531
1177928,9.007493019,-0.239906296,3.933699369,0.260602802,-0.063160911,0.470370799,0.674078345,-0.336309165,-0.434097797,-0.494038045,9.852503777,-0.305508107,0.399191976,0.306347102,0.631397843,0.695967495,0.515875161,-0.501565814,-0.478638828,-0.50319916
1178095,9.005565643,-0.238865614,3.924705029,0.34922272,0.028103534,0.513925195,0.674100101,-0.336328626,-0.434073776,-0.49401632,9.830263138,-0.31413582,0.417226106,0.29909867,0.470383614,0.783831775,0.515985966,-0.501533329,-0.478596419,-0.503158331
1178261,9.013905525,-0.23670201,3.906888485,0.321266502,-0.012114807,0.559170067,0.674156487,-0.336325884,-0.434071749,-0.493943065,9.826363564,-0.299004853,0.394374549,0.281060994,0.453805834,0.746226013,0.516077757,-0.501514196,-0.478540421,-0.503136516
1178428,9.019205093,-0.227750763,3.909438372,0.414150894,0.025042815,0.438995272,0.674176514,-0.336334407,-0.434054822,-0.493924648,9.834777832,-0.302446991,0.403743088,0.113457851,0.329296082,0.687592149,0.516187072,-0.501471639,-0.478528678,-0.503078043
1178595,9.014853477,-0.229410127,3.921100378,0.478336364,-0.013395441,0.453312725,0.674223065,-0.336318374,-0.43406269,-0.493865341,9.848244667,-0.296016932,0.420951754,-0.022680044,0.215434819,0.646419704,0.516228318,-0.501489341,-0.478470922,-0.503072739
1178761,9.017720222,-0.217844531,3.90693903,0.440006942,0.069506459,0.448138952,0.674256146,-0.336313963,-0.434048176,-0.493835837,9.855329514,-0.312599868,0.402920544,-0.109404646,0.127800971,0.629668951,0.516269684,-0.501505494,-0.47842741,-0.50305593
1178928,9.020864487,-0.218549177,3.916293859,0.330640733,0.112215631,0.550243974,0.674307048,-0.336311311,-0.43402648,-0.493787169,9.851189613,-0.306502402,0.41461128,-0.129395351,0.15724276,0.630975187,0.516324282,-0.501509368,-0.478391945,-0.503029644
1179095,9.01362896,-0.228880882,3.909578323,0.413818002,-0.045552187,0.484547496,0.67430985,-0.336340278,-0.434003979,-0.493783504,9.850037575,-0.295641482,0.39772433,-0.221088812,0.157947108,0.633216321,0.516358793,-0.50153321,-0.478335261,-0.503024399
1179261,9.012507439,-0.241336778,3.92472291,0.386873454,-0.032528128,0.50621587,0.67431438,-0.336371541,-0.433977813,-0.493779093,9.833784103,-0.304546267,0.422167897,-0.221165657,-0.024921158,0.651670277,0.516386569,-0.501566887,-0.478296191,-0.502999425
1179428,9.000208855,-0.229685485,3.931038618,0.316617757,-0.010052983,0.442043155,0.674330473,-0.336388141,-0.433959126,-0.493762046,9.863319397,-0.310107231,0.399591088,-0.157863885,-0.016801933,0.780079663,0.51641804,-0.501614392,-0.478240103,-0.50297296
1179595,9.003502846,-0.226055637,3.912914276,0.251087695,-0.199907094,0.470396399,0.67432487,-0.336434066,-0.433946252,-0.493749738,9.846369743,-0.325298637,0.400128275,-0.152946234,-0.034423467,0.835787117,0.51644057,-0.501678586,-0.478169411,-0.502953172
1179761,9.008820534,-0.230919465,3.907432556,0.35492155,-0.145390481,0.329385698,0.674335182,-0.336441278,-0.433954477,-0.493723392,9.846894264,-0.355819643,0.390310913,0.082453676,-0.014612044,0.964900851,0.516515851,-0.5017097,-0.478129208,-0.502883017
1179928,9.013171196,-0.242735162,3.94751811,0.238588676,-0.05935742,0.375514179,0.674336553,-0.336467177,-0.433935642,-0.493720621,9.812175751,-0.332476407,0.389495462,0.216881916,-0.169299945,0.7666713,0.516587615,-0.501718462,-0.478135735,-0.502794206
1180095,9.012742996,-0.258227199,3.884083033,0.175811961,-0.128742218,0.439866096,0.674363792,-0.33648321,-0.433934182,-0.493673742,9.812128067,-0.32463032,0.380430043,0.314812064,-0.312667042,0.615133762,0.516645491,-0.501720667,-0.478170902,-0.502699077
1180261,9.01009655,-0.242008939,3.901152134,0.442299336,-0.122198194,0.297024101,0.674360275,-0.336494386,-0.433935404,-0.493669808,9.876156807,-0.349920362,0.362880677,0.456360638,-0.40128696,0.754518092,0.516708195,-0.501738012,-0.478203654,-0.502586305
1180428,9.015709877,-0.250273079,3.90231204,0.721157551,-0.322079688,0.411679298,0.674360037,-0.336505115,-0.433966845,-0.493635058,9.895334244,-0.291887373,0.377720296,0.375232458,-0.262671024,0.755786002,0.516771734,-0.501755178,-0.478217334,-0.502490819
1180595,9.031355858,-0.226093695,3.880828381,0.623534679,0.296153218,0.691472352,0.674431503,-0.336483985,-0.433928758,-0.493585497,9.915696144,-0.272775203,0.370555878,-0.1429829,0.047236226,0.2692343,0.516761541,-0.501774609,-0.478185177,-0.502512515
1180761,9.046188354,-0.214980125,3.921754837,0.247924536,0.39737466,0.245888337,0.674464881,-0.336458802,-0.433880955,-0.493599147,9.891213417,-0.307979405,0.397652805,-0.484028786,0.41462478,0.128261983,0.516741633,-0.501781583,-0.478113174,-0.502594352
1180928,9.051888466,-0.218445465,3.941992521,0.620115459,0.087704279,0.134588331,0.674456179,-0.336440265,-0.433873951,-0.493629575,9.854406357,-0.314383656,0.372185647,-0.567513406,0.548323035,0.663247228,0.516775787,-0.501811028,-0.47799775,-0.502639711
1181095,8.996657372,-0.218105763,3.923689127,0.643679142,0.022033324,0.519944131,0.674508274,-0.336416215,-0.433880985,-0.493568838,9.841823578,-0.316536605,0.399245471,-0.451116443,0.588470936,0.921500087,0.516852498,-0.501834929,-0.477882206,-0.502646923
1181261,8.989845276,-0.249552444,3.955179453,0.394531608,-0.307070643,0.753147721,0.674554646,-0.336445332,-0.433897942,-0.493470639,9.842262268,-0.322554618,0.396243513,-0.369514436,0.734284103,0.85947901,0.516956151,-0.501823008,-0.477781475,-0.502647996
1181428,9.026934624,-0.229002297,3.924028873,0.221466601,-0.243730471,0.602045715,0.674551129,-0.336507797,-0.43387869,-0.493449807,9.826525688,-0.344560951,0.39796263,-0.184437037,0.694212914,0.644716442,0.517015934,-0.501822352,-0.477673948,-0.502689421
1181595,8.993055344,-0.215488061,3.935054541,0.004616689,-0.186562911,0.369085431,0.674518466,-0.336577356,-0.433845967,-0.493475735,9.818756104,-0.353294432,0.406344831,0.161763415,0.683186769,0.59058404,0.517113149,-0.501777232,-0.477612793,-0.50269258
1181928,8.988078117,-0.237660438,3.918650627,0.316259176,-0.283852726,0.432271928,0.674491763,-0.336673021,-0.433835268,-0.493456393,9.815280914,-0.340672463,0.407583714,0.468910903,0.489964545,0.686029732,0.517208576,-0.50174731,-0.477563024,-0.50267154
1182095,9.009078026,-0.228326321,3.925555944,0.43980211,-0.140396029,0.454503804,0.674504638,-0.336687833,-0.433834523,-0.493429273,9.83327198,-0.328996658,0.419932127,0.518138528,0.28866154,0.696863949,0.517332911,-0.501692951,-0.477569103,-0.502591908
1182261,9.008473396,-0.238908529,3.929761887,0.35618937,-0.083574228,0.433142751,0.674456954,-0.336756796,-0.433783084,-0.493492603,9.867819786,-0.316634238,0.402383685,0.614506185,0.243736848,0.72439748,0.517460287,-0.501639247,-0.477580458,-0.502503514
1182428,9.015699387,-0.241064861,3.920092106,0.266160756,0.073809393,0.488645464,0.674508512,-0.336747974,-0.433768034,-0.493441314,9.884572983,-0.288464099,0.400649339,0.329526544,0.148700923,0.723833978,0.517535508,-0.50163722,-0.477553934,-0.502453387
1182595,9.026576042,-0.228938058,3.923045874,0.402983814,0.076652408,0.494523644,0.674524665,-0.336763471,-0.433732957,-0.493439525,9.877938271,-0.294400543,0.423891425,0.260436296,0.148905829,0.564548671,0.517594993,-0.501627505,-0.477535993,-0.502418935
1182761,9.015189171,-0.2203051,3.946577311,0.502284229,-0.159131691,0.382993072,0.674519598,-0.336781532,-0.433731765,-0.493435204,9.823709488,-0.306387991,0.420172185,0.11901582,0.053485725,0.532840252,0.51765877,-0.5016101,-0.477541208,-0.502365708
1182928,9.005930901,-0.237145454,3.946684599,0.553368807,-0.36709404,0.439213008,0.674514651,-0.336806715,-0.433756262,-0.493403286,9.829334259,-0.32311818,0.410488129,0.215370804,-0.185896978,0.995712996,0.51774466,-0.501636505,-0.477535874,-0.502255738
1183095,9.045477867,-0.242414176,3.865093231,0.490912169,-0.644223392,0.576099992,0.674490929,-0.336873502,-0.433790743,-0.493359745,9.856879234,-0.330917001,0.403025717,0.179461792,-0.35460788,1.166869879,0.517823577,-0.501694679,-0.477523029,-0.502128482
1183261,9.022531509,-0.219025165,3.924479485,0.180319831,0.373119414,0.449893534,0.674523771,-0.33687526,-0.4337219,-0.493374109,9.810466766,-0.307578862,0.359015465,-0.072061323,-0.443112463,0.625532508,0.517841518,-0.501737714,-0.477541208,-0.502049744
1183428,9.030893326,-0.227386445,3.901456118,0.400448114,-0.377876967,0.143104568,0.674449027,-0.336932868,-0.433724076,-0.493435144,9.86051178,-0.317599684,0.391809523,-0.441012233,-0.500843525,0.249205157,0.517810881,-0.501776814,-0.47757557,-0.50200963
1183595,8.998016357,-0.223977864,3.892590761,0.605644226,-0.004277321,0.299239546,0.67445755,-0.336919039,-0.433723778,-0.493433118,9.880624771,-0.348329753,0.368052512,-0.396279722,-0.250556231,0.224821895,0.51779443,-0.501796722,-0.477591813,-0.501991093
1183761,9.024126053,-0.231659561,3.897250652,0.592633009,-0.025202896,0.581248224,0.674494147,-0.336917251,-0.433717757,-0.493389606,9.8823843,-0.346995831,0.380487323,-0.248840183,-0.002343562,0.460958153,0.517790914,-0.50183475,-0.477551162,-0.501995265
1183928,9.005765915,-0.245066762,3.945479393,0.508072674,-0.249326795,0.583988726,0.674477875,-0.33697027,-0.433704287,-0.493387431,9.872127533,-0.325048715,0.380844563,0.0471978,0.28884083,0.490387142,0.517842889,-0.501820683,-0.477519751,-0.501985788
1184095,8.989430428,-0.242720768,3.938205242,0.34360075,-0.241450906,0.34582901,0.674455345,-0.33700785,-0.433701754,-0.493394792,9.866415977,-0.323364228,0.37530151,0.146754369,0.535952091,0.595629752,0.517933786,-0.501781642,-0.477476656,-0.501972079
1184261,9.006784439,-0.232246369,3.937425852,0.139224231,-0.231718123,0.337415308,0.674408495,-0.337076366,-0.433673948,-0.493436515,9.859371185,-0.320513994,0.398382336,0.156730503,0.601533413,0.484803587,0.518021226,-0.501729667,-0.477437615,-0.501970887
1184428,9.011606216,-0.254629523,3.912724733,0.126968548,-0.280228525,0.198594451,0.674368978,-0.337122738,-0.43367067,-0.493461907,9.834597588,-0.312031031,0.418269843,0.277609646,0.538756669,0.498096555,0.518103838,-0.501683593,-0.477401197,-0.501966238
1184595,9.022885323,-0.242649242,3.92240572,0.510966957,-0.249442056,0.103840277,0.674370468,-0.337099463,-0.433715045,-0.493436784,9.820315361,-0.33737582,0.390761435,0.377243072,0.45096916,0.427700043,0.518207848,-0.50160712,-0.477409333,-0.501927733
1184761,9.018293381,-0.228204936,3.887862921,0.573532283,-0.270905495,0.277897775,0.674379289,-0.337088555,-0.433752656,-0.493398964,9.831501961,-0.330591768,0.409611642,0.289391458,0.188400611,0.510249794,0.518258333,-0.501595199,-0.47739014,-0.501905799
1184928,9.01832962,-0.24004218,3.878057003,0.705380082,-0.142048016,0.291735083,0.67435354,-0.337100178,-0.433752716,-0.493426204,9.846686363,-0.304102778,0.393532991,0.262331665,0.076703623,0.370366037,0.518311858,-0.501561761,-0.477410644,-0.501864433
1185095,9.005490303,-0.231101662,3.913118124,0.669637561,-0.057743829,0.314351052,0.674315631,-0.337126166,-0.433729291,-0.493480951,9.848824501,-0.294747442,0.404597789,0.192421794,0.093172602,0.443695188,0.518325925,-0.50157553,-0.477379411,-0.501865625
1185261,9.015511513,-0.207330614,3.918382406,0.534505069,-0.063109688,0.279466569,0.674262166,-0.337168843,-0.433694124,-0.493555605,9.877316475,-0.28664732,0.405373812,-0.082421668,0.085808948,0.413651466,0.51835382,-0.501573265,-0.477368206,-0.50184983
1185428,9.012947083,-0.213066861,3.92877841,0.474443197,-0.053492121,0.27620092,0.67429322,-0.33713901,-0.43371433,-0.493515849,9.871955872,-0.290813595,0.430847138,-0.221050397,0.269567251,0.466772199,0.518403411,-0.501556456,-0.477345288,-0.501837134
1185595,9.005687714,-0.221817523,3.930291176,0.361017376,-0.271776348,0.269042194,0.674277663,-0.337158948,-0.433729589,-0.493510067,9.864489555,-0.313311309,0.427725315,-0.222548738,0.274792224,0.372991323,0.518401027,-0.501575112,-0.477283686,-0.501879632
1185761,9.017631531,-0.223309115,3.930280447,0.450136781,-0.348896176,0.171547443,0.674267232,-0.337158322,-0.433771998,-0.493487537,9.856675148,-0.319551915,0.407530308,-0.076249011,0.356548011,0.376525909,0.518452227,-0.501541555,-0.477263421,-0.501879454
1185928,9.007593155,-0.229034245,3.908137321,0.482203931,-0.488549471,0.286317974,0.674223781,-0.337201387,-0.433801353,-0.493491709,9.853330612,-0.312438935,0.421559751,-0.018492369,0.31269902,0.32077983,0.518484652,-0.501517653,-0.477239281,-0.501892805
1186095,9.028503418,-0.22883077,3.923363924,0.633549333,-0.422417432,0.329027146,0.674188137,-0.337233394,-0.433828473,-0.493494719,9.87047863,-0.319044173,0.43627584,0.134216934,0.280375838,0.393122941,0.518522441,-0.501497626,-0.477214813,-0.501897097
1186261,9.007421494,-0.22734876,3.915373564,0.617298067,-0.489253759,0.335942566,0.674160719,-0.3372612,-0.433869034,-0.493477374,9.85736084,-0.300959289,0.433157384,0.296550244,0.287905961,0.556749642,0.518618762,-0.501443386,-0.477224112,-0.501842976
1186428,9.00757885,-0.238005832,3.907708645,0.510838926,-0.600233614,0.462200403,0.674117208,-0.337326109,-0.433898091,-0.493466914,9.843421936,-0.299672037,0.421273351,0.344971031,0.28873834,0.666564107,0.51870048,-0.50141722,-0.477202922,-0.501804888
1186595,9.008571625,-0.222752601,3.931764841,0.51396364,-0.570753336,0.446397305,0.674090266,-0.337373465,-0.433936298,-0.493437767,9.828957558,-0.299664289,0.436490595,0.411263108,0.072394297,0.764334142,0.518781602,-0.501405537,-0.477198839,-0.501736343
1186761,9.007865906,-0.216690883,3.915994406,0.53225112,-0.672602355,0.412883133,0.674050391,-0.337429017,-0.433983326,-0.493412912,9.841144562,-0.292994201,0.426591635,0.341871917,-0.042990919,0.874321461,0.518846333,-0.501425445,-0.477179319,-0.501668274
1186928,9.007463455,-0.207688659,3.92041707,0.35269326,-0.630648673,0.368944526,0.673976779,-0.337517351,-0.433998823,-0.493439376,9.832894325,-0.29080832,0.445147753,0.286305159,-0.131751716,0.915199339,0.518944204,-0.501419842,-0.477200359,-0.501552463
1187095,9.01760006,-0.219936863,3.914141178,0.488658249,-0.520808578,0.482408792,0.673933566,-0.33758381,-0.434013546,-0.493440062,9.844719887,-0.281053334,0.416137516,0.120155565,-0.181004941,0.842805088,0.518977821,-0.501465619,-0.477175325,-0.501495719
1187261,8.99937439,-0.198191538,3.927258492,0.538948834,-0.502879798,0.455861241,0.673917353,-0.337619454,-0.434049159,-0.493406445,9.835866928,-0.295165539,0.410515636,-0.00669772,-0.14174068,0.886666775,0.51900667,-0.501521587,-0.477134287,-0.50144887
1187428,9.003774643,-0.202348962,3.924143553,0.376064897,-0.587055862,0.426829249,0.673890233,-0.337671399,-0.434085369,-0.493376106,9.849194527,-0.293092132,0.412879705,-0.113669172,-0.208461761,0.863180041,0.519008458,-0.501600444,-0.477080017,-0.501419723
1187595,9.014760971,-0.20804581,3.951058388,0.359877646,-0.674177468,0.502809286,0.673859477,-0.33773756,-0.434123605,-0.493339241,9.862409592,-0.297611892,0.406650394,-0.162474155,-0.168390691,0.749856532,0.519033432,-0.501641035,-0.477060616,-0.50137192
1187761,9.017127037,-0.212433413,3.909065008,0.3881284,-0.634067893,0.50360328,0.673823178,-0.337805927,-0.434152991,-0.493316025,9.843792915,-0.304571271,0.420844495,-0.222113296,-0.078323632,0.693726301,0.519064128,-0.5016675,-0.477042884,-0.501330554
1187928,9.015771866,-0.226674244,3.896791458,0.307486892,-0.680683136,0.687323213,0.673791766,-0.337897748,-0.434171468,-0.493279666,9.835176468,-0.297425956,0.427052677,-0.110173017,-0.08969567,0.780578971,0.519108653,-0.501691639,-0.477028638,-0.50127399
1188095,9.021097183,-0.222044393,3.935266733,0.333202034,-0.776628256,0.649365187,0.673770845,-0.33797586,-0.434215426,-0.493216276,9.838583946,-0.311668038,0.427243799,-0.175165251,-0.183105171,0.845225453,0.519139886,-0.501737535,-0.47700575,-0.501217306
1188261,9.013120651,-0.244331822,3.921204567,0.488965631,-0.783389986,0.590955317,0.673777997,-0.338012576,-0.434291333,-0.493114412,9.839830399,-0.335780799,0.426983654,0.022532769,-0.153855488,0.948918402,0.519220114,-0.501749396,-0.477013022,-0.501115382
1188428,9.023902893,-0.226503879,3.905491829,0.302940547,-0.731447399,0.573500335,0.673717141,-0.338116556,-0.434307128,-0.493112266,9.847900391,-0.333215147,0.416153908,0.249653369,-0.325460553,0.983188212,0.519253373,-0.501809895,-0.476992905,-0.501039505
1188595,9.023172379,-0.244036764,3.884746552,0.204485387,-0.731063247,0.547106504,0.673694968,-0.338187873,-0.434348822,-0.493057042,9.8077631,-0.303232133,0.411587358,0.33090964,-0.456866503,0.947074354,0.519299865,-0.501852989,-0.477010936,-0.500930965
1188761,9.038054466,-0.24209924,3.887284994,0.556749642,-0.732126176,0.428801388,0.673652112,-0.338243693,-0.434400976,-0.493031323,9.822758675,-0.323020965,0.388015747,0.368714005,-0.567513406,0.794806898,0.519332707,-0.501887679,-0.477054328,-0.500820816
1188928,9.027667999,-0.236181185,3.875165224,0.817333281,-0.727925718,0.649467647,0.67364651,-0.338279873,-0.43446663,-0.492956311,9.876695633,-0.32551381,0.357240081,0.505165696,-0.703491271,1.0515486,0.519404054,-0.501920938,-0.477119416,-0.50065136
1189095,9.029621124,-0.197010651,3.861386538,0.659661472,-0.081256293,0.764916897,0.673686385,-0.338289112,-0.434454739,-0.492905974,9.886547089,-0.28594175,0.346618235,0.275855213,-0.500472128,0.934165537,0.519459784,-0.50195241,-0.477157742,-0.500525594
1189261,9.077858925,-0.195933238,3.908390522,0.262549371,-0.171080038,0.436267525,0.673626781,-0.338367343,-0.43440479,-0.492977738,9.917692184,-0.262225449,0.377264917,-0.114655241,-0.220013082,0.625417352,0.519491553,-0.501963437,-0.477178395,-0.500461876
1189428,9.065392494,-0.200907752,3.894997597,0.47847721,-0.517427742,0.340988278,0.6735695,-0.338424265,-0.434423685,-0.493000418,9.898040771,-0.313551128,0.410015732,-0.445584118,0.267338932,0.517984807,0.519516289,-0.501963615,-0.477138668,-0.500473917
1189595,9.012968063,-0.220535532,3.917571783,0.506715238,-0.413850039,0.718122482,0.673598826,-0.338448524,-0.434452266,-0.492918402,9.860646248,-0.332587868,0.410256922,-0.47350201,0.438380599,0.897078454,0.519552827,-0.502003372,-0.477031052,-0.500498712
1189761,8.984830856,-0.237508878,3.917764425,0.274331242,-0.602846086,0.698579967,0.673567832,-0.338539124,-0.434458673,-0.492892921,9.841798782,-0.326481462,0.403837919,-0.287707478,0.667294025,0.821047068,0.51963836,-0.501982927,-0.476950973,-0.500506759
1189928,9.008322716,-0.236684129,3.913990736,0.097001702,-0.644005656,0.496034712,0.673550129,-0.338602126,-0.434493333,-0.49284324,9.824842453,-0.327998638,0.407048255,-0.181222633,0.704073846,0.693534195,0.519735396,-0.501932323,-0.476896465,-0.500508487
1190095,9.002358437,-0.220097676,3.904252768,0.08812689,-0.488523781,0.395709783,0.673518479,-0.338662773,-0.434505403,-0.492834181,9.818026543,-0.329150558,0.426097959,-0.052557264,0.587664187,0.592748344,0.519791543,-0.501906037,-0.476832628,-0.500537336
1190261,8.997397423,-0.227121353,3.886107206,0.30233869,-0.541657269,0.468129694,0.673506379,-0.338703752,-0.434539586,-0.492792368,9.825789452,-0.346723944,0.4181768,0.182215124,0.403060615,0.523824513,0.519859135,-0.501858771,-0.476817489,-0.50052911
1190428,9.00519371,-0.248374432,3.901502609,0.51518023,-0.370474875,0.477273405,0.673493624,-0.33873269,-0.434555471,-0.492776006,9.844501495,-0.336893171,0.411020428,0.284781188,0.326901287,0.608295202,0.519940853,-0.501809239,-0.476815552,-0.500495672
1190595,9.019863129,-0.233086467,3.878650665,0.554406166,-0.194515646,0.505780399,0.673511624,-0.338732809,-0.434566319,-0.492741853,9.848705292,-0.308103412,0.407806754,0.382045388,0.264329433,0.768553793,0.520029306,-0.501774669,-0.476806492,-0.500447035
1190762,9.016644478,-0.240460604,3.881057501,0.414074123,-0.050303344,0.481627584,0.673521161,-0.338742435,-0.434547991,-0.492738187,9.877845764,-0.295337498,0.432091683,0.233735099,0.243711233,0.726843596,0.520086348,-0.501764476,-0.476775765,-0.500427186
1190928,9.025206566,-0.24885039,3.888102531,0.382736951,0.063077673,0.446013123,0.673506558,-0.33876875,-0.434499025,-0.492783099,9.883140564,-0.301338315,0.440420747,0.102815777,0.259975284,0.644613981,0.520135283,-0.50175041,-0.476747543,-0.50041759
1191095,9.02453804,-0.243825749,3.914502621,0.309100479,0.035761733,0.407248318,0.673493743,-0.338793099,-0.43445617,-0.492821634,9.888157845,-0.280438989,0.42843318,-0.021796405,0.136752591,0.680702269,0.520184278,-0.501742244,-0.47673279,-0.50038898
1191262,9.019699097,-0.235146359,3.901956797,0.44418183,-0.107624561,0.462917507,0.673478484,-0.33882156,-0.434431016,-0.492845118,9.811110497,-0.331864893,0.430164099,-0.244780585,0.159150913,0.750394523,0.52020669,-0.501768947,-0.476678848,-0.500390172
1191428,9.001792908,-0.264703721,3.888689041,0.415956646,-0.392437756,0.569056511,0.673471928,-0.338861197,-0.43444103,-0.492818117,9.842896461,-0.343439102,0.4111664,0.04120443,-0.182375237,1.11923027,0.520273328,-0.501804948,-0.476665556,-0.500297487
1191595,9.083123207,-0.2504704,3.85344553,0.453056604,0.076780468,0.486071378,0.673484385,-0.338864177,-0.434406906,-0.492829204,9.820360184,-0.338088959,0.418909609,0.106350332,-0.468072057,0.992331922,0.520313919,-0.501849115,-0.476686776,-0.500190735
1191762,9.012485504,-0.237013131,3.921622515,0.012595044,0.161084682,0.292362571,0.673489749,-0.338870972,-0.43435958,-0.492858768,9.825498581,-0.313499033,0.413785458,-0.020387707,-0.642878711,0.553791344,0.520306468,-0.501879752,-0.476749927,-0.500107527
1191928,9.058561325,-0.228534013,3.852304697,0.666973829,0.045340877,0.149187565,0.673467219,-0.338851094,-0.434346855,-0.492914408,9.853116035,-0.329368681,0.412994713,-0.094165094,-0.650562584,0.375219643,0.520252228,-0.501929641,-0.476793557,-0.5000723
1192095,9.001760483,-0.241873205,3.905733347,0.638723075,0.333534956,0.418466657,0.673528969,-0.338786572,-0.434325635,-0.49289301,9.879580498,-0.348004311,0.407240599,-0.065453254,-0.573173821,0.494113773,0.520214558,-0.501978993,-0.476825714,-0.500031352
1192262,9.021039963,-0.233776674,3.903476715,0.49456206,0.288110852,0.474917024,0.673547685,-0.338776439,-0.434268802,-0.492924631,9.888460159,-0.314999491,0.403950483,0.0766396,-0.169850618,0.731018424,0.520253479,-0.501984358,-0.476842433,-0.499969304
1192428,9.023675919,-0.237342149,3.88851738,0.368060887,0.135651261,0.433001876,0.673578978,-0.338758349,-0.434242368,-0.492917597,9.883832932,-0.295974076,0.382768631,-3.84E-05,0.078663006,0.681957304,0.520304084,-0.501969814,-0.476843178,-0.499930412
1192595,8.995520592,-0.243368059,3.94179225,0.268235415,0.211951509,0.34714812,0.673600197,-0.338742077,-0.434203088,-0.492934406,9.878826141,-0.313579708,0.413270205,-0.1206102,0.272077292,0.635598361,0.52034694,-0.501954794,-0.476815909,-0.499927074
1192762,9.009403229,-0.247545063,3.929118156,0.281566769,-0.058422565,0.173558041,0.673569858,-0.338753551,-0.434182674,-0.492986053,9.85072422,-0.31027174,0.412769407,-0.150320932,0.408362418,0.615953326,0.520383418,-0.501941264,-0.476765871,-0.499950379
1192928,9.029515266,-0.218785077,3.914931059,0.411832988,-0.148271903,0.266288817,0.67355442,-0.338757485,-0.434180826,-0.493006021,9.841671944,-0.346484482,0.405992478,-0.052493226,0.326850027,0.578328371,0.520417869,-0.501923561,-0.476731986,-0.499964565
1193095,9.019899368,-0.216274619,3.885831833,0.465171427,-0.070921563,0.21200271,0.673537493,-0.338751405,-0.434174299,-0.493039072,9.816383362,-0.326511264,0.419542879,0.088959299,0.012172434,0.474507242,0.520397127,-0.501944721,-0.476703137,-0.49999246
1193262,9.023553848,-0.238114759,3.901985168,0.437740207,-0.128985554,0.230495095,0.67348814,-0.338778645,-0.434150219,-0.493108898,9.833614349,-0.324154645,0.430006862,0.066112779,-0.219155058,0.404507726,0.520396948,-0.501938164,-0.476740271,-0.499964058
1193428,9.03867054,-0.223506004,3.865325689,0.476645917,0.128287598,0.176708415,0.673495412,-0.338742077,-0.434136659,-0.493136048,9.828136444,-0.286933422,0.442137241,0.170535758,-0.458979607,0.414688826,0.52038008,-0.501948953,-0.476794213,-0.499919176
1193595,9.029490471,-0.215541258,3.889808178,0.440006942,0.119092658,0.110563628,0.673499525,-0.338701755,-0.434127957,-0.493165672,9.836043358,-0.289830148,0.421094835,0.019126285,-0.70118618,0.405148119,0.520328999,-0.501992464,-0.476851076,-0.499874502
1193762,9.035112381,-0.222829893,3.892841101,0.423986226,0.172315836,0.181229055,0.673487842,-0.33868432,-0.43409282,-0.493224621,9.843900681,-0.292637497,0.411138713,-0.069013409,-0.663804293,0.492500186,0.520282447,-0.502043068,-0.476895392,-0.499829799
1193928,9.026165009,-0.219411045,3.929457903,0.456155747,0.239549175,0.28184852,0.673518956,-0.338638604,-0.434069723,-0.49323386,9.865515709,-0.282670647,0.411617935,-0.159976929,-0.518734038,0.45700103,0.520242751,-0.502080798,-0.47693187,-0.499798387
1194095,9.011610031,-0.227299809,3.899960995,0.513361692,0.210299462,0.264828891,0.673521459,-0.338613331,-0.43403396,-0.493279219,9.876550674,-0.301527739,0.389227033,-0.334194452,-0.401082039,0.441415608,0.520191073,-0.502127111,-0.476942509,-0.499795586
1194262,9.017331123,-0.219536215,3.920177698,0.425599813,0.135318294,0.325825572,0.673521698,-0.338603228,-0.433998168,-0.493317366,9.867426872,-0.314151734,0.40516597,-0.328610927,-0.174115121,0.504461288,0.520174503,-0.502146184,-0.476947844,-0.499788433
1194428,9.011702538,-0.222143352,3.911591053,0.37447688,0.028103534,0.252022535,0.673530459,-0.338579804,-0.433989555,-0.493329108,9.856803894,-0.318972677,0.379982948,-0.143174976,-0.011243975,0.55978477,0.520181298,-0.502147973,-0.47694543,-0.499781907
1194595,9.012499809,-0.218935445,3.913421631,0.363860428,-0.014970624,0.397169739,0.67353785,-0.338577241,-0.433970928,-0.493337154,9.852222443,-0.313676298,0.402158827,-0.053889114,0.041025139,0.544954956,0.520181656,-0.502152026,-0.476931304,-0.499790967
1194762,9.014703751,-0.235697001,3.913079262,0.389562756,0.053869911,0.348198205,0.673524439,-0.338584155,-0.433933467,-0.493383765,9.851288795,-0.307754099,0.390182108,0.035223864,0.086346813,0.581132948,0.520201027,-0.502141654,-0.476925284,-0.499786973
1194928,9.018143654,-0.219818726,3.898273468,0.33686462,0.071068831,0.468590736,0.673540115,-0.338582844,-0.433900148,-0.493392587,9.858430862,-0.323875636,0.389896005,0.195994794,0.20298703,0.632588863,0.520222962,-0.502133191,-0.476897538,-0.499799103
1195095,9.009918213,-0.220573306,3.897078991,0.353487283,0.079175264,0.346123636,0.673555493,-0.338564962,-0.433878332,-0.493402898,9.846507072,-0.31331867,0.367344439,0.295295209,0.123920642,0.654103458,0.520271003,-0.502102375,-0.476906031,-0.499771923
1195262,9.021697998,-0.22470057,3.882891893,0.357393235,0.121487431,0.266404092,0.673556924,-0.338548154,-0.433848947,-0.493438363,9.845237732,-0.311430424,0.391973764,0.320600569,0.046519063,0.647687554,0.520319164,-0.502070308,-0.476928085,-0.499732941
1195428,9.040777206,-0.217566028,3.888688803,0.52409339,0.182842627,0.292016774,0.673589826,-0.338496745,-0.433836699,-0.493439585,9.856077194,-0.287773818,0.367423117,0.163556293,0.106337525,0.666743398,0.520363688,-0.502044141,-0.476936191,-0.499705136
1195595,9.021609306,-0.206858933,3.898326874,0.456296623,0.224527314,0.40079394,0.673612118,-0.338470727,-0.433798194,-0.493460834,9.865127563,-0.293617308,0.365713686,0.002337159,0.150801167,0.601917624,0.520379245,-0.502036273,-0.476919055,-0.499713302
1195762,9.020821571,-0.204895213,3.913500786,0.426675558,0.229534596,0.360159367,0.673627317,-0.338447094,-0.433757156,-0.493492365,9.86980629,-0.300902069,0.382600546,-0.094152287,0.194739774,0.721887529,0.520410717,-0.5020293,-0.476895809,-0.499709666
1195928,9.022423744,-0.218499109,3.887483835,0.400704265,0.253085494,0.421873152,0.673639297,-0.338434577,-0.433703601,-0.493531585,9.8820467,-0.294196725,0.372057706,-0.195194364,0.219878614,0.654743791,0.520410657,-0.502042651,-0.476847291,-0.499742568
1196095,9.033195496,-0.214876413,3.90785408,0.43286106,0.259232521,0.487685025,0.673680842,-0.338401884,-0.433665186,-0.493531048,9.863462448,-0.311301619,0.390218109,-0.23317802,0.316809863,0.684172809,0.520437062,-0.502033591,-0.476809174,-0.499760568
1196262,9.025914192,-0.214407727,3.902997732,0.390997052,0.271296144,0.468232155,0.673702955,-0.338386327,-0.433611393,-0.493558705,9.846355438,-0.321189314,0.374031335,-0.237993196,0.428916663,0.698887348,0.520479858,-0.502009749,-0.476770312,-0.499777019
1196428,9.017313957,-0.228780702,3.899220943,0.37341398,0.216779485,0.480154842,0.67373246,-0.338366807,-0.433569312,-0.493568689,9.879337311,-0.31684804,0.387378275,-0.143725663,0.588291645,0.774188578,0.520520747,-0.501995623,-0.47669521,-0.499820232
1196595,9.035116196,-0.228791431,3.922806263,0.338337332,0.372325391,0.461944222,0.673766494,-0.338340074,-0.433508992,-0.493593544,9.880986214,-0.342689008,0.37443909,-0.011141525,0.73133862,0.837183237,0.520582318,-0.501968145,-0.476611584,-0.499863535
1196762,9.023779869,-0.222679704,3.900497675,0.125790372,0.31624642,0.48523894,0.673793852,-0.338334471,-0.433441669,-0.493619323,9.83307457,-0.332483947,0.385064662,0.274433702,0.828141809,0.707288325,0.520686388,-0.501879752,-0.476577282,-0.499876618
1196928,9.027338028,-0.231316239,3.898745537,0.240099832,0.434346557,0.376986921,0.673828185,-0.338300794,-0.433377594,-0.493651837,9.814905167,-0.328404069,0.387787163,0.37113443,0.677372694,0.576945364,0.520769417,-0.501792967,-0.476563096,-0.499890804
1197095,9.028775215,-0.210717708,3.906970501,0.497763634,0.244018599,0.323750943,0.673859537,-0.338251501,-0.433353931,-0.493663579,9.846954346,-0.313805461,0.370815277,0.284422606,0.666948318,0.479821861,0.520841777,-0.501702845,-0.47655502,-0.499913424
1197262,9.043437004,-0.211113051,3.856628895,0.685952842,0.56994015,0.602173746,0.673928142,-0.338189036,-0.4332892,-0.493669599,9.858805656,-0.311205834,0.392879516,0.340706527,0.599420428,0.64562577,0.520915926,-0.501633465,-0.476535022,-0.499924898
1197428,9.051916122,-0.214510232,3.914156914,0.365076989,0.999746859,0.574499249,0.674005151,-0.338125467,-0.433161139,-0.493720382,9.897892952,-0.256646484,0.411814541,0.048452821,0.65909797,0.392636269,0.520957768,-0.501560509,-0.476512223,-0.499976218
1197595,9.05657959,-0.207720116,3.94871521,0.311674505,0.586255431,0.272820055,0.674037576,-0.338072687,-0.43308875,-0.493775725,9.909270287,-0.262328207,0.407032371,-0.443880886,1.008775353,0.181152195,0.520986259,-0.501470804,-0.476458222,-0.500087976
1197762,9.0262537,-0.207025066,3.960597038,0.506382287,0.676745117,0.436690092,0.674099624,-0.338002235,-0.433015138,-0.493803829,9.872719765,-0.301466644,0.424916208,-0.524189532,1.175719023,0.40895161,0.521017849,-0.501407564,-0.476350367,-0.500221312
1197928,8.97495842,-0.238392159,3.987108946,0.401664734,0.600099087,0.745361507,0.674163222,-0.337975621,-0.432918996,-0.493819594,9.853603363,-0.321717441,0.418218881,-0.413260907,1.342534423,0.761574388,0.521094799,-0.501347601,-0.476212978,-0.500332117
1198095,8.990671158,-0.236476704,3.969329119,0.235809699,0.288418174,0.661262214,0.674173594,-0.337999314,-0.432831168,-0.493866175,9.848607063,-0.295727521,0.429000497,-0.183182016,1.48350668,0.885463119,0.521204948,-0.501269817,-0.476070791,-0.500430405
1198262,9.011309624,-0.229478076,3.939467669,0.082940318,0.408977151,0.503718495,0.67419821,-0.337996721,-0.432745904,-0.493909061,9.843646049,-0.32134214,0.47088331,-0.071382597,1.643560648,0.563831568,0.521308959,-0.501150906,-0.475946963,-0.500559151
1198428,8.968545914,-0.223663375,3.949841738,0.123766966,0.33212629,0.390254289,0.674210489,-0.337989748,-0.432675362,-0.493958771,9.829936981,-0.32713607,0.474952847,0.090662561,1.765336275,0.352565229,0.52143091,-0.500983357,-0.475854993,-0.500687182
1198595,8.982592583,-0.229428008,3.96618557,0.205074459,0.179359332,0.548463941,0.674221396,-0.338001013,-0.432613134,-0.49399066,9.834316254,-0.318860948,0.490727991,0.322278231,1.694734812,0.502412379,0.521578193,-0.500810802,-0.475777,-0.500780463
1198762,8.969807625,-0.225229532,3.96136117,0.480116427,-0.049330063,0.620743036,0.674230814,-0.33801192,-0.432584554,-0.493995428,9.820300102,-0.296360224,0.474442214,0.314543217,1.59721446,0.678486884,0.521718264,-0.500669599,-0.475679934,-0.500868201
1198928,8.995531082,-0.238379255,3.941928148,0.336237103,0.134012043,0.601251721,0.674260437,-0.338006735,-0.432540894,-0.493996859,9.832820892,-0.299558431,0.485822946,0.354217261,1.396820664,0.736320257,0.521841645,-0.500552118,-0.475586891,-0.500945151
1199095,9.006109238,-0.246915653,3.956147194,0.25338003,0.258118391,0.604363739,0.674310923,-0.337985903,-0.432490736,-0.49398607,9.852519035,-0.28971988,0.494617611,0.329718679,1.277631879,0.624866664,0.521954417,-0.500429869,-0.47551766,-0.501015425
1199262,8.999358177,-0.243182361,3.943730354,0.245363265,0.399385214,0.623573184,0.674344957,-0.337979883,-0.432406366,-0.494017363,9.876955986,-0.284886181,0.478063732,0.180268571,1.270870209,0.676719487,0.522053242,-0.500328124,-0.475428104,-0.50109911
1199428,9.004878998,-0.213306695,3.980697632,0.428673387,0.208416954,0.579365671,0.674377739,-0.337962359,-0.432359636,-0.494025737,9.858693123,-0.283215135,0.475670248,-0.046064444,1.209002614,0.572808862,0.522129714,-0.500234663,-0.47534129,-0.501195192
1199595,9.000116348,-0.245796338,3.995907784,0.493140519,-0.049663018,0.520289898,0.674411476,-0.337936997,-0.432358205,-0.49399814,9.821065903,-0.308349222,0.483388931,-0.180684805,1.118359447,0.75058651,0.522208273,-0.500164628,-0.47524479,-0.501274824
1199762,8.980714798,-0.266980082,3.931723595,0.319307148,-0.51354748,0.695352852,0.674423039,-0.337970793,-0.432382584,-0.49393791,9.847025871,-0.330927193,0.479291856,-0.100465819,0.985967278,0.945806623,0.522301495,-0.500107467,-0.47515434,-0.501320243
1199928,9.032988548,-0.21195823,3.954409122,0.25674808,0.40087074,0.653885782,0.674455941,-0.337968439,-0.432293624,-0.49397254,9.834599495,-0.302083135,0.457100064,-0.035550427,0.836978197,0.683366001,0.522355258,-0.500051379,-0.475084335,-0.501386642
1200095,9.01693821,-0.242996126,3.927973747,0.055381056,-0.345681787,0.3093566,0.674445093,-0.337984562,-0.432307065,-0.493964523,9.820821762,-0.316051036,0.46024704,-0.136413231,0.719928145,0.283756703,0.522370577,-0.499977469,-0.475052029,-0.501474977
1200262,9.000909805,-0.229982316,3.907993555,0.404840678,0.177579224,0.262165159,0.674449682,-0.337952912,-0.432274759,-0.494008213,9.861870766,-0.338945776,0.474376738,-0.178328425,0.675887108,0.140696943,0.522373617,-0.49989596,-0.475035191,-0.501569152
1200428,8.997948647,-0.235200241,3.926231623,0.501707911,0.232416019,0.622138858,0.67447722,-0.337939888,-0.43221885,-0.49402836,9.845191956,-0.32064265,0.441575825,-0.114091761,0.624981821,0.230879292,0.522376359,-0.499826193,-0.475012571,-0.501657009
1200595,9.023599625,-0.232424915,3.923707485,0.440903395,-0.07368774,0.629233658,0.674495816,-0.337944031,-0.432197362,-0.494018883,9.85820961,-0.309484869,0.468172163,-0.162115559,0.675733387,0.457397968,0.522382259,-0.499783814,-0.474953473,-0.501748979
1200762,8.999483109,-0.235332519,3.921443462,0.272743255,0.15150553,0.48091048,0.674517035,-0.337932587,-0.432154477,-0.494035363,9.868382454,-0.305507243,0.472061157,-0.255320162,0.79764986,0.483407646,0.522409558,-0.499724776,-0.474895149,-0.50183481
1200928,8.995649338,-0.247798979,3.92271328,0.106849775,0.330141276,0.342256099,0.674552023,-0.337897688,-0.432103693,-0.494055957,9.867452621,-0.297787607,0.469400376,-0.300590634,1.002999663,0.355702758,0.52244395,-0.499639899,-0.474833608,-0.501941741
1201095,8.993763924,-0.232364073,3.957212925,0.185032547,0.131066591,0.317808777,0.674556911,-0.337885112,-0.432065427,-0.494091392,9.863241196,-0.31672591,0.482250988,-0.25146547,1.076251984,0.37217173,0.522489846,-0.499544829,-0.474771261,-0.502047539
1201262,9.013801575,-0.23628737,3.940862417,0.43957153,0.137559399,0.294142634,0.674557924,-0.33785826,-0.432035297,-0.494134456,9.834328651,-0.338359058,0.477333784,-0.175728723,1.00461328,0.200387344,0.522509158,-0.499450058,-0.474718243,-0.502171636
1201428,9.008219719,-0.225765973,3.949209213,0.426214516,0.181318715,0.325198025,0.674573183,-0.337822795,-0.432005584,-0.49416402,9.833379745,-0.326721489,0.470765203,-0.067182101,0.875678957,0.194675729,0.522520244,-0.499361575,-0.474677026,-0.502287149
1201595,9.024577141,-0.228097841,3.92290616,0.418261737,0.100369766,0.209441423,0.674578369,-0.337783515,-0.431991398,-0.494196206,9.840478897,-0.311573416,0.47758466,-0.050610695,0.699886203,0.192229703,0.522529006,-0.499276936,-0.474659801,-0.502378345
1201762,9.021491051,-0.24311772,3.925388098,0.33909297,0.260077745,0.307691783,0.674612999,-0.337731957,-0.431963116,-0.494208872,9.83012104,-0.290656239,0.478417873,-0.048651319,0.612649322,0.091226026,0.522548974,-0.499169618,-0.474681586,-0.502443671
1201928,9.020947456,-0.232457057,3.928810596,0.394057751,0.306667238,0.220915928,0.674633503,-0.337678581,-0.431928545,-0.494247556,9.845477104,-0.275546759,0.481704384,-0.180876881,0.620141089,0.191294849,0.522551596,-0.499091774,-0.474671006,-0.50252831
1202095,9.002379417,-0.249672905,3.93564105,0.39385286,0.397976518,0.228804648,0.674678743,-0.337602705,-0.431898296,-0.494264036,9.849729538,-0.277138174,0.495687366,-0.220755845,0.607770145,0.166924357,0.522533059,-0.499029279,-0.474645764,-0.502633452
1202262,9.004532814,-0.237414002,3.957720518,0.38939628,0.491834253,0.306564808,0.674710035,-0.337546557,-0.43183738,-0.494313061,9.838697433,-0.277963042,0.471337497,-0.377633601,0.660775602,0.376782,0.522527218,-0.498984069,-0.474595547,-0.5027318
1202428,9.002826691,-0.222611755,3.948157787,0.291005105,0.394211471,0.380982518,0.674747527,-0.337502301,-0.431782752,-0.494339705,9.832830429,-0.301241755,0.471198291,-0.476037681,0.749395669,0.210875764,0.522520304,-0.498917311,-0.474556148,-0.502842486
1202595,8.997115135,-0.219632775,3.965917349,0.281810105,0.531623542,0.359173268,0.67478472,-0.337452948,-0.431710839,-0.494385511,9.865950584,-0.305347234,0.496728033,-0.312013894,0.949315429,0.288648695,0.522534609,-0.498837799,-0.47449857,-0.502960801
1202762,8.997984886,-0.227343336,3.942034721,0.262293249,0.527051747,0.424652129,0.674829721,-0.337406129,-0.431637585,-0.494419843,9.871221542,-0.294141263,0.507886589,-0.234471455,1.172543168,0.406992227,0.522561073,-0.498758733,-0.474404812,-0.503100216
1202928,8.982559204,-0.225511715,3.96883893,0.305668324,0.591262758,0.360453904,0.674871564,-0.337350279,-0.431561291,-0.494467497,9.871429443,-0.293282151,0.522020757,-0.143828124,1.355212688,0.338555098,0.522617459,-0.498640418,-0.474324435,-0.503234625
1203095,8.980571747,-0.231137425,3.985046387,0.34352392,0.560719609,0.33782509,0.67491293,-0.337290555,-0.431492299,-0.494511932,9.867508888,-0.289954007,0.50640595,-0.025663927,1.50438118,0.295231193,0.522670686,-0.498515338,-0.474226832,-0.503395319
1203262,8.982209206,-0.233712301,3.971521139,0.236321986,0.511671364,0.346853554,0.674934328,-0.337255418,-0.431411415,-0.494577318,9.865721703,-0.296458066,0.530492842,0.018409127,1.565621138,0.248487994,0.522741854,-0.498366565,-0.474145085,-0.503545761
1203428,8.994805336,-0.236194193,3.979120731,0.341628551,0.492717892,0.393647939,0.674967825,-0.337209761,-0.431341141,-0.494623959,9.853124619,-0.282367826,0.521152914,0.020970399,1.591682076,0.289365888,0.522807539,-0.498226792,-0.474048942,-0.503706336
1203595,8.984817505,-0.238968998,3.970999002,0.40418759,0.494152188,0.336045027,0.67499572,-0.337158382,-0.431274503,-0.494679093,9.836888313,-0.279448748,0.537702262,-0.037484184,1.676293373,0.272064447,0.522889256,-0.49807018,-0.473959029,-0.50386107
1203762,8.9734869,-0.223055199,3.95040369,0.460766047,0.463301718,0.316643387,0.675029695,-0.337095737,-0.431221187,-0.494721889,9.838117599,-0.281233579,0.511631966,-0.00094767,1.517546058,0.261102289,0.52294606,-0.497934282,-0.473870367,-0.504019678
1203928,8.991379738,-0.227632403,3.964401007,0.441377223,0.477836877,0.327477545,0.675074697,-0.337027162,-0.431170762,-0.494751245,9.841678619,-0.267637521,0.542751193,-0.120046712,1.378148913,0.250588238,0.522997737,-0.497804821,-0.473798007,-0.504161954
1204095,8.989351273,-0.232542872,3.984778166,0.365678877,0.444566011,0.380559862,0.675102651,-0.336983472,-0.431105644,-0.494799376,9.83559227,-0.265235215,0.552391827,-0.202583656,1.417387486,0.245619372,0.523035586,-0.497686654,-0.473707855,-0.504324079
1204262,8.992988586,-0.232099801,3.988386631,0.402497172,0.505229712,0.408298463,0.675156176,-0.33691889,-0.431047857,-0.494820684,9.837047577,-0.263370067,0.548971117,-0.250722706,1.261982441,0.313006401,0.523065269,-0.497586489,-0.47362259,-0.504472017
1204428,8.978136063,-0.219986811,3.965370178,0.483830273,0.339272171,0.465722114,0.675193608,-0.336872965,-0.431000084,-0.494842499,9.864696503,-0.279473484,0.541199446,-0.284493059,1.33041966,0.367420584,0.52310282,-0.497486025,-0.47352767,-0.504621446
1204595,8.989461899,-0.220001414,3.989309072,0.36429584,0.426829249,0.442516983,0.675234675,-0.336826295,-0.430940181,-0.494870543,9.832141876,-0.284356415,0.55158484,-0.248584047,1.248663783,0.378830999,0.523129523,-0.497395962,-0.473433912,-0.504770577
1204762,8.98104763,-0.234230846,3.966428757,0.309292525,0.334982067,0.440596044,0.675248682,-0.336806029,-0.430873215,-0.494923502,9.841268539,-0.286535233,0.566313028,-0.245113537,1.070335627,0.482319146,0.523157477,-0.497320682,-0.473351598,-0.504893005
1204928,8.995606422,-0.222236007,3.971467733,0.379151165,0.347173721,0.405813992,0.675262749,-0.33677724,-0.430810601,-0.494978398,9.853746414,-0.291582376,0.550082088,-0.165675744,1.16590929,0.600278378,0.5231933,-0.497251332,-0.473247916,-0.505021274
1205095,8.99876976,-0.236690909,3.987774849,0.300648242,0.590366304,0.462507695,0.675310791,-0.336726934,-0.430728257,-0.495018661,9.858616829,-0.292914331,0.560268462,-0.027789777,1.083128929,0.758334398,0.523263395,-0.49717328,-0.473165721,-0.505102515
1205262,8.979927063,-0.236029342,3.976485252,0.167116448,0.3459315,0.425138772,0.675346375,-0.336695254,-0.430670142,-0.495042235,9.812592506,-0.285450608,0.558206558,0.232544094,1.00694406,0.61231637,0.523331165,-0.497074693,-0.473114997,-0.505176961
1205428,8.96614933,-0.247008637,3.992449284,0.371851593,0.469115764,0.339541137,0.675373614,-0.336645186,-0.43060568,-0.495095223,9.805273056,-0.288393199,0.551058114,0.230956092,0.946651757,0.466131926,0.523382843,-0.49697125,-0.473078579,-0.505259097
1205595,8.9871521,-0.246447176,3.96136117,0.686221778,0.290505648,0.375770301,0.675409555,-0.336577356,-0.430581063,-0.49511376,9.845180511,-0.299991071,0.529405177,0.289160997,0.847940505,0.598383188,0.523445249,-0.496876389,-0.473048329,-0.505316079
1205762,9.004322052,-0.227035716,3.941011906,0.742556989,0.750945091,0.693291008,0.675524116,-0.336472034,-0.43051526,-0.495086282,9.884362221,-0.265629411,0.530228913,0.244710132,1.04823184,0.771166325,0.523525298,-0.496786863,-0.472982377,-0.505382895
1205928,8.995477676,-0.211086437,4.00846529,0.338862419,1.218453765,0.569991469,0.675635517,-0.336367518,-0.430378735,-0.495124072,9.923996925,-0.236609757,0.548638463,-0.048728157,1.358875275,0.336147457,0.523570001,-0.496668398,-0.472901106,-0.505529046
1206095,9.019248962,-0.227069929,3.994807959,0.518164098,0.620640516,0.324404031,0.675686896,-0.336283356,-0.430317163,-0.495164543,9.901444435,-0.246708423,0.558265686,-0.342441797,1.844172001,0.117837615,0.523604214,-0.496526718,-0.472771913,-0.505753696
1206262,8.989337921,-0.209682822,3.98844409,0.563216865,0.882901847,0.587548912,0.675781369,-0.336188614,-0.430223346,-0.495181471,9.894200325,-0.282158256,0.552083313,-0.392962843,2.234714508,0.386412412,0.523701549,-0.496362746,-0.472607136,-0.505967557
1206428,8.947419167,-0.238944679,4.037735462,0.385541528,0.565842092,0.889778733,0.675871551,-0.336151004,-0.430134833,-0.495160878,9.88458252,-0.281076491,0.566850901,-0.341109931,2.533998728,0.695160627,0.523827076,-0.49620828,-0.472385973,-0.506195545
1206595,8.976913452,-0.239366278,4.011746407,0.10745167,0.437240779,0.668100774,0.675920248,-0.336138874,-0.430047065,-0.495178908,9.861471176,-0.279576063,0.615049958,-0.227415174,2.868776083,0.547010362,0.523978055,-0.496005148,-0.472163856,-0.506445825
1206762,8.967841148,-0.240625113,3.986841202,-0.156186238,0.512964785,0.466887504,0.675919533,-0.336155295,-0.429925412,-0.495274216,9.850111008,-0.287555069,0.625754893,-0.219039828,3.12011981,0.437599361,0.524141133,-0.495774299,-0.471932411,-0.506718934
1206928,8.954925537,-0.23495318,4.007465363,-0.202365935,0.328361183,0.510966957,0.675930917,-0.336174369,-0.429831296,-0.495327473,9.823293686,-0.304198027,0.625220776,-0.137040749,3.114177704,0.25102365,0.524304569,-0.495517254,-0.471728623,-0.50699091
1207095,8.936141014,-0.23214592,4.013223171,0.129350528,0.392200828,0.474891424,0.675958693,-0.336155117,-0.429755539,-0.495368361,9.80792141,-0.300676584,0.623516738,0.066612236,2.942252636,0.286727756,0.524463892,-0.495266825,-0.471542746,-0.507243574
1207262,8.961088181,-0.233930454,3.985421896,0.28534469,0.440199047,0.597858071,0.676019549,-0.336114079,-0.429688841,-0.495370954,9.820557594,-0.302060962,0.634993911,0.106901012,2.727400541,0.40768373,0.524632096,-0.495028555,-0.471376866,-0.507456303
1207429,8.969877243,-0.246457383,3.99326992,0.332920283,0.531418741,0.641181946,0.676085114,-0.336069375,-0.429610431,-0.495379776,9.824522972,-0.254090577,0.638985097,0.149085134,2.415053606,0.372427881,0.524757564,-0.494823605,-0.471223384,-0.507668793
1207595,8.990221977,-0.236659765,3.976273298,0.257516503,0.769975424,0.575677514,0.676147699,-0.336018294,-0.429500282,-0.495424628,9.826313019,-0.276332885,0.663911641,-0.126706034,2.188740015,0.458934784,0.52486825,-0.494651645,-0.471071839,-0.507862568
1207762,8.983474731,-0.23796849,4.005825996,0.331998199,0.763597727,0.524656892,0.676224887,-0.335945487,-0.429408371,-0.495448232,9.830764771,-0.259013772,0.67123878,-0.303894669,1.726660848,0.302223444,0.524929464,-0.494511306,-0.470959008,-0.508040726
1207929,8.992083549,-0.236694887,4.024265289,0.415252328,0.786610842,0.473418772,0.676321447,-0.335845977,-0.429333925,-0.4954485,9.834418297,-0.244768113,0.67128104,-0.43330282,1.669544458,0.342192024,0.524959028,-0.494402766,-0.470822126,-0.508242607
1208095,8.967820168,-0.25199461,4.010840893,0.51629436,0.608141482,0.488184422,0.676375866,-0.335778654,-0.429260224,-0.495483667,9.816302299,-0.285122037,0.660540342,-0.512202799,1.431064844,0.656357467,0.524994195,-0.4943358,-0.470678508,-0.508404434
1208262,8.990793228,-0.26244697,3.963911533,0.43729201,0.148880213,0.582157433,0.676423609,-0.335743666,-0.429233372,-0.495465487,9.834812164,-0.296315044,0.665578783,-0.489266634,1.175731778,0.759755969,0.525025308,-0.494290918,-0.470550954,-0.508534133
1208429,9.000333786,-0.222087473,4.005073071,0.321061611,1.283779025,0.375488609,0.676526904,-0.335622758,-0.429099351,-0.495522559,9.818318367,-0.277278721,0.663219273,-0.491943151,1.087777734,0.327106178,0.525020003,-0.494220287,-0.470463991,-0.50868839
1208595,8.987051964,-0.254075229,3.990535975,0.235771298,0.253213555,0.092788398,0.676525891,-0.335577488,-0.429065734,-0.495583713,9.850729942,-0.292904109,0.655443072,-0.34315896,1.030891895,-0.021527475,0.525005519,-0.494112819,-0.470423818,-0.508844912
1208762,8.972270966,-0.228137806,3.99921751,0.661659241,0.951249301,0.203652993,0.676600516,-0.335444063,-0.428991109,-0.495636851,9.88356781,-0.298486114,0.64028883,-0.303753793,1.299351454,0.000429013,0.525003135,-0.493991494,-0.470356584,-0.509027421
1208929,8.932785988,-0.248825595,4.053147793,0.700372815,0.774931371,0.390856206,0.676678777,-0.335332096,-0.428927004,-0.495661288,9.896257401,-0.285837501,0.635777235,-0.143751279,1.635223627,0.051539153,0.52503401,-0.493838757,-0.47026968,-0.509224057
1209095,8.968010902,-0.245055765,4.039628029,0.652720511,0.383889586,0.468219459,0.67673713,-0.335257053,-0.428894579,-0.495660424,9.889870644,-0.267218381,0.651781142,-0.170529366,2.150909901,0.255826086,0.52511102,-0.493666202,-0.470124781,-0.509445608
1209262,8.950760841,-0.252712697,4.061101437,0.455272198,0.529638648,0.330640763,0.676787317,-0.33518061,-0.428841531,-0.495689541,9.894054413,-0.254758745,0.669701874,-0.153996348,2.601565123,0.160738885,0.52523303,-0.493438214,-0.469968706,-0.509684563
1209429,8.947094917,-0.237971559,4.068726063,0.186838239,0.556685686,0.171265721,0.676801085,-0.335128397,-0.428765893,-0.495771259,9.892819405,-0.274941385,0.685235858,-0.283263654,3.056446791,0.091469362,0.525369704,-0.493183374,-0.469771624,-0.509972394
1209595,8.949304581,-0.245274171,4.049536228,0.329757094,0.389050484,0.111562513,0.676819265,-0.335061401,-0.42872715,-0.495825201,9.887491226,-0.26369521,0.668751359,-0.303049475,3.579342842,0.004936848,0.525522053,-0.492892534,-0.469531327,-0.510317504
1209762,8.950452805,-0.230057418,4.053981304,0.412358016,0.362195581,0.069980294,0.676819861,-0.334997356,-0.428689033,-0.495900661,9.873700142,-0.282544047,0.65362221,-0.465395659,3.886106491,-0.078490131,0.52567935,-0.492584378,-0.469263256,-0.51069957
1209929,8.948758125,-0.24076049,4.04374218,0.452070534,0.40882349,0.032265596,0.676833689,-0.334916681,-0.428656876,-0.49596402,9.883559227,-0.277356297,0.672878742,-0.511575222,4.225537777,-0.341724575,0.525846958,-0.492229193,-0.468992025,-0.511118293
1210095,8.960960388,-0.2461178,4.05532217,0.609101951,0.492103189,0.024658626,0.676858783,-0.334814489,-0.42862767,-0.496024102,9.889899254,-0.268287718,0.66263622,-0.545127988,4.746526718,-0.370154768,0.526032805,-0.491843581,-0.468672991,-0.51159066
1210262,8.950190544,-0.217969552,4.047471046,0.726958811,0.753608823,0.06460163,0.676917017,-0.334678411,-0.428584099,-0.49607414,9.878809929,-0.23379457,0.684369206,-0.806697786,5.220567703,-0.653649032,0.526215434,-0.491421223,-0.468320727,-0.512130916
1210429,8.960743904,-0.235072941,4.05009079,0.66945833,0.89823091,0.044213925,0.676963151,-0.334548473,-0.428512961,-0.496160269,9.897953033,-0.234943911,0.683651805,-0.953061581,5.820415974,-0.879373789,0.526396215,-0.490958065,-0.46791926,-0.51275605
1210595,8.965436935,-0.220593721,4.054706097,0.547349811,1.203559995,0.001530359,0.677021444,-0.334403723,-0.428406507,-0.49627021,9.911581993,-0.233401686,0.6810956,-1.148076534,6.569396496,-0.969914615,0.526606917,-0.490447491,-0.467452556,-0.513453603
1210762,8.975154877,-0.219004661,4.033073425,0.538487792,1.370605946,-0.044143483,0.677096128,-0.334237248,-0.428291589,-0.496379703,9.9093647,-0.249814406,0.697255552,-1.318746924,7.317171574,-1.149651885,0.526854038,-0.48987323,-0.466937453,-0.514216602
1210929,8.968691826,-0.217601359,4.023211002,0.511773765,1.528188109,0.127749741,0.677185476,-0.334077716,-0.428146839,-0.496490061,9.920201302,-0.237301812,0.723924518,-1.433261275,8.269926071,-1.107826233,0.527152896,-0.489244282,-0.466331929,-0.515057683
1211095,8.962328911,-0.227838218,4.050867558,0.26819697,1.956957459,0.033635873,0.677300334,-0.333893478,-0.42795679,-0.496620983,9.919370651,-0.263839841,0.724590659,-1.362288475,9.169585228,-1.25956881,0.527518034,-0.488522679,-0.465682566,-0.515955508
1211262,8.971087456,-0.216484278,4.043459892,0.158689886,2.237672806,0.072951376,0.677409887,-0.333715469,-0.427718252,-0.496796757,9.910640717,-0.266993135,0.787386775,-1.260157943,9.980278969,-1.376631737,0.52792722,-0.487729132,-0.464981288,-0.516919374
1211429,8.977211952,-0.217619658,4.041592598,0.094427623,2.472797394,0.147241011,0.677534163,-0.33353284,-0.427447468,-0.496982843,9.896435738,-0.247629166,0.819085419,-1.015441418,10.63701439,-1.573747277,0.528380096,-0.486855447,-0.464258999,-0.51792872
1211595,8.96044445,-0.219950587,4.034574032,0.27389583,2.639138937,0.070812717,0.677678704,-0.333311141,-0.427180707,-0.497163951,9.879795074,-0.247409403,0.858335257,-0.908969462,11.10393524,-1.703309059,0.528862,-0.485929102,-0.463516265,-0.518970788
1211762,8.963374138,-0.224550083,4.032515526,0.172751248,2.662523508,0.105479494,0.6778332,-0.333092451,-0.42690888,-0.497333348,9.867774963,-0.240003407,0.916854441,-0.634670198,11.41857624,-1.630377173,0.529394269,-0.484956056,-0.462770194,-0.520003319
1211929,8.980314255,-0.224564418,4.065104485,0.05211544,2.866374969,0.028910337,0.677992105,-0.332864434,-0.426613837,-0.497522593,9.829721451,-0.213734388,0.957524538,-0.442229092,11.54509068,-1.628136277,0.52994287,-0.483960241,-0.462024659,-0.521033943
1212095,8.951626778,-0.219271913,4.062730789,0.290723354,2.983578444,0.149661392,0.678173542,-0.332614839,-0.426316291,-0.497697324,9.820851326,-0.200194299,1.003873587,-0.327432901,11.57686043,-1.622795582,0.530495524,-0.482955843,-0.461280346,-0.522062004
1212262,8.954022408,-0.204406902,4.0622859,0.26698038,3.086580038,0.039373126,0.67835021,-0.332355112,-0.426010877,-0.497891366,9.816893578,-0.191922739,1.073339462,-0.37201187,11.45362759,-1.519230723,0.531058967,-0.481961578,-0.460541576,-0.523059249
1212429,8.945438385,-0.217795521,4.071453571,0.254481405,3.232854366,0.066676259,0.678531766,-0.332090348,-0.425686777,-0.498097807,9.810974121,-0.182612315,1.104021907,-0.245510653,11.3921051,-1.388465047,0.531628549,-0.48097387,-0.459802449,-0.524039268
1212595,8.923587799,-0.203923687,4.116122723,0.23958762,3.149228811,0.072349474,0.678721249,-0.331825107,-0.425376624,-0.4982813,9.802227974,-0.16741918,1.140536189,-0.424581856,11.47391129,-1.548826218,0.532175779,-0.479983121,-0.459051609,-0.525049388
1212762,8.913649559,-0.225544959,4.132301331,0.24773246,3.107172966,0.177976266,0.678910315,-0.331572354,-0.425063014,-0.498459697,9.80501461,-0.150621668,1.166005611,-0.487089723,11.39533234,-1.413642406,0.532726884,-0.479007721,-0.458294362,-0.526041865
1212929,8.905561447,-0.212269947,4.154285908,0.278493285,3.248464823,0.166847527,0.679096401,-0.331312686,-0.424732029,-0.498660982,9.820549011,-0.154158622,1.202880144,-0.516365051,11.38512516,-1.412105441,0.53327328,-0.478034317,-0.457534045,-0.5270347
1213095,8.89777565,-0.214347273,4.145648003,0.307602108,3.23888588,0.15368259,0.679282546,-0.33104977,-0.424404919,-0.498860568,9.776032448,-0.133835301,1.229901791,-0.438028634,11.41692352,-1.354720235,0.533828378,-0.477056056,-0.456770748,-0.528020382
1213262,8.893003464,-0.217553079,4.185294628,0.239049748,3.393177271,0.110845365,0.679484963,-0.330771536,-0.424065977,-0.49905771,9.764154434,-0.140259296,1.285155773,-0.482325703,11.14153576,-1.287512541,0.534373224,-0.476099372,-0.456025511,-0.528975785
1213429,8.884857178,-0.217878997,4.178150177,0.321855575,3.222660303,-8.96E-05,0.679667532,-0.330493242,-0.423752695,-0.499259591,9.782097816,-0.152303487,1.314606667,-0.404975355,10.96958447,-1.155863166,0.534920931,-0.475157201,-0.455289304,-0.529902697
1213595,8.869960785,-0.215014711,4.19137764,0.384888381,3.312983274,0.041230042,0.67986089,-0.33020556,-0.423432231,-0.499458313,9.811779022,-0.161207661,1.340925455,-0.223893523,10.9282341,-1.002519965,0.535482109,-0.47421822,-0.454553097,-0.530808389
1213762,8.892734528,-0.226143554,4.184644699,0.101778477,3.106609344,0.01153212,0.680012286,-0.329967022,-0.4231067,-0.499685764,9.759730339,-0.136358544,1.374819636,0.048094265,10.75907421,-1.021473289,0.536055267,-0.473263264,-0.453856558,-0.531677544
1213929,8.890434265,-0.2198136,4.225515842,0.079789966,3.449281693,-0.144775793,0.680174053,-0.329694659,-0.422753781,-0.499943852,9.727977753,-0.112605296,1.411015034,0.079700343,10.47518158,-1.13728106,0.536601663,-0.472318798,-0.453191459,-0.532532871
1214095,8.868657112,-0.226717487,4.229103088,0.397246599,3.080113173,-0.030107735,0.680339277,-0.329423457,-0.422455758,-0.500149727,9.749542236,-0.111313134,1.419463634,0.018281071,10.33630848,-1.084506035,0.537137747,-0.471391976,-0.452527791,-0.533377409
1214262,8.890347481,-0.212898061,4.191411018,0.270271599,3.179733038,0.009636777,0.680504143,-0.329160839,-0.422135562,-0.500368655,9.78410244,-0.095021836,1.449632406,-0.118548408,10.14774704,-0.840839565,0.537669718,-0.470505387,-0.451850504,-0.534197807
1214429,8.91286087,-0.19572106,4.189110279,-0.075198896,4.564317703,-0.156032592,0.680736363,-0.32881555,-0.421665817,-0.500675917,9.812594414,-0.061238285,1.474401712,-0.383050919,10.22157764,-0.976484597,0.538176775,-0.469623536,-0.451155245,-0.535050094
1214595,8.884422302,-0.186117709,4.263897419,-0.288360626,4.572162151,-0.527211905,0.680919528,-0.328474373,-0.421192616,-0.501048923,9.820694923,-0.073960528,1.496409178,-0.76433444,10.53041458,-1.139483809,0.538664043,-0.468735456,-0.450416535,-0.535960197
1214762,8.877706528,-0.192580178,4.284675121,0.373746932,4.381762981,-0.104000367,0.681171656,-0.32809785,-0.420773059,-0.501305342,9.823192596,-0.091915384,1.544744849,-0.89014405,10.96228409,-1.257724762,0.539160252,-0.467814386,-0.449641228,-0.536915779
1214929,8.811193466,-0.210172087,4.308289528,0.3551265,4.415418148,0.31166175,0.681437492,-0.327754468,-0.420322031,-0.501546979,9.792544365,-0.095146313,1.570876479,-0.882165849,11.29090977,-1.00597775,0.539696932,-0.466882229,-0.448822647,-0.537872255
1215095,8.777373314,-0.198410824,4.315673828,-0.01397173,3.810408592,0.235937819,0.681650221,-0.327483565,-0.419909954,-0.501780093,9.767396927,-0.101416841,1.608376622,-0.812716901,11.55637264,-1.009256124,0.540253937,-0.465922147,-0.447987586,-0.53884083
1215262,8.808784485,-0.200303525,4.313832283,-0.422148496,3.701361418,-0.286657333,0.681800485,-0.327227801,-0.419504195,-0.502082288,9.723003387,-0.09046568,1.64673841,-0.77236408,11.60416412,-1.1339643,0.540805638,-0.464945614,-0.447159052,-0.539818347
1215429,8.813967705,-0.184097603,4.302920818,-0.28024137,3.573925972,-0.209140509,0.681957901,-0.32697022,-0.419118315,-0.502358437,9.714102745,-0.101328656,1.667710423,-0.713877439,11.65177917,-1.248261094,0.541353881,-0.463951796,-0.446337819,-0.540802717
1215595,8.81059742,-0.201452479,4.311084747,0.009316619,3.655706882,-0.159029245,0.682124138,-0.326687068,-0.418738067,-0.50263375,9.725138664,-0.097334042,1.698059559,-0.669644356,11.54028797,-1.418957114,0.541883051,-0.462950677,-0.445538908,-0.541788399
1215762,8.803240776,-0.211935997,4.310280323,0.147522733,3.389424324,-0.088261358,0.682290375,-0.326411724,-0.418392539,-0.502874732,9.720943451,-0.093905181,1.745063543,-0.553388238,11.35652924,-1.3375597,0.542413175,-0.461958796,-0.444756895,-0.542746246
1215929,8.832931519,-0.222964033,4.286206245,-0.073457219,3.55218029,-0.148015797,0.682456136,-0.326140583,-0.418018997,-0.503136337,9.720344543,-0.071298577,1.762467146,-0.425427049,11.18267441,-1.35944581,0.542937696,-0.460967839,-0.443998843,-0.543684304
1216095,8.836076736,-0.195979461,4.306368351,0.100869238,3.975149155,-0.039097793,0.682660937,-0.325828552,-0.417610258,-0.503399968,9.722258568,-0.064800993,1.758828044,-0.465511054,10.91715622,-1.208625436,0.543452978,-0.460009456,-0.443247288,-0.544593692
1216262,8.853627205,-0.193278655,4.321023941,0.125995278,3.917200089,0.068878956,0.682900548,-0.325511605,-0.417214572,-0.503607929,9.752362251,-0.047309052,1.83109951,-0.506632209,10.63067722,-1.301586747,0.54393822,-0.459069878,-0.442520291,-0.545492411
1216429,8.844283104,-0.192010686,4.34247303,0.210389107,4.132564068,-0.003355263,0.683124065,-0.3251791,-0.416796774,-0.503865421,9.745062828,-0.024645273,1.800361633,-0.639075458,10.69966316,-1.318977475,0.544416428,-0.458132923,-0.441777527,-0.546404302
1216595,8.811414719,-0.191891432,4.385541916,0.31624642,3.860468149,0.024338473,0.683336556,-0.324858278,-0.416412234,-0.50410229,9.699309349,-0.068198077,1.836711049,-0.718308508,10.6815691,-1.082931042,0.544905484,-0.457217842,-0.441013366,-0.547300041
1216762,8.771123886,-0.220907703,4.320340157,0.214781702,2.97729063,0.208058372,0.683501661,-0.324623674,-0.416098446,-0.504288852,9.714515686,-0.065464504,1.872558236,-0.596788883,10.44704628,-0.810603738,0.545407891,-0.456328183,-0.440258294,-0.548149109
1216929,8.88815403,-0.195111662,4.298017025,0.12339557,4.298919201,0.169447213,0.683751702,-0.324294746,-0.4156515,-0.504529953,9.699299812,-0.046765037,1.909980536,-0.655723751,10.46738243,-0.868104279,0.545902014,-0.455437034,-0.439499885,-0.549006462
1217095,8.779080391,-0.190763086,4.395206928,-0.35564512,4.213077545,-0.248353526,0.683941185,-0.323995441,-0.415197581,-0.504839003,9.699574471,-0.049081676,1.933732629,-0.717898548,10.4261198,-1.153327346,0.54636538,-0.454534858,-0.438757688,-0.549886346
1217262,8.832210541,-0.190786153,4.343153,0.301160544,4.290991783,-0.134287387,0.684179485,-0.323629916,-0.414779902,-0.505093873,9.69875145,-0.032833692,1.962029815,-0.754896104,10.44945335,-1.406099319,0.546806037,-0.453616589,-0.438026309,-0.550788641
1217429,8.751158714,-0.194526449,4.40619278,0.129068822,4.772459984,0.112138808,0.684432864,-0.323269427,-0.414283782,-0.505388558,9.718387604,-0.031342432,1.988188863,-0.873739183,10.68804836,-1.459514618,0.547248721,-0.452684313,-0.437269062,-0.551717222
1217595,8.776402473,-0.206322312,4.421987057,-0.035230268,4.265212536,0.143949777,0.684672832,-0.322957486,-0.413829654,-0.505635023,9.726254463,-0.01774421,1.999696374,-0.958337963,11.17870045,-1.290496469,0.547729075,-0.45172897,-0.43645376,-0.552668273
1217762,8.776965141,-0.194556534,4.430485725,-0.011077494,4.596026897,0.171124876,0.684922636,-0.32262367,-0.413340062,-0.505910039,9.754777908,-0.0168793,2.03370285,-1.05078721,11.76944447,-1.473691463,0.54822439,-0.450720638,-0.435594976,-0.553676784
1217929,8.737689972,-0.181225702,4.464184284,0.144346774,5.018571854,0.14473097,0.685213447,-0.322237432,-0.412824243,-0.506183505,9.754859924,-0.025323689,2.052890301,-1.221803188,12.59740067,-1.602817774,0.548748791,-0.44964993,-0.434663713,-0.554758787
1218095,8.742642403,-0.188245103,4.463120937,0.052409988,5.002026081,-0.030991366,0.685471237,-0.321855009,-0.412308246,-0.506498337,9.721639633,-0.021895638,2.094885588,-1.218051195,13.23718357,-1.74137032,0.549300551,-0.448517144,-0.433689415,-0.555891037
1218262,8.756287575,-0.19126232,4.483923435,0.157665357,4.997491837,0.033277299,0.685756803,-0.321462393,-0.411799639,-0.506774902,9.685090065,-0.025756983,2.142753839,-1.057830691,13.64429569,-1.866206408,0.549876213,-0.447329193,-0.432702214,-0.557047248
1218429,8.734724045,-0.186966226,4.488837242,0.027930649,5.16441679,0.018786917,0.686047971,-0.321067244,-0.411266953,-0.507063806,9.674051285,-0.035452649,2.184273958,-0.952984929,13.98937607,-1.919621468,0.550473869,-0.446099937,-0.431697696,-0.558221102
1218595,8.721998215,-0.179223821,4.482381821,-0.07316269,5.204020977,-0.138564736,0.686310947,-0.320673704,-0.410726577,-0.507394612,9.677820206,-0.003338846,2.221910477,-0.929408848,14.3460865,-2.026875257,0.55108428,-0.444831342,-0.430671543,-0.559422374
1218762,8.732524872,-0.193147838,4.51154089,0.129453003,5.549010754,-0.097994201,0.686597049,-0.320238829,-0.410163641,-0.507737458,9.659988403,0.009504194,2.250626802,-0.849151194,14.7528677,-2.071467161,0.551719368,-0.443518549,-0.429620445,-0.560645819
1218929,8.715952873,-0.189183414,4.516722679,0.140991524,5.640012741,0.088408634,0.686939061,-0.319799364,-0.409588456,-0.508016109,9.647254944,0.022064205,2.314395666,-0.918100715,15.05377769,-2.148804665,0.552359641,-0.442179799,-0.428542584,-0.561896086
1219095,8.709994316,-0.199995354,4.550059319,0.021866843,5.327358723,0.119105466,0.687257171,-0.319396883,-0.409033895,-0.508285761,9.642564774,0.012053848,2.331904888,-0.940768063,15.3169899,-2.259067297,0.553003252,-0.440812439,-0.427446812,-0.563170612
1219262,8.720029831,-0.193120986,4.531350613,0.195943579,5.450428009,0.123254724,0.687578678,-0.318970412,-0.408477485,-0.508566201,9.628791809,0.035869509,2.38721633,-1.101142049,15.62842751,-2.237104893,0.55365485,-0.439431727,-0.426309347,-0.564470053
1219429,8.716188431,-0.198394552,4.589047432,0.106785752,5.781202316,0.098666526,0.687917709,-0.318529308,-0.407880366,-0.508863449,9.611256599,0.046984024,2.439905882,-1.125282168,15.86329746,-2.227717638,0.554317355,-0.438032031,-0.425148278,-0.565781951
1219595,8.688254356,-0.187929645,4.569881916,0.008625078,5.95472908,0.092814036,0.688249707,-0.31808427,-0.407259136,-0.5091905,9.627166748,0.064215377,2.482569695,-1.280290246,16.25508118,-2.196329355,0.55499357,-0.436612159,-0.423938662,-0.567122519
1219762,8.697840691,-0.215279758,4.604384422,-0.077772968,5.738404274,-0.02449855,0.688567221,-0.317654371,-0.406659901,-0.509508193,9.603469849,0.067706265,2.524941921,-1.276281953,16.62996292,-2.186032772,0.555690885,-0.435159206,-0.422696143,-0.568482339
1219929,8.685622215,-0.199365646,4.614533424,-0.083190061,5.92747736,-0.095560998,0.688885689,-0.317208111,-0.406043291,-0.509847403,9.57233429,0.054579198,2.554159641,-1.209676147,16.79424477,-2.159447193,0.556401253,-0.433686376,-0.421441793,-0.569842756
1220095,8.665483475,-0.191467986,4.636713505,0.076229796,6.1877141,-0.086686179,0.689211488,-0.316729218,-0.405410171,-0.510208428,9.570043564,0.041549243,2.62659359,-1.138421416,16.93669128,-2.121847868,0.557124615,-0.432195783,-0.420176953,-0.571200848
1220262,8.662794113,-0.196865439,4.648449898,0.125944048,5.855813026,-0.037125614,0.689533353,-0.316271603,-0.404812008,-0.510532439,9.553682327,0.061477482,2.676737785,-1.070944905,16.99912071,-2.127661705,0.557852268,-0.4306916,-0.418910474,-0.572555423
1220429,8.651965141,-0.199070752,4.66488266,-0.020515775,5.994147301,0.001005299,0.689852595,-0.315820336,-0.404187143,-0.510875344,9.54250145,0.065649107,2.71186614,-0.925041974,17.30687141,-2.138112068,0.558603466,-0.429146737,-0.417629212,-0.573917389
1220595,8.637696266,-0.198582664,4.672178268,-0.024216808,5.776412964,0.000505851,0.690157056,-0.315385848,-0.403583288,-0.511209786,9.530835152,0.082958519,2.777649164,-0.805033565,17.47043228,-2.324738979,0.559352994,-0.427564502,-0.416353673,-0.575293481
1220762,8.650165558,-0.19224304,4.69137001,0.031484414,5.275352478,0.079162464,0.690461993,-0.314986229,-0.403030455,-0.511480749,9.508432388,0.091051146,2.822377205,-0.648398995,17.70786476,-2.292121172,0.560125649,-0.425948888,-0.415067196,-0.576668203
1220929,8.656349182,-0.186745957,4.703210831,0.150020003,5.683388233,0.041716687,0.690758169,-0.314543456,-0.402446598,-0.511812806,9.500716209,0.093758345,2.860705137,-0.605715394,17.6282711,-2.28320837,0.560893297,-0.424334198,-0.413787514,-0.578030586
1221095,8.628326416,-0.181621522,4.709879875,0.127058223,5.63112545,0.158792347,0.691070795,-0.314114064,-0.401860088,-0.51211524,9.478815079,0.106329054,2.948265553,-0.378568947,17.73259544,-2.165402412,0.56168735,-0.422696501,-0.412508339,-0.579371929
1221262,8.612733841,-0.19685699,4.732467175,0.195200816,5.503715038,0.127544865,0.691390514,-0.313685626,-0.401291966,-0.512391865,9.456664085,0.127878457,2.992330313,-0.385740489,17.79343796,-2.189773083,0.562479019,-0.421050042,-0.411222309,-0.580715418
1221429,8.614117622,-0.18424052,4.739994526,0.099191599,5.558283329,0.058531426,0.691700041,-0.313257545,-0.400714993,-0.512687504,9.458274841,0.135815442,3.057538033,-0.338062376,17.78260422,-2.179937601,0.563270152,-0.419398308,-0.409937888,-0.582050622
1221595,8.586532593,-0.191727623,4.7732687,0.354883164,5.599262714,0.040026248,0.692009747,-0.312799096,-0.400154144,-0.512987375,9.411001205,0.140464365,3.088668108,-0.145313814,17.67765427,-2.025710583,0.564076066,-0.417745858,-0.408666104,-0.583351195
1221762,8.570753098,-0.191124931,4.759839535,0.376231432,5.228801727,0.039321903,0.692309856,-0.312366992,-0.399630785,-0.513253748,9.409150124,0.137702912,3.154900551,0.116608337,17.40802765,-2.07109642,0.56487453,-0.416089445,-0.407438874,-0.584619761
1221929,8.583333015,-0.185450256,4.793858051,0.89739871,5.200166702,0.08921545,0.692626357,-0.311886311,-0.399147719,-0.51349479,9.380725861,0.084006883,3.210080624,0.471024364,17.12236786,-1.941303492,0.565684974,-0.414433062,-0.406254619,-0.585835397
1222095,8.569897652,-0.198419675,4.825446129,0.460074604,5.378853321,0.123779796,0.692945957,-0.311438352,-0.398611665,-0.513751745,9.314916611,0.127738371,3.300164223,1.2442981,16.70178413,-1.783964634,0.566527605,-0.412755877,-0.405158609,-0.586963356
1222262,8.55153656,-0.198495537,4.812103271,0.535977781,5.537561893,0.0155277,0.693258941,-0.310963929,-0.398070663,-0.514036298,9.289587975,0.170880839,3.341700792,1.657277465,16.11177826,-1.708266139,0.567363501,-0.411096781,-0.404139161,-0.588021815
1222429,8.546496391,-0.188580751,4.846010208,0.694405198,4.52966404,-0.138564736,0.69350481,-0.310539782,-0.397650033,-0.514286578,9.287179947,0.182988584,3.365630627,1.782306075,15.19420338,-1.631210208,0.568156958,-0.40950799,-0.403199285,-0.589008749
1222595,8.543530464,-0.166703552,4.798727989,0.855252802,4.774392605,-0.024421709,0.693781853,-0.310087949,-0.397210866,-0.514524817,9.302080154,0.195947021,3.426674843,1.860603929,14.55919743,-1.389682055,0.56893605,-0.40797922,-0.402302086,-0.589930594
1222762,8.63022995,-0.178532183,4.736902714,0.881903052,6.448709011,0.27511248,0.694181502,-0.309525341,-0.396591067,-0.514802694,9.281432152,0.246179909,3.46962285,1.755207419,13.9568615,-1.27492404,0.569681048,-0.406515479,-0.401436836,-0.590810657
1222929,8.586248398,-0.162698194,4.865109444,0.88141638,9.109726906,0.139557213,0.69471997,-0.308754861,-0.395709306,-0.515217245,9.291419029,0.263249367,3.532798052,1.439761162,13.43648911,-1.312856555,0.570371628,-0.405118406,-0.400588185,-0.591679454
1223095,8.473782539,-0.148516223,4.943161488,0.933986545,8.566316605,0.013081689,0.695224643,-0.308013499,-0.394890279,-0.515608549,9.251521111,0.270235479,3.570972443,1.003346205,12.79449368,-1.272170782,0.571000636,-0.403813213,-0.399751216,-0.592530429
1223262,8.472249031,-0.162150577,4.977226257,1.016817927,7.766662121,0.284409851,0.695705473,-0.307338297,-0.394145578,-0.5159325,9.23114109,0.280988336,3.598501205,0.679947019,12.20959949,-0.976062,0.571600318,-0.402600735,-0.398916036,-0.593339562
1223429,8.432684898,-0.151254356,5.023536205,0.616824329,7.046522141,0.371621132,0.696133614,-0.306762576,-0.393438876,-0.51623708,9.239289284,0.267316699,3.622760773,0.383518368,11.8425045,-0.937540472,0.572163105,-0.401445121,-0.398082227,-0.594139576
1223595,8.437440872,-0.165645167,5.023724079,0.462891996,5.47436285,0.25340566,0.696456075,-0.306313604,-0.392883927,-0.516491175,9.216682434,0.26191026,3.647854805,0.105543576,11.49333763,-0.911018431,0.572690129,-0.400342822,-0.397250623,-0.594931662
1223762,8.438689232,-0.175315887,5.035097599,0.574063897,5.145675182,0.082031086,0.696744084,-0.305865854,-0.392379701,-0.516751349,9.21015358,0.261779219,3.674847841,-0.088479102,11.40283585,-0.972143292,0.573193967,-0.399259597,-0.396412075,-0.595733225
1223929,8.396807671,-0.146239087,5.035505772,0.600419283,4.935855865,0.077830598,0.697040975,-0.305432171,-0.391896486,-0.51697427,9.21703434,0.259523183,3.691520691,-0.258163333,11.25281143,-1.1559273,0.573661864,-0.398191452,-0.395580649,-0.59654963
1224096,8.381882668,-0.154075369,5.039173603,0.517805576,4.571131229,0.086090691,0.69730109,-0.305033565,-0.391444325,-0.517201304,9.21362114,0.244504198,3.706687927,-0.326433986,11.22664738,-1.265114188,0.574113548,-0.397123843,-0.394750774,-0.597376168
1224262,8.401255608,-0.150002331,5.04229641,0.45920375,4.546966076,0.155206576,0.697561026,-0.304647177,-0.390986055,-0.517425179,9.204366684,0.240483984,3.737054825,-0.385023087,11.29851627,-1.222789288,0.574568093,-0.396056056,-0.393906116,-0.59820497
1224429,8.388763428,-0.151049018,5.062246799,0.406953841,4.764455795,0.144730985,0.697830796,-0.304246902,-0.390503496,-0.517661214,9.202778816,0.255530328,3.752846003,-0.371947736,11.38541794,-1.229205132,0.575026393,-0.394978136,-0.393054426,-0.599036932
1224596,8.398696899,-0.150383249,5.09066391,0.172584802,4.860195637,0.075717546,0.698085129,-0.303858548,-0.389996827,-0.517928421,9.230441093,0.271570861,3.75344944,-0.349946469,11.50253391,-1.448565364,0.575471997,-0.393874437,-0.392206281,-0.599891067
1224762,8.39782238,-0.152528241,5.090022087,0.250242501,4.63361311,0.07939297,0.69833672,-0.303480357,-0.389517218,-0.518171728,9.228075027,0.28385517,3.778593302,-0.517492056,11.79225349,-1.696995974,0.575901151,-0.392744154,-0.391332388,-0.600790262
1224929,8.385860443,-0.156361252,5.128622532,0.33694151,4.533518791,0.035723317,0.698580265,-0.303098619,-0.38905561,-0.518413603,9.205087662,0.298125565,3.774748564,-0.670079708,12.09271431,-1.803506136,0.576327503,-0.391593188,-0.390424937,-0.6017223
1225096,8.336127281,-0.173035026,5.154625893,0.22803624,3.170614958,0.059453476,0.698743641,-0.302830458,-0.38872394,-0.518598914,9.235660553,0.281684369,3.801829815,-0.927871823,12.54995346,-1.627111793,0.57677865,-0.390432656,-0.389445484,-0.60267818
1225262,8.479973793,-0.161224499,5.020047188,0.411615223,1.830264091,0.17426236,0.698841691,-0.302649915,-0.388537973,-0.518711567,9.195649147,0.328683466,3.850811958,-1.20926559,12.91147518,-1.391115904,0.577252865,-0.389276296,-0.388396502,-0.603648365
1225429,8.46421051,-0.148277447,5.049371243,0.015271572,5.782304287,-0.136848658,0.699129045,-0.3021954,-0.387932718,-0.519042313,9.134766579,0.31376183,3.85670948,-1.482796788,13.13326931,-1.560275197,0.577707052,-0.388112485,-0.387313277,-0.604658425
1225596,8.369207382,-0.154868454,5.133928776,0.012134017,4.353115082,-0.306724876,0.699319005,-0.301838636,-0.387480825,-0.519331336,9.13994503,0.304650277,3.904709339,-1.821281672,12.9716177,-1.715718985,0.578117073,-0.386981249,-0.386221409,-0.605689168
1225762,8.437643051,-0.141253099,5.037339687,-0.053312838,4.313633442,-0.242616296,0.699505329,-0.301493973,-0.387025803,-0.519619823,9.118478775,0.301556557,3.943456173,-2.027361631,12.73934937,-1.696880937,0.57850194,-0.385887504,-0.385128587,-0.606714427
1225929,8.422064781,-0.144932151,5.081679821,-0.270905554,5.355276585,-0.15206261,0.699749708,-0.301098764,-0.386443555,-0.519953191,9.087304115,0.298235208,3.960486412,-2.181063652,12.56017399,-1.606327057,0.578874052,-0.384826422,-0.384031028,-0.607728362
1226096,8.420936584,-0.177707568,5.090082645,-0.26524511,4.920641422,-0.02512606,0.699973285,-0.30074352,-0.38590011,-0.520261586,9.101693153,0.277787119,4.013089657,-2.239447355,12.33483219,-1.36299324,0.579249859,-0.383802593,-0.382932395,-0.608710229
1226262,8.398547173,-0.179921404,5.087424278,-0.405781984,5.090389252,-0.015457263,0.700204432,-0.300389975,-0.385328263,-0.520578206,9.095310211,0.282640159,4.069592476,-2.160342455,12.26228333,-1.311486006,0.579628646,-0.382780254,-0.381842732,-0.609677076
1226429,8.398719788,-0.178771466,5.13476944,-0.398111016,5.292832851,-0.266269654,0.700428009,-0.3000063,-0.384747446,-0.520928264,9.034779549,0.281844229,4.09837532,-2.031510592,12.06208229,-1.182667017,0.580013156,-0.381770998,-0.380773038,-0.610612631
1226596,8.392028809,-0.168860182,5.132767677,-0.314011723,5.194928169,-0.249275595,0.700652122,-0.299623042,-0.38418135,-0.52126509,9.048494339,0.27060324,4.111692905,-1.744008064,11.82138824,-1.129469395,0.580403209,-0.38076064,-0.379744947,-0.611512363
1226762,8.393152237,-0.165644392,5.162405968,-0.163959727,5.43089819,-0.187177628,0.70089978,-0.299209535,-0.383600235,-0.521597564,9.025212288,0.253719181,4.150377274,-1.551592588,11.69100571,-1.138651609,0.580794215,-0.379744291,-0.378744364,-0.612392962
1226929,8.375620842,-0.175487205,5.183982372,-0.237250432,5.668520451,-0.411109477,0.701142669,-0.298773408,-0.382998496,-0.521963358,9.06652832,0.252922088,4.188991547,-1.285437822,11.69341278,-1.101026416,0.581201732,-0.378706425,-0.377764016,-0.613253951
1227096,8.351666451,-0.168645233,5.172739029,-0.488908052,5.625157833,-0.472887307,0.701364219,-0.298362076,-0.382385075,-0.52235055,9.055670738,0.268689424,4.218997478,-1.061800599,12.05617905,-1.183601856,0.581632555,-0.377611905,-0.376776248,-0.614127457
1227262,8.339771271,-0.167616934,5.20077467,-0.446314126,5.562086582,-0.456776917,0.701590419,-0.297952086,-0.381780207,-0.522723138,9.024178505,0.293149024,4.279807091,-0.886097312,12.24795532,-1.253601432,0.582075477,-0.376480669,-0.375790566,-0.615005553
1227429,8.326062202,-0.161231831,5.220341206,-0.151716843,5.532170773,-0.401222974,0.701826274,-0.297517121,-0.381198525,-0.52307874,8.976797104,0.30618012,4.256022453,-0.929907978,12.29633713,-1.549735665,0.582490444,-0.37533161,-0.374811888,-0.615911782
1227596,8.332004547,-0.161838174,5.265560627,0.003143959,5.717516899,-0.440653712,0.702075541,-0.297050059,-0.380610943,-0.523437262,8.975764275,0.326450735,4.307480812,-0.8845222,12.35492611,-1.552975655,0.582908809,-0.374172151,-0.373831272,-0.616816759
1227762,8.30180645,-0.163513556,5.28183794,0.097910956,5.944202423,-0.419664115,0.702342093,-0.296557069,-0.380006284,-0.523798466,8.946494102,0.312377781,4.347173691,-0.966803133,12.72293091,-1.671972513,0.583330035,-0.372978985,-0.372817338,-0.617754042
1227929,8.271753311,-0.152787998,5.306827068,-0.009105316,6.221818924,-0.533154011,0.702611208,-0.296047419,-0.379369617,-0.524187326,8.965633392,0.317572951,4.360109329,-1.034484625,13.15013599,-1.836700439,0.583753943,-0.371743113,-0.371768624,-0.61872983
1228096,8.254262924,-0.173120871,5.332051754,-0.265846968,6.078603745,-0.458787441,0.702868104,-0.295578927,-0.378724068,-0.524573803,8.956054688,0.333153397,4.400896549,-1.085607648,13.71184349,-1.891665578,0.584198177,-0.370456845,-0.370669246,-0.619740784
1228262,8.254716873,-0.151947603,5.344113827,-0.289052129,6.019067764,-0.533512473,0.703113496,-0.295113117,-0.378085554,-0.524967849,8.931596756,0.353912711,4.451862812,-1.24904263,14.32870865,-2.075180531,0.584647894,-0.369117528,-0.369511127,-0.620806575
1228429,8.228909492,-0.156325191,5.363813877,-0.325204462,6.121762276,-0.564158142,0.703357637,-0.294640422,-0.377435237,-0.525373936,8.872426987,0.358388454,4.502093792,-1.40342319,14.82939816,-2.140915871,0.585107625,-0.367740959,-0.368298352,-0.621910095
1228596,8.224075317,-0.159090161,5.374540329,-0.148118258,5.898804188,-0.653841078,0.703589559,-0.294161856,-0.376824409,-0.525770009,8.850995064,0.3586649,4.546251297,-1.486536503,14.91448307,-2.317822933,0.58554858,-0.366352618,-0.367078513,-0.623034477
1228762,8.231788635,-0.149236545,5.384887218,-0.052749366,6.307006359,-0.545973182,0.703858793,-0.293648392,-0.376173586,-0.526162565,8.8209095,0.344803959,4.581927299,-1.46659708,15.11984825,-2.355627537,0.585995376,-0.364940196,-0.365843266,-0.624168932
1228929,8.216760635,-0.166781202,5.423961639,0.013350621,6.580716133,-0.576029599,0.704143584,-0.293105274,-0.37550059,-0.526564837,8.803915977,0.334388644,4.625874519,-1.139842629,15.06661034,-2.452417612,0.586445153,-0.363497823,-0.364645451,-0.625288248
1229096,8.175616264,-0.131613627,5.421104908,0.10116379,6.409009457,-0.527852237,0.704424381,-0.292568147,-0.374849677,-0.526951551,8.780119896,0.345833749,4.684076786,-0.848600626,15.07863617,-2.442364931,0.586909115,-0.36202836,-0.363470614,-0.626388609
1229262,8.185778618,-0.136763722,5.417470932,-0.037099998,6.180543423,-0.619455993,0.704680979,-0.292057365,-0.374215007,-0.527342618,8.781908989,0.368507981,4.734762192,-0.656646073,14.87705231,-2.39375186,0.587374091,-0.360561639,-0.362325907,-0.627460778
1229429,8.18305397,-0.129168361,5.410668373,0.071914054,6.072162628,-0.501086831,0.70494318,-0.291549772,-0.373594582,-0.52771306,8.73684597,0.370346963,4.75359726,-0.490419477,14.66478539,-2.569083691,0.587817967,-0.359089226,-0.361221999,-0.628525138
1229596,8.196872711,-0.138051197,5.432933807,0.233568624,6.198549747,-0.499639809,0.705214858,-0.291016966,-0.37297231,-0.528084219,8.70523262,0.397865653,4.807322502,-0.361446679,14.33270454,-2.539309025,0.588251233,-0.357636005,-0.360154897,-0.629559755
1229762,8.174409866,-0.125573978,5.438767433,0.366895556,6.63884449,-0.456136584,0.705519974,-0.290437549,-0.372313917,-0.528459907,8.695919037,0.410374254,4.832790852,-0.338945866,14.05306339,-2.521418333,0.588670135,-0.356205821,-0.35911116,-0.630574405
1229929,8.16203022,-0.11272452,5.480027676,0.161673799,6.78689909,-0.398751348,0.705827534,-0.289872289,-0.371620536,-0.528847694,8.694997787,0.441947132,4.866540432,-0.347257197,13.97498322,-2.453608513,0.58908838,-0.354785472,-0.358068198,-0.631576836
1230096,8.137343407,-0.130411491,5.508573532,0.134255394,6.351073742,-0.393129379,0.706114292,-0.289342165,-0.370969951,-0.5292117,8.678898811,0.46138376,4.907840729,-0.502009213,13.88097,-2.376731634,0.589498281,-0.353389442,-0.357013643,-0.632573247
1230262,8.14364624,-0.117602117,5.514337063,0.20173201,6.175778866,-0.369514406,0.706391394,-0.288820714,-0.370340407,-0.52956748,8.68156147,0.46615833,4.953691959,-0.730935693,13.80771923,-2.283283949,0.589898765,-0.352023065,-0.355938047,-0.633567154
1230429,8.125447273,-0.118015334,5.519697666,0.104839198,5.884998798,-0.358501017,0.706652164,-0.288330406,-0.369733691,-0.529910743,8.618377686,0.476023793,4.981340408,-0.816417992,13.55841637,-2.219802618,0.59028542,-0.350688756,-0.354871243,-0.634544611
1230596,8.132575989,-0.119479299,5.510045052,0.085501589,5.454781532,-0.3991099,0.706888974,-0.28787297,-0.369170815,-0.530235887,8.592026711,0.481328964,5.00031805,-0.952511191,13.07456684,-2.175710678,0.590641916,-0.349411547,-0.353829801,-0.635498285
1230762,8.147704124,-0.128641888,5.507206917,0.001338264,5.734344482,-0.341366082,0.707137465,-0.287405312,-0.368570447,-0.530575931,8.584893227,0.464708716,5.050375462,-1.053745508,12.4413805,-1.748579621,0.590998054,-0.348222226,-0.352810442,-0.636386096
1230929,8.124835014,-0.136622146,5.546138763,-0.083318114,6.314421177,-0.357194752,0.707408428,-0.286902189,-0.367903203,-0.53094995,8.521727562,0.477394432,5.094254017,-1.082944036,11.75821304,-1.538811922,0.591335297,-0.347108215,-0.351835281,-0.6372208
1231096,8.084164619,-0.118285075,5.580534935,0.053511336,5.75936842,-0.402055383,0.707651079,-0.286424935,-0.367305577,-0.531298041,8.536974907,0.461678952,5.084465027,-1.074696422,11.09945297,-1.367359996,0.591653585,-0.346062154,-0.350907832,-0.638005376
1231262,8.105716705,-0.119867004,5.541873455,0.131630063,4.935240269,-0.423339486,0.707851052,-0.286002368,-0.366799027,-0.531608939,8.561444283,0.454223186,5.133426666,-0.924388289,10.5640831,-1.091882467,0.591976106,-0.345066011,-0.350025535,-0.638729811
1231429,8.177267075,-0.119964674,5.480001926,0.367446274,6.850982189,-0.191980019,0.708180189,-0.285418957,-0.366104275,-0.531962991,8.559269905,0.452953517,5.150324345,-0.825292766,10.34613228,-1.000458121,0.592299819,-0.344085515,-0.349165767,-0.639428973
1231596,8.102903366,-0.112321697,5.589146137,0.33233133,10.38685608,-0.333221316,0.708684862,-0.284558922,-0.365047365,-0.532477796,8.579026222,0.480377674,5.174388885,-0.802407742,10.46311855,-1.250284433,0.592605948,-0.343078732,-0.348309636,-0.640152693
1231762,7.992437363,-0.086422049,5.739346504,0.441057235,9.416351318,-0.334693998,0.709139884,-0.283761978,-0.364098489,-0.532946527,8.546848297,0.479531616,5.187298775,-0.758533359,10.82778072,-1.530820489,0.592905283,-0.34201923,-0.347439319,-0.640915036
1231929,8.012000084,-0.111707695,5.68250227,0.217509478,8.467489243,-0.181965441,0.709546268,-0.283068955,-0.363223076,-0.533371389,8.514006615,0.481793314,5.205989838,-0.755741417,11.13745022,-1.601088881,0.593212247,-0.34092626,-0.34654519,-0.64169687
1232096,7.971867561,-0.119835734,5.76927042,-0.012050777,7.809781075,-0.03921305,0.709919155,-0.282457829,-0.362391174,-0.533764839,8.500002861,0.467012942,5.236955643,-0.762221456,11.63999748,-1.496089697,0.593552411,-0.339791417,-0.345601022,-0.642493129
1232262,7.952054501,-0.132074893,5.757843971,0.038105302,6.524881363,-0.026765276,0.710225523,-0.281941891,-0.361694276,-0.534102738,8.487050056,0.479532152,5.271029472,-0.657913685,12.18753242,-1.599961996,0.593913615,-0.338590205,-0.344623327,-0.643317997
1232429,7.947313309,-0.105900288,5.75133419,0.142592311,5.995184422,-0.071677141,0.710506201,-0.281451881,-0.361062855,-0.534415185,8.475389481,0.517265439,5.276565552,-0.600630939,12.80008793,-1.740076542,0.594293296,-0.337318689,-0.343603849,-0.64418
1232596,7.937121868,-0.101587683,5.770067215,0.361375988,5.776899815,-0.079655498,0.710782349,-0.280957043,-0.36046955,-0.534708679,8.446827888,0.488523185,5.317276001,-0.685486019,13.31455994,-2.042281151,0.594664097,-0.335990071,-0.342545688,-0.645095229
1232762,7.937708855,-0.106719255,5.769773483,0.238819227,5.527380943,-0.109686397,0.71103704,-0.280492187,-0.35989359,-0.535001874,8.406826973,0.497265279,5.350527763,-0.673627198,13.68634129,-1.998829246,0.59505564,-0.334626436,-0.341452926,-0.646021545
1232929,7.942853928,-0.113292143,5.779229164,0.213180915,5.565019131,-0.066785119,0.711294591,-0.280028433,-0.35931015,-0.535294473,8.396131516,0.48076424,5.392683506,-0.665559173,13.71705055,-1.952034593,0.595451176,-0.333260298,-0.340354681,-0.646942258
1233096,7.945026875,-0.090960026,5.787099361,0.225065216,5.955305099,0.072567195,0.711585939,-0.279540986,-0.358680457,-0.535584509,8.378024101,0.499840587,5.419672489,-0.573686481,13.96509838,-1.855974555,0.595870018,-0.331866354,-0.339237452,-0.647859216
1233262,7.943893433,-0.098004051,5.802107811,0.289916575,6.356669903,0.047300261,0.711896658,-0.279013634,-0.358015358,-0.535891473,8.392128944,0.507002413,5.467659473,-0.493211269,14.11827374,-1.982385755,0.596286058,-0.330443531,-0.338119268,-0.648787737
1233429,7.920967579,-0.104203895,5.823474884,0.346789569,6.297363281,-0.036062684,0.712198317,-0.278480262,-0.357363969,-0.536202729,8.377171516,0.527941763,5.484039783,-0.486987382,14.48058033,-2.036146879,0.596712351,-0.328981966,-0.336971343,-0.649735034
1233596,7.907199383,-0.119699754,5.842273712,0.442158401,6.116075993,-0.020502966,0.712495983,-0.277951479,-0.356737912,-0.536498368,8.309736252,0.52956754,5.550829887,-0.419702768,14.56663895,-1.985305905,0.59714818,-0.327507615,-0.33581844,-0.650675654
1233762,7.892511368,-0.091229163,5.891474247,0.346520692,5.587891579,-0.028148361,0.712761581,-0.277473509,-0.356158853,-0.536777675,8.232392311,0.545565426,5.568052769,-0.407408714,14.29363155,-1.789624572,0.597587109,-0.326066136,-0.334679574,-0.651582658
1233929,7.902220249,-0.099709593,5.841677189,0.039936598,3.490812063,0.090470448,0.712915301,-0.277197123,-0.355767995,-0.536975682,8.227241516,0.533158481,5.596392155,-0.352687061,13.73391533,-1.415768385,0.598034441,-0.324689806,-0.333575398,-0.652425349
1234096,7.988833904,-0.125362143,5.765149593,0.023903051,5.835552692,0.090047851,0.713189304,-0.276739299,-0.355132341,-0.53726846,8.18890667,0.556634068,5.636995792,-0.28264913,13.22255802,-1.295836926,0.598469317,-0.323360473,-0.332515359,-0.653227448
1234262,7.855796814,-0.105402477,5.869620323,0.098436013,6.760402203,-0.132007852,0.713495553,-0.276189446,-0.354416162,-0.537617743,8.211705208,0.560956061,5.670180798,-0.512869,12.65369892,-1.447720289,0.598849416,-0.322096735,-0.331488878,-0.65402478
1234429,7.926449299,-0.073652685,5.822109699,0.245734662,5.75056982,-0.068309069,0.713760316,-0.275706738,-0.353812963,-0.537911355,8.202216148,0.567337155,5.685082912,-0.575940311,12.517272,-1.476880312,0.59921509,-0.320848912,-0.330468535,-0.654818952
1234596,7.9121418,-0.094415605,5.860879421,0.298496842,7.644143581,0.051936161,0.714132786,-0.275076061,-0.353012592,-0.538265467,8.19079113,0.564319313,5.713515282,-0.423506171,12.44775772,-1.36739862,0.599592984,-0.319598794,-0.329462618,-0.655590713
1234762,7.844020844,-0.099069372,5.928797722,0.401780069,7.072557449,0.136919111,0.714486122,-0.27448377,-0.352275878,-0.53858161,8.16529274,0.567265809,5.715664387,-0.634234726,12.53715992,-1.24032104,0.599975526,-0.318363637,-0.32842195,-0.656363487
1234929,7.869096756,-0.104761571,5.905766487,0.381161869,6.818927765,0.129056007,0.71482408,-0.273913503,-0.351563126,-0.538888991,8.160313606,0.566526175,5.752038479,-0.702467084,12.7541647,-1.198469996,0.600367188,-0.31711477,-0.327352792,-0.657143533
1235096,7.847555637,-0.082645282,5.952505589,0.477273494,7.600307465,0.370135576,0.715225399,-0.273283631,-0.350767285,-0.539194942,8.148510933,0.572545707,5.751523018,-0.726581454,13.00281239,-1.212147236,0.600766122,-0.315842658,-0.326259196,-0.657934964
1235262,7.80395174,-0.088665776,5.98653841,0.283423752,7.268890381,0.358187199,0.715598166,-0.272698522,-0.349991143,-0.539500833,8.12237072,0.583154321,5.758847237,-0.980582833,13.31536579,-1.4159863,0.601146519,-0.314552248,-0.325122356,-0.658768117
1235429,7.83592701,-0.097045973,5.973237991,0.345560163,7.498637676,0.403188765,0.71598798,-0.272091538,-0.349193186,-0.539807081,8.114028931,0.584845603,5.776888847,-1.081048727,13.7811594,-1.670051455,0.601517439,-0.313212931,-0.323945612,-0.659646749
1235596,7.816839695,-0.072712421,5.996012211,0.156666502,8.467054367,0.460702121,0.716423512,-0.271430463,-0.348277122,-0.540153742,8.116535187,0.596533537,5.79773283,-1.285130978,14.59878159,-1.724529862,0.601909697,-0.311809361,-0.322679132,-0.66057384
1235762,7.791044712,-0.088119067,6.049332142,0.198146284,8.693701744,0.5576334,0.716878712,-0.270751655,-0.347336471,-0.540496111,8.1137743,0.578851223,5.823990345,-1.272478342,15.51451492,-2.007717371,0.602315247,-0.310302228,-0.321345329,-0.661563337
1235929,7.77061224,-0.086240351,6.03178215,0.08566808,9.105488777,0.733234048,0.717362583,-0.270060658,-0.346336365,-0.540841222,8.073552132,0.594682038,5.852880955,-1.390245914,16.60382652,-2.16095829,0.602748215,-0.308692157,-0.319910169,-0.662617028
1236096,7.768341541,-0.085751474,6.06540966,0.198876292,9.418107986,0.859069526,0.717874765,-0.269338667,-0.34530744,-0.541179538,8.095635414,0.598608673,5.902960777,-1.538172483,17.64722824,-2.193281889,0.603216112,-0.306991369,-0.318369031,-0.663722694
1236262,7.74753809,-0.083023399,6.07115984,0.309369475,10.13273811,0.917952895,0.7184304,-0.268552184,-0.344208956,-0.541532815,8.019075394,0.588420689,5.988666058,-1.561505914,18.60697746,-2.55750823,0.603687763,-0.305181324,-0.316755861,-0.664899409
1236429,7.721148968,-0.086422719,6.105928898,0.118145026,9.988168716,0.851065516,0.71896553,-0.267793,-0.343112469,-0.541894257,7.916319847,0.593255877,6.088615894,-1.535355091,18.69693947,-2.647382736,0.604151487,-0.303354174,-0.315139085,-0.666081548
1236596,7.706525326,-0.086190015,6.097301006,-0.212098822,9.479449272,0.815578997,0.719457686,-0.26710546,-0.342044413,-0.542255461,7.848899364,0.588827968,6.145870686,-1.383176804,18.31137466,-2.525325298,0.604611635,-0.301554412,-0.313563257,-0.66722393
1236762,7.715722561,-0.084706418,6.103930473,-0.110967048,10.04522038,1.010389328,0.71999532,-0.266372323,-0.340916753,-0.542612433,7.773488998,0.598302126,6.206661224,-1.260530472,17.62511063,-2.502927065,0.605043948,-0.299809515,-0.312056512,-0.668323994
1236929,7.689237595,-0.089220963,6.142353058,0.015374027,11.14136791,1.076943874,0.720596135,-0.265542179,-0.339681029,-0.542996883,7.743157864,0.607623279,6.221990108,-1.108826041,16.85787773,-2.372686148,0.605456948,-0.298129737,-0.310624182,-0.669367969
1237096,7.649798393,-0.109051853,6.188349724,-0.11785689,12.42968941,1.042123675,0.721249878,-0.264621556,-0.338300377,-0.543440163,7.773115158,0.638749421,6.266216278,-1.116484165,16.57759857,-2.338966608,0.605856538,-0.296477556,-0.309212357,-0.67039299
1237262,7.609357834,-0.111656673,6.24255991,-0.22203663,12.67682743,1.040689468,0.721909285,-0.263691574,-0.336884379,-0.543896139,7.779430866,0.631099463,6.292902946,-1.268815875,16.78565025,-2.479939222,0.606241584,-0.294810504,-0.307771623,-0.671442211
1237429,7.590565681,-0.125309736,6.275397778,-0.170823976,13.03303528,0.892250896,0.722573757,-0.26271981,-0.335439354,-0.544376612,7.767307758,0.643061638,6.365159988,-1.352044463,17.24559021,-2.515489817,0.606636524,-0.293102473,-0.306281894,-0.672513723
1237596,7.541200161,-0.13436988,6.333390713,-0.232768342,13.07723141,0.906914234,0.72323674,-0.261750937,-0.333982974,-0.544858158,7.724803925,0.635650098,6.38056469,-1.446248293,17.69541931,-2.517769814,0.607043147,-0.291356802,-0.304741323,-0.673604131
1237762,7.503298759,-0.123505794,6.326577663,-0.139153853,12.06618118,0.872004032,0.72384882,-0.260849625,-0.332640499,-0.545298815,7.63806057,0.643356085,6.433103085,-1.5351758,17.7936039,-2.360379457,0.607461751,-0.289614439,-0.303174734,-0.674684227
1237929,7.527309895,-0.145914629,6.310011864,0.027232714,11.96719933,0.887755692,0.724461198,-0.259938657,-0.331319839,-0.545724511,7.588796616,0.654129744,6.485714912,-1.580330849,17.40060234,-2.222070456,0.607870758,-0.287918806,-0.301630586,-0.67573297
1238096,7.47658205,-0.126137644,6.348574638,0.206201553,12.19317055,0.833213687,0.725084782,-0.258987427,-0.329990685,-0.546153605,7.541145802,0.634673953,6.5364604,-1.526467204,16.94893265,-2.083249331,0.608271956,-0.286266953,-0.300123781,-0.676743746
1238262,7.43129921,-0.125726864,6.377853394,0.090316817,11.51176834,0.789313376,0.725665629,-0.258099705,-0.328724861,-0.546565592,7.525417328,0.655107975,6.57188797,-1.439332604,16.39011383,-2.003593683,0.608656704,-0.284664154,-0.298669815,-0.677716494
1238429,7.428740025,-0.13324298,6.416761875,0.093774542,11.24511337,0.854305565,0.726237059,-0.257235289,-0.327483982,-0.546958804,7.489388943,0.640296221,6.597332954,-1.331298113,15.99715042,-2.028335571,0.609023154,-0.28308782,-0.297260582,-0.678666592
1238596,7.415027142,-0.136360556,6.445308208,-0.034321032,11.67417622,0.850181818,0.726821661,-0.256349355,-0.326186746,-0.547373176,7.487780094,0.64765203,6.642133236,-1.331208229,15.81703854,-2.212733984,0.609360337,-0.281519651,-0.295873165,-0.679621816
1238762,7.390739918,-0.162048519,6.512663841,0.042292986,11.71579647,0.921372354,0.727414846,-0.2554546,-0.324887633,-0.547776282,7.459107399,0.651832998,6.6375103,-1.291226983,15.87159443,-2.075168133,0.609711945,-0.279946953,-0.294477552,-0.680561662
1238929,7.363525391,-0.150620773,6.526194572,0.017999336,12.17826366,0.842972159,0.72802031,-0.254521042,-0.323539346,-0.548204124,7.470976353,0.656373858,6.620512962,-1.52974546,16.21590805,-2.059442043,0.610066712,-0.278360546,-0.293025494,-0.681520462
1239096,7.344841003,-0.178222105,6.567344666,0.056610502,12.62661362,0.882825494,0.72864908,-0.253548712,-0.322144121,-0.548640788,7.470644951,0.677155614,6.637321472,-1.568753839,17.14337158,-2.047967911,0.610457003,-0.276684672,-0.291485161,-0.682513356
1239262,7.322093487,-0.146438703,6.580165863,0.211593062,13.24379063,0.911729395,0.72931236,-0.252511233,-0.320693344,-0.549087703,7.443304062,0.675840795,6.646562099,-1.926179528,18.16291428,-2.167899609,0.610859931,-0.274932653,-0.289821863,-0.683568239
1239429,7.280669689,-0.154074416,6.641540051,0.191256553,13.81550598,0.876563251,0.729996085,-0.25142765,-0.31918028,-0.549558163,7.462209702,0.672691345,6.699299812,-2.248247385,19.52204323,-2.269953966,0.611292541,-0.273068011,-0.288007975,-0.684694707
1239596,7.23912859,-0.156864256,6.657936096,-0.224188074,13.54279232,0.814093709,0.730643749,-0.250405908,-0.317663759,-0.550042212,7.37282896,0.676726699,6.73306942,-2.524174213,20.90116882,-2.679066896,0.611725628,-0.271071345,-0.286057979,-0.685917616
1239762,7.24655962,-0.156513959,6.660263538,-0.075506285,12.70156956,0.543969214,0.731233835,-0.249422312,-0.316257,-0.550515532,7.28524971,0.663644254,6.795504093,-2.724209785,21.5316658,-2.810101986,0.61215806,-0.269021779,-0.28403455,-0.687178493
1239929,7.200519085,-0.143056512,6.638580799,-0.013933318,12.20025253,0.557172656,0.731801689,-0.248471975,-0.314906925,-0.550964296,7.249225616,0.656985581,6.864075184,-2.729704142,21.86147118,-2.780711651,0.612600565,-0.266938388,-0.281977266,-0.688442647
1240096,7.22270298,-0.170317993,6.651933193,0.313198626,12.57190323,0.688629746,0.732406497,-0.247462347,-0.313537717,-0.551395833,7.173483849,0.647388279,6.961248875,-2.718280554,21.83137512,-2.63843298,0.613050282,-0.264860362,-0.279915512,-0.689685225
1240262,7.26520586,-0.148311242,6.643663883,-0.052070655,14.92595768,0.697248638,0.733103096,-0.246302366,-0.311886907,-0.55192548,7.131024837,0.656036973,7.036777496,-2.580343008,21.46213913,-2.838122368,0.613464117,-0.262796283,-0.277905345,-0.690918744
1240429,7.156995773,-0.114978783,6.756011009,-0.145761997,16.38061142,0.486148685,0.733841479,-0.245024964,-0.310079575,-0.552530885,7.035183907,0.666214526,7.100641727,-2.533522606,20.73755264,-3.07885623,0.613820374,-0.260788649,-0.275970966,-0.692137241
1240596,7.124943733,-0.145439908,6.785872459,-0.135132715,15.53889942,0.672519624,0.734553158,-0.243821084,-0.308354676,-0.553082943,6.995156765,0.656889617,7.141307354,-2.330976963,19.85352707,-2.95344305,0.614156067,-0.258854598,-0.274128556,-0.693296671
1240763,7.094259739,-0.180980235,6.801273823,-0.458800554,14.9732914,0.675836384,0.735224485,-0.242696166,-0.30666247,-0.55362606,6.934615135,0.659069121,7.213102818,-2.095223427,18.75954819,-2.77644515,0.614470005,-0.257014662,-0.272398531,-0.694384038
1240929,7.060185432,-0.183602199,6.815761566,-0.299515098,14.38366127,0.77111572,0.735879421,-0.241604984,-0.305041373,-0.554128647,6.902105331,0.669147313,7.246742725,-1.88659513,17.64325905,-2.539053917,0.614767253,-0.255276293,-0.270778328,-0.695395172
1241096,6.999651909,-0.153921828,6.842957497,-0.163985431,14.38213634,0.617797911,0.736523271,-0.240491629,-0.303435415,-0.554639041,6.865625858,0.678849995,7.301813602,-1.746237159,16.80780602,-2.498354912,0.615037024,-0.253609657,-0.269243509,-0.696361661
1241263,6.970743179,-0.162645459,6.89417696,-0.066797979,14.19497204,0.76404655,0.737170815,-0.239388406,-0.301850826,-0.555120349,6.832779884,0.699852526,7.346314907,-1.663302898,15.9673872,-2.494653702,0.615273774,-0.252019316,-0.267790377,-0.697289467
1241429,6.924569607,-0.183998495,6.934552193,0.071798854,13.97709751,0.641592145,0.737800717,-0.238281533,-0.300303727,-0.555598676,6.817278385,0.707924187,7.376450062,-1.558329105,15.32965469,-2.395557642,0.615496576,-0.250486612,-0.266399771,-0.698177278
1241596,6.894265175,-0.182571471,6.965914249,0.120463006,13.69588089,0.541753829,0.738408864,-0.237186864,-0.298792869,-0.556073368,6.77614069,0.68328166,7.434449196,-1.456864238,14.52773094,-2.268467188,0.615702033,-0.249029815,-0.265085161,-0.699017286
1241763,6.866967678,-0.168381467,6.986505032,0.122473605,13.42822933,0.460164458,0.738996148,-0.236109212,-0.297312438,-0.556545317,6.756679058,0.69169879,7.431815147,-1.310705304,13.81380463,-2.152774811,0.615894318,-0.247635707,-0.263843626,-0.699812293
1241929,6.829196453,-0.164839074,7.016979218,0.184200227,12.83189869,0.520853758,0.739561796,-0.235074893,-0.295897782,-0.556985378,6.727466106,0.706568778,7.480929852,-1.227156401,13.08656788,-2.011264086,0.616073906,-0.246312574,-0.262669533,-0.700562537
1242096,6.806547165,-0.161462933,7.054704666,0.097808547,12.32718849,0.498929262,0.740098655,-0.234089032,-0.294530153,-0.557412505,6.703798294,0.719051242,7.511624813,-1.109837174,12.39864635,-1.942980289,0.61623621,-0.24505055,-0.261565387,-0.701274991
1242263,6.777738094,-0.157253355,7.087083817,0.121218532,11.71519566,0.466016829,0.740604877,-0.233148009,-0.293230295,-0.557819366,6.669373035,0.722943485,7.524193764,-1.134105206,11.82912064,-1.825315356,0.616386294,-0.243852392,-0.260504663,-0.701955497
1242429,6.742852688,-0.171058744,7.135385513,0.005551554,11.04548645,0.355920583,0.741067767,-0.232268408,-0.291996092,-0.558218896,6.663969517,0.701111913,7.523365974,-1.217461586,11.2521944,-1.63254118,0.616529226,-0.242727026,-0.259479284,-0.702599347
1242596,6.726761341,-0.182953864,7.141896248,0.008804368,9.243479729,0.313339472,0.741449237,-0.231532365,-0.290956944,-0.558560729,6.656052589,0.702967525,7.528066158,-1.151112199,10.77912998,-1.217167377,0.616697729,-0.24165909,-0.258487642,-0.703184962
1242763,6.773408413,-0.203192577,7.080891132,0.314351171,10.37057972,0.35639441,0.741890609,-0.23067309,-0.289818794,-0.558921695,6.636410713,0.70969671,7.543925285,-0.961731613,10.38781643,-1.189466953,0.616859615,-0.240614638,-0.25754872,-0.703745425
1242929,6.661222935,-0.162718102,7.216706276,0.685223281,10.88862324,0.283103675,0.742358446,-0.229728177,-0.288656712,-0.559290826,6.612098694,0.719968498,7.538373947,-0.826291561,10.25790882,-1.431084633,0.616995156,-0.239561722,-0.256643116,-0.704316378
1243096,6.709227085,-0.161806032,7.158372402,1.028945684,9.962787628,0.134063333,0.742785096,-0.228814572,-0.287626624,-0.55962944,6.607907295,0.708834291,7.512248516,-0.764014363,10.15141201,-1.444467068,0.617126346,-0.238513172,-0.255753309,-0.704880953
1243263,6.655094624,-0.171816543,7.215742588,0.968563974,10.68464375,0.144564539,0.743239105,-0.227848709,-0.286512643,-0.559992194,6.607402802,0.714075744,7.529625893,-0.588836133,10.32273388,-1.211865306,0.617292285,-0.237439513,-0.254857332,-0.705422163
1243429,6.647814751,-0.187507346,7.227185249,0.867585659,10.24172211,0.275599152,0.743680298,-0.226934701,-0.285433173,-0.560328901,6.606806278,0.715775192,7.540708542,-0.522294402,10.79175568,-0.987562001,0.61749953,-0.236319721,-0.253917843,-0.705955446
1243596,6.621376038,-0.1818472,7.262591839,0.731825471,10.567976,0.240061522,0.744125724,-0.226006761,-0.284307688,-0.560684383,6.580420494,0.731621504,7.560094357,-0.456777066,11.3029213,-0.827930927,0.617742717,-0.235147029,-0.252933055,-0.706487596
1243763,6.57025528,-0.178022578,7.303822041,0.670892894,10.28542995,0.261793911,0.744557679,-0.225108877,-0.283206314,-0.561029494,6.545086861,0.749783158,7.588128567,-0.446045429,11.84123898,-0.680068791,0.618019462,-0.233923048,-0.251895338,-0.707022429
1243929,6.570022583,-0.162331566,7.304758549,0.403790742,9.959789276,0.232953981,0.744963527,-0.224264741,-0.282118589,-0.56137687,6.518160343,0.744238079,7.637918472,-0.595751703,12.02929783,-0.670630395,0.6182971,-0.232692972,-0.250824392,-0.707566142
1244096,6.551484585,-0.151814908,7.340512276,0.427956372,9.433334351,0.250076085,0.745348394,-0.223461166,-0.281088591,-0.561702967,6.484263897,0.743310928,7.676308155,-0.782173872,12.26268101,-0.596558511,0.618582726,-0.231457755,-0.249710068,-0.708115578
1244263,6.536014557,-0.155650765,7.337741852,0.324903578,8.961380005,0.311277628,0.745714247,-0.222709373,-0.280098736,-0.562010288,6.431975365,0.763016284,7.725316048,-0.752053201,11.95078087,-0.660679817,0.618849456,-0.230248988,-0.248628274,-0.708657026
1244429,6.541016102,-0.164485767,7.31119442,0.550730765,8.633127213,0.333663136,0.746074677,-0.22196044,-0.279161662,-0.562294424,6.404537201,0.751121998,7.737010956,-0.927974045,11.42423534,-0.72545445,0.619082749,-0.22910732,-0.247577205,-0.709191024
1244596,6.514138699,-0.139596418,7.33242321,0.539858222,8.699656487,0.198825017,0.746425152,-0.221201435,-0.278220356,-0.562594831,6.373568058,0.754816294,7.761879921,-1.016235471,10.91857529,-0.659924269,0.619300187,-0.228027552,-0.246559754,-0.709703624
1244763,6.492847919,-0.152790666,7.383107185,0.413523585,8.248860359,0.372837842,0.746766448,-0.220499724,-0.277311593,-0.562865973,6.344988823,0.749388337,7.810805321,-1.069996476,10.26958847,-0.765640616,0.619480014,-0.227015197,-0.245598018,-0.710204363
1244929,6.485070229,-0.148401007,7.369565964,0.413331449,7.836802959,0.536067545,0.747103453,-0.219838053,-0.276441932,-0.563105404,6.32681942,0.740188897,7.822714329,-1.056152821,9.527959824,-0.869961202,0.619621873,-0.22607401,-0.244707435,-0.710688114
1245096,6.468863964,-0.144391239,7.37928915,0.37455377,7.907749653,0.587126434,0.747445226,-0.219176531,-0.275559366,-0.563342214,6.319343567,0.727002561,7.836811066,-1.108735442,9.032299995,-1.085415125,0.619720995,-0.22518073,-0.243862629,-0.711175442
1245263,6.463424683,-0.148693308,7.411384106,0.346828014,7.757339001,0.570158005,0.747777581,-0.218529433,-0.274691075,-0.5635764,6.302771568,0.723874569,7.845590115,-1.014762521,8.686310768,-1.147769332,0.619803548,-0.224312231,-0.243060321,-0.711652637
1245429,6.424136162,-0.153269798,7.425870419,0.215434849,7.58154583,0.586550057,0.748099267,-0.217911437,-0.273830384,-0.563807786,6.27876091,0.736656725,7.876094818,-0.910787821,8.438266754,-1.322998762,0.619861484,-0.223453477,-0.242296338,-0.712132514
1245596,6.403875828,-0.128169984,7.418117046,0.223502859,7.448130131,0.515398085,0.748408973,-0.2173004,-0.27298671,-0.564041615,6.297785282,0.769008398,7.89789772,-0.816072047,8.490836143,-1.502185225,0.619904935,-0.222574145,-0.241542831,-0.712625921
1245763,6.385787964,-0.139764622,7.502738953,0.283833563,7.53096056,0.425535858,0.748715639,-0.216672182,-0.272141486,-0.564284742,6.243958473,0.784549594,7.911016941,-0.962704837,8.696007729,-1.92661345,0.61990577,-0.221671551,-0.240768939,-0.713168263
1245929,6.365264893,-0.101241238,7.525795937,0.40218997,6.950283527,0.40892607,0.749000728,-0.216077685,-0.271369338,-0.564506054,6.180728912,0.806510031,7.946546078,-1.353913188,8.544956207,-2.342128277,0.619844496,-0.22080487,-0.23998107,-0.713755667
1246096,6.31307745,-0.089595363,7.535645962,0.175747961,6.314754009,0.222068548,0.749237657,-0.215552345,-0.270653397,-0.564736307,6.160804272,0.823861241,7.976142406,-1.702655673,8.220788002,-2.7587955,0.619716406,-0.219988242,-0.239199147,-0.714381158
1246263,6.295235157,-0.07852976,7.539346695,0.202231467,5.720961094,0.194291532,0.749449074,-0.21507138,-0.270004898,-0.564949512,6.117434025,0.8301754,7.966491699,-2.102457047,7.497395515,-3.021965981,0.619522095,-0.21927312,-0.238448873,-0.71502018
1246429,6.28382206,-0.078300975,7.548526764,0.03294434,5.194492817,0.098602496,0.74962604,-0.214647964,-0.269402653,-0.565163016,6.086415291,0.84241879,7.97786665,-2.450969696,6.68614006,-3.249407768,0.619263947,-0.218665347,-0.237742335,-0.715664983
1246596,6.283977509,-0.10326273,7.521306515,0.031945445,4.811698914,0.158549055,0.749792516,-0.214258209,-0.268839985,-0.565357924,6.081454277,0.858258128,8.000940323,-2.835544348,5.627464294,-3.007918119,0.618981242,-0.21821025,-0.237083092,-0.71626693
1246763,6.252363682,-0.10581138,7.492413521,-0.048177488,4.463992119,0.079751536,0.749936223,-0.213902473,-0.268310964,-0.565553486,6.070167542,0.864591241,8.020918846,-3.166780233,4.73649931,-2.539102316,0.618705451,-0.217893451,-0.236454368,-0.716809273
1246929,6.250261307,-0.126571983,7.525781155,-0.399276406,4.260551453,0.220506147,0.7500723,-0.213607043,-0.267770737,-0.565740824,6.087847233,0.870183587,7.978408813,-3.376893759,4.077074528,-1.836763859,0.618472934,-0.217688024,-0.235840619,-0.717274189
1247096,6.234469891,-0.139291644,7.504579544,-0.559355736,4.064306259,0.182765812,0.750192225,-0.213343561,-0.26723972,-0.565932035,6.12757349,0.852107108,7.986772537,-3.429195404,3.69639349,-1.030219793,0.618309498,-0.217554435,-0.235230073,-0.717656076
1247263,6.246463776,-0.164712876,7.556469917,-0.752283573,3.72858882,0.242789239,0.750297964,-0.21313104,-0.266727507,-0.56611377,6.12753582,0.804658234,7.980253696,-3.260574102,3.534546852,-0.238620743,0.618228018,-0.217449471,-0.234626606,-0.717955589
1247429,6.257871628,-0.158156931,7.578817844,-0.590859354,3.446220636,0.421245664,0.750412047,-0.212930918,-0.26625365,-0.566260755,6.146532536,0.77273649,7.966724873,-2.886948824,3.479607105,0.409681588,0.618223965,-0.217338681,-0.234046564,-0.718182206
1247596,6.254991055,-0.180785716,7.58640337,-0.523882151,3.020204782,0.435908914,0.750512838,-0.212759092,-0.265831202,-0.566390216,6.135719776,0.721326768,7.96088028,-2.22404027,3.404536009,1.029163003,0.618302464,-0.217197195,-0.233522832,-0.718327582
1247763,6.265166759,-0.198979467,7.574168205,-0.401940107,2.498922348,0.612739027,0.750611663,-0.212623715,-0.265470088,-0.566479504,6.123831749,0.685410202,7.960077763,-1.406713724,3.375082016,1.598738551,0.618465304,-0.217004821,-0.233069181,-0.718392968
1247929,6.277547359,-0.217658266,7.579657555,-0.147862121,2.223777771,0.725806296,0.750716925,-0.212487713,-0.265156358,-0.566537917,6.125646114,0.65838623,7.956248283,-0.520193934,3.26072073,1.902517796,0.618683815,-0.216755137,-0.232708752,-0.718397141
1248096,6.259960651,-0.207249939,7.562748909,-0.300385743,2.29254818,0.900395334,0.750834584,-0.212369502,-0.264817059,-0.566585124,6.136510849,0.633858263,7.957335949,0.3242504,3.441764832,2.124311209,0.618958056,-0.216418222,-0.232413128,-0.718358099
1248263,6.272355556,-0.213385895,7.563820839,-0.00203621,2.047716141,1.078109026,0.750966489,-0.212245807,-0.264523536,-0.566593766,6.110152245,0.685886681,7.954882622,1.020915747,3.398286343,2.216580629,0.619262338,-0.216026545,-0.232191205,-0.718285441
1248429,6.248342514,-0.204077944,7.57906723,0.469064593,2.10141325,1.204187512,0.751125395,-0.21207124,-0.264258951,-0.566571891,6.134590626,0.690117419,7.940124512,1.348668814,3.508562326,2.226262093,0.619581461,-0.215594366,-0.231993243,-0.718204081
1248596,6.27048254,-0.198015213,7.559212208,0.427892208,1.72639215,1.451017141,0.751288891,-0.211941585,-0.264024317,-0.56651324,6.13045311,0.712385118,7.941864967,1.191688657,3.587129116,2.567884684,0.619933784,-0.21517989,-0.231761083,-0.718099356
1248763,6.311798096,-0.221800655,7.528849125,0.300046355,2.894062281,1.624555826,0.751507044,-0.211736366,-0.263646215,-0.566476405,6.133023739,0.737369418,7.997015953,0.900292873,3.771617651,2.649345875,0.620291352,-0.214775339,-0.231479302,-0.718002439
1248929,6.262877941,-0.209978491,7.619311333,0.382327139,3.870623112,1.672438741,0.751769185,-0.211443782,-0.263166696,-0.566460848,6.139891624,0.760341883,8.007717133,0.279684365,4.037644386,2.143661499,0.620585501,-0.214382172,-0.23112455,-0.717980146
1249096,6.257777691,-0.178808674,7.589204311,0.326184154,3.390679836,1.623979688,0.752007008,-0.211195052,-0.26273641,-0.56643784,6.089125156,0.73153913,8.04052639,-0.463525891,4.137084961,1.891068935,0.62083298,-0.214037284,-0.230691165,-0.718008339
1249263,6.243863583,-0.205551326,7.646676064,0.082325615,3.427395105,1.568003058,0.752233803,-0.210967794,-0.262283742,-0.566431165,6.07461834,0.668338478,8.016824722,-0.916883528,4.088459969,2.121288776,0.621088624,-0.213746235,-0.230207652,-0.718029141
1249429,6.222380638,-0.224733159,7.609741211,-0.076044112,2.589040756,1.743411779,0.752438068,-0.210833684,-0.26190418,-0.566385269,6.023003101,0.639197767,8.029566765,-1.072122097,3.901256323,2.02639389,0.62132293,-0.213485733,-0.229727671,-0.718057632
1249596,6.203672886,-0.22580646,7.5990448,-0.136451647,2.475255966,1.615975738,0.752625525,-0.210710794,-0.261536032,-0.566352189,6.004131317,0.608562887,8.023714066,-1.017157078,3.64696002,1.798338056,0.621526539,-0.213239312,-0.229283303,-0.718096614
1249763,6.191289902,-0.24188821,7.615302086,-0.000179289,2.33795929,1.491779804,0.752801418,-0.210579544,-0.261197805,-0.566323221,5.992376804,0.607846677,8.022563934,-0.776884556,3.610693216,1.472634315,0.621702313,-0.212964326,-0.228877276,-0.718155742
1249929,6.175628662,-0.222248182,7.612672329,0.076742046,2.493543625,1.161695957,0.752958417,-0.210414708,-0.260858834,-0.566332042,5.99811554,0.574352503,8.052966118,-0.474923491,3.538195848,1.146417975,0.621850848,-0.212658852,-0.228519216,-0.718231738
1250096,6.147081852,-0.245169491,7.626141071,0.117607124,2.462360382,0.974633753,0.753099859,-0.210240766,-0.260532409,-0.566358805,5.988960743,0.593051672,8.051434517,-0.081512421,3.572939873,1.179407239,0.622016072,-0.21231547,-0.228197843,-0.718292415
1250263,6.138147354,-0.252746254,7.626887321,0.293502331,2.382230759,0.878445208,0.753235519,-0.210050613,-0.260232002,-0.566386998,5.980207443,0.636734128,8.083152771,0.167308569,3.575974941,1.192636371,0.622190416,-0.21194987,-0.227901608,-0.718343437
1250429,6.142955303,-0.254538804,7.6532197,0.313531429,2.431048632,0.734949946,0.75336206,-0.209848866,-0.259932101,-0.566431224,5.992772102,0.658673406,8.115664482,0.243134961,3.551860571,1.119140625,0.622358561,-0.21157755,-0.227617577,-0.718397617
1250596,6.136954784,-0.245224208,7.656453133,0.437279254,2.396740437,0.603505671,0.753480315,-0.209631562,-0.259649932,-0.566483736,5.979843616,0.67165792,8.142807007,0.159650356,3.532292128,1.106705546,0.622521996,-0.211214498,-0.227326825,-0.718455017
1250763,6.137412548,-0.234511867,7.681405067,0.466567338,1.974732757,0.585781693,0.753582001,-0.209445164,-0.259416878,-0.566524386,5.955535889,0.692072213,8.175597191,-0.073982291,3.508985043,1.063215256,0.622672796,-0.210873604,-0.227014929,-0.718522906
