sampleTimeFine,W4_acc_x,W4_acc_y,W4_acc_z,W4_gyro_x,W4_gyro_y,W4_gyro_z,W4_quat_w,W4_quat_x,W4_quat_y,W4_quat_z,W5_acc_x,W5_acc_y,W5_acc_z,W5_gyro_x,W5_gyro_y,W5_gyro_z,W5_quat_w,W5_quat_x,W5_quat_y,W5_quat_z
3838716,-0.23537223,-0.175506487,0.108923987,-0.105639316,0.064414673,-0.120118186,0.612325191,-0.387389958,-0.502041936,-0.472166121,-0.03396691,-0.377979606,0.375112742,-0.005012562,-0.037639644,-0.182524249,0.348575592,-0.649608672,-0.525977492,-0.424089015
3838883,9.643920898,0.001940877,1.947156668,0.785426259,-0.269913048,0.189149797,0.612611711,-0.38694796,-0.502240002,-0.471946239,8.941549301,-0.057703335,-3.875160217,-0.758251131,-0.827264547,0.058070395,0.348491311,-0.649704218,-0.52574712,-0.424297512
3839049,9.650366783,0.014000852,1.961817861,0.644793212,-0.029992469,0.219251096,0.612855554,-0.386651635,-0.502248406,-0.471863627,8.960677147,-0.043482699,-3.859295845,-0.519873738,-0.299860686,0.0205734,0.348308533,-0.649804294,-0.525663555,-0.424397767
3839216,9.664116859,0.018850189,1.963673949,0.648276567,0.117005214,0.08337573,0.613100827,-0.386280954,-0.502235472,-0.471862227,8.944659233,-0.041426785,-3.857869387,-0.330224544,0.04239542,0.081698105,0.348174959,-0.649787366,-0.525582492,-0.424633473
3839383,9.650802612,0.021553801,1.99076736,0.566584885,0.256261438,0.144807786,0.613218009,-0.386043936,-0.502157867,-0.4719868,8.960573196,-0.028734826,-3.848006248,-0.232358396,0.611855328,0.20306389,0.348155558,-0.649677873,-0.525556803,-0.424848795
3839549,9.614750862,-0.004842629,1.987520218,0.490438372,0.331767678,0.039437152,0.613329172,-0.385816008,-0.502027154,-0.472167522,8.988908768,-0.023406211,-3.847445488,0.010610061,1.166344643,0.283641428,0.348240346,-0.649482608,-0.525541127,-0.425097197
3839716,9.610738754,-0.01344654,2.018801212,0.360581994,0.503462493,-0.029736346,0.613508761,-0.385598689,-0.501881957,-0.472266138,8.971736908,-0.019843157,-3.814856291,0.123267524,1.725406051,0.252752542,0.34837085,-0.649263084,-0.525473118,-0.425409555
3839883,9.628405571,-0.008597203,2.014616966,0.49331975,0.372645557,0.114072554,0.613790691,-0.385344893,-0.50176239,-0.472233832,8.957310677,-0.023921708,-3.822534323,0.303952277,1.980008841,0.210504338,0.348563313,-0.649002671,-0.525401235,-0.425738186
3840049,9.630422592,-0.007413478,2.019502163,0.653796136,0.34924835,0.144999892,0.613935113,-0.385250568,-0.501550674,-0.472348273,8.97846508,-0.029398452,-3.783520222,0.460087359,2.317148924,0.073591694,0.348768502,-0.648747981,-0.525304675,-0.426077127
3840216,9.625845909,0.003067157,2.00799489,0.960649014,0.248731315,0.208493769,0.614197552,-0.385031372,-0.501474917,-0.472266138,8.945999146,-0.005301343,-3.791808844,0.617464602,2.541503429,0.239894956,0.349049211,-0.648477018,-0.525182426,-0.426410288
3840383,9.624276161,0.035123866,2.020328522,0.966091752,0.280119658,0.248577639,0.614357531,-0.384913921,-0.501352727,-0.472283483,8.983957291,0.019876547,-3.760802984,0.629233658,2.332132578,0.419747353,0.349246234,-0.648321629,-0.524964571,-0.426753402
3840549,9.635650635,0.048092611,2.02341795,0.711475968,0.217547849,0.329206437,0.614543259,-0.384754807,-0.501291096,-0.472236693,8.89768219,0.015256827,-3.747130632,0.552395523,2.264463663,0.890201449,0.349512964,-0.648127854,-0.524795473,-0.427037269
3840716,9.63564682,0.016607907,1.984326601,0.566354454,0.051795281,0.536951065,0.614657938,-0.384676784,-0.501208365,-0.472239077,8.916725159,-0.047891032,-3.755932093,0.597409785,1.340331674,1.345620751,0.349731416,-0.648029149,-0.52464211,-0.427196383
3840883,9.635850906,0.029875636,2.016501665,0.257106692,-0.041069962,0.602980554,0.614728987,-0.384662092,-0.501125038,-0.472246855,8.83002758,-0.056526713,-3.735363245,1.00137341,1.048039675,1.931101561,0.350026488,-0.647976935,-0.524484336,-0.427227914
3841049,9.680892944,-0.006997025,1.952429056,-0.126565143,-0.23771143,0.900267184,0.614821792,-0.384671777,-0.501062453,-0.472184509,8.817036629,-0.03667194,-3.72298646,0.928159416,-0.500894785,1.408832908,0.350151628,-0.648024261,-0.524420857,-0.427131593
3841216,9.606474876,-0.050308466,1.91233778,-0.291907966,-0.117114082,1.098611951,0.614877999,-0.384763658,-0.500955999,-0.47214964,8.906199455,-0.078253202,-3.754423141,0.649480462,-0.76856035,0.738497436,0.350188643,-0.648057878,-0.524421334,-0.427049607
3841383,9.731012344,-0.032513827,1.896494865,0.531469882,-1.063144684,0.461342365,0.61484468,-0.384843946,-0.501026034,-0.472052991,8.953949928,-0.126473576,-3.781574726,0.859222829,-1.097350359,0.487902671,0.350218236,-0.648085952,-0.524477839,-0.426913142
3841549,9.649858475,0.072461151,1.950277448,0.688373268,-0.03747138,0.085143015,0.614891708,-0.384795338,-0.50108397,-0.471970052,8.95057106,-0.086083159,-3.775748968,1.057324171,-0.998472631,0.258361697,0.350265414,-0.648102939,-0.524542391,-0.426769495
3841716,9.554381371,-0.025762998,1.905510545,0.648942471,0.173980653,0.357777357,0.614991069,-0.384711653,-0.501144946,-0.471844107,9.074430466,-0.000828927,-3.755466938,0.843727171,-0.564414263,-0.162768707,0.350317836,-0.648057699,-0.524632454,-0.42668429
3841883,9.694991112,0.017591363,2.007196426,0.395492047,0.397336215,0.610920489,0.615020216,-0.384755969,-0.501085401,-0.47183314,9.097488403,0.050424974,-3.75009346,0.226832479,0.806486309,-0.334028035,0.350394309,-0.647947192,-0.524618447,-0.426806659
3842049,9.611807823,0.041051283,2.013665676,0.39864251,0.109577537,0.471907586,0.615066767,-0.38475579,-0.501093388,-0.471764147,9.032578468,0.034437623,-3.733098507,-0.488254845,1.532414198,-0.225404546,0.350468725,-0.647811294,-0.524534345,-0.427055001
3842216,9.580051422,0.066023938,2.091262341,0.234567478,-0.165842205,0.139403507,0.615071774,-0.384747028,-0.501137197,-0.471718222,8.983673096,0.029361138,-3.719914198,-0.856808901,1.893579006,0.266711444,0.350563109,-0.647701442,-0.524368167,-0.427348256
3842383,9.61251545,0.016714811,2.091006994,0.120091535,-0.870434701,0.186005831,0.61502707,-0.384786457,-0.501223028,-0.471653014,8.938951492,-0.020185731,-3.70840621,-1.141020179,1.70592761,0.825490892,0.350628614,-0.647679985,-0.524116039,-0.427636385
3842549,9.59122467,0.010849242,2.081969023,0.4019593,-1.448193312,0.438265324,0.614962101,-0.384872079,-0.501340091,-0.47154355,8.910021782,-0.02727548,-3.717069387,-0.994080126,1.434343338,1.18992126,0.350720435,-0.647685051,-0.523866832,-0.427858293
3842716,9.593253136,0.022108911,2.0507586,0.504089892,-1.750538349,0.435768038,0.614909589,-0.384940088,-0.501502156,-0.471384317,8.94780159,-0.042733472,-3.714067936,-0.796388566,0.98425132,1.11350596,0.350779474,-0.647720039,-0.523642838,-0.428031117
3842883,9.633554459,-0.032848705,2.012016296,0.085808948,-1.660855412,0.365602046,0.614815295,-0.385055304,-0.501609743,-0.471298546,8.922133446,-0.102076404,-3.721811295,-0.346706301,0.88341397,0.772075593,0.35084489,-0.647725523,-0.523470521,-0.428180277
3843049,9.608347893,-0.010666116,1.984877586,0.207405239,-1.350352764,0.406275064,0.614785433,-0.385113418,-0.501717806,-0.471175075,8.972847939,-0.134519026,-3.747196674,0.243992984,0.251062065,0.637532115,0.350931793,-0.647713363,-0.523404598,-0.428207755
3843216,9.644662857,-0.015370724,1.99256742,0.243019685,-1.068971634,0.311341584,0.614755809,-0.38516131,-0.501796484,-0.471090913,8.885956764,-0.105696939,-3.745631695,1.083948731,0.221812367,0.584629059,0.351105392,-0.64765352,-0.523405433,-0.428155303
3843383,9.607383728,0.004394741,1.911796927,0.235348716,-1.047943711,0.682751358,0.614685357,-0.385309786,-0.501796782,-0.471061021,8.88126564,-0.039835967,-3.72992897,1.36041224,-0.791547716,0.042920485,0.351197511,-0.647603214,-0.523530483,-0.428002834
3843549,9.634227753,-0.027089536,1.970101357,0.107925504,-0.922070026,0.584539413,0.614636183,-0.385425806,-0.501812339,-0.471013755,8.938247681,-0.027056793,-3.754744768,1.253466368,-1.233507752,-0.111876294,0.351227403,-0.647582769,-0.523679733,-0.427826196
3843716,9.678963661,-0.016845908,1.88564074,0.407004982,-1.819526076,0.416123122,0.614552677,-0.385539353,-0.501959085,-0.470873237,8.933959007,-0.01765991,-3.746725798,1.161555052,-1.50158298,-0.052237097,0.351248652,-0.647565126,-0.52386409,-0.42761007
3843883,9.660290718,0.024615146,1.922661304,0.770667017,-1.111450315,0.190641746,0.614503741,-0.385579854,-0.502070129,-0.470785588,8.952480316,0.001426358,-3.7575562,1.006700873,-1.595581532,0.18017894,0.351228625,-0.6476174,-0.523976624,-0.427409559
3844049,9.657662392,-0.003568392,1.930011392,0.576740384,-1.289036036,0.302748501,0.614451051,-0.385642409,-0.50219357,-0.470671296,8.981336594,0.033360153,-3.777240276,0.556826532,-1.346408486,0.413625896,0.35120976,-0.647678256,-0.524048984,-0.427243799
3844216,9.658720016,-0.01645661,1.919701576,0.419939458,-1.290470362,0.439174592,0.614373446,-0.385756314,-0.502280712,-0.47058633,8.974637032,0.025548026,-3.795930624,-0.057077896,-1.083301902,0.624969065,0.351158381,-0.647773683,-0.524047852,-0.427142709
3844383,9.623168945,0.000357163,1.952254891,0.483574152,-0.978059292,0.46606788,0.614337265,-0.385832012,-0.502355635,-0.470491499,8.925823212,-0.007861977,-3.819473028,-0.5764395,-0.961628854,0.581760466,0.351068616,-0.64787519,-0.52402705,-0.427088112
3844549,9.60986805,0.04103788,1.960391998,0.19619967,-1.063452005,0.249755815,0.614251256,-0.385936946,-0.502420068,-0.470448971,8.909527779,-0.028304936,-3.815672636,-0.854081035,-1.033075452,0.458960325,0.35093835,-0.647985101,-0.524009824,-0.427049637
3844716,9.652018547,9.59E-05,1.942037702,0.183764726,-1.255175948,0.242827609,0.614161611,-0.386040777,-0.502511621,-0.470383167,8.953136444,-0.05665566,-3.818151712,-1.069355726,-0.895189524,0.306539178,0.350780308,-0.648095727,-0.523978174,-0.427050471
3844883,9.641254425,0.001706178,1.905429125,0.360697269,-1.12526834,0.284768403,0.614111483,-0.386104405,-0.502615988,-0.47028473,8.996446609,-0.056816593,-3.827093363,-1.05302763,-0.49057278,0.140825018,0.350643873,-0.648169875,-0.523942351,-0.427093893
3845050,9.656066895,0.006156237,1.903278232,0.562051475,-0.810078382,0.240445614,0.614070714,-0.386148781,-0.502692461,-0.47021991,8.989956856,-0.036979269,-3.829007864,-1.156784654,0.100382566,0.068148986,0.350547284,-0.648197472,-0.523890316,-0.427195013
3845216,9.639409065,0.01291053,1.914048433,0.321036011,-0.826444983,0.235771328,0.614021301,-0.386208147,-0.502761543,-0.470161706,8.914899826,-0.005028765,-3.806586981,-1.319322824,0.334239334,0.012838366,0.350438178,-0.648229241,-0.523805141,-0.427340806
3845383,9.631987572,0.018837795,1.914194345,0.073271528,-1.128329039,0.118708447,0.613888085,-0.386343896,-0.502815604,-0.470166415,8.925370216,-0.020182045,-3.822078466,-1.430238724,0.352565229,0.248961836,0.350364953,-0.648245156,-0.52373904,-0.42745769
3845550,9.666833878,-0.001276967,1.908037782,0.142195314,-1.210084915,0.025491042,0.613750637,-0.38646698,-0.502891541,-0.470163405,8.932513237,-0.040913444,-3.835707664,-1.215079308,0.450853914,0.550436139,0.350309134,-0.648302436,-0.523611009,-0.427573413
3845716,9.663606644,-0.004409057,1.917195797,0.369239122,-1.167337418,0.229624271,0.613684118,-0.38653791,-0.503002405,-0.470073432,8.936655998,-0.020565728,-3.823908806,-1.191246748,0.434589922,0.572693586,0.350253642,-0.648364305,-0.523481488,-0.427683651
3845883,9.657541275,-0.000144245,1.91539526,0.245299205,-0.880667031,0.292260081,0.613611519,-0.38663134,-0.503055394,-0.47003445,8.982502937,-0.048489027,-3.821239948,-0.913527966,0.708748221,0.469679236,0.350248426,-0.648375154,-0.523381352,-0.42779398
3846050,9.662654877,-0.023295116,1.878678322,0.318141729,-0.665008068,0.074577779,0.61353898,-0.38669318,-0.503102362,-0.470027983,9.029624939,-0.038007312,-3.79139328,-0.587926745,1.312580466,0.285985023,0.350329757,-0.648293138,-0.523319304,-0.427927554
3846216,9.657544136,-0.012402287,1.902974963,0.688450038,-0.35561952,0.064511985,0.613532126,-0.38667649,-0.503167272,-0.469981313,9.020595551,-0.04101111,-3.76849556,-0.183207616,1.849704027,0.2647008,0.35044533,-0.648209572,-0.523189306,-0.428118527
3846383,9.658424377,0.005396158,1.95924294,0.560437858,-0.219155058,0.060874984,0.613520622,-0.386669844,-0.503205419,-0.469961107,8.942540169,-0.009488208,-3.758993149,0.00889401,2.046448231,0.429121554,0.350619435,-0.648099184,-0.523065925,-0.428293914
3846550,9.618779182,0.011239843,1.967825055,0.724679232,-0.444149822,0.149674207,0.613471329,-0.386709392,-0.503238201,-0.469957501,8.981369972,0.030139672,-3.730554819,0.03895051,1.931242228,0.605439365,0.350838333,-0.647959113,-0.522993803,-0.428414732
3846716,9.635691643,0.016269533,1.951507568,0.532917023,-0.652624428,0.325940818,0.613464057,-0.386733174,-0.503310859,-0.469869643,8.864276886,-0.006371697,-3.729603767,0.170369267,1.742745638,0.989488959,0.351052135,-0.647884429,-0.522863388,-0.428511739
3846883,9.647287369,0.028100271,1.940365911,0.631653965,-0.988560498,0.43058154,0.613429487,-0.386795074,-0.503400564,-0.469767779,8.914935112,-0.036824398,-3.722728968,0.610485017,0.824735165,1.558590174,0.35129261,-0.64786315,-0.522784293,-0.428443104
3847050,9.660813332,0.031213079,1.953518271,0.369904995,-0.843272507,0.418658763,0.613371432,-0.386888772,-0.503444493,-0.46971935,8.761929512,-0.017756905,-3.716252089,0.871094286,0.113393813,1.657685995,0.351483673,-0.647913158,-0.522707582,-0.428304404
3847216,9.657188416,-0.029832741,1.878352642,-0.205349833,-1.179836273,0.778927028,0.613294184,-0.387068182,-0.503469229,-0.469645917,8.895212173,0.013067387,-3.727027416,0.566098213,-1.367500305,0.970804334,0.351502031,-0.648004472,-0.52277112,-0.428073674
3847383,9.633872986,-0.014421134,1.810299039,-0.369386375,-1.069010139,0.398207039,0.61318773,-0.387230039,-0.503492773,-0.469626278,8.964174271,-0.075803369,-3.749913216,0.277084649,-1.633129835,0.482780248,0.351425052,-0.648109794,-0.522851467,-0.427879274
3847550,9.74834156,0.004650615,1.809697032,0.384273708,-1.398273945,-0.240938634,0.613023162,-0.387335777,-0.503608406,-0.469630063,9.046770096,-0.094894327,-3.754195213,0.85484314,-1.372162104,0.590993881,0.351439476,-0.648166537,-0.522957563,-0.427651733
3847716,9.652407646,0.074630179,1.863759756,0.725140452,-0.074520156,-0.419792175,0.613006651,-0.387259603,-0.503678918,-0.469638586,9.035951614,-0.035622589,-3.716028452,1.029137492,-0.740360737,0.216075137,0.351511508,-0.648128271,-0.523099065,-0.42747733
3847883,9.66549015,-0.016407639,1.91133976,0.239459544,0.427802563,0.051052518,0.613034129,-0.387222648,-0.503648996,-0.469665408,9.071578979,0.020913661,-3.744009972,0.625558197,-0.000461029,-0.12915203,0.351563931,-0.648058772,-0.523183167,-0.42743662
3848050,9.657830238,0.025923926,1.957319021,0.050092034,0.315157831,0.234132081,0.613029659,-0.387251824,-0.503583729,-0.469717145,9.047451973,0.045175262,-3.701218128,-0.068411514,0.99430418,-0.374841839,0.3516092,-0.647945583,-0.523193538,-0.427558452
3848216,9.580229759,0.051193409,1.996403456,0.484316915,-0.321503371,0.047722857,0.612955034,-0.387309641,-0.503584921,-0.469765425,8.922973633,0.050853085,-3.696969032,-0.618725955,1.382708073,-0.101720832,0.351654947,-0.647848248,-0.52313292,-0.427742153
3848383,9.580587387,0.068727553,2.008426666,0.204984814,-0.672845542,-0.146850392,0.612890244,-0.387331724,-0.503661096,-0.469750196,8.918171883,0.02335747,-3.691147804,-0.980915189,0.976477802,0.268465936,0.35165593,-0.647824585,-0.523033142,-0.42789945
3848550,9.626758575,0.026160587,1.991161466,0.196289331,-1.244418621,0.202423573,0.61279279,-0.38743329,-0.503754437,-0.469693482,8.965006828,0.002630416,-3.6992836,-1.188890219,0.821123898,0.787276685,0.351645708,-0.647874355,-0.522861719,-0.428042024
3848716,9.571325302,0.008721325,1.971549273,0.485828102,-1.47513783,0.551524639,0.61271292,-0.387556285,-0.503861904,-0.469581068,8.988767624,-0.017168587,-3.71388483,-1.225452423,0.743530214,0.988771796,0.351665288,-0.647913098,-0.522712946,-0.428148717
3848883,9.590970993,0.01140436,1.954661846,0.436562032,-1.236389041,0.343190908,0.612620413,-0.387666285,-0.503943622,-0.469523072,8.963500977,-0.031378318,-3.712612152,-1.134540081,0.766069412,0.823454738,0.351667196,-0.647954881,-0.52255702,-0.428274363
3849050,9.626493454,0.010487718,1.93299973,0.07594806,-1.094725251,0.353500038,0.612533569,-0.387783676,-0.503998578,-0.469480574,8.939819336,-0.106469952,-3.744585752,-0.6094414,0.186210737,0.625391781,0.35166344,-0.647989869,-0.522483051,-0.428314954
3849216,9.67246151,0.030830855,1.919987559,0.233222842,-0.946081936,0.236603737,0.612457693,-0.387869179,-0.504056275,-0.469447047,8.915120125,-0.101117261,-3.741306543,0.19258827,-0.151832074,0.702357769,0.351708204,-0.64801985,-0.522457778,-0.428263277
3849383,9.616228104,0.027516685,1.899409413,0.387923539,-1.078819752,0.467976034,0.612366199,-0.387999475,-0.504097939,-0.469414085,8.824780464,-0.045535982,-3.746078014,0.545012653,-1.292801023,0.347192943,0.35168907,-0.648063242,-0.522562742,-0.428085238
3849550,9.643176079,-0.007291665,1.866375566,0.442171216,-1.14363265,0.766095102,0.612360358,-0.388078362,-0.504188061,-0.469259441,8.881988525,-0.042870704,-3.76013732,0.644281089,-2.206687927,-0.147913352,0.351597786,-0.64809823,-0.522796333,-0.427822113
3849716,9.675004959,-0.022460118,1.843564153,0.166181579,-1.610552073,0.415866971,0.612271667,-0.388198286,-0.504313409,-0.469141394,8.921586037,-0.060688023,-3.76661396,0.966655254,-2.575984478,-0.011231169,0.351518512,-0.648148715,-0.523058355,-0.427490443
3849883,9.757022858,0.05951035,1.813160658,0.984289706,-0.939307392,-0.021220122,0.612243414,-0.38817355,-0.504455745,-0.469045788,8.944808006,-0.001126311,-3.780313492,1.089493752,-2.680650473,0.098576866,0.351436466,-0.648223817,-0.523303211,-0.42714411
3850050,9.643060684,0.004380854,1.836782932,0.47402063,-0.528120995,0.128684595,0.612200558,-0.388204366,-0.50449878,-0.469029903,8.950414658,0.046729978,-3.785362005,0.784613073,-2.495240688,0.186210722,0.35132578,-0.648332417,-0.523483396,-0.426849425
3850216,9.677471161,0.005907895,1.813913107,0.166617006,-0.599055409,0.284601927,0.612101138,-0.388327152,-0.504481733,-0.469076157,8.910162926,0.064982772,-3.824987888,0.243660033,-2.372709274,0.378498077,0.351193935,-0.648463011,-0.52362144,-0.426590055
3850383,9.644114494,0.026849883,1.859137774,0.210709274,-0.432534426,0.161174312,0.612069547,-0.388358921,-0.50451237,-0.469058037,8.925145149,0.031540394,-3.835928917,-0.411685735,-2.452441692,0.665244997,0.351010233,-0.648653805,-0.52369684,-0.42635861
3850550,9.624492645,0.043744169,1.86799252,0.054126035,-0.494209826,0.015233153,0.612013638,-0.388399094,-0.504545629,-0.46906215,8.92091465,0.008958795,-3.846673965,-0.68955797,-2.271487951,0.775610268,0.350843519,-0.648826778,-0.523772299,-0.42614004
3850716,9.662014008,0.035676245,1.851212978,-0.101964146,-0.592677832,-0.008221676,0.611925244,-0.388473213,-0.504566669,-0.469093472,8.934108734,-0.00935706,-3.845912218,-1.016106963,-2.15876627,0.81588614,0.350633323,-0.649040222,-0.523784161,-0.425973207
3850883,9.640954971,0.016708016,1.842980623,-0.044591706,-0.406050891,0.172981754,0.611796618,-0.388617754,-0.504507363,-0.46920535,8.966116905,-0.043741144,-3.897013187,-1.072877645,-1.786703706,0.610613227,0.350478798,-0.649161696,-0.523863375,-0.425817966
3851216,9.663416862,0.047481142,1.851806283,-0.056104615,-0.181350723,-0.132648155,0.611625731,-0.388741046,-0.504485011,-0.469349921,8.967703819,-0.055324513,-3.8879354,-0.945697784,-1.26366663,0.364462316,0.350320816,-0.649274707,-0.523886919,-0.425746709
3851383,9.652112007,0.038347669,1.865943432,-0.066119194,0.053831495,-0.070857547,0.611623526,-0.388717115,-0.50449121,-0.469365925,8.971637726,-0.032239288,-3.868831873,-0.703965008,-0.717706203,0.051129349,0.350208342,-0.649317086,-0.523928761,-0.425723195
3851550,9.66252327,0.038873009,1.867141366,-0.22417514,0.270617396,-0.132673785,0.611557484,-0.38876003,-0.504415154,-0.469498307,8.946043015,-0.024200195,-3.877077103,-0.556615174,-0.136643738,-0.11824102,0.350111485,-0.649342477,-0.523917556,-0.425777882
3851716,9.667847633,0.022927064,1.881231666,-0.237468123,0.223976627,-0.07261201,0.611519337,-0.388780713,-0.504362702,-0.469586998,8.95232296,-0.015413454,-3.858130455,-0.464242905,0.395479232,-0.206348702,0.350091279,-0.649282813,-0.523944497,-0.425852239
3851883,9.662333488,0.022415554,1.873589396,0.052653305,0.263906866,-0.065837443,0.611498296,-0.388776243,-0.504323781,-0.469659925,8.963913918,0.004996195,-3.85642457,-0.434352934,0.878521919,-0.100619487,0.350121528,-0.649193943,-0.523946404,-0.425960571
3852050,9.673369408,0.027729912,1.897199392,0.247117713,0.465068966,0.074629001,0.611506402,-0.388757795,-0.504266977,-0.469725698,9.02315712,0.012979855,-3.834485054,-0.442741126,1.626079917,-0.080283009,0.35020712,-0.649062693,-0.523905694,-0.426140428
3852216,9.655418396,0.042238884,1.908414125,0.347212106,0.633766949,0.003092733,0.611517072,-0.388724715,-0.50419718,-0.469814032,8.994024277,0.020489756,-3.810593128,-0.323296309,2.399327278,0.124356054,0.350370288,-0.6488989,-0.523805797,-0.426378161
3852383,9.62509346,0.019079067,1.956260443,0.376090497,0.633946359,0.05109093,0.611547887,-0.388675511,-0.504139304,-0.469876736,9.010338783,0.046996672,-3.790700436,-0.433853477,2.521909475,0.255736411,0.350538492,-0.648744762,-0.523678005,-0.426631182
3852550,9.637610435,0.037750445,1.925011635,0.501848757,0.389613956,0.208224818,0.611590505,-0.388630629,-0.504111409,-0.46988824,8.983593941,0.024305468,-3.747874498,-0.410866112,3.128917694,0.510659575,0.350783318,-0.648554802,-0.523516715,-0.426917076
3852716,9.630451202,0.058982387,1.965719581,0.292016804,0.432848185,0.226730004,0.611626565,-0.388601393,-0.504064739,-0.469915539,8.903772354,-0.04767831,-3.730938911,0.08924105,2.757661819,1.181341052,0.351067513,-0.648438931,-0.523309469,-0.427113712
3852883,9.667825699,0.011783603,1.948196173,-0.104525425,-0.264335841,0.58136338,0.611609221,-0.388685316,-0.504028499,-0.469907671,8.788417816,-0.029009158,-3.735361099,0.541343629,1.775030613,1.490870476,0.351346672,-0.648375273,-0.523161948,-0.427161247
3853050,9.626318932,-0.039735705,1.832749963,-0.34191671,-0.335961789,0.713717043,0.611562967,-0.388825953,-0.503957808,-0.469927311,8.799747467,0.004106606,-3.754040956,0.710208118,0.394096196,0.930362165,0.351507336,-0.648338914,-0.523157716,-0.427089512
3853216,9.699171066,0.011297239,1.809146047,0.075986467,-0.536573231,0.09315978,0.611515224,-0.388863623,-0.503995419,-0.469917953,8.899211884,-0.051194031,-3.74551034,0.684902728,-0.630712688,0.308357656,0.351541847,-0.648327887,-0.523253798,-0.42696014
3853383,9.720708847,0.119142279,1.846578836,0.711924195,0.042036839,-0.639600337,0.611468077,-0.388781548,-0.504044294,-0.469994903,8.947404861,-0.094033375,-3.754664421,1.134687543,-0.91719079,0.274433702,0.351592749,-0.648312449,-0.523391247,-0.426773161
3853550,9.696784973,0.024630619,1.849597216,-0.026880527,1.048065186,-0.142854825,0.611500621,-0.388716102,-0.503938437,-0.470120162,8.955090523,-0.031343348,-3.74858427,1.733422637,-0.897225618,0.149584562,0.351695091,-0.648254693,-0.523577452,-0.426547974
3853716,9.649956703,0.015164522,1.87894845,-0.106971435,1.528264999,0.147586763,0.611564457,-0.388666987,-0.503752351,-0.47027719,8.997637749,0.048383113,-3.756600142,1.495736957,-0.717283726,-0.212354913,0.351773411,-0.64816159,-0.523784459,-0.426370889
3853883,9.64868927,0.0317697,1.932735085,0.190859437,1.398626208,0.021636328,0.611631632,-0.388585806,-0.50360924,-0.470410079,9.031033516,0.080866814,-3.766526222,0.924637735,-0.080295816,-0.422686428,0.351830155,-0.648044825,-0.523939312,-0.426311225
3854050,9.578454018,0.101451442,1.959552288,0.273550034,1.212703705,-0.193363085,0.611704171,-0.388462454,-0.503524482,-0.470508367,8.997419357,0.08044678,-3.74694252,0.320920706,0.528217077,-0.104115613,0.351884812,-0.647957623,-0.523979902,-0.426348567
3854216,9.655294418,0.077206157,1.987265706,0.227216676,0.946485341,0.036683787,0.611756504,-0.388392389,-0.503435373,-0.470593572,8.942545891,0.087336324,-3.746707439,-0.254359752,0.769642532,0.277827352,0.351934075,-0.647904098,-0.523948312,-0.426428109
3854383,9.626953125,0.036419824,1.951164722,0.304272443,0.568352163,0.266455323,0.611778319,-0.388382167,-0.503352404,-0.470662266,8.95327282,0.075074427,-3.755357504,-0.649474025,0.876716256,0.931232929,0.352000862,-0.647905111,-0.523836017,-0.426509649
3854550,9.567745209,0.048357476,1.954518914,0.42814827,0.543174982,0.41584143,0.61179626,-0.388394386,-0.50325501,-0.470732957,8.948298454,0.058356352,-3.742773294,-0.995680749,0.756707907,1.442705512,0.352059096,-0.647966921,-0.523663878,-0.426578969
3854716,9.613110542,0.031384502,1.945499182,0.395773858,0.444450796,0.464889735,0.611838818,-0.388386607,-0.503186285,-0.470757484,8.941659927,0.008376146,-3.739691734,-0.89191097,0.709055543,1.563443899,0.352117956,-0.648049772,-0.523471236,-0.426640868
3854883,9.661302567,0.055326145,1.954354882,0.501285315,0.644165754,0.374643385,0.611918807,-0.388324112,-0.503130794,-0.470764339,8.920619965,-0.078290947,-3.782383919,-0.587247968,0.5382061,1.433408499,0.352209777,-0.648085892,-0.523357868,-0.426649332
3855050,9.655348778,0.029234761,1.945896626,0.6077829,0.870428324,0.519431949,0.6120224,-0.388256103,-0.50304693,-0.470775306,9.018509865,-0.099896289,-3.791034698,0.2064832,0.463570714,1.621354461,0.352349341,-0.648141503,-0.523228705,-0.426607877
3855216,9.626032829,0.007787704,1.902203918,0.455784351,0.919579089,1.030661464,0.612142384,-0.38825053,-0.502907574,-0.470773041,8.903600693,-0.068076603,-3.761047602,1.055454493,0.418287426,1.365790844,0.352541,-0.648148537,-0.523164213,-0.426518053
3855383,9.640721321,0.022225952,1.976501226,0.294859797,1.028830171,0.951505423,0.612270117,-0.388230532,-0.502763867,-0.470776945,8.947795868,-0.042613164,-3.749079943,1.353816986,-0.040570516,0.648174167,0.352697968,-0.6480937,-0.523235083,-0.426384777
3855550,9.746302605,0.064899825,1.928654432,0.773125768,0.610024095,0.492372185,0.612375081,-0.388149679,-0.502725601,-0.470747918,8.936230659,-0.055144984,-3.740862131,1.629819393,-0.101298235,0.432207912,0.35285607,-0.648019969,-0.523336232,-0.426241726
3855716,9.637684822,0.039592844,1.936743975,0.443515927,0.852051318,0.603979528,0.612479985,-0.388096124,-0.502632141,-0.470755368,8.928940773,-0.023396915,-3.742929459,1.907691479,-0.324602544,0.595706522,0.353050053,-0.647937715,-0.523476005,-0.426034302
3855883,9.641490936,0.016170459,1.931495547,0.61472404,0.68098402,1.031711459,0.612612426,-0.388068855,-0.502542317,-0.470701367,8.933698654,0.043699481,-3.749018908,1.828573823,-0.401146084,0.792130351,0.353236765,-0.647886395,-0.523587286,-0.425820738
3856050,9.649010658,0.028141428,1.930859923,0.702345133,0.542214394,1.071283221,0.612723708,-0.388065875,-0.502453327,-0.470653951,8.936059952,0.037680827,-3.746552706,1.364599824,-0.583956718,1.108139873,0.353394061,-0.647881925,-0.523664773,-0.425601929
3856216,9.59967041,0.0468251,1.931074381,0.749715745,0.514283836,0.934588134,0.612828195,-0.38804844,-0.502379417,-0.470611334,8.92721653,0.032639541,-3.765491486,0.754838288,-0.58540386,1.328895688,0.353484362,-0.647953391,-0.523649096,-0.425437599
3856383,9.624726295,0.047886409,1.927003145,0.494946241,0.505793214,1.064880133,0.61292243,-0.388067991,-0.502277911,-0.470580816,8.95742321,-0.006651697,-3.784408808,0.412755042,-0.891398728,1.737251639,0.353550673,-0.648082852,-0.523601294,-0.425244004
3856550,9.630047798,0.027852984,1.932390213,0.601379812,0.451417387,1.139195323,0.613041639,-0.388067842,-0.502199352,-0.470509529,8.956959724,-0.029916039,-3.773826838,0.174083099,-0.594137788,1.901608348,0.353642523,-0.648198962,-0.523532629,-0.425074905
3856716,9.646478653,0.035439294,1.955976725,0.346559048,0.556211829,1.114146113,0.613115609,-0.388120204,-0.502065182,-0.470513046,8.936250687,-0.063413627,-3.799333096,0.051103737,-0.658374488,1.862805367,0.353688419,-0.648355484,-0.523421943,-0.424934298
3856883,9.655675888,0.020571452,1.931929469,0.310778052,0.431836516,1.048833609,0.613186121,-0.388165534,-0.5019539,-0.470502526,8.970700264,-0.099143714,-3.827130318,0.232569709,-0.602257013,1.468881845,0.353751302,-0.648443937,-0.523388743,-0.424787939
3857050,9.646836281,0.011353968,1.961479068,0.206227064,0.574384034,0.920334816,0.613280594,-0.388170749,-0.501853466,-0.47048223,8.950523376,-0.105491273,-3.805548668,0.392917961,-0.427373469,1.286980391,0.353828251,-0.648503602,-0.523368716,-0.424657494
3857216,9.664082527,0.024044655,1.947999239,0.220544547,0.667690992,0.808125436,0.613351226,-0.388185263,-0.50173223,-0.470507503,8.962129593,-0.098709635,-3.80495739,0.608218372,-0.154777542,0.818370581,0.353911668,-0.64850688,-0.523383319,-0.424565017
3857383,9.652109146,0.007563357,1.947301507,0.020445338,0.660032868,0.653463185,0.613411486,-0.388193637,-0.501616836,-0.470544964,8.951131821,-0.087136984,-3.806238174,0.702882886,0.184776396,0.685837626,0.354031503,-0.64846158,-0.52341485,-0.424495369
3857550,9.634591103,0.008849523,1.957833767,-0.069768988,0.705213606,0.574332714,0.613453448,-0.388213158,-0.501486242,-0.470613509,8.991629601,-0.060958672,-3.800080538,0.711053312,0.534120798,0.564138949,0.354180217,-0.648373485,-0.523454964,-0.424456328
3857716,9.626943588,0.001318383,1.956177473,0.042036839,0.681406558,0.526372969,0.613512754,-0.388203323,-0.501381576,-0.470655948,8.98627758,-0.050323121,-3.80122757,0.477811277,1.189280868,0.437957913,0.354347736,-0.648248494,-0.523457706,-0.424504012
3857883,9.637881279,-0.003680216,1.990918994,0.196417376,0.812351525,0.572091639,0.613623202,-0.388141751,-0.50129813,-0.470651329,8.986666679,-0.026549075,-3.802992344,0.207853451,1.710076571,0.553663313,0.354530185,-0.648121417,-0.52339679,-0.424620867
3858050,9.617637634,0.013195804,1.989266038,0.19271633,0.962121725,0.57110548,0.61371249,-0.38810429,-0.501174152,-0.470697939,9.051675797,-0.022634337,-3.775659323,-0.189495564,2.235764742,0.830037117,0.354723036,-0.648014009,-0.52324456,-0.424811184
3858216,9.62303257,-0.011473768,2.00191474,0.203640148,1.001578212,0.58822763,0.613801062,-0.38806957,-0.50104183,-0.470751852,9.021341324,-0.049970191,-3.77451849,-0.545896232,3.133271933,0.956909716,0.354954213,-0.647883475,-0.52300626,-0.425110728
3858383,9.609539986,0.018221585,2.002261162,0.298957855,0.861579299,0.626966894,0.613886476,-0.388039917,-0.500924826,-0.470789552,8.976528168,-0.089161046,-3.755882263,-0.460337043,3.122975588,1.314590931,0.355220854,-0.64776808,-0.52275008,-0.425378859
3858550,9.678858757,0.000843803,2.051709414,-0.154879987,0.544455588,0.679562509,0.613926172,-0.388076633,-0.500801265,-0.470839024,8.921468735,-0.110946156,-3.757772446,-0.188074052,2.949961662,1.38639617,0.35549888,-0.647660673,-0.522505105,-0.42561093
3858716,9.591529846,-0.039976995,1.939078569,-0.347628355,0.341116339,0.895964146,0.613962471,-0.388151795,-0.500676274,-0.470862746,8.813404083,-0.096037932,-3.720324755,-0.062328506,2.011461496,1.131088853,0.35569784,-0.647590339,-0.522334456,-0.425761253
3858883,9.679251671,-0.048822381,1.89632678,0.38364622,-0.248840183,0.446294874,0.61396414,-0.388171732,-0.500677466,-0.470842659,8.90440464,-0.115424961,-3.721231699,-0.115077868,1.20023036,0.398053408,0.355798542,-0.647500277,-0.522293508,-0.425864339
3859050,9.742707253,0.063134834,1.938732028,0.855547369,0.074667424,-0.325562984,0.613976181,-0.388057798,-0.500736833,-0.47085762,8.967951775,-0.154595986,-3.717246056,0.158946007,0.771038294,0.065523684,0.355854481,-0.64741838,-0.522296131,-0.425938666
3859216,9.583498955,-0.021904206,1.938827634,0.490848184,1.124122262,-0.16581662,0.614058435,-0.387911886,-0.500672281,-0.470939219,8.980623245,-0.11687471,-3.718230724,0.479348063,0.744132161,-0.013882083,0.355936855,-0.647312224,-0.522331774,-0.425987512
3859383,9.663376808,-0.026405627,1.959408402,0.503923416,1.364599705,0.116979584,0.6141662,-0.387781501,-0.500561535,-0.471024126,9.029637337,-0.04336296,-3.682743788,0.336723775,0.813824356,-0.271507442,0.35600093,-0.647182584,-0.522387922,-0.426062137
3859550,9.63011837,0.027923027,2.019520044,-0.056463193,0.598178208,0.105991751,0.614187837,-0.387750715,-0.500483096,-0.471104503,9.086964607,0.008397398,-3.65404129,-0.05199378,1.354239464,-0.495516092,0.356053084,-0.64702481,-0.522409499,-0.426231742
3859716,9.582279205,0.091640398,2.051884651,-0.631903708,0.087947607,-0.20016323,0.614107311,-0.387795776,-0.500418246,-0.471241355,9.013129234,-0.000640362,-3.680123806,-0.582048535,1.817637205,-0.571688235,0.35608685,-0.646857381,-0.52238369,-0.426489234
3859883,9.60292244,0.041947462,2.074202299,-0.959656537,-0.642251253,-0.188855216,0.613966227,-0.387908608,-0.500404119,-0.471346974,8.953349113,-0.025570927,-3.662360907,-0.680887878,1.674461961,-0.274107039,0.35612005,-0.646723628,-0.522334278,-0.426724732
3860050,9.599346161,0.010981617,2.015599012,-0.526276886,-1.109311581,-0.107035466,0.613802254,-0.388039976,-0.500440598,-0.471413702,8.936899185,-0.024222804,-3.668591738,-0.82681638,1.43237102,0.083490998,0.356131464,-0.646653831,-0.52223587,-0.426941395
3860216,9.608743668,0.014891072,2.014694452,-0.50787425,-0.884291291,-0.110173032,0.613650203,-0.388159931,-0.500453174,-0.471499681,8.96745491,-0.030506296,-3.684452534,-0.720792532,1.214650154,0.419414341,0.356159359,-0.646614015,-0.522128165,-0.427110314
3860383,9.60897541,0.007674541,2.002386332,-0.543706357,-0.551684737,-0.204619855,0.613554716,-0.388210058,-0.500472724,-0.471561968,9.008947372,-0.072072729,-3.688500881,-0.384485066,1.192853928,0.62146014,0.35623157,-0.646569848,-0.522027791,-0.427239418
3860550,9.647484779,0.003279481,1.998355746,-0.383729458,0.043829735,-0.166380093,0.613489807,-0.388233066,-0.500427425,-0.471675664,9.028642654,-0.062704243,-3.704554796,-0.085034162,1.430655003,0.430363774,0.356343031,-0.646475494,-0.52195847,-0.427373946
3860716,9.635186195,0.006759092,2.016494274,-0.233715892,0.038553517,-0.23892808,0.613434792,-0.388230026,-0.500402749,-0.471775889,9.044758797,-0.116533302,-3.720808744,0.615722775,1.842033148,0.460894078,0.356549025,-0.646326363,-0.521902263,-0.427496642
3860883,9.61342144,0.013560978,2.030466795,-0.275131613,0.162352473,0.166937143,0.61340642,-0.388260633,-0.500333786,-0.471860826,8.996407509,-0.098235928,-3.722845793,1.401341438,2.618943453,0.497046471,0.356896311,-0.646083415,-0.521860659,-0.427624881
3861050,9.639224052,-0.014111788,2.011959791,-0.437797904,0.074552171,0.300814807,0.613396287,-0.388294995,-0.500274122,-0.471908748,8.943041801,-0.063989431,-3.719370365,1.833414674,2.093844414,0.3252621,0.357227921,-0.645843744,-0.521881044,-0.427684754
3861216,9.62455368,-0.018789394,1.934209585,-0.28355819,-0.568909228,0.217643902,0.613328338,-0.388368636,-0.500275016,-0.471935511,8.99596405,-0.036882922,-3.738667011,1.785134673,2.152241707,-0.005532343,0.357544333,-0.645571351,-0.521935523,-0.427765191
3861383,9.722995758,0.041912761,1.966807246,0.389114559,0.373324335,-0.033475798,0.613336563,-0.388312578,-0.500241816,-0.472006053,8.988703728,-0.040792942,-3.705604076,1.774979234,2.251093626,0.009393457,0.357860714,-0.645302057,-0.521973193,-0.427861005
3861550,9.650395393,0.011229291,2.003487825,0.373887807,0.438956827,0.232249573,0.613366842,-0.388273239,-0.500186682,-0.47205773,9.007697105,0.002446119,-3.665673256,1.597175956,2.360933781,0.179397747,0.358181208,-0.645044625,-0.52198261,-0.427969396
3861717,9.657261848,0.011955261,1.985613942,0.123856612,0.565995812,0.427892148,0.613429904,-0.388235182,-0.500112534,-0.472085565,9.051450729,0.041548412,-3.676738024,1.269205451,2.826995373,0.375117213,0.358515352,-0.644792318,-0.521925807,-0.428139061
3861883,9.60414505,0.043063916,2.008101702,0.251984119,0.784484923,0.338695943,0.613477767,-0.38819769,-0.50000596,-0.472167164,9.041096687,0.022444747,-3.684952021,0.661620855,3.518769026,0.424037486,0.358852357,-0.644525945,-0.521798551,-0.428412974
3862050,9.604652405,0.061088774,2.006752968,-0.144353166,0.548873663,0.298983425,0.613503098,-0.388188094,-0.499911577,-0.472242147,9.014698982,-0.014147053,-3.673849344,0.30700025,3.803800344,0.619039774,0.359163791,-0.64430356,-0.521578968,-0.428753912
3862217,9.620952606,0.040858168,1.996628761,-0.243832901,0.33220312,0.369495213,0.613523126,-0.388195217,-0.499834985,-0.472291321,9.011738777,-0.022491533,-3.662186623,0.041370921,4.007062435,0.676911771,0.359479427,-0.644073665,-0.521343172,-0.429121137
3862383,9.628501892,0.047631506,1.981411934,-0.256293446,0.270707011,0.542047918,0.61353898,-0.388230771,-0.499744684,-0.472337097,8.990781784,-0.031710401,-3.657418013,-0.102745347,4.151710033,0.817999244,0.359806746,-0.643845737,-0.521086812,-0.429499954
3862550,9.636974335,0.041122925,1.963806152,-0.28019011,0.480385363,0.459895223,0.613568783,-0.388241529,-0.499643683,-0.472396135,9.015922546,-0.042451732,-3.646877289,-0.173474804,4.033942223,0.752289772,0.360122591,-0.6436131,-0.520852268,-0.429868251
3862717,9.639373779,0.002739375,1.97885859,-0.173346743,0.458921909,0.391970336,0.613568485,-0.388269246,-0.499532104,-0.472491771,9.025661469,-0.049409773,-3.622334719,-0.205093682,4.083400249,0.766415179,0.360433161,-0.643387079,-0.520602763,-0.430248618
3862883,9.63993454,0.013757669,1.979555845,-0.092653945,0.531930923,0.441863865,0.613592267,-0.388277411,-0.499425471,-0.472566843,9.031111717,-0.040947106,-3.571475267,-0.248507261,3.943696737,0.510864615,0.360709846,-0.643155158,-0.520377934,-0.430635214
3863050,9.645521164,0.036302079,1.951629281,-0.068629235,0.516012728,0.397810072,0.613631129,-0.388263434,-0.499338746,-0.472619623,9.018204689,-0.078020573,-3.529991865,-0.135901004,3.849595785,0.196084455,0.360976219,-0.642891586,-0.520204365,-0.431015283
3863217,9.597755432,0.011664987,1.915534616,-0.784580946,-0.369463176,0.380047619,0.613576055,-0.388359696,-0.499293625,-0.472659737,8.928980827,-0.118389294,-3.507405281,0.172482297,3.243867397,-0.244870186,0.361190319,-0.642624199,-0.520112097,-0.431345671
3863383,9.657916069,-0.041680109,1.857518554,-2.904019356,-2.119681597,0.603864253,0.613270164,-0.388800949,-0.499231428,-0.472759634,8.922121048,-0.162423804,-3.515718699,0.812863827,1.830750942,-0.385727227,0.361349165,-0.642400384,-0.520148218,-0.43150267
3863550,9.62325573,-0.011811825,1.94868803,-1.207446694,-1.890498996,0.340898633,0.613051593,-0.38906312,-0.499275535,-0.472780794,8.946938515,-0.139303744,-3.519875526,1.70650363,0.78034848,-0.417166859,0.36151436,-0.642189562,-0.520303369,-0.431491077
3863717,9.626766205,0.00182994,1.996118784,-0.53989011,-0.898045242,0.034122519,0.612921655,-0.389175385,-0.499294549,-0.472836822,9.002713203,-0.081590004,-3.522867203,2.248327732,0.001248619,-0.55812633,0.361652702,-0.641998589,-0.520533025,-0.431382447
3863883,9.66058445,-0.004713441,2.018575907,0.201924115,-0.032028679,0.0159375,0.612893164,-0.389162749,-0.499286354,-0.472892821,9.133653641,-0.03911417,-3.551806927,2.424197197,-0.007222782,-0.621556163,0.361801058,-0.641795456,-0.520777583,-0.431264699
3864050,9.624667168,0.0066683,2.039966106,0.434884459,0.815963089,0.089625239,0.612941921,-0.389078379,-0.499212295,-0.472977161,9.139564514,-0.048385061,-3.568615198,2.255883694,0.427687287,-0.586786926,0.361975342,-0.641569257,-0.520994902,-0.431192636
3864217,9.653594971,0.000633057,2.079676867,0.722796798,1.305306315,0.086833447,0.613045156,-0.388931572,-0.499116421,-0.473065406,9.19878006,-0.044318605,-3.592475414,2.28649044,1.158801675,-0.001536762,0.362251997,-0.641331792,-0.521131277,-0.431148767
3864383,9.60236454,-0.021120787,2.098437786,0.732235074,1.382784843,0.582618475,0.613186598,-0.388815939,-0.498984039,-0.473116547,9.088738441,0.007902291,-3.544987679,1.960697174,2.124490261,0.283231646,0.362580627,-0.641080201,-0.521159053,-0.431213021
3864550,9.613612175,-0.028011,2.051026583,0.817730188,0.876344979,0.345662594,0.613262534,-0.388728321,-0.498900563,-0.473178148,9.118852615,-0.001542986,-3.55997014,1.349206567,2.481889725,0.062398937,0.362850487,-0.640836477,-0.521130919,-0.431382418
3864717,9.70015049,0.05717076,2.076858997,1.126119971,-0.584123254,-0.189367503,0.613238096,-0.388649911,-0.499018371,-0.473149955,9.12864399,-0.053420242,-3.582580328,0.877958536,3.461370945,-0.118010513,0.363140464,-0.640539229,-0.521041989,-0.431687355
3864883,9.5772295,0.0736598,2.11371851,0.67979306,0.550986767,-0.195860326,0.613264799,-0.388537347,-0.499000102,-0.473227113,9.081155777,-0.106661901,-3.568071842,1.283586979,4.252367973,0.169037402,0.363556772,-0.640181363,-0.52092433,-0.432009727
3865050,9.619761467,0.018875223,2.023654222,0.39846316,0.446397305,0.195841089,0.61331135,-0.388469189,-0.498961776,-0.473263323,9.125637054,-0.067474887,-3.558040857,1.595075727,4.682366848,0.023570087,0.364012122,-0.639780819,-0.520800948,-0.432368159
3865217,9.672986031,0.031896193,2.085683346,0.26591745,0.562832713,0.434884459,0.613369942,-0.38842696,-0.498886198,-0.473301709,9.185957909,-0.012034011,-3.505891562,1.550343156,5.867965698,-0.005634794,0.364555895,-0.63930124,-0.520620525,-0.432836652
3865383,9.597790718,0.088063084,2.092352629,0.414163798,1.150388122,0.179961234,0.61346662,-0.388307512,-0.498786122,-0.47337994,9.151277542,0.034297716,-3.448355436,1.101647258,7.036405563,-0.298861802,0.365124106,-0.638750315,-0.52037406,-0.433466643
3865550,9.598526001,0.072127476,2.072495937,-0.382128686,1.395155787,0.017730393,0.613544881,-0.388209909,-0.49863413,-0.47351858,9.154326439,0.011134601,-3.438288689,0.543456733,7.674007893,-0.176407501,0.365697682,-0.638195395,-0.520049155,-0.434189886
3865717,9.600440025,0.020150324,2.051547766,0.139954194,1.555452824,0.339771718,0.613660693,-0.388102442,-0.49846524,-0.473634362,9.12374115,0.01986232,-3.408976555,0.335430354,7.987174511,0.287918776,0.366305351,-0.637663722,-0.519653022,-0.434932411
3865883,9.531745911,0.02984789,2.038545132,0.290031821,1.011567235,0.574742615,0.613761723,-0.388036013,-0.49834156,-0.473688185,9.048318863,0.006461791,-3.377058983,0.022814518,7.761604309,0.878816783,0.366909087,-0.637200952,-0.519201159,-0.43564114
3866050,9.62146759,0.003465345,2.031199932,-0.293150157,0.368790835,0.59519434,0.613792956,-0.388058543,-0.49824059,-0.473735482,9.019737244,-0.031019757,-3.373650074,-0.183924824,6.736711502,1.125659108,0.367429525,-0.636833429,-0.518765211,-0.436258584
3866217,9.630232811,0.004809999,2.011051655,-0.128396451,0.442132801,0.667242825,0.613833368,-0.38807714,-0.498131633,-0.473782331,9.054228783,-0.034773219,-3.344422579,-0.162230834,5.920228004,1.275249839,0.367901415,-0.636524439,-0.518363714,-0.436788797
3866383,9.65096283,0.002034198,2.031663895,-0.133454964,0.999400973,0.616414368,0.61390847,-0.388055742,-0.497974247,-0.473868102,9.012666702,-0.101936154,-3.33376646,0.109103687,4.830432892,1.260804296,0.368323088,-0.636261761,-0.51804775,-0.437190831
3866550,9.640363693,0.016147755,2.045424223,0.04658309,1.167010665,0.70038563,0.614026845,-0.387998521,-0.497821003,-0.47392267,9.081214905,-0.112916827,-3.355568171,0.49225691,3.975404978,1.351972938,0.368717819,-0.636042595,-0.517789245,-0.437483042
3866717,9.613134384,-0.035526741,1.983362436,-0.245164767,1.056261301,1.039164901,0.614131629,-0.388010561,-0.497629315,-0.473978162,9.013998985,-0.093399264,-3.33537364,1.001770258,3.007078409,1.096076369,0.369072765,-0.635836542,-0.517641246,-0.437658668
3866883,9.6138134,-0.009890275,1.981285095,-0.015277974,1.06856811,0.816219091,0.614237249,-0.387982905,-0.497466981,-0.474034309,9.032612801,-0.089897506,-3.345067501,1.069016457,2.1254251,0.611445606,0.369334489,-0.635648191,-0.517587185,-0.437775046
3867050,9.707294464,0.042339712,1.97870934,0.747717977,0.945883453,0.588419795,0.614366114,-0.387874454,-0.497385204,-0.474041909,9.071824074,-0.089184903,-3.362640858,1.231388211,1.608663201,0.380790412,0.36955601,-0.635468543,-0.517590523,-0.437844872
3867217,9.612122536,0.011375918,2.006987095,0.651785612,0.864153385,0.571272075,0.614481866,-0.387779057,-0.497305602,-0.474053532,9.110552788,-0.031812839,-3.363517523,1.237752795,1.377495527,0.363360912,0.36975947,-0.635302007,-0.517608643,-0.43789351
3867383,9.610249519,0.030991513,2.022644043,0.68108654,0.725383699,0.647482693,0.61458379,-0.387706727,-0.497227728,-0.474062115,9.150765419,0.00705424,-3.329786062,0.722553432,1.424213409,0.380892873,0.369920045,-0.635161102,-0.517590582,-0.437983751
3867550,9.618444443,0.023861427,2.026139498,0.590571165,0.834160745,0.588342905,0.614691257,-0.387623221,-0.497143328,-0.474079549,9.202342033,0.02954749,-3.317037344,-0.044207513,1.834464431,0.451109976,0.370045274,-0.635039389,-0.517496407,-0.438165754
3867717,9.613308907,0.050879464,2.067334414,0.221569046,0.811352611,0.541049063,0.614771128,-0.387571931,-0.49703756,-0.474129021,9.210374832,0.043157835,-3.328275681,-0.721356153,2.552529573,0.681381106,0.370176882,-0.634924173,-0.517300427,-0.438452601
3867883,9.621171951,0.041472957,2.089579821,-0.187459365,0.873335481,0.518958151,0.614831448,-0.387550175,-0.496899933,-0.474212795,9.197537422,0.010707185,-3.341459036,-1.567087531,3.030488491,1.08037591,0.370290607,-0.634853899,-0.51698786,-0.438826889
3868050,9.613846779,0.014630264,2.074042797,0.257132322,0.633651793,0.431887776,0.614881635,-0.387509823,-0.496809989,-0.474274993,9.20980072,-0.028323576,-3.324847698,-1.920901299,3.467940331,1.418027997,0.370425075,-0.634799957,-0.516597807,-0.439250708
3868217,9.630104065,0.009949009,2.111596584,0.091904767,0.679485619,0.433219522,0.61495775,-0.387451112,-0.496728837,-0.474309266,9.209132195,-0.074899711,-3.319642782,-1.908542871,4.128017902,1.760008574,0.370631397,-0.634728551,-0.516141176,-0.439716399
3868383,9.644916534,-0.007023671,2.083444834,-0.096649528,0.528165817,0.454503745,0.614998579,-0.387435615,-0.496634841,-0.47436738,9.248118401,-0.121862218,-3.314680815,-1.525761485,4.835287571,1.591964006,0.370916426,-0.634576857,-0.515687823,-0.440226436
3868550,9.619283676,-0.009799341,2.118108034,-0.594048142,0.569543183,0.402292222,0.615014076,-0.387455046,-0.496508062,-0.474464178,9.230906487,-0.133248746,-3.295035124,-0.966725767,5.886548042,1.279271126,0.37131235,-0.634303451,-0.515242875,-0.44080773
3868717,9.603800774,0.007452454,2.125738382,-0.863378465,0.775827885,0.359186113,0.615012348,-0.38749364,-0.496335745,-0.474615008,9.209213257,-0.165801078,-3.281510592,-0.332299203,6.446647167,1.017932057,0.371792287,-0.633939207,-0.514832318,-0.441406369
3868883,9.608603477,-0.00225573,2.130631685,-0.685562313,0.842472076,0.462149054,0.61504966,-0.387503117,-0.496176571,-0.474725425,9.18400383,-0.131290615,-3.27262187,0.323943049,7.086105824,0.785957754,0.37236619,-0.633479953,-0.514450729,-0.442026049
3869050,9.599507332,-0.010661577,2.127648354,-0.606828868,0.928210676,0.353948295,0.615085661,-0.387495935,-0.496017277,-0.474851131,9.203829765,-0.113377079,-3.261327267,0.891085267,7.328070641,0.498724192,0.372988194,-0.632955909,-0.514114499,-0.442643553
3869217,9.601979256,-0.010055438,2.116170168,-0.548649669,0.822763145,0.423358738,0.615114689,-0.387502491,-0.49586159,-0.474970758,9.218765259,-0.068914346,-3.224214792,1.232861161,7.765881538,0.574230433,0.373679131,-0.632389486,-0.513769329,-0.443270355
3869383,9.610133171,-0.027117955,2.111067772,-0.628817379,1.290169239,0.330423057,0.615166664,-0.387476921,-0.495663434,-0.475131065,9.271006584,-0.053710703,-3.23058033,1.349770308,8.339579582,0.482600957,0.374417186,-0.631771863,-0.513408661,-0.443945467
3869550,9.617635727,-0.018446174,2.137968302,-0.502188265,1.65671277,0.56558603,0.615282893,-0.387418389,-0.495438784,-0.475262731,9.300343513,-0.028385513,-3.190592289,1.285251856,9.240852356,0.438201398,0.37521112,-0.63109678,-0.512996316,-0.444711626
3869717,9.605224609,-0.004915538,2.136227608,-0.487550527,1.84052217,0.591083407,0.615395248,-0.38736555,-0.495181769,-0.475428045,9.364204407,-0.059932679,-3.155003786,1.292999983,9.84710598,0.743261576,0.376071125,-0.63040185,-0.512524545,-0.445514232
3869883,9.612000465,-0.009209744,2.093670368,-0.242232129,1.366687298,0.720594108,0.61549449,-0.38733387,-0.494975477,-0.475540161,9.268349648,-0.07782346,-3.120947123,1.330817223,10.77307034,0.87597388,0.377009958,-0.62965405,-0.511990011,-0.446391851
3870050,9.622493744,0.00529352,2.141671896,0.228023469,1.357287526,0.986581981,0.61564362,-0.387274951,-0.494791865,-0.475586265,9.232918739,-0.120392755,-3.110671759,1.797634721,10.45512867,1.391135216,0.377999514,-0.628938794,-0.511454046,-0.447177082
3870217,9.628320694,-0.001565549,2.1320436,-0.429768324,0.814234078,1.304320335,0.615739048,-0.387335479,-0.494592935,-0.47562024,9.150145531,-0.14228788,-3.063377619,2.492520094,10.47717953,1.828984499,0.37908417,-0.62821269,-0.510923803,-0.447885126
3870383,9.571153641,-0.049824771,2.061948776,-0.796529412,0.839257717,1.316435337,0.615815759,-0.387427717,-0.494365662,-0.475682229,9.057024002,-0.099903233,-3.051431656,2.596059322,8.81861496,1.426979899,0.380026937,-0.627558947,-0.510526299,-0.448455721
3870550,9.70381546,-0.048471831,2.018311501,0.178065881,0.184200123,0.614967287,0.615860283,-0.387420505,-0.494310111,-0.475687981,9.192365646,-0.102629855,-3.013338089,2.358808517,7.959936619,0.872259915,0.380848587,-0.626930654,-0.510213017,-0.448993504
3870717,9.675208092,0.079360351,2.097641706,0.19279319,1.325706959,0.024940368,0.61593771,-0.387298584,-0.494180918,-0.475821316,9.233295441,-0.14687413,-2.977185488,2.425836802,7.236170769,0.772844136,0.381613255,-0.626339912,-0.509950221,-0.449467152
3870883,9.556209564,-0.052022688,2.06306982,-0.308223188,1.950003624,0.338772774,0.616070867,-0.387184918,-0.493956774,-0.475974083,9.257491112,-0.084571518,-2.948761463,2.463640928,7.295426846,0.718237758,0.382383466,-0.625736713,-0.509692907,-0.449944168
3871050,9.642401695,-0.029162807,2.098558426,0.111677781,1.968432188,0.73012203,0.616233587,-0.387079686,-0.49372223,-0.476092458,9.30688858,-0.03548361,-2.90957737,2.011973858,7.005182743,0.499915093,0.383073658,-0.625162899,-0.509438753,-0.450442255
3871217,9.587515831,0.00176494,2.159226418,0.496444523,1.808160424,0.642116845,0.616395175,-0.386949122,-0.493529886,-0.476188809,9.36544323,-0.002661674,-2.878139496,1.303846717,7.42347765,0.099409312,0.383702666,-0.624570966,-0.509150207,-0.451053828
3871383,9.588810921,0.052459482,2.194540501,0.379689038,1.964602709,0.290006161,0.616569161,-0.386766076,-0.493357748,-0.476290673,9.346977234,-0.021678524,-2.86102891,0.473982275,7.903472424,-0.101618402,0.384286106,-0.623969913,-0.508807898,-0.451774657
3871550,9.575362206,0.030666558,2.227320671,-0.22873418,1.738160729,0.515372217,0.616693556,-0.386681169,-0.493140668,-0.476423383,9.326147079,-0.082640052,-2.822711229,0.059869695,8.004687309,0.285453558,0.384864151,-0.623412609,-0.508397222,-0.452513754
3871717,9.545606613,-0.019880617,2.159387112,-0.352725208,1.61017406,0.807817996,0.616831839,-0.38662824,-0.492916763,-0.476518869,9.294238091,-0.061411899,-2.807527542,-0.130880907,7.766994953,0.807933509,0.385441273,-0.622919023,-0.507939339,-0.453216046
3871883,9.557630539,-0.02386743,2.201882362,-0.110480376,1.336617827,0.996673286,0.616975605,-0.386587173,-0.492722243,-0.476567239,9.296813965,-0.063399509,-2.780809641,-0.380809665,7.439984322,1.222257495,0.385998219,-0.622490525,-0.507445157,-0.453883737
3872050,9.575493813,-0.013548975,2.181708097,-0.366786659,1.166652083,0.815975845,0.617081821,-0.386566699,-0.492535949,-0.476638883,9.357731819,-0.076908819,-2.770363331,-0.522934675,7.312100887,1.216187358,0.386523962,-0.622084081,-0.506940007,-0.454557806
3872217,9.589839935,-0.038202152,2.223950386,-0.245049551,1.680647731,0.53572166,0.617205977,-0.386484385,-0.492323488,-0.47676456,9.333995819,-0.145686164,-2.765291691,-0.543155849,7.462126732,1.271664381,0.387070149,-0.621664703,-0.506428361,-0.455236465
3872383,9.57665062,-0.017368084,2.213386536,-0.251785666,1.586085677,0.447178483,0.617312491,-0.386406302,-0.492120236,-0.476899654,9.393525124,-0.168996453,-2.770002127,0.061169535,7.195753574,1.352587461,0.387656629,-0.621234179,-0.505963683,-0.455841601
3872550,9.540037155,-0.102865353,2.161151409,-0.22765848,1.418360829,0.802388191,0.617437482,-0.386359751,-0.491916299,-0.476985902,9.28966713,-0.176612094,-2.722360611,0.685658395,7.264998436,1.167702317,0.388292164,-0.620749533,-0.505552411,-0.456416786
3872717,9.562716484,-0.05883773,2.22385931,0.173494026,1.316422343,0.823339522,0.617590964,-0.386277407,-0.491755575,-0.477019578,9.283782959,-0.181780174,-2.756607533,1.038242936,6.501701355,0.439546019,0.38885504,-0.620241582,-0.505272746,-0.456937611
3872883,9.649628639,-0.00290421,2.138132572,1.027690291,0.886794865,0.22460416,0.617695034,-0.386124164,-0.491709322,-0.477056533,9.294681549,-0.179504395,-2.742694855,1.360617161,5.968854427,-0.000742768,0.38937822,-0.619718075,-0.50508374,-0.457410693
3873050,9.573807716,-0.019108916,2.170817375,1.411804199,1.710986137,0.221248925,0.617874026,-0.385882616,-0.49161309,-0.477119446,9.332997322,-0.166066647,-2.710998058,1.508761168,5.702431679,-0.490137488,0.389862537,-0.619167805,-0.504963458,-0.457875937
3873217,9.628961563,-0.021979565,2.188011169,1.12198329,1.60599947,0.432156652,0.618053138,-0.385683089,-0.49150008,-0.477165222,9.414216995,-0.127036855,-2.706580639,1.474581122,5.716300488,-0.618700445,0.390336037,-0.618608773,-0.504851341,-0.458351612
3873383,9.612762451,-0.016632898,2.218943357,0.319166243,1.876251936,0.573180139,0.61820966,-0.385552943,-0.491294503,-0.477279454,9.444615364,-0.092043482,-2.663862467,1.368659616,6.338675976,-0.58097297,0.390847892,-0.618016601,-0.504693031,-0.458888471
3873550,9.559522629,0.016965276,2.196808338,0.293848068,2.141906977,0.30244118,0.61837256,-0.385379881,-0.491084009,-0.477424532,9.442474365,-0.041690171,-2.637092829,0.891892076,6.929934502,-0.609159827,0.391358018,-0.61740917,-0.504471362,-0.459514916
3873717,9.56969738,0.00637351,2.193161011,0.212796673,1.856222391,0.166783467,0.618486762,-0.385234207,-0.490892738,-0.477591097,9.454381943,-0.078402095,-2.658916235,0.359903336,7.43253231,-0.584277093,0.391858101,-0.616799116,-0.504182756,-0.460223943
3873883,9.5639925,-0.015430831,2.250756741,0.218111336,1.442705631,0.163095281,0.618583143,-0.385107666,-0.490746796,-0.477718294,9.396795273,-0.096879542,-2.648147345,0.282476097,7.754405975,-0.178661406,0.392401338,-0.616200745,-0.50383389,-0.460943997
3874050,9.592764854,-0.016029852,2.249058247,0.325889587,1.152693152,0.181523621,0.618675351,-0.384986699,-0.490638644,-0.477807224,9.403567314,-0.062806405,-2.629624367,0.125892848,7.828120232,-0.05265972,0.39294374,-0.615614951,-0.50345844,-0.461674273
3874217,9.607563972,-0.010494229,2.224047422,0.019484863,1.195069432,0.086577334,0.6187222,-0.384901345,-0.490494907,-0.477963179,9.412677765,-0.085427396,-2.60363698,-0.167993739,7.809819221,0.006345548,0.393461585,-0.615050614,-0.503058732,-0.462420404
3874383,9.584266663,-0.033298027,2.242732286,0.062078778,1.275979757,-0.042030435,0.618789136,-0.384781569,-0.490367472,-0.478103518,9.43080616,-0.113292105,-2.57589817,-0.084829278,8.074975014,0.095144793,0.394011587,-0.614469409,-0.502641141,-0.463178515
3874550,9.571102142,-0.029996706,2.230567694,0.363681138,1.442270398,-0.061022259,0.618877411,-0.384626806,-0.49024263,-0.478241831,9.399252892,-0.107270196,-2.564651728,-0.069973901,8.063077927,-0.042491473,0.394552112,-0.613877296,-0.502236843,-0.463941514
3874717,9.595791817,-0.032653023,2.224771261,0.259309381,1.51000309,-0.103731431,0.61896199,-0.384473205,-0.490107298,-0.478394568,9.382163048,-0.13236545,-2.538817883,0.097155392,7.802890778,-0.198280752,0.395077348,-0.613280892,-0.501871943,-0.464677185
3874883,9.607597351,-0.044966396,2.207890034,0.53118819,1.677830458,-0.019030236,0.619086802,-0.384284198,-0.489975929,-0.478519589,9.394887924,-0.111324564,-2.526432753,0.404059589,7.655540943,-0.246355802,0.395615608,-0.612672925,-0.501540184,-0.465379238
3875050,9.589713097,-0.02977111,2.233291864,0.534466565,1.912890792,-0.096995287,0.61923188,-0.384067327,-0.489833027,-0.478652149,9.443470955,-0.113683403,-2.497847795,0.510570049,7.546085358,-0.366043955,0.396146536,-0.612056732,-0.501232028,-0.466069728
3875217,9.601362228,-0.029194484,2.260377645,0.664342225,2.335263729,-0.105575554,0.619401038,-0.383817464,-0.489653945,-0.478816867,9.56893158,-0.101202868,-2.463983297,0.605990171,8.244838715,-0.294290006,0.396741241,-0.611392379,-0.500883102,-0.466810554
3875383,9.582175255,-0.003075393,2.324320078,-0.050341759,2.503314972,-0.121032819,0.619541049,-0.383619219,-0.489410788,-0.479043007,9.566673279,-0.094041072,-2.428640842,0.704650342,9.293474197,-0.247777313,0.397423655,-0.610653281,-0.500475347,-0.467633992
3875550,9.577852249,-0.017074898,2.331562042,-0.316829115,2.394845247,-0.102207482,0.619661152,-0.383452147,-0.489158571,-0.479278952,9.633586884,-0.044717308,-2.413775921,0.64119494,10.32901096,-0.227479294,0.398176521,-0.609847486,-0.500000656,-0.468551934
3875717,9.591993332,-0.026666602,2.313660145,0.135689706,2.225109816,0.084016062,0.619811356,-0.383266777,-0.48894456,-0.479451329,9.584217072,-0.062377639,-2.391107559,0.569453835,11.74106503,-0.532923639,0.399003774,-0.608925641,-0.499465197,-0.469617188
3875883,9.572626114,0.021737149,2.365446091,0.303926706,2.067271471,0.005321038,0.619940579,-0.383080184,-0.488752961,-0.479628712,9.531981468,-0.158169374,-2.346655369,1.006227374,12.32795715,-0.119777851,0.39993915,-0.607966244,-0.498887479,-0.470677197
3876050,9.574533463,-0.042476583,2.327432156,-0.147004098,1.742540956,0.307807028,0.620053649,-0.382971704,-0.488547921,-0.479778409,9.401953697,-0.152979076,-2.321453333,1.852625012,12.71528435,0.268773407,0.401003122,-0.606957436,-0.498309016,-0.471685618
3876217,9.507696152,-0.051853098,2.280087233,-0.59231931,1.772469163,0.593260527,0.620158195,-0.38292408,-0.488290101,-0.479943693,9.461948395,-0.079191409,-2.29609251,2.170081854,12.01517391,0.05696908,0.40202868,-0.605961144,-0.497810215,-0.472619534
3876383,9.575021744,-0.03050019,2.226865768,-0.239747673,1.229211092,0.095618613,0.620217621,-0.382842511,-0.488137811,-0.480086833,9.461099625,-0.012710317,-2.278651714,1.830841184,11.57653999,-0.380553603,0.402961075,-0.604981244,-0.497350931,-0.473563284
3876550,9.5789814,0.062742442,2.270455122,0.039501186,2.064659119,-0.75141263,0.620288849,-0.382620186,-0.487974882,-0.48033759,9.501538277,-0.06118042,-2.226269722,1.490346193,11.44231892,0.279441118,0.403897643,-0.604076564,-0.496817052,-0.474479795
3876717,9.589240074,-0.029462416,2.265145063,-0.719204605,2.771595001,-0.82567662,0.620353401,-0.38241592,-0.487695307,-0.480700761,9.505868912,0.008897757,-2.183984995,1.405388713,11.24918652,0.459908277,0.404823959,-0.603201568,-0.49627158,-0.475373536
3876883,9.559015274,-0.029887311,2.302843332,-0.283763111,2.835306644,-0.413184136,0.620492935,-0.382187158,-0.487426817,-0.480974615,9.52735424,-0.011257667,-2.137329578,0.894696772,10.98299217,0.25110063,0.405670375,-0.602358222,-0.495723963,-0.476292104
3877050,9.55173111,0.010310858,2.304677486,0.006243096,2.267063618,-0.421559453,0.620610297,-0.381970316,-0.487231493,-0.481193274,9.577220917,-0.018215615,-2.091155291,0.805436432,11.20634747,0.413459539,0.40653488,-0.601514518,-0.495141625,-0.477225989
3877217,9.520465851,0.056819256,2.339249372,-0.127487212,2.578962088,-0.447069705,0.620731592,-0.381747782,-0.486995041,-0.481452763,9.567909241,-0.091760695,-2.036449909,1.089596748,11.23590565,0.694405377,0.407444626,-0.600670218,-0.494551569,-0.47812444
3877383,9.556928635,0.01103326,2.320182562,-0.118343472,1.69533658,-0.318609178,0.620786071,-0.381601751,-0.486825585,-0.481669694,9.459021568,-0.25850749,-2.021897793,3.229474545,11.19963837,1.865751624,0.408619314,-0.599784076,-0.49400869,-0.478795141
3877550,9.497463226,-0.123563327,2.221558571,2.886186361,-0.243563965,-0.598888934,0.620865405,-0.381291926,-0.487064987,-0.481570989,9.353037834,-0.286517441,-2.023973465,6.381337166,9.697478294,3.104356766,0.410046846,-0.598902941,-0.493664593,-0.479032755
3877717,9.521129608,-0.094881661,2.271400928,7.544291496,-0.060458779,-0.259840876,0.621228337,-0.380578607,-0.487589955,-0.481135517,9.372443199,-0.338415861,-2.000167131,9.682600021,7.775476456,3.837867022,0.411674291,-0.598010242,-0.493599117,-0.478819549
3877883,9.571102142,-0.006325726,2.33856678,6.471439362,1.470892668,-0.288975298,0.62164247,-0.379850864,-0.487904817,-0.480856538,9.474205971,-0.261342764,-1.97126472,12.17737865,6.272982597,3.554410696,0.413390219,-0.597050846,-0.493819565,-0.478310704
3878050,9.556765556,0.014805359,2.392187119,4.499043941,2.962858438,-0.086993538,0.622062325,-0.379214644,-0.487932533,-0.480787694,9.568225861,-0.21473749,-1.948895812,13.40542126,5.223848343,2.212753057,0.415042877,-0.595992148,-0.49430263,-0.477700531
3878217,9.571151733,0.116173424,2.361941814,2.006044388,3.810395241,0.150109649,0.622427344,-0.378757536,-0.487698942,-0.480912358,9.777806282,-0.140044644,-1.936219215,13.70284939,5.21953249,1.083040237,0.416640848,-0.594832182,-0.494902104,-0.477134377
3878384,9.556957245,0.107972629,2.318391323,-1.226707458,4.069980145,1.033529997,0.622708797,-0.378629863,-0.487173796,-0.481180876,9.668951988,-0.013997722,-1.880501747,12.97426987,6.189166069,0.248155236,0.4181858,-0.593586087,-0.495462269,-0.476753086
3878550,9.572864532,0.096800059,2.377492666,-1.793157816,3.589254618,1.256258011,0.622913122,-0.378615946,-0.486628652,-0.48147881,9.61235714,0.06693127,-1.866027951,10.73236084,6.266259193,-1.059329033,0.419450015,-0.592374027,-0.495973587,-0.476618469
3878717,9.623813629,0.126443699,2.406651974,-0.209050849,2.26014781,0.880404592,0.623110294,-0.378513068,-0.486346066,-0.481590062,9.545521736,0.103435516,-1.848620534,8.217690468,6.333465099,-1.41969955,0.420475364,-0.591282189,-0.496336699,-0.476692528
3878884,9.528373718,0.114599101,2.467628479,0.492525846,2.224251986,0.82730943,0.623330653,-0.378347427,-0.486116379,-0.481666952,9.540928841,0.151397571,-1.808293939,5.432921886,6.338727474,-1.081854939,0.421283275,-0.590382874,-0.496477187,-0.476947486
3879050,9.511705399,0.097783007,2.505044699,0.309292585,2.217259645,1.101890445,0.623551786,-0.378222048,-0.485855848,-0.481742024,9.61084938,0.182221383,-1.7748878,2.391900301,6.585251331,-0.666288972,0.421875149,-0.589681149,-0.4963561,-0.477418393
3879217,9.500452042,0.113566518,2.496184826,-0.511741757,2.460490227,1.236997366,0.623761415,-0.37815991,-0.485510886,-0.481867224,9.650379181,0.176473558,-1.797056079,-0.678992689,7.301432133,-0.228017062,0.422284275,-0.589147985,-0.495940477,-0.478146464
3879384,9.437767982,0.073571801,2.478941202,-1.039299369,2.55181241,0.898474276,0.623905838,-0.378122479,-0.48513186,-0.482091427,9.6615448,0.123613425,-1.755961895,-3.311248541,7.818861008,0.408567399,0.422547668,-0.588784516,-0.49525556,-0.479070157
3879550,9.453292847,0.034464266,2.496246338,-0.975434065,1.961043,0.647713244,0.624030113,-0.378086537,-0.484838635,-0.482253492,9.678844452,0.032555871,-1.777620792,-5.334064007,8.492348671,1.008506775,0.422726721,-0.58853972,-0.494336724,-0.480160713
3879717,9.493481636,0.025045495,2.511896372,-0.510345876,1.927643776,0.498391122,0.6241588,-0.378003269,-0.484585732,-0.482406616,9.698293686,-0.086081639,-1.752842188,-6.453852177,9.03278923,1.483212709,0.422880471,-0.588358402,-0.493265122,-0.481348485
3879884,9.526747704,0.02907861,2.524640322,-0.238902465,2.532680035,0.579929173,0.624337614,-0.377864808,-0.484286666,-0.48258394,9.732802391,-0.131382287,-1.751293898,-7.025361538,9.702458382,1.699742556,0.423047245,-0.588178873,-0.492092311,-0.48262006
3880050,9.539827347,0.030809589,2.526191235,-1.174252391,2.977610588,0.542752266,0.624503195,-0.37777248,-0.483887047,-0.482842714,9.754236221,-0.160870001,-1.714615107,-7.075781345,10.74156857,1.790911436,0.42328921,-0.587934017,-0.490842581,-0.48397699
3880217,9.545450211,0.015761288,2.537748098,-1.799996734,3.294965267,0.418978959,0.62463218,-0.37771216,-0.483415246,-0.483195543,9.723264694,-0.197830454,-1.674906969,-7.274727821,11.58422661,1.677306294,0.423565,-0.587631643,-0.489534765,-0.485425353
3880384,9.535401344,-0.003366812,2.567283392,-2.270219803,3.543087959,0.253841043,0.624763191,-0.377657533,-0.482903868,-0.483580112,9.746938705,-0.215876937,-1.660104036,-7.050873756,12.61569214,1.377381563,0.423910797,-0.587218761,-0.488202512,-0.486962169
3880550,9.521110535,0.012294102,2.519687891,-2.938827038,3.529923439,0.370506942,0.624863625,-0.377673328,-0.482338667,-0.484002054,9.66647625,-0.2036677,-1.621172905,-7.011250973,13.12008286,1.130731106,0.424276888,-0.586747706,-0.486860573,-0.488552034
3880717,9.492835045,-0.022363883,2.550905228,-2.95521903,3.505181789,0.465350837,0.624957025,-0.377702087,-0.481765568,-0.48442933,9.665901184,-0.184189081,-1.601112127,-6.956862926,13.58564568,0.782961607,0.424654186,-0.586212873,-0.485520899,-0.490196615
3880884,9.482073784,-0.038293045,2.573795557,-2.79344964,3.677094221,0.418889314,0.625072718,-0.377698511,-0.48119238,-0.484852403,9.652445793,-0.194081903,-1.524975777,-6.781134605,13.90015793,0.429672599,0.425041646,-0.585617065,-0.484201998,-0.491874784
3881050,9.484244347,-0.023219276,2.54655695,-2.587485075,3.761692524,0.349722266,0.625185788,-0.377670169,-0.480624467,-0.485291868,9.68847847,-0.201061174,-1.509607553,-6.780123234,14.08480072,0.04017996,0.425412506,-0.584977627,-0.482902229,-0.493589908
3881217,9.480107307,-0.016052891,2.575688362,-2.298433065,4.097692966,0.23391442,0.625348449,-0.377577454,-0.480058193,-0.485714704,9.66753006,-0.189096913,-1.451395512,-6.467468262,14.44861603,-0.124900445,0.425821781,-0.584278166,-0.481613755,-0.495321333
3881384,9.456095695,-0.03074662,2.543011189,-1.865321755,3.925024509,0.322803259,0.62549448,-0.377474904,-0.479522288,-0.486135602,9.68529129,-0.124052286,-1.431315064,-6.414513588,14.08928299,-0.292932689,0.426196456,-0.583586633,-0.480362952,-0.497026116
3881550,9.488204002,-0.034055125,2.518607616,-1.334165692,3.763537169,0.04548176,0.625660777,-0.377309561,-0.479059488,-0.486506075,9.735260963,-0.104874961,-1.402793169,-6.41087532,13.75548172,-0.406102389,0.426537901,-0.582908154,-0.479140252,-0.498706698
3881717,9.514274597,-0.018576188,2.517463207,-1.242702723,3.737693787,0.152081817,0.625840962,-0.377143472,-0.478601128,-0.486854225,9.638205528,-0.142531618,-1.37258935,-6.183422565,13.43379974,-0.357374221,0.426877737,-0.582239568,-0.477947742,-0.500338733
3881884,9.551102638,-0.040221881,2.547678709,-1.121695399,3.408224583,0.12015558,0.626011193,-0.376985639,-0.478184938,-0.487166524,9.609982491,-0.199049115,-1.335838079,-5.515147209,12.36326313,0.348685086,0.427249342,-0.581654072,-0.476808339,-0.501787305
3882050,9.545974731,-0.111165948,2.532037735,-1.459757328,3.326263428,0.368585944,0.626177907,-0.376880854,-0.477739304,-0.487470508,9.535527229,-0.196248829,-1.309921145,-4.364649773,11.15175629,0.92868495,0.427675486,-0.581124187,-0.475777417,-0.503015399
3882217,9.488950729,-0.106186621,2.449584484,-1.141429901,2.723097086,0.209210917,0.626307964,-0.376779258,-0.47737965,-0.48773402,9.508657455,-0.138402119,-1.294014931,-3.66467905,9.288954735,0.996340752,0.428035975,-0.580690503,-0.474906474,-0.504031539
3882384,9.561181068,-0.077037603,2.490288019,0.072157376,2.613449097,-0.406204551,0.626434267,-0.376537651,-0.477145433,-0.487987429,9.552695274,-0.186340287,-1.250878692,-3.310582638,7.787023544,0.797240257,0.428307205,-0.580330312,-0.474171042,-0.504907489
3882550,9.500143051,-0.008919005,2.514749289,0.083119608,3.19777751,-0.810769975,0.626585901,-0.376221448,-0.476885378,-0.488290727,9.638905525,-0.19772163,-1.247294664,-2.333688498,6.800626278,0.738510191,0.428588212,-0.579977393,-0.47357294,-0.505635381
3882717,9.468365669,-0.109764494,2.548641443,0.324711442,3.327416658,-0.609902442,0.626765013,-0.375891119,-0.476617157,-0.488577247,9.730200768,-0.18491222,-1.194191575,-1.374544024,6.631109238,0.147663638,0.428894758,-0.5795362,-0.473105162,-0.506318748
3882884,9.495000839,-0.044503603,2.564288616,0.433053166,3.256033421,-0.09320461,0.626975596,-0.375593513,-0.47633335,-0.488812715,9.846774101,-0.185668543,-1.142256379,-0.559727311,7.411952496,-0.113707617,0.429304242,-0.578968406,-0.472669989,-0.507027328
3883050,9.45761013,0.034981582,2.669128895,0.462136358,3.757440805,-0.094126672,0.627218008,-0.375257611,-0.476005763,-0.489078999,9.864793777,-0.114420503,-1.117469072,-0.128678232,8.689079285,-0.489394844,0.429810017,-0.578252912,-0.47221753,-0.507836342
3883217,9.446291924,0.051244594,2.674393654,-0.051788881,3.81366086,-0.1635627,0.627447248,-0.374957502,-0.475642383,-0.489368021,9.850199699,-0.105346248,-1.106283665,0.131604493,9.912904739,-0.726478755,0.43040362,-0.577413321,-0.471726745,-0.508744359
3883384,9.448689461,0.015202122,2.729981184,0.323469162,3.464098215,-0.028173966,0.627672911,-0.374658555,-0.475328743,-0.489612609,9.78189373,-0.079851083,-1.077541351,0.415278107,10.73702049,-0.683359981,0.431079835,-0.576496542,-0.471200496,-0.509698153
3883550,9.43803978,-0.003777532,2.772382498,0.66619271,3.422323942,0.263817221,0.62794137,-0.374349564,-0.475028574,-0.489795893,9.792060852,-0.082049802,-1.041240335,0.392162561,11.36823177,-0.493608117,0.431810349,-0.575545907,-0.470615894,-0.510693252
3883717,9.438411713,0.022050425,2.763158798,0.163697168,3.571223736,0.407248318,0.628203332,-0.374085069,-0.474670768,-0.490009099,9.785217285,-0.037706111,-1.0026474,0.361606628,11.9666357,-0.281739771,0.432593763,-0.574565411,-0.469972253,-0.511725843
3883884,9.457411766,-0.002272677,2.779385328,-0.310489982,4.357059479,0.46720767,0.62849611,-0.373812735,-0.474202693,-0.490294486,9.856427193,-0.026550936,-0.962798595,0.261268884,12.51866817,-0.085059814,0.433419794,-0.573561609,-0.46926862,-0.512797654
3884050,9.440912247,0.016228536,2.788419485,-0.17727834,4.783230305,0.255851686,0.628818512,-0.373482496,-0.473716825,-0.490602314,9.862376213,-0.054983217,-0.887227595,0.194240436,13.43880749,-0.135811418,0.434297621,-0.572487712,-0.468504667,-0.513952315
3884217,9.410443306,-0.014885854,2.787754536,0.386796594,4.502924442,0.267595142,0.629161775,-0.373118192,-0.47329843,-0.490843117,9.858213425,-0.112711877,-0.860180736,0.525233626,13.59743881,0.570939481,0.435265094,-0.57142669,-0.46769467,-0.515051186
3884384,9.397986412,-0.062932722,2.730053186,1.045798421,3.45289278,0.672531784,0.629489362,-0.372799248,-0.472997904,-0.490955353,9.703921318,-0.050204176,-0.836261272,0.81901145,13.90367889,1.085959911,0.436315,-0.570356786,-0.466842473,-0.51612097
3884550,9.463406563,-0.015943747,2.785060883,0.688539743,3.321000099,0.846339583,0.629787445,-0.372534662,-0.472673297,-0.491086334,9.686045647,-0.022724228,-0.798419416,0.839488566,12.4676466,1.296752453,0.437283248,-0.569405377,-0.466063708,-0.517054975
3884717,9.459153175,-0.025204372,2.685008764,1.388432503,2.730845451,0.37804985,0.630058348,-0.372214556,-0.472479224,-0.491168469,9.820466042,0.043557879,-0.759294331,0.835313797,11.23459911,1.347747207,0.438170046,-0.568548501,-0.465357542,-0.517882526
3884884,9.431466103,-0.072659172,2.734290838,2.302921057,2.869781494,-0.116768286,0.630365551,-0.37176615,-0.472365797,-0.491222978,9.709311485,-0.01653702,-0.694475532,1.421114802,10.48855209,1.835246682,0.439090043,-0.567741573,-0.464701712,-0.518576741
3885050,9.356373787,-0.17764926,2.75543499,5.286097527,1.335785747,-0.123466037,0.63072288,-0.371153772,-0.472605795,-0.49099648,9.728661537,-0.204324126,-0.65377754,3.030463934,9.079187393,3.079435349,0.440140635,-0.567020774,-0.464153618,-0.518965542
3885217,9.445893288,-0.080554508,2.721438169,5.523475647,0.597128093,0.395415276,0.631069064,-0.370609283,-0.47290045,-0.490678906,9.747987747,-0.249965712,-0.64763087,5.357365608,8.329656601,4.932527542,0.441471964,-0.566331446,-0.463674754,-0.519015431
3885384,9.47072506,0.006326885,2.71901679,3.554563046,1.133740067,0.908117652,0.631388903,-0.370242327,-0.472978324,-0.490469545,9.735653877,-0.186855853,-0.641632259,6.933597565,7.713965416,6.270266056,0.442992002,-0.565676272,-0.463242471,-0.518820822
3885550,9.417513847,0.018357283,2.725554943,2.442548752,1.294484854,1.193455696,0.63168323,-0.369985968,-0.472946793,-0.490314633,9.735952377,-0.130630419,-0.633030951,7.48379755,6.869412899,6.217556477,0.444495469,-0.565044165,-0.462908834,-0.518521428
3885717,9.446779251,0.007159902,2.752619743,2.432969332,1.208195925,1.196606159,0.631950319,-0.369737029,-0.472921431,-0.490182698,9.745960236,-0.116925277,-0.638606727,6.758572578,6.508464813,5.032852173,0.445824623,-0.564405024,-0.462639928,-0.518316448
3885884,9.434912682,0.044649363,2.798097372,2.087953806,1.303078175,1.23234868,0.632212162,-0.369516075,-0.472860575,-0.490069896,9.775299072,-0.130130872,-0.604299903,5.703802586,6.219181538,3.628340721,0.44694075,-0.56376034,-0.462424695,-0.518248737
3886050,9.429841042,0.091052361,2.811781645,1.644520879,1.39095521,1.387791991,0.632477283,-0.369339973,-0.472752333,-0.489965051,9.74955368,-0.153447166,-0.610814154,4.57257843,6.232127666,2.365249634,0.447869152,-0.563102305,-0.462226361,-0.518339694
3886217,9.435409546,0.122255072,2.794890404,1.484531403,1.257769465,1.496223569,0.632726967,-0.369195372,-0.472638875,-0.489860982,9.74842453,-0.105099931,-0.593677223,3.076182127,6.233716488,1.040868282,0.448574603,-0.562451959,-0.46202302,-0.518616974
3886384,9.422815323,0.126272097,2.823418856,1.208849072,1.168431997,1.39116025,0.632940769,-0.369075358,-0.472519428,-0.489790708,9.777970314,-0.085278034,-0.559687376,1.351358175,6.312243938,-0.103180766,0.449057341,-0.561830699,-0.461777806,-0.519090831
3886550,9.424632072,0.103552639,2.841049194,1.114184499,1.415902019,1.205711365,0.633154094,-0.368932247,-0.472381264,-0.489756137,9.759819031,-0.079340518,-0.554906726,-0.500766695,6.556025028,-0.831029713,0.449349374,-0.561262369,-0.461435974,-0.519756317
3886717,9.420459747,0.089356467,2.848581791,0.542393744,2.113117933,0.974941134,0.633384585,-0.368776768,-0.472150415,-0.489797682,9.824556351,-0.059926629,-0.538421571,-2.126929998,6.954008579,-1.119633555,0.449512929,-0.560750186,-0.460968584,-0.52058202
3886884,9.412307739,0.054045949,2.86788106,0.64228332,2.591397047,0.5814147,0.633604944,-0.368549585,-0.47190392,-0.489921331,9.884150505,-0.038059164,-0.510102034,-3.078544617,7.640149117,-0.856322408,0.449663788,-0.560264826,-0.460362315,-0.521509767
3887050,9.366039276,-0.006687381,2.864502907,0.283884794,2.462923765,0.364500761,0.633797467,-0.36834985,-0.47165519,-0.490061879,9.859116554,0.015508973,-0.479011118,-4.061919689,8.084798813,-0.594201982,0.449783236,-0.559826553,-0.459630549,-0.522522032
3887217,9.382504463,-0.087975532,2.847632647,1.455230355,2.169811726,0.043086965,0.633996665,-0.368041039,-0.471533537,-0.490153313,9.829012871,-0.149740174,-0.46080938,-4.427501678,8.474020958,-0.105421893,0.449934721,-0.559413791,-0.458805144,-0.523557961
3887384,9.410383224,-0.088954225,2.891771078,1.687012315,2.090425014,0.195034295,0.634232044,-0.367727757,-0.471427202,-0.490186155,9.881859779,-0.172364563,-0.455358297,-4.276105404,8.895273209,0.976554871,0.450208306,-0.559030175,-0.457874775,-0.524546146
3887550,9.425052643,-0.024232475,2.907035589,1.541058421,2.421789408,0.259783208,0.634484291,-0.367409378,-0.471275508,-0.490244329,9.891751289,-0.235264435,-0.466035426,-3.39819169,9.713036537,1.960441232,0.450681895,-0.558590949,-0.456876755,-0.525476694
3887717,9.41552639,-0.034921162,2.937224388,0.694853306,3.166875839,0.439507484,0.634744704,-0.367126614,-0.470985681,-0.490397513,9.907784462,-0.228491724,-0.41745013,-2.907555103,10.43672466,2.33719182,0.451271385,-0.558088303,-0.455837011,-0.526407123
3887884,9.40292263,0.007301998,2.923777342,0.593478262,3.259580851,0.310611606,0.634996891,-0.366837829,-0.470686376,-0.490574628,9.946190834,-0.189899892,-0.399173707,-2.721773148,11.49636078,2.162077904,0.451931715,-0.557479382,-0.45475468,-0.527420938
3888050,9.432447433,0.011687489,2.949741602,-0.028865511,3.400220156,0.478771776,0.635226965,-0.366606593,-0.470321,-0.490799993,9.935545921,-0.196743995,-0.360482067,-2.740432262,12.71196651,1.610328913,0.452627212,-0.556740105,-0.453634322,-0.528568923
3888217,9.407059669,0.019222699,2.907534122,-0.371870816,2.914027452,0.813081563,0.635451615,-0.366466373,-0.469957024,-0.490962744,9.805979729,-0.205587476,-0.30614534,-2.915047407,13.1783514,1.062524319,0.453295678,-0.555938542,-0.452512562,-0.529800057
3888384,9.445396423,0.043529201,2.942239523,-0.648692846,2.739271879,0.926276982,0.635643423,-0.366370201,-0.469583988,-0.491142988,9.788612366,-0.226158634,-0.300857097,-3.225639582,12.88051128,0.566303492,0.453879565,-0.555145621,-0.451424778,-0.531058073
3888550,9.438850403,0.006079234,2.902374983,-0.998408556,2.802970648,1.158609629,0.635831833,-0.366316438,-0.469168305,-0.491336226,9.668040276,-0.226512045,-0.267850548,-3.339795113,12.58601665,0.067585535,0.454394758,-0.554348469,-0.450386137,-0.532330334
3888717,9.414640427,-0.039291389,2.852120638,-0.943635762,3.078319788,1.065187335,0.636033237,-0.366231024,-0.468736321,-0.491551608,9.709840775,-0.202124402,-0.234965876,-3.920627356,11.28318691,-0.766357958,0.454711914,-0.553634346,-0.449454367,-0.533588767
3888884,9.431974411,-0.005645823,2.847873211,-0.119918659,3.395481825,0.28298828,0.636256933,-0.365996182,-0.468373746,-0.491782576,9.740493774,-0.20807822,-0.232127234,-4.362241745,10.52269363,-1.231843233,0.454906374,-0.552976668,-0.448574752,-0.534843743
3889050,9.378173828,0.035626739,2.851455688,-0.166162387,3.866128206,-0.383383721,0.636473238,-0.3656874,-0.467999518,-0.492088407,9.798431396,-0.219791144,-0.180683553,-4.438989639,9.995326996,-1.349328756,0.455049872,-0.552356184,-0.447732329,-0.536067307
3889217,9.383886337,-0.06120294,2.829998016,0.181344345,4.001069546,-0.464588821,0.636692524,-0.365328193,-0.467644125,-0.492409378,9.865012169,-0.194679558,-0.134871036,-4.457520485,10.02173424,-1.812137604,0.455156416,-0.551703632,-0.44692266,-0.537322998
3889384,9.443487167,-0.046131752,2.891136169,-0.042248148,4.401625633,-0.229272053,0.636960387,-0.364981115,-0.467220545,-0.492722303,9.956719398,-0.16805391,-0.08586365,-4.498283863,10.88919926,-2.073515415,0.45529449,-0.550967515,-0.446072072,-0.538666606
3889550,9.36280632,0.022790318,2.963277102,-0.263170511,4.665532589,-0.544064999,0.637204707,-0.364613146,-0.466774046,-0.493101746,9.989824295,-0.129805833,-0.037185211,-4.538380623,12.34133911,-2.456400156,0.45549199,-0.550093532,-0.44515118,-0.540152431
3889717,9.378867149,0.013622073,3.019862413,-0.373574078,4.600547314,-0.764257431,0.637408733,-0.364241958,-0.466339111,-0.493523777,9.924384117,-0.137566149,0.018133149,-4.405207634,13.59162521,-2.476211786,0.455777705,-0.549108982,-0.444157749,-0.541728675
3889884,9.353196144,-0.021660922,3.012171745,-0.16474089,3.706510305,-0.874520063,0.637575448,-0.363913357,-0.466003776,-0.493867725,9.811899185,-0.152507588,0.031837154,-3.977398872,13.92935562,-2.043433905,0.456151575,-0.548094928,-0.443138987,-0.543273151
3890050,9.346235275,-0.03555188,2.99429059,0.658957124,3.493309498,-0.874699295,0.637758911,-0.363520145,-0.465749323,-0.494160235,9.808812141,-0.154110119,0.068023682,-3.240277529,13.88590336,-1.013162255,0.456660956,-0.547099352,-0.442097187,-0.544695616
3890217,9.375247002,-0.028814487,3.012948513,0.49575302,3.664210796,-0.687995553,0.637953281,-0.36314097,-0.465458453,-0.494462222,9.802541733,-0.162777796,0.087368309,-2.398272276,13.6586895,-0.303433836,0.457277179,-0.546109259,-0.441078752,-0.545996249
3890384,9.355945587,-0.042953692,3.036900759,0.031932637,4.298688412,-0.553080738,0.63818866,-0.362771064,-0.465065926,-0.494799107,9.869249344,-0.123556748,0.16632466,-1.733904004,13.44456959,0.184635669,0.457969517,-0.545121431,-0.440086693,-0.547202468
3890550,9.339743614,-0.039457053,3.04429698,-0.347999811,5.10037899,-0.575901628,0.638443649,-0.362373978,-0.464574665,-0.49522242,9.936832428,-0.110032685,0.216220006,-1.546918392,14.10935974,0.287688434,0.458725542,-0.544072509,-0.439055175,-0.548440099
3890717,9.337633133,-0.025354538,3.092502594,-0.044566095,5.510873318,-0.525572538,0.638749182,-0.361923605,-0.464063317,-0.495637119,9.901940346,-0.14291583,0.230954319,-1.107212067,14.24211216,0.347967982,0.45952785,-0.542985201,-0.438043267,-0.549653888
3890884,9.322080612,-0.02810587,3.062894583,-0.106907427,4.532250881,-0.292343378,0.639006555,-0.361566484,-0.463624477,-0.495976508,9.855940819,-0.158692956,0.275572121,-0.455035537,14.6770792,0.516755819,0.460420966,-0.541827857,-0.437039137,-0.550846636
3891050,9.371605873,-0.037268259,3.045293331,0.319063812,4.075985432,0.04691606,0.639284134,-0.361226439,-0.463239998,-0.496225715,9.771929741,-0.159003466,0.316298306,0.244915172,13.69261646,0.500568509,0.461303622,-0.540699422,-0.436156332,-0.551915824
3891217,9.348793983,-0.035564829,3.019416571,0.960034311,3.5561378,-0.086071476,0.639540195,-0.360852838,-0.462958962,-0.496430069,9.719367027,-0.114228018,0.345197707,0.64598465,12.83994102,0.13909623,0.46213311,-0.539587498,-0.435389549,-0.552914441
3891384,9.378697395,0.040461715,3.050868273,1.29267931,4.085821152,-0.418985307,0.639820576,-0.360387176,-0.462670326,-0.496675879,9.75590992,-0.111965768,0.379056156,0.857225418,11.76736832,-0.180223823,0.462884188,-0.538525939,-0.434735566,-0.553835213
3891550,9.328343391,0.022364624,3.076939821,0.976644158,4.136201382,-0.379797876,0.640082359,-0.359948069,-0.462353557,-0.496951878,9.818980217,-0.118206561,0.443149269,1.092670083,11.0883503,-0.455150634,0.463587284,-0.537484169,-0.434166521,-0.554704607
3891717,9.315963745,0.019651925,3.087797642,0.85046339,4.456526756,-0.328803092,0.64038527,-0.359507173,-0.461990446,-0.497218311,9.849225998,-0.1029597,0.511737764,1.222027063,11.06073952,-0.552209973,0.464289844,-0.536428392,-0.433616132,-0.555568755
3891884,9.304813385,0.057490095,3.115788221,0.454158008,4.322341919,-0.163959727,0.640661657,-0.359121293,-0.461604506,-0.497499764,9.813839912,-0.077189729,0.522396326,1.60489881,10.97220993,-0.499934524,0.465019822,-0.535355687,-0.433097363,-0.556396961
3892050,9.296625137,0.052723039,3.122855186,0.133384526,4.267773151,-0.25838092,0.640902162,-0.358759731,-0.46120742,-0.497819036,9.816837311,-0.058847953,0.549665928,1.665127158,10.75916386,-0.334361136,0.465753317,-0.534305155,-0.432583839,-0.557192147
3892217,9.302700043,0.062530182,3.104236841,0.321625113,3.917303085,-0.387776375,0.641147614,-0.358406335,-0.460856289,-0.498082429,9.801978111,-0.027919935,0.575047076,1.387626052,10.42845058,-0.18420659,0.4664554,-0.533308268,-0.4320575,-0.557967663
3892384,9.311738014,0.035544179,3.179891586,0.083990447,4.167461395,-0.235598415,0.641385913,-0.358060062,-0.460462123,-0.498389244,9.842238426,-0.042283103,0.607144356,1.279386759,10.11481094,-0.220256478,0.467125326,-0.532340586,-0.431545496,-0.558727026
3892550,9.293505669,0.045472354,3.192070484,0.06471689,4.358661175,-0.07731194,0.641652405,-0.357713521,-0.460039258,-0.498685688,9.881263733,-0.056289744,0.627335966,1.052573562,10.3166256,-0.046538293,0.467803448,-0.531381488,-0.43098706,-0.559503257
3892717,9.294893265,0.050172605,3.192055225,0.362413347,4.51023674,-0.046320576,0.641942501,-0.35732922,-0.459622473,-0.49897182,9.899148941,-0.058669958,0.637885273,1.177000046,10.84584999,0.179884478,0.468541592,-0.530383706,-0.430384189,-0.56029588
3892884,9.334634781,0.033358857,3.195473433,0.494626045,4.417966366,-0.134658754,0.642226875,-0.3569341,-0.4592278,-0.49925226,9.94170475,-0.006224957,0.660617948,0.827860534,11.62619305,0.112843201,0.469294876,-0.529340386,-0.429703683,-0.561173677
3893050,9.296196938,0.035780203,3.273369789,0.764904082,4.263215065,-0.308402538,0.642498553,-0.356511295,-0.458877504,-0.49952668,9.901931763,-0.00360113,0.66959846,0.234196231,12.5539999,-0.066400953,0.470044106,-0.528248966,-0.428924114,-0.562170506
3893217,9.303676605,0.069466926,3.291795015,0.607744575,4.31454277,-0.083318114,0.642791033,-0.356117636,-0.458496392,-0.499781072,9.908872604,-0.063579917,0.688371062,-0.134453967,13.50292969,-0.194451764,0.470811933,-0.527095318,-0.428058147,-0.563270032
3893384,9.315459251,0.063969754,3.278710365,0.480692774,4.670661926,0.028039504,0.643102825,-0.355713367,-0.458069563,-0.500059187,9.911515236,-0.100537546,0.71676141,0.162634343,14.78780365,0.187683582,0.471711546,-0.52583766,-0.42709741,-0.56442076
3893550,9.286005974,0.04923372,3.316001654,0.80337441,5.004497528,-0.10006883,0.643438756,-0.355246127,-0.457641035,-0.50035131,9.884898186,-0.090992004,0.745239913,0.203102484,15.89935875,0.344266981,0.472693861,-0.524493396,-0.426049829,-0.565640152
3893717,9.273093224,0.045643456,3.33921814,0.885463119,5.151925087,-0.300987691,0.643767595,-0.354744703,-0.457216442,-0.500672162,9.860982895,-0.087849125,0.791594088,0.39112553,16.92522812,-0.007030693,0.473722398,-0.523027241,-0.42497167,-0.566946745
3893884,9.293234825,0.083188966,3.33698678,0.872695148,5.449838638,-0.442843616,0.644111574,-0.3542144,-0.456768721,-0.501013756,9.790453911,-0.061562188,0.881588221,0.254327953,17.48704529,-0.527276397,0.474729359,-0.521489084,-0.423880637,-0.568336546
3894050,9.278614044,0.068414338,3.347516298,0.527487218,5.540277004,-0.364187002,0.644446015,-0.35371384,-0.456283629,-0.501379192,9.749038696,-0.074386902,0.948108375,0.268491805,17.30358124,-0.99319756,0.475684494,-0.519933045,-0.422836185,-0.569740057
3894217,9.247909546,0.088031337,3.330666065,0.363271356,6.194437981,-0.420419693,0.64483577,-0.353184581,-0.455721498,-0.501762331,9.704743385,-0.01410987,1.032608747,0.257042885,16.20244598,-1.0545398,0.476563066,-0.518462121,-0.42186895,-0.571061552
3894384,9.240233421,0.042652659,3.272978067,1.012911916,6.360664368,-0.668120146,0.645254254,-0.352568626,-0.455200911,-0.502130032,9.667960167,0.049376626,1.124712706,-0.15445751,14.77898121,-1.358357787,0.477295637,-0.517116666,-0.420987159,-0.57231921
3894550,9.245062828,0.049841881,3.318418741,1.822068453,6.668773651,-0.698240757,0.645723879,-0.35185042,-0.454713017,-0.502471983,9.719605446,0.012634959,1.164058447,-0.721292317,12.98133469,-1.075541735,0.477896869,-0.51597482,-0.420159906,-0.573454678
3894717,9.228113174,0.050302021,3.313917875,1.675986528,6.751297474,-0.599708676,0.646181166,-0.351137102,-0.454208642,-0.502839148,9.742612839,0.001204003,1.176506639,-0.925886691,11.62278366,-0.522448003,0.478444368,-0.514992535,-0.419367135,-0.574460566
3894884,9.245660782,0.05122333,3.298120975,1.476681352,6.885650158,-0.238275021,0.646667659,-0.350458682,-0.453656346,-0.503185451,9.941475868,0.033210073,1.25740993,-1.281775236,11.10707188,0.186057106,0.478991628,-0.514119685,-0.418526322,-0.575398743
3895051,9.243816376,0.070940629,3.365628719,1.142736197,7.135531902,-0.080052495,0.64716965,-0.34980619,-0.453045696,-0.503544331,9.897063255,-0.041656625,1.336117983,-1.597131848,11.6056633,0.82665664,0.479597926,-0.513264358,-0.4175753,-0.57634747
3895217,9.232644081,0.106956981,3.542298555,-0.41174984,6.815303802,-0.090656161,0.647561073,-0.349318385,-0.452354968,-0.504000604,9.889590263,-0.110267341,1.359095573,-1.379295707,11.24468994,1.516381264,0.480255306,-0.512464225,-0.41661483,-0.577206552
3895384,9.258890152,0.051647034,3.543642282,-2.592940569,5.651628971,-0.217618346,0.647772133,-0.349118888,-0.451614052,-0.504531562,9.601559639,-0.06902381,1.388815165,-1.223442435,10.5040226,1.849589825,0.480906487,-0.511734247,-0.415692896,-0.577976167
3895551,9.272596359,0.051330499,3.522485495,-3.743783474,5.294677258,-0.510358751,0.647872686,-0.349031568,-0.450838923,-0.505155742,9.59140873,-0.083846353,1.396120191,-1.699928045,7.780876637,1.314744949,0.481312037,-0.511232972,-0.414960086,-0.578608513
3895717,9.225966454,0.095819294,3.480080843,-3.101660013,5.235755444,-1.395918131,0.64792794,-0.348826617,-0.450163692,-0.505828381,9.666592598,-0.129787728,1.40935719,-1.860045791,6.105883598,0.597051322,0.481543928,-0.510839701,-0.41438362,-0.579175711
3895884,9.096569061,0.085759513,3.530478954,-3.251635075,6.274439335,-1.691206694,0.648032665,-0.348547101,-0.44938767,-0.50657624,9.787959099,-0.166745067,1.436961055,-1.540066242,6.022257328,0.086718202,0.481751561,-0.510399759,-0.41387713,-0.579752803
3896051,9.106517792,-0.012337962,3.52103281,-2.483664036,6.230693817,-1.411221623,0.648182988,-0.348209053,-0.448663443,-0.50725764,9.864295959,-0.149680004,1.475738525,-1.32101357,6.311360836,-0.38538152,0.481953084,-0.509891272,-0.413403124,-0.580370545
3896217,9.157884598,0.007373064,3.583382368,-1.99552393,6.289153576,-1.348521471,0.648363113,-0.347822934,-0.447967261,-0.507907331,9.894189835,-0.109119691,1.50147438,-0.80523777,7.923603535,-0.713800371,0.482262015,-0.509190202,-0.412883133,-0.581099331
3896384,9.057720184,0.081171952,3.62750864,-0.552491605,5.69038105,-1.406342268,0.64857465,-0.34734273,-0.447434902,-0.508435011,9.819915771,-0.047316242,1.533684373,-0.340943575,9.08905983,-1.43443954,0.482613862,-0.508313656,-0.412372947,-0.581936121
3896551,9.084082603,0.093478434,3.662666321,0.168896556,4.864421368,-1.605045557,0.648759663,-0.346844643,-0.447041005,-0.508885264,9.706349373,-0.029932693,1.53634572,-0.162013158,9.402173996,-1.665299654,0.48297748,-0.507383108,-0.41187194,-0.582800686
3896717,9.096735001,0.094326541,3.68514204,0.690716922,4.032597542,-1.427715898,0.648923278,-0.346367389,-0.446756959,-0.509250879,9.664393425,-0.012999308,1.550278902,0.057353247,8.503155708,-1.213056087,0.483341128,-0.506539285,-0.411418378,-0.583553195
3896884,9.089241982,0.067071907,3.684113026,0.744759679,3.947486877,-1.244982123,0.64909786,-0.345902532,-0.446475565,-0.509591103,9.705414772,0.001195583,1.536258459,0.430235803,8.01948452,-0.594662964,0.483755201,-0.505746305,-0.410984159,-0.584203601
3897051,9.082785606,0.045976933,3.665653229,0.369123876,4.502489567,-1.019692898,0.649308443,-0.34544757,-0.44610095,-0.50995934,9.797898293,-0.002627851,1.580506325,0.878304422,7.896070004,0.25801596,0.484266579,-0.504982293,-0.410533249,-0.584757447
3897217,9.107466698,0.034836806,3.689746141,0.488069326,5.161914349,-0.741090775,0.649588943,-0.344950497,-0.445658177,-0.51032567,9.908114433,-0.019902814,1.601413131,1.387357235,8.563743591,0.888677657,0.484908223,-0.504162431,-0.410031646,-0.58528477
3897384,9.093333244,0.051431291,3.778029442,0.531098545,5.527905941,-0.494133025,0.649913967,-0.344438791,-0.445170343,-0.510683119,9.847442627,-0.03351444,1.651658058,1.880939722,10.10228634,1.442091465,0.485724211,-0.503208876,-0.409422159,-0.585855544
3897551,9.08877182,0.082687378,3.811705112,-0.181773335,5.045119762,-0.339675635,0.650179505,-0.34403801,-0.444668472,-0.51105237,9.744626999,-0.009309433,1.660748124,2.278704882,9.730311394,2.070281267,0.486599565,-0.502294898,-0.408825666,-0.58632952
3897717,9.119365692,0.049713228,3.729187965,-0.157210752,4.277583122,-0.024037518,0.650422096,-0.343713701,-0.444222987,-0.51134932,9.677566528,0.018458268,1.671457767,2.314460516,9.208595276,2.26927948,0.48746261,-0.501433492,-0.408253759,-0.586748242
3897884,9.115899086,0.070450135,3.726564646,-0.024562581,4.771115303,0.363399446,0.650732279,-0.343363941,-0.443721622,-0.511624694,9.644233704,0.033025883,1.674083114,1.746779799,7.598412037,2.096918583,0.488173157,-0.500738621,-0.407759458,-0.587094724
3898051,9.137054443,0.084622212,3.627502441,0.003925147,4.620384216,0.523043394,0.651046991,-0.343033791,-0.443227559,-0.51187396,9.729578972,-0.002297816,1.654407501,1.312426805,6.782134533,2.009848118,0.488795549,-0.500138283,-0.40729183,-0.587413132
3898217,9.094593048,0.085996792,3.648532391,0.522441447,5.45722723,0.664233267,0.651450515,-0.342601418,-0.442685664,-0.512119174,9.736814499,-0.050769843,1.671970248,1.180892944,6.5222435,2.151512146,0.48940447,-0.499577284,-0.406820774,-0.587709725
3898384,9.112339973,0.081675515,3.62685895,0.947010458,5.42600584,0.853344798,0.651884079,-0.342141449,-0.442170352,-0.51232028,9.824032784,-0.060717378,1.648574591,1.095730782,6.648321629,2.247559547,0.490022451,-0.49901697,-0.406326115,-0.588013113
3898551,9.085640907,0.077972792,3.658578873,1.65736568,5.412302494,1.034208775,0.652367294,-0.341625452,-0.441701025,-0.512454093,9.76386261,-0.058311392,1.642879248,1.043557644,7.200787544,1.944804788,0.490642726,-0.498394847,-0.405809134,-0.588380456
3898717,9.075107574,0.117574081,3.701859713,2.018056631,4.921820164,1.07343483,0.652839482,-0.341117889,-0.441300035,-0.512536347,9.757540703,-0.05117476,1.656161189,0.775200546,7.446887016,1.425327778,0.491212904,-0.497739732,-0.405288935,-0.588817477
3898884,9.115141869,0.130668581,3.702085495,1.971710682,4.42499733,0.739560306,0.653252065,-0.340628684,-0.440960437,-0.512628376,9.71298027,-0.068708971,1.688725114,0.686862171,7.043806553,0.945486426,0.491711199,-0.497096866,-0.404824406,-0.589264095
3899051,9.08221817,0.157478929,3.675352097,1.769920945,3.954414845,0.835531056,0.653631568,-0.340200126,-0.440645427,-0.512700081,9.710177422,-0.07051941,1.691941619,0.718378723,6.450207233,0.864499211,0.49216935,-0.496497601,-0.40441063,-0.589670897
3899217,9.119045258,0.130011782,3.683413982,1.512833238,3.796486855,0.754428506,0.653980851,-0.339801997,-0.440330982,-0.512788892,9.766517639,-0.050113909,1.691102386,0.589188159,6.040658951,0.727701664,0.492581815,-0.495934427,-0.40402469,-0.590064764
3899384,9.116624832,0.111797422,3.705880165,1.824949741,4.054573536,0.412665427,0.654337287,-0.339333504,-0.440031886,-0.512901247,9.736486435,-0.022896195,1.714592814,0.366088718,6.109083652,0.271962047,0.492942572,-0.495354474,-0.403647393,-0.590508699
3899551,9.093008995,0.127283677,3.673432827,1.583358049,4.134306431,0.291389287,0.654677093,-0.338875622,-0.439712018,-0.513044417,9.740153313,-0.048008524,1.744921684,0.220518932,6.013433456,0.132795453,0.493274689,-0.494784802,-0.403274387,-0.590963662
3899717,9.122117043,0.151568592,3.709581375,1.668712139,4.003745079,0.045174401,0.654996932,-0.338403583,-0.439423233,-0.513195097,9.733839989,-0.021191452,1.772028327,-0.034718018,5.888468742,-0.002125854,0.493568987,-0.494236082,-0.402897954,-0.591433644
3899884,9.073348999,0.162752971,3.738161564,0.855265856,3.88818121,0.152363583,0.655272961,-0.338022858,-0.439081281,-0.513386309,9.717388153,-0.021113927,1.780589461,-0.175959259,5.830788612,0.110499583,0.493858904,-0.493708879,-0.402505308,-0.591899097
3900051,9.080775261,0.116209738,3.713039637,0.754812658,3.258850574,-0.136618137,0.655481398,-0.33767879,-0.438807428,-0.51358068,9.697489738,-0.027196161,1.786096215,-0.221165672,5.561894417,0.148982689,0.494132668,-0.493210137,-0.40212521,-0.592344701
3900217,9.088113785,0.123444319,3.759284973,0.770794928,3.436743975,-0.06335301,0.655708194,-0.337326646,-0.438512713,-0.513774514,9.729559898,-0.009655807,1.798585057,-0.290179074,5.616372108,0.021328975,0.49439314,-0.492704123,-0.401744306,-0.592806935
3900384,9.074903488,0.133899271,3.799074888,0.952632546,3.793555021,-0.228721425,0.655954957,-0.336920917,-0.438204795,-0.513988316,9.750126839,-0.02546332,1.809042692,-0.448491246,5.91301918,0.028321246,0.494659543,-0.492183983,-0.401327729,-0.593298435
3900551,9.068039894,0.109564789,3.785964012,1.253197432,4.143680096,-0.421508223,0.656221867,-0.336445391,-0.437897772,-0.514220655,9.805007935,-0.037551545,1.835774899,-0.45306316,6.807978153,-0.166431352,0.494960517,-0.49157548,-0.40086022,-0.593867719
3900717,9.056992531,0.120399013,3.814512253,1.495481014,4.368675709,-0.344875067,0.656519294,-0.335935265,-0.437583357,-0.514442384,9.751311302,-0.067717858,1.886223555,-0.340444058,7.79938221,-0.046166897,0.495337069,-0.490879893,-0.400322139,-0.59449178
3900884,9.049292564,0.140066266,3.88452363,1.471712351,4.408311367,-0.338164508,0.65681994,-0.335425824,-0.437261939,-0.514664292,9.71745491,-0.043001913,1.918314576,-0.055938154,8.224938393,-0.159247011,0.495748222,-0.490119934,-0.399785578,-0.595136762
3901051,9.087475777,0.158082873,3.882802486,0.91571182,4.419286728,-0.308773935,0.657095671,-0.334972203,-0.436894625,-0.514919519,9.676376343,-0.014301357,1.977845073,0.029614693,8.1947155,-0.416334569,0.496140689,-0.489340931,-0.399276435,-0.595792115
3901217,9.016868591,0.151904419,3.883027554,0.814349413,4.191268921,-0.486679733,0.657338798,-0.334534079,-0.436550021,-0.51518625,9.629005432,-0.020618487,2.010425091,0.095477752,7.578997612,-0.273927867,0.496513724,-0.488618165,-0.39880681,-0.596388757
3901384,9.00830555,0.121582314,3.919264793,1.231426477,3.971805811,-0.407894999,0.657591999,-0.334075063,-0.436255783,-0.515410125,9.626749039,-0.010127844,2.042690516,0.353538483,6.789036751,0.237448946,0.496903092,-0.487974375,-0.398379833,-0.5968768
3901551,9.01268959,0.118010148,3.910705805,1.359554172,4.288891315,-0.129920438,0.6578933,-0.33359769,-0.435927093,-0.515613258,9.660680771,-0.014376301,2.08435607,0.645689845,6.229630947,0.744554937,0.497324347,-0.487386942,-0.39798224,-0.597271085
3901717,8.950361252,0.133910358,3.952316046,1.439965367,4.290056705,0.156256676,0.65822053,-0.333130211,-0.435590327,-0.515782237,9.687824249,-0.042881642,2.115069628,0.828436553,5.791064262,1.219337583,0.497774094,-0.486851424,-0.397598207,-0.597588956
3901884,8.983633995,0.149034992,3.950899363,0.926161706,4.300916672,0.277251095,0.658533037,-0.332720011,-0.435206592,-0.51597172,9.713618279,-0.072221905,2.11683774,1.431922913,5.770100117,1.785672545,0.498314202,-0.48630628,-0.397227585,-0.597828925
3902051,8.97382164,0.063450389,3.980828047,0.615044057,4.347147465,0.557210624,0.658853292,-0.332352847,-0.434782267,-0.516157329,9.649296761,-0.007227072,2.126151562,1.697385669,5.186142445,2.101707697,0.498866647,-0.485810667,-0.396899611,-0.597988844
3902217,9.032642365,0.068544954,3.907664061,0.500043213,3.95130372,0.77837646,0.65915823,-0.332039744,-0.434376776,-0.516310751,9.685535431,-0.034245379,2.130553484,1.468933225,5.072256088,1.639065504,0.499355853,-0.485314518,-0.396592557,-0.598187327
3902384,8.961868286,0.10921628,3.972903252,1.385115862,4.374117851,0.506369531,0.659514427,-0.331594527,-0.434008807,-0.516451597,9.711911201,-0.13931863,2.125590324,1.641421914,5.187154293,1.776260138,0.499875456,-0.484803379,-0.396282077,-0.598373473
3902551,8.998449326,0.135239467,4.009680748,1.555312157,4.451686382,0.419452816,0.659875929,-0.331121385,-0.433650345,-0.516594529,9.739206314,-0.114640824,2.13576436,2.337126732,5.947442532,1.980995178,0.500505567,-0.484187126,-0.39596197,-0.598557651
3902717,8.98986721,0.054519627,4.065636158,1.837819934,5.176345825,0.670469999,0.660315216,-0.330581963,-0.433231533,-0.51673013,9.730300903,-0.104727864,2.194428205,2.748608112,6.840007305,1.706568122,0.501191735,-0.483447105,-0.395631582,-0.598800123
3902884,8.957143784,0.110376894,4.112230778,1.995786667,5.205852032,0.760268271,0.660769463,-0.3300291,-0.432818413,-0.51684922,9.676655769,-0.051600106,2.207903147,2.891117096,7.730626106,1.046400547,0.501881182,-0.482580543,-0.395294428,-0.59914422
3903051,8.908369064,0.185590282,4.111831665,1.835361481,4.37492466,0.58377111,0.661151111,-0.329544842,-0.432479084,-0.516953945,9.60389328,-0.046619091,2.260522127,2.545909166,7.786139965,0.322201431,0.502485752,-0.481691986,-0.394973338,-0.599564135
3903217,8.933409691,0.187971607,4.133962631,1.62451756,4.017716885,0.435204625,0.66148752,-0.329096019,-0.432166845,-0.517070472,9.559089661,-0.02975297,2.282982349,2.137835026,7.094867229,0.058441788,0.502998412,-0.480877608,-0.39468503,-0.599977553
3903384,8.918552399,0.16573076,4.08311224,1.960300446,4.217125416,0.50142628,0.661858261,-0.328604877,-0.431856185,-0.517168045,9.579571724,-0.042257499,2.266367197,1.735267043,6.188073635,0.298445612,0.503451347,-0.480185062,-0.39441067,-0.600332618
3903551,8.87551403,0.158984378,4.049131393,1.734972358,4.292682648,0.491936743,0.662223041,-0.328129739,-0.43152073,-0.517282724,9.695086479,-0.000274035,2.255208969,1.259523988,5.814576626,0.514578402,0.503868282,-0.479571939,-0.394106656,-0.600672662
3903717,8.872617722,0.152969286,4.064718723,1.407309294,4.3450737,0.373785377,0.662565231,-0.327673972,-0.431161761,-0.517432988,9.716310501,-0.015984863,2.255246401,0.728585303,6.0737257,0.559643924,0.5042665,-0.478977323,-0.393733829,-0.60105747
3903884,8.926712036,0.132962659,4.066888809,1.583703876,4.487480164,0.139787734,0.662908554,-0.327176601,-0.43081215,-0.517598867,9.762307167,0.007898835,2.264026403,0.367074877,6.885418415,0.399052352,0.504671335,-0.478328615,-0.393280774,-0.601530612
3904051,8.955010414,0.168095514,4.133463383,1.835476518,4.392175198,-0.019837037,0.663241863,-0.3266505,-0.430499911,-0.517764151,9.725518227,-0.041228618,2.239501476,-0.202762976,7.725617886,0.243583247,0.505070269,-0.47763896,-0.392726779,-0.602105677
3904217,8.981176376,0.134731486,4.113011837,2.006262064,4.557863235,0.003899534,0.663596988,-0.326097637,-0.430182219,-0.517921567,9.726330757,-0.056141216,2.226411104,-0.197486773,8.718892097,0.442747653,0.505542815,-0.476872712,-0.39208594,-0.602733552
3904384,8.998346329,0.12192288,4.154096127,1.576442838,4.999657631,0.310342759,0.663982093,-0.325572491,-0.429774344,-0.518096924,9.626454353,-0.007712169,2.24858284,-0.381808579,8.906991005,0.475224555,0.506015301,-0.476105005,-0.391412437,-0.603381395
3904551,8.993265152,0.120093785,4.15958786,1.292461872,5.3734622,0.285549611,0.664374411,-0.325043082,-0.429311574,-0.51831007,9.649842262,-0.040533826,2.245222807,-0.764078259,9.163618088,0.323866278,0.506461561,-0.475333601,-0.390696436,-0.60407865
3904717,8.962487221,0.16620554,4.153756142,1.397409797,5.76098156,0.035479996,0.664778173,-0.324461013,-0.428828508,-0.518556893,9.580494881,-0.099938497,2.254957676,-0.50108695,9.407297134,0.581491709,0.506961524,-0.474535674,-0.389967412,-0.604757667
3904884,8.931110382,0.158016726,4.13025856,1.004126787,6.414233685,0.061323214,0.665203631,-0.323866218,-0.42825374,-0.518857956,9.62378788,-0.081959523,2.275404453,-0.037765939,9.745692253,0.527039111,0.507506609,-0.473669976,-0.389257133,-0.605436027
3905051,8.903680801,0.102032401,4.152144909,1.258281946,7.324036598,0.161315218,0.665705085,-0.323183745,-0.42760545,-0.519174814,9.661961555,-0.058281824,2.341021061,0.076735675,10.35729313,0.330096602,0.508075833,-0.472730279,-0.38852483,-0.606162965
3905217,8.858408928,0.135769412,4.181137085,1.545233727,7.406265259,0.016821142,0.666214883,-0.322461933,-0.42697379,-0.519489706,9.61463356,-0.085271724,2.415947676,0.241438225,10.71012211,0.145723522,0.508658767,-0.471736073,-0.387792915,-0.606916904
3905384,8.876155853,0.172653258,4.18585968,0.983751833,7.118582726,0.058864392,0.666679263,-0.321814209,-0.426329106,-0.519825041,9.61352253,-0.098579481,2.495227337,0.53491509,10.20331669,0.03167652,0.50922209,-0.470757604,-0.387131423,-0.607626379
3905551,8.89991188,0.152863204,4.150717258,0.450021595,6.758327484,0.00377147,0.667093515,-0.321244538,-0.425678551,-0.520178854,9.591222763,-0.094775528,2.548263073,0.799186945,9.762866974,0.056623295,0.509779811,-0.469798982,-0.386523277,-0.608287334
3905717,8.895918846,0.129955813,4.186187744,0.649185956,6.395600796,-0.209806472,0.667479217,-0.320670724,-0.425087094,-0.52052176,9.56443882,-0.053545129,2.587975502,1.09179914,9.07261467,-0.049996,0.510308504,-0.468872994,-0.385998636,-0.608891428
3905884,8.877041817,0.138631061,4.221741676,0.872336507,6.118791103,-0.239837319,0.667856395,-0.320096403,-0.424538642,-0.520838976,9.574528694,-0.042746503,2.626435757,1.048167944,8.321471214,-0.290806651,0.510769844,-0.468002439,-0.385541588,-0.609463513
3906051,8.882287025,0.137335762,4.249572754,0.966079056,5.963039398,-0.345118344,0.668218851,-0.319517016,-0.424018174,-0.521153808,9.580705643,-0.035224773,2.631728888,1.217339754,7.94158411,-0.34321022,0.511216104,-0.467149407,-0.385130703,-0.610003173
3906217,8.856888771,0.136670545,4.275303841,1.183249235,5.891645432,-0.373625308,0.668582916,-0.31891948,-0.423522681,-0.521455467,9.585486412,-0.025252553,2.627134562,1.210642099,7.726284504,-0.093127802,0.511671364,-0.466329455,-0.384717733,-0.610509217
3906384,8.85767746,0.137788534,4.298955917,1.591887236,6.073675156,-0.322015733,0.668979704,-0.318269551,-0.423039585,-0.521735787,9.614521027,0.010442626,2.652679443,1.247255445,8.291247368,-0.021937279,0.51216644,-0.465460062,-0.384260684,-0.611045361
3906551,8.837757111,0.145405889,4.338114738,1.918026447,6.195770264,-0.233216435,0.669404864,-0.317584097,-0.422564894,-0.521992743,9.641593933,-0.005426766,2.687165022,1.21105206,9.274329185,-0.193824172,0.512697637,-0.464495569,-0.38373819,-0.611661792
3906717,8.812170982,0.149437726,4.456264496,1.79643023,6.444417953,-0.078093126,0.669851124,-0.31690076,-0.422049254,-0.522252679,9.687227249,-0.02902242,2.780609608,1.530071259,10.78837395,-0.448939592,0.513311148,-0.463357359,-0.383147657,-0.612380326
3906884,8.787438393,0.150786862,4.534038067,2.054196358,6.286567211,0.08340136,0.670311093,-0.316212535,-0.421561718,-0.522473454,9.605682373,0.089309901,2.861577511,1.455922604,12.01426315,-1.209316969,0.513918877,-0.462071866,-0.382509083,-0.61324054
3907051,8.799418449,0.131159663,4.496459961,2.258790255,5.612107277,0.244991899,0.670754671,-0.315568447,-0.421144009,-0.522630274,9.522844315,0.121303581,2.851193666,0.757259071,12.95692825,-2.937868118,0.514376104,-0.460656434,-0.381852567,-0.614330232
3907217,8.799379349,0.102493063,4.524476051,2.942713737,5.003755093,0.349786252,0.671196699,-0.314906687,-0.420835644,-0.522710443,9.347524643,-0.024244145,2.820319891,0.286266923,12.81103802,-3.874588728,0.514707804,-0.459235221,-0.381226242,-0.615504324
3907384,8.783995628,0.127404392,4.469503403,4.767926693,4.165336132,0.832572937,0.671705902,-0.314161599,-0.420723766,-0.52259469,9.339792252,-0.109192058,2.841888905,0.94256705,11.56636238,-3.224307775,0.515070975,-0.457910746,-0.380706996,-0.616508007
3907551,8.699106216,0.19106096,4.456381321,7.428665161,4.523338318,1.470188498,0.672408283,-0.313169003,-0.420748144,-0.52226752,9.474097252,-0.031292148,2.932383299,1.878237605,10.78524971,-1.596978188,0.51559782,-0.456675053,-0.380220354,-0.617283881
3907717,8.619056702,0.282683641,4.498426437,8.913715363,4.984636784,1.218889594,0.673184335,-0.311978549,-0.420852572,-0.521896064,9.497520447,0.115491159,3.029700279,2.036792994,10.54538631,-1.012252569,0.516173303,-0.455480248,-0.379726022,-0.61798954
3907884,8.654723167,0.340849578,4.544710159,6.06669569,5.263532639,0.694674134,0.673808694,-0.311013579,-0.420735568,-0.521760523,9.475698471,0.16445826,3.12246871,1.368519068,9.920601845,-0.822910726,0.516685784,-0.454400927,-0.379205018,-0.618675411
3908051,8.74107933,0.275873154,4.491414547,3.594211578,5.023656368,0.76920712,0.674311578,-0.310312301,-0.420451224,-0.521757722,9.436844826,0.166113898,3.133624792,0.804834485,8.933834076,0.000928461,0.517179787,-0.453496844,-0.378652155,-0.619264364
3908217,8.729355812,0.292895705,4.459595203,2.839763403,4.965848446,0.889830053,0.674785376,-0.309697837,-0.420108467,-0.52178663,9.342280388,0.153256997,3.129039049,0.335276663,7.534098148,0.791515768,0.51763618,-0.452796638,-0.378109515,-0.619726777
3908384,8.703420639,0.258781552,4.525099277,2.787321329,4.802080154,1.167305231,0.675266445,-0.309116095,-0.419766486,-0.521784484,9.284424782,0.151968747,3.119068146,-0.07444331,5.176141262,1.293025136,0.517980635,-0.45236662,-0.377673954,-0.620018482
3908551,8.697634697,0.242084831,4.45634079,2.610759974,4.123805046,1.042097569,0.675687969,-0.30859524,-0.419482976,-0.521774709,9.480273247,0.140709594,3.122386217,-0.896021903,4.136009693,1.356749654,0.518219352,-0.452095211,-0.377238214,-0.620282054
3908717,8.602726936,0.327284217,4.600683689,2.726619482,4.328680992,0.928351521,0.676117957,-0.30804047,-0.419193238,-0.521778464,9.430517197,0.009313284,3.110026598,-1.15834713,3.900014162,1.769498348,0.518464983,-0.45188722,-0.376769394,-0.620513439
3908884,8.685751915,0.249463186,4.565405369,1.455384254,4.604849815,0.955103993,0.676512003,-0.307592154,-0.418776929,-0.52186656,9.530815125,0.028308617,3.115792274,-1.118801117,4.285625935,1.993135452,0.518754423,-0.451653361,-0.376259893,-0.620750904
3909051,8.684999466,0.250174314,4.619617939,1.658774495,4.945524693,1.060269833,0.676942706,-0.3071042,-0.418337464,-0.521947742,9.504540443,0.073639542,3.124219418,-1.392626643,5.37836647,1.468741179,0.519038141,-0.451312602,-0.375677466,-0.621114433
3909217,8.66856575,0.244974807,4.671074867,1.52520442,4.974364758,1.276402712,0.677385807,-0.306642264,-0.417873114,-0.522016406,9.45273304,0.051107045,3.12343359,-1.934220433,6.456226349,0.52787143,0.519259632,-0.450863391,-0.375026017,-0.621648729
3909384,8.642838478,0.309206307,4.68308115,1.459097981,4.576163769,1.212204218,0.677791417,-0.306208074,-0.41745016,-0.522083104,9.367465973,-0.013283281,3.117730618,-2.180319786,6.661755562,0.375527054,0.519462049,-0.450405449,-0.374346435,-0.622220933
3909551,8.659368515,0.2912184,4.677801609,1.570628643,4.077868938,1.243733525,0.678177536,-0.305803776,-0.417081505,-0.522113502,9.380997658,-0.01561577,3.120511532,-2.19002676,6.20505476,0.651772797,0.519663572,-0.45000419,-0.373681873,-0.622742176
3909717,8.636171341,0.250980049,4.62280941,1.619856,3.99539566,0.968922138,0.678541422,-0.305384785,-0.416735411,-0.522162199,9.415242195,-0.009088412,3.093077183,-2.16321063,5.892541885,0.81378603,0.519864261,-0.449637711,-0.373032361,-0.623228729
3909884,8.617006302,0.236379802,4.619018555,1.133701444,4.306871891,0.674939513,0.678878784,-0.304971248,-0.416335553,-0.522284567,9.440927505,-0.020694729,3.083326817,-2.290454388,5.81448698,0.570708573,0.520029843,-0.44927448,-0.372392803,-0.623734713
3910051,8.64654541,0.21442309,4.5912323,0.406953812,4.458998203,0.448612869,0.679180086,-0.304606348,-0.415872514,-0.522474408,9.476482391,0.006007637,3.090932846,-2.329731226,6.287181854,0.205317825,0.520184994,-0.448851407,-0.37173754,-0.624300659
3910217,8.683229446,0.185147032,4.602494717,0.597742915,4.594720364,0.342729986,0.679484904,-0.304204136,-0.415417314,-0.522674561,9.509788513,0.015685374,3.070387602,-2.908527374,7.178645134,-0.229592279,0.520310342,-0.448367417,-0.370990306,-0.624988139
3910384,8.703081131,0.212451547,4.641165733,1.17842114,4.896834373,0.276329011,0.679830372,-0.303719223,-0.414977312,-0.522856891,9.450222015,-0.030022552,3.081486225,-3.390263796,7.750114918,-0.089375518,0.520447075,-0.447875142,-0.370146573,-0.625727296
3910551,8.700855255,0.213749275,4.659234047,1.72603333,5.236740589,-0.032412872,0.680199265,-0.303135157,-0.414558858,-0.523047864,9.489771843,-0.025658533,3.04376173,-3.489820957,8.180551529,0.318884611,0.520636678,-0.447372645,-0.369234055,-0.626467466
3910717,8.706502914,0.179306135,4.658863068,1.488245249,5.339230061,0.149418101,0.680575311,-0.302577883,-0.414103955,-0.523241699,9.408367157,0.019622134,3.071955442,-3.708271503,8.279812813,0.01957451,0.520789266,-0.446861356,-0.368313253,-0.627247214
3910884,8.721035004,0.178324297,4.621706486,0.968845248,6.030170918,-0.156813756,0.680945098,-0.302000523,-0.413554758,-0.523528457,9.407412529,-0.064971365,3.082756042,-3.96427083,8.908964157,-0.06417264,0.520950019,-0.446307003,-0.367326409,-0.628086507
3911051,8.680397987,0.220918715,4.649894714,1.207056403,6.795352459,-0.575299859,0.681335866,-0.301312745,-0.412969321,-0.523878455,9.47271347,-0.117221147,3.110062122,-3.404774427,9.522146225,0.426381141,0.521223605,-0.445679903,-0.366311729,-0.628896892
3911217,8.663384438,0.206364542,4.633197784,1.690841794,7.411873817,-0.578757405,0.681786954,-0.300532341,-0.412356645,-0.524222374,9.439047813,-0.054368313,3.183971882,-2.739855528,10.4505434,0.948509037,0.521636248,-0.44494471,-0.365252942,-0.629690588
3911384,8.628182411,0.228396788,4.712872028,1.638860941,7.812393665,-0.794096291,0.682240844,-0.299712926,-0.411709905,-0.524609268,9.453501701,0.02553219,3.224464655,-2.576600552,11.16727734,1.296086431,0.522128105,-0.444149226,-0.364131391,-0.63049376
3911551,8.635037422,0.228041157,4.748049259,0.936317265,7.917840481,-1.03385675,0.682648301,-0.298938096,-0.411011368,-0.525068641,9.345543861,0.012677575,3.293275595,-2.24579978,11.20517731,1.790879488,0.522686839,-0.443350315,-0.363004565,-0.631242216
3911718,8.621629715,0.192620903,4.733517647,0.908834815,7.895199299,-0.923222721,0.683064103,-0.298177242,-0.410304576,-0.525513113,9.384796143,0.042848341,3.332583666,-1.884288669,11.07649231,2.550379276,0.52333051,-0.442574799,-0.361870915,-0.631903768
3911884,8.598848343,0.198246822,4.719588757,1.11679709,7.948358536,-0.5090909,0.68352145,-0.297414303,-0.409591526,-0.525906861,9.367705345,0.053613286,3.373067617,-1.861109138,11.26112175,2.776065588,0.5240044,-0.441791236,-0.360709935,-0.632556915
3912051,8.599942207,0.178162381,4.753680229,1.143716097,8.100408554,-0.13504298,0.684019387,-0.296662569,-0.408845454,-0.526264489,9.352778435,-0.031417985,3.427513361,-2.065575838,10.75901031,2.87215209,0.524646163,-0.441073477,-0.359561443,-0.633179545
3912218,8.609226227,0.194596529,4.760260105,1.066186309,7.992142677,0.392674744,0.684542954,-0.29595384,-0.408085018,-0.526572943,9.33639431,-0.087700702,3.485228777,-1.334255695,10.57216549,3.13265872,0.52534771,-0.440329641,-0.358476967,-0.633730292
3912384,8.575530052,0.236369848,4.765793324,1.108011961,7.732469082,0.688270986,0.685075998,-0.29527986,-0.407338768,-0.52683568,9.286016464,-0.072110072,3.54337883,-1.252141118,9.520709991,2.637321234,0.525952935,-0.439649671,-0.357511252,-0.634245694
3912551,8.571821213,0.235354885,4.818342686,0.767363131,6.891476631,0.74654001,0.685547471,-0.294705153,-0.406649709,-0.527076602,9.254434586,-0.106985226,3.604239941,-0.704874456,8.148406982,2.345797062,0.526494026,-0.439038575,-0.356718957,-0.634666026
3912718,8.556176186,0.220072076,4.803050518,1.263673306,6.385907173,0.69139576,0.6860075,-0.294119358,-0.406048238,-0.527269065,9.274415016,-0.105875522,3.659130812,-0.361689776,6.648718834,1.924494028,0.526939809,-0.438517183,-0.356099457,-0.635004282
3912884,8.503479958,0.266407192,4.853647709,1.146322131,6.144039154,0.91268307,0.686463118,-0.293575943,-0.405452996,-0.527436793,9.250169754,-0.134557769,3.673142195,0.015284378,5.790678978,1.743578076,0.527348399,-0.438036382,-0.355591595,-0.635281622
3913051,8.504652977,0.240390733,4.850319862,0.913240075,5.449211597,0.84225446,0.686862588,-0.293106616,-0.404910505,-0.527594566,9.326844215,-0.103848606,3.677255392,0.46047163,5.265773296,1.495199203,0.527734876,-0.437556744,-0.355180413,-0.635521114
3913218,8.480744362,0.227853701,4.899614334,1.11479938,4.909512997,0.614442348,0.68721956,-0.292642474,-0.404449373,-0.527741075,9.285150528,-0.04040641,3.703068018,0.251920104,5.473223209,1.111354351,0.528083205,-0.437053829,-0.354758084,-0.635813594
3913384,8.47119236,0.259546816,4.971817017,1.045964956,4.437291145,0.469128549,0.687534928,-0.292212754,-0.404036045,-0.527884901,9.180868149,-0.063402317,3.736651897,-0.151447907,5.115516186,0.340898693,0.528315902,-0.436574906,-0.354374707,-0.636163175
3913551,8.466603279,0.261775076,5.023152351,1.121829748,3.985239983,0.438547015,0.6878286,-0.291812062,-0.403671056,-0.528003156,9.169141769,-0.113741361,3.792325258,-0.278243542,4.190525532,0.164427131,0.528476357,-0.436181724,-0.354061395,-0.636473775
3913718,8.392308235,0.294622004,5.028206825,1.313233495,3.406034231,0.298496813,0.688081801,-0.291426331,-0.403386563,-0.528103828,9.16531086,-0.080360599,3.830019712,-0.081525221,3.435271263,0.123254716,0.528606772,-0.435840935,-0.353826612,-0.636729419
3913884,8.356483459,0.28717801,5.072135925,0.8971681,2.857833147,0.046096455,0.68826586,-0.291109383,-0.403135419,-0.528230608,9.151515961,-0.073818363,3.878361702,-0.104960836,2.054400921,-0.083458975,0.528645575,-0.435618907,-0.353708565,-0.63691467
3914051,8.343606949,0.2842004,5.013995647,0.556544781,2.239721775,-0.269061446,0.688377917,-0.290856034,-0.402931899,-0.528379083,9.165915489,-0.022721916,3.885833979,-0.258496195,1.207914114,-0.246650279,0.52861619,-0.435478359,-0.353651375,-0.63706696
3914218,8.348528862,0.300279021,5.068962097,0.083529413,1.504675627,-0.346040368,0.688415468,-0.290699363,-0.402771741,-0.528538644,9.109539986,0.009283202,3.865274906,-0.712916613,-0.645926595,-0.311949879,0.528456748,-0.435540795,-0.353698462,-0.637130439
3914384,8.375542641,0.265275389,5.070750237,-0.28127867,0.975504518,-0.266397655,0.688414574,-0.290625125,-0.402632028,-0.528687,9.262891769,-0.094708227,3.826839685,-1.004453182,-1.414627671,-0.102322735,0.52825886,-0.435707211,-0.353764057,-0.637144387
3914551,8.333432198,0.232643008,5.018513203,-0.686676502,0.42371732,0.036927111,0.688389301,-0.290655315,-0.402499855,-0.528804064,9.192485809,-0.045564104,3.788740873,-0.721228004,-2.097667456,0.263855666,0.528077781,-0.435933828,-0.353884846,-0.637072384
3914718,8.419050217,0.242917463,5.017086029,-0.70680809,-0.420137972,0.091200419,0.688317239,-0.290752798,-0.402450591,-0.528881609,9.298110008,-0.030721398,3.770638704,-0.851929665,-2.229956865,-0.217669547,0.527837038,-0.436157763,-0.354033947,-0.637035728
3914884,8.364366531,0.272237837,5.0847826,-0.400044739,-1.127535105,-0.267434984,0.688188255,-0.290851563,-0.402512282,-0.528948307,9.228288651,-0.098172851,3.715231419,-1.06478405,-2.157997847,-0.637705028,0.527547598,-0.436369598,-0.35418433,-0.637046814
3915051,8.416327477,0.26877296,5.070604324,-0.422289431,-1.520536304,-0.501663148,0.688013434,-0.290966749,-0.402623713,-0.529027641,9.246738434,-0.159466669,3.697146416,-0.28710556,-2.424844027,-0.53989011,0.527302802,-0.436551392,-0.354420781,-0.636993289
3915218,8.454849243,0.219100893,5.099397182,0.037029561,-1.646153808,-0.265552461,0.687872589,-0.291062057,-0.402770132,-0.529046893,9.306891441,-0.073283434,3.686411142,0.307653397,-1.592533708,-0.700929999,0.527123868,-0.436602265,-0.354658544,-0.636974216
3915384,8.406772614,0.233864471,5.083105564,0.295346469,-1.465558767,-0.281560421,0.687748671,-0.291114569,-0.402920932,-0.529064119,9.281349182,0.002799493,3.703644037,0.250357747,-0.674151897,-1.344410539,0.52692908,-0.436539263,-0.354861349,-0.637065768
3915551,8.402842522,0.315516025,5.138691902,0.346302897,-1.463881016,-0.652124941,0.687602639,-0.291142732,-0.403088182,-0.529111028,9.244983673,0.032128107,3.747025967,-0.056463186,-0.096547067,-1.619490862,0.526719093,-0.436431915,-0.35500887,-0.637230873
3915718,8.413805008,0.327882588,5.109167099,0.346866369,-1.701797128,-0.75105387,0.687440336,-0.291187018,-0.403279215,-0.529152095,9.197820663,0.01660946,3.736758471,-0.252963811,-0.351726413,-1.439536214,0.526500046,-0.43637225,-0.35514611,-0.637376189
3915884,8.425312042,0.325950682,5.097445488,0.154540613,-1.850901484,-0.592114329,0.6872679,-0.291266769,-0.403467923,-0.529188395,9.173185349,0.057974499,3.746436119,-0.558279991,-1.642388701,-1.037058234,0.526232123,-0.43647626,-0.355328232,-0.637424588
3916051,8.386973381,0.297447056,5.029557705,-0.028327644,-1.967503428,-0.529491305,0.687086463,-0.291377902,-0.403650731,-0.529223263,9.233016968,0.042127524,3.721273422,-0.920302689,-2.654295444,-0.478406787,0.525940657,-0.436730385,-0.355518639,-0.637384892
3916218,8.397234917,0.277056843,4.973433495,-0.326600373,-2.174146891,-0.361869067,0.686893761,-0.291545004,-0.403823435,-0.529249609,9.309192657,0.055985913,3.691080332,-1.114600539,-2.981215715,-0.124516137,0.525652707,-0.437047869,-0.355693519,-0.637307525
3916384,8.429265022,0.266904831,4.960169792,-0.162230834,-2.476491928,-0.173897415,0.686701417,-0.29172793,-0.404033095,-0.529238403,9.354968071,0.032110617,3.676545143,-1.482962608,-2.515935659,-0.073636517,0.525369942,-0.437352657,-0.355795294,-0.637274802
3916551,8.457756042,0.273355067,4.984079838,0.066676252,-2.779387474,0.006998669,0.686520219,-0.291927993,-0.40427655,-0.529177129,9.330936432,-0.024908222,3.59873867,-1.279930711,-2.105159283,-0.039430752,0.525124252,-0.4376055,-0.355882257,-0.637254894
3916718,8.517918587,0.277978599,4.989645958,0.396849513,-3.412764072,0.269093424,0.686332405,-0.292152315,-0.404604256,-0.529046476,9.347328186,-0.100841485,3.542798042,-0.599247575,-2.05740428,0.406121403,0.524965703,-0.437825233,-0.356000334,-0.637168765
3916884,8.523555756,0.237264961,4.952170372,0.660186589,-3.709628105,0.471485019,0.686154127,-0.292386949,-0.40497154,-0.528867185,9.279164314,-0.044959333,3.48542738,0.200771526,-1.867255092,0.575754225,0.524883628,-0.437975109,-0.356167197,-0.637040019
