sampleTimeFine,W4_acc_x,W4_acc_y,W4_acc_z,W4_gyro_x,W4_gyro_y,W4_gyro_z,W4_quat_w,W4_quat_x,W4_quat_y,W4_quat_z,W5_acc_x,W5_acc_y,W5_acc_z,W5_gyro_x,W5_gyro_y,W5_gyro_z,W5_quat_w,W5_quat_x,W5_quat_y,W5_quat_z
3826006,-0.044879388,-0.034562346,-0.404992849,-0.155243874,0.077819891,-0.155611888,0.660455644,-0.352752209,-0.450751394,-0.485991061,-0.375206828,-0.428597301,-0.267858028,-0.008071612,0.002129094,-0.241257176,0.505490601,-0.507427871,-0.487417728,-0.499419808
3826173,9.210278511,-0.265157878,3.412720919,0.418453872,-0.154662281,0.243480712,0.66054523,-0.352661043,-0.450628757,-0.486049443,9.871275902,-0.280961305,0.132899627,0.032022275,0.551383793,0.671558559,0.505941749,-0.507190108,-0.487113178,-0.499501735
3826339,9.216333389,-0.261835337,3.398065567,0.203883499,-0.104551047,0.160572439,0.660801768,-0.352339268,-0.450610608,-0.485950828,9.834302902,-0.267532498,0.12586458,0.032854687,0.477106929,0.56328088,0.506052017,-0.50735724,-0.486494452,-0.499823064
3826506,9.220030785,-0.259614766,3.436964035,0.319217473,-0.291574985,0.333163589,0.660815477,-0.352247506,-0.450591892,-0.486016035,9.842539787,-0.245999992,0.113194294,0.128748626,0.321676314,0.532097399,0.50635767,-0.507226348,-0.486346245,-0.499790609
3826673,9.215939522,-0.254107416,3.400200605,0.491488516,-0.327560812,0.338516653,0.661012948,-0.351976037,-0.450615615,-0.485922098,9.826158524,-0.247119501,0.140487731,0.009226974,0.097885326,0.440045387,0.506348133,-0.507227719,-0.48626411,-0.499878764
3826839,9.20526123,-0.253953636,3.399753571,0.461892933,-0.004533447,0.265405178,0.661057055,-0.351845652,-0.450609088,-0.485962689,9.841611862,-0.242198646,0.157678559,-0.061278384,0.147433087,0.416238368,0.506377578,-0.507148385,-0.486231476,-0.499961346
3827006,9.220921516,-0.239269406,3.391503334,0.426970094,0.109347016,0.198095024,0.661149383,-0.351679444,-0.450663418,-0.485907167,9.838334084,-0.242452562,0.139285848,-0.127602458,0.070172392,0.387436897,0.506474018,-0.506985426,-0.486259222,-0.500001967
3827173,9.213869095,-0.254178941,3.380917788,0.287240028,0.431605995,0.128249183,0.661069036,-0.351658523,-0.450607359,-0.486083418,9.847834587,-0.237896487,0.124674283,-0.269701719,-0.012985638,0.369085401,0.506508648,-0.506888211,-0.486266971,-0.500057817
3827339,9.204925537,-0.238161102,3.379040241,0.386886239,0.500107229,0.080827273,0.661028743,-0.351614565,-0.450593412,-0.486182928,9.876447678,-0.250992537,0.140963361,-0.276860476,0.056866594,0.380188495,0.506499171,-0.506841481,-0.486257941,-0.50012362
3827506,9.21323967,-0.247047976,3.389175177,0.465030491,0.612726212,0.12402308,0.661021531,-0.351540804,-0.450599611,-0.486240387,9.887268066,-0.243879661,0.149571046,-0.250312895,0.282578498,0.353512853,0.506545126,-0.50675869,-0.486259818,-0.500159204
3827673,9.21185112,-0.261332005,3.405564308,0.602493942,0.78493315,0.165682137,0.661016464,-0.351473361,-0.450574249,-0.486319542,9.886178017,-0.259536237,0.171178639,-0.162346095,0.515525997,0.442286491,0.506581843,-0.506705344,-0.486194253,-0.500239611
3827839,9.196557999,-0.250764519,3.415377617,0.710822821,0.790106833,0.269093424,0.661047816,-0.351398885,-0.450541526,-0.486360967,9.881853104,-0.256080031,0.165228233,-0.090387225,0.670713425,0.54380244,0.506589413,-0.506713033,-0.486027211,-0.500386596
3828006,9.203365326,-0.247519389,3.452498674,0.602045655,0.889778733,0.19380489,0.661147535,-0.351261318,-0.45052737,-0.48633799,9.867665291,-0.267957419,0.145895839,-0.091245249,0.805589855,0.520366848,0.506649494,-0.506675601,-0.485886723,-0.500500083
3828173,9.191299438,-0.250892401,3.444399118,0.366088718,0.71525377,0.219494432,0.661178291,-0.351205796,-0.450450093,-0.486407787,9.839383125,-0.236615747,0.16648446,0.091738276,0.625263572,0.622766376,0.506782353,-0.50659579,-0.485829741,-0.500501454
3828339,9.208672523,-0.250581264,3.429189444,0.219071805,0.575395703,0.277622432,0.66124475,-0.351137131,-0.450390577,-0.486422062,9.834439278,-0.257429183,0.160750091,0.014797737,0.477913737,0.783524454,0.506861389,-0.506587327,-0.485722035,-0.500534832
3828506,9.213835716,-0.271258563,3.433595181,0.331178576,0.55400908,0.339886934,0.661313713,-0.351072401,-0.450330973,-0.486430228,9.822943687,-0.262825221,0.158799157,0.075743154,0.220506117,0.817461252,0.506951571,-0.506578624,-0.485657156,-0.500515044
3828673,9.206630707,-0.249372512,3.41980195,0.400153637,0.597563446,0.410872519,0.661376655,-0.351027995,-0.450249225,-0.48645246,9.831141472,-0.243934482,0.14035745,0.107784651,-0.084854886,0.957742155,0.507009625,-0.5066275,-0.485582858,-0.500478923
3828839,9.193964005,-0.241159469,3.443652391,0.462853491,0.67520833,0.353897065,0.661447704,-0.350965321,-0.450174093,-0.48647058,9.852452278,-0.250000209,0.154986426,0.016180823,-0.162679076,0.894478738,0.507074356,-0.506659865,-0.485547394,-0.500415087
3829006,9.197994232,-0.259240985,3.400020838,0.352975011,0.728585184,0.481448293,0.661594331,-0.350852132,-0.4501279,-0.486395568,9.885748863,-0.245071128,0.171747312,0.082965933,-0.189098552,0.871721804,0.507133365,-0.506694317,-0.485516638,-0.500350118
3829173,9.205076218,-0.258561343,3.436013699,0.33336848,0.729033411,0.455284953,0.661673129,-0.35080269,-0.450041026,-0.486404479,9.886387825,-0.253846377,0.158048153,0.022558384,0.010750931,1.005125523,0.507175088,-0.506762207,-0.485420138,-0.500332713
3829339,9.198760986,-0.250622243,3.413802147,0.555558622,0.826873958,0.6201666,0.661786497,-0.350732714,-0.449954897,-0.486380428,9.881635666,-0.248200387,0.157156423,0.079341739,0.195495337,1.000246406,0.507269025,-0.506778598,-0.485351831,-0.500287235
3829506,9.198312759,-0.248464569,3.442945719,0.482229501,0.740290225,0.582247019,0.66187346,-0.350686848,-0.449867785,-0.486375749,9.876041412,-0.252235621,0.171388432,0.064870566,0.346046776,0.900036633,0.507396877,-0.50674665,-0.485313684,-0.500226974
3829673,9.207039833,-0.251815379,3.467888594,0.334866822,0.516153514,0.580428541,0.661970675,-0.350640327,-0.449814886,-0.486326009,9.832046509,-0.277369231,0.164942011,0.135753706,0.291338027,1.070732355,0.507490516,-0.50677222,-0.485222995,-0.500194013
3829839,9.194558144,-0.248725221,3.459808826,0.366139919,0.367228448,0.533723772,0.662035763,-0.350616932,-0.449762821,-0.486302167,9.832542419,-0.276276588,0.172088951,0.252342731,0.140299976,1.054071546,0.507608175,-0.506776452,-0.485177577,-0.500114381
3830006,9.191253662,-0.257501245,3.48340106,0.296063602,0.219571277,0.654807925,0.662102699,-0.350612164,-0.449716985,-0.486257046,9.862458229,-0.264781177,0.162873015,0.25206095,0.090816222,1.032556772,0.507727444,-0.506779194,-0.485141128,-0.500025988
3830173,9.172506332,-0.252551764,3.463331461,0.314824879,0.047095347,0.596449316,0.662156165,-0.350613505,-0.449687809,-0.486210078,9.824544907,-0.291556358,0.185091987,0.35512647,-0.011576939,1.023310542,0.507823527,-0.506803751,-0.485098183,-0.499945194
3830339,9.200074196,-0.244651809,3.456898212,0.36642164,0.108245663,0.624379873,0.662184417,-0.350638568,-0.449629009,-0.486208051,9.810433388,-0.271048099,0.154117048,0.480577439,-0.266769052,0.957524359,0.507888556,-0.506853223,-0.485065252,-0.499860734
3830506,9.190755844,-0.261699706,3.448783398,0.289353043,0.242084801,0.623265803,0.662249625,-0.35063082,-0.449576139,-0.486173511,9.801689148,-0.247963846,0.165301502,0.409681499,-0.489714801,0.771665752,0.507934928,-0.506896317,-0.485075176,-0.4997603
3830673,9.18229866,-0.264192313,3.418739796,0.263445854,0.064499184,0.614301383,0.662288845,-0.350650042,-0.449530423,-0.486148655,9.854750633,-0.265274286,0.136662588,0.186658964,-0.655569911,0.696774304,0.507964313,-0.506944656,-0.48510617,-0.499651343
3830839,9.190423965,-0.264968365,3.431092024,0.435371041,0.197723627,0.520840645,0.662367523,-0.350611836,-0.449511975,-0.48608619,9.872880936,-0.272090495,0.126670569,0.034404252,-0.602346599,0.842856288,0.507970929,-0.507035673,-0.485088527,-0.499569327
3831006,9.191801071,-0.239894822,3.423986912,0.658764958,0.171329737,0.530919194,0.66246897,-0.350543946,-0.449521691,-0.485987842,9.89320755,-0.227008671,0.162574828,-0.150500223,-0.528146625,0.708684146,0.507977545,-0.50710839,-0.485083312,-0.499493927
3831173,9.203388214,-0.235834152,3.418438673,0.594848514,0.56994015,0.645587265,0.662570477,-0.350488871,-0.449463964,-0.485942602,9.901881218,-0.236712351,0.148995131,-0.436030596,-0.312948763,0.324506462,0.5079422,-0.507163942,-0.485064924,-0.499491334
3831339,9.252900124,-0.245503053,3.438272953,0.344164222,0.527192593,0.388435751,0.662632823,-0.350447863,-0.44940576,-0.485940933,9.900165558,-0.264836073,0.155178472,-0.484617829,0.082312807,0.481691629,0.507923782,-0.507221699,-0.484986246,-0.499527872
3831506,9.213461876,-0.252408713,3.486068964,0.413920432,0.102149852,0.152145848,0.662661612,-0.350407362,-0.449413747,-0.485923499,9.876482964,-0.295158684,0.154395595,-0.363585055,0.202372327,0.720517278,0.507971525,-0.507248461,-0.484921753,-0.499514788
3831673,9.196442604,-0.26123479,3.484616995,0.660570681,0.210862935,0.447946876,0.662731826,-0.350353807,-0.449412525,-0.48586759,9.842634201,-0.27215296,0.140695155,-0.087185621,0.265277147,0.663849115,0.508034348,-0.507253885,-0.484869123,-0.499496311
3831839,9.183894157,-0.267507434,3.492950201,0.501963973,0.011314409,0.617707789,0.662777364,-0.350355268,-0.449397504,-0.485818118,9.82625103,-0.270665258,0.185047269,-0.010091403,0.268491477,0.446717471,0.508092463,-0.507233799,-0.484843761,-0.499482423
3832006,9.177052498,-0.278418243,3.463610172,0.284525096,-0.293355048,0.560463488,0.662766993,-0.350415349,-0.449381858,-0.485803455,9.820028305,-0.282902867,0.15454258,0.176541924,0.132897884,0.372747988,0.508116722,-0.507236481,-0.48481226,-0.499485493
3832173,9.17663002,-0.280066907,3.457169533,0.275624692,-0.239209816,0.361081451,0.662764311,-0.350443691,-0.449382365,-0.48578614,9.827235222,-0.28513816,0.205252841,0.342934847,0.005436296,0.648878515,0.508188009,-0.507233679,-0.484805405,-0.49942252
3832339,9.179190636,-0.248074353,3.456114769,0.417326927,-0.365582854,0.402522802,0.662787259,-0.350449145,-0.44941926,-0.48571673,9.830243111,-0.264467627,0.184299529,0.325966448,-0.147759661,0.69007659,0.508237064,-0.507259786,-0.484788865,-0.499361932
3832506,9.161353111,-0.282395482,3.459866524,0.490592062,-0.349767029,0.500824332,0.662809968,-0.350463212,-0.449446827,-0.485650212,9.857693672,-0.249798074,0.172319546,0.234554678,-0.277090967,0.733733356,0.508283317,-0.50729543,-0.484781355,-0.499285966
3832673,9.17583847,-0.268467844,3.467654943,0.582618475,-0.296825588,0.531572342,0.662785947,-0.35052073,-0.449431568,-0.485655755,9.862882614,-0.246740729,0.150267974,0.086564526,-0.415578872,0.885668039,0.508341968,-0.507340491,-0.484785318,-0.499176681
3832839,9.179351807,-0.260934383,3.45720911,0.487608165,-0.214877725,0.581222594,0.662788808,-0.350563705,-0.449415028,-0.485635877,9.877716064,-0.254721671,0.164462686,0.001030911,-0.433866292,0.8844769,0.508374929,-0.507409632,-0.484768003,-0.499089748
3833006,9.201197624,-0.267868727,3.453307867,0.387923568,-0.087300897,0.479860336,0.662811875,-0.350578398,-0.449401826,-0.485606074,9.873993874,-0.2587668,0.151238725,-0.052749351,-0.439731598,0.887319922,0.508395195,-0.507490873,-0.484739244,-0.499014467
3833173,9.200200081,-0.256682336,3.472036123,0.273460388,-0.082703404,0.493178934,0.662832975,-0.350602508,-0.44938159,-0.485578626,9.842485428,-0.266657293,0.151895329,0.05613663,-0.462117106,0.87986666,0.508449018,-0.507537782,-0.484749854,-0.498901397
3833339,9.203354836,-0.260076106,3.458635807,0.407786191,-0.161628932,0.466234386,0.662813067,-0.350655019,-0.449350268,-0.485596895,9.825035095,-0.297955662,0.124016382,-0.029224088,-0.695794582,1.000809789,0.508455336,-0.507649004,-0.484728992,-0.498802096
3833506,9.223192215,-0.260272801,3.456390142,0.524029434,-0.310054541,0.569978654,0.662836015,-0.350677013,-0.449365109,-0.485535949,9.862482071,-0.299012035,0.117797315,0.2168051,-0.701263011,1.219094157,0.508522809,-0.507732093,-0.484738648,-0.498639345
3833673,9.175588608,-0.263164312,3.466096163,0.321164042,-0.538916707,0.597563446,0.662855685,-0.350717872,-0.449401468,-0.485446036,9.844529152,-0.261268497,0.11281798,0.152401969,-0.747775555,0.934511423,0.508555353,-0.507810235,-0.484762162,-0.498503804
3833839,9.238441467,-0.26572293,3.380542278,0.521519363,-0.266179979,0.556378245,0.662890494,-0.350726426,-0.449420244,-0.485374719,9.846099854,-0.269359946,0.11634475,0.123600475,-0.661512017,0.437740266,0.508570433,-0.507834315,-0.484830827,-0.498397022
3834006,9.171194077,-0.250177145,3.471567392,-0.088709585,0.291568547,0.443861663,0.662890613,-0.350777149,-0.449327618,-0.485423595,9.86370182,-0.282720655,0.109760955,-0.103321619,-0.544846117,0.386655718,0.508546829,-0.507888734,-0.484852493,-0.49834463
3834173,9.231102943,-0.249594241,3.422741413,0.401024431,-0.200509012,0.191794306,0.662844718,-0.350817949,-0.449314237,-0.485469282,9.887633324,-0.285624593,0.123744056,0.140953064,-0.231590033,0.604709446,0.508579373,-0.507917762,-0.484853774,-0.498280644
3834339,9.188621521,-0.246325582,3.427322626,0.53440249,0.090662546,0.307768583,0.662876487,-0.35079211,-0.449309617,-0.485448986,9.877720833,-0.279748827,0.133346036,0.056162246,-0.005224991,0.717021108,0.50863868,-0.507935882,-0.484833449,-0.498221189
3834506,9.210679054,-0.265397489,3.447842836,0.537873089,-0.003150362,0.584232032,0.662929714,-0.350782722,-0.449307054,-0.485385388,9.874827385,-0.270536512,0.095681429,-0.019094266,0.144602895,0.39851439,0.508681417,-0.507924974,-0.484821677,-0.498200178
3834673,9.210743904,-0.259736359,3.441945791,0.449099451,-0.21491614,0.47176668,0.662949324,-0.350796252,-0.449319452,-0.485337287,9.887286186,-0.277066737,0.105254896,-0.042837244,0.379330456,0.304835975,0.508709669,-0.507913828,-0.484776348,-0.498226851
3834840,9.177377701,-0.258259535,3.47362709,0.378690153,0.061848264,0.283487737,0.662909031,-0.350841224,-0.449266106,-0.4854092,9.848599434,-0.27009663,0.118955381,-0.137629852,0.468846858,0.249807045,0.508725047,-0.507907093,-0.48471427,-0.498278379
3835006,9.182760239,-0.26102379,3.478634119,0.344702095,-0.116665833,0.348403126,0.66292119,-0.35084933,-0.449268103,-0.485384881,9.856485367,-0.281436771,0.116026469,-0.075326949,0.53217423,0.299585313,0.508782089,-0.507866144,-0.484678686,-0.49829632
3835173,9.18358326,-0.267382532,3.46214819,0.39973101,-0.200406551,0.251612753,0.662867546,-0.350903779,-0.449245542,-0.485439658,9.864995956,-0.271802485,0.119481087,-0.098621696,0.545736194,0.232749,0.508824468,-0.507830322,-0.484636605,-0.498330712
3835340,9.204431534,-0.262626141,3.464118004,0.523747683,-0.14741388,0.230110869,0.662811756,-0.350950778,-0.449219882,-0.485505611,9.848259926,-0.265047014,0.141471177,-0.04407946,0.498237491,0.209057257,0.508890331,-0.507768035,-0.484629512,-0.498333812
3835506,9.180585861,-0.261055976,3.464182615,0.611419976,-0.086686179,0.237909973,0.662816465,-0.350937784,-0.449231386,-0.485498011,9.850820541,-0.264110059,0.134647787,-0.029198479,0.455425858,0.341308445,0.508951247,-0.507728994,-0.484604269,-0.498335868
3835673,9.200333595,-0.256864667,3.439016819,0.565329909,-0.039533202,0.156692103,0.662811399,-0.350925118,-0.449235409,-0.485510409,9.866073608,-0.253388584,0.126050562,0.018345095,0.396542221,0.307512492,0.508983135,-0.507713258,-0.484563172,-0.498359263
3835840,9.194521904,-0.261796266,3.478441,0.464390278,-0.045987602,0.208148003,0.662762821,-0.35096404,-0.449200839,-0.485580385,9.862181664,-0.247734606,0.13936837,-0.096060432,0.394249886,0.423320323,0.509032011,-0.507697046,-0.484523982,-0.498363972
3836006,9.198181152,-0.25312385,3.463582277,0.421220034,0.064358309,0.329987586,0.662787199,-0.350952595,-0.449188799,-0.485566586,9.86788559,-0.244469523,0.167881474,-0.097200185,0.53564477,0.488107532,0.50907588,-0.507693589,-0.484450221,-0.49839434
3836173,9.199206352,-0.246239349,3.450864553,0.50142616,0.249243587,0.178219557,0.662783563,-0.350941062,-0.449148208,-0.485617369,9.883264542,-0.250053585,0.157764867,-0.117984906,0.605413795,0.615710139,0.509157062,-0.507670879,-0.484385759,-0.498397171
3836340,9.202829361,-0.240625113,3.453099966,0.535106897,0.208416924,0.331127375,0.662818491,-0.350912213,-0.449127406,-0.4856098,9.88467598,-0.260382593,0.140896976,0.020240435,0.684288085,0.609806359,0.509259522,-0.50762552,-0.484332293,-0.498390734
3836506,9.193921089,-0.262554407,3.469099998,0.428698927,0.195354447,0.365141004,0.662846625,-0.3508991,-0.449096978,-0.485609055,9.855937958,-0.262879401,0.168088838,0.015694181,0.732747316,0.676834762,0.509339571,-0.507610798,-0.484239489,-0.498414278
3836673,9.18797493,-0.238186479,3.494129419,0.419401526,0.221543431,0.393122911,0.662836909,-0.35092479,-0.449031949,-0.485663861,9.86768055,-0.242338881,0.157000214,0.054651096,0.822020292,0.699963033,0.509453118,-0.507565975,-0.484164327,-0.49841699
3836840,9.189787865,-0.25460127,3.469904423,0.365345955,0.26710844,0.388115644,0.662845671,-0.350934356,-0.448972195,-0.485700309,9.857833862,-0.261482567,0.165571794,0.132833853,0.790068507,0.675528526,0.509591877,-0.507492304,-0.484123617,-0.498389453
3837006,9.186626434,-0.247362539,3.487392664,0.269964278,0.119976275,0.420566916,0.662860334,-0.350949079,-0.448930919,-0.485707641,9.842619896,-0.277166307,0.169191837,0.101214983,0.725780606,0.738919973,0.509690285,-0.507466733,-0.484041989,-0.498394072
3837173,9.18296814,-0.260233641,3.482359886,0.359019548,0.136150703,0.437829852,0.662896454,-0.350941122,-0.448904186,-0.485688955,9.849393845,-0.270312697,0.183211803,0.203921899,0.557876587,0.754671752,0.509793997,-0.507438719,-0.48398748,-0.498369515
3837340,9.183306694,-0.236530349,3.483647823,0.326734781,0.026886931,0.546017945,0.662899196,-0.350980818,-0.448856384,-0.485700727,9.830901146,-0.257304549,0.186821073,0.187811524,0.318116158,0.744708478,0.509891093,-0.507416487,-0.483962685,-0.498317033
3837506,9.181558609,-0.246425718,3.449945688,0.269170254,0.037208848,0.488094777,0.662917733,-0.351000637,-0.448822498,-0.485692471,9.836604118,-0.250298679,0.178488657,0.154271677,0.122127749,0.691408396,0.509969473,-0.507405281,-0.483955324,-0.498255342
3837840,9.189539909,-0.244980931,3.458907604,0.339579552,-0.029096026,0.443925709,0.662948906,-0.351045102,-0.44875735,-0.485677898,9.85063076,-0.25342077,0.185412049,0.128607765,-0.025740763,0.659879208,0.510008156,-0.507428348,-0.483934045,-0.498212934
3838006,9.198441505,-0.258595556,3.460241556,0.361375988,0.091674261,0.444642842,0.662959635,-0.351060867,-0.448717594,-0.485688627,9.862607956,-0.248020709,0.175470188,0.009892904,-0.048804998,0.604273915,0.51004076,-0.507449389,-0.483918667,-0.498173147
3838173,9.186146736,-0.251782864,3.489698887,0.413587421,0.112458959,0.504397213,0.662974715,-0.35107708,-0.448674113,-0.485696346,9.877437592,-0.239012241,0.181420997,-0.137437731,-0.005391473,0.634343326,0.510073364,-0.507474124,-0.483893335,-0.498138964
3838340,9.170245171,-0.249236584,3.486738205,0.343062878,-0.001626406,0.472714365,0.662980735,-0.351102293,-0.448640972,-0.485700548,9.865093231,-0.253352821,0.206136167,-0.221280932,-0.02154028,0.701896846,0.510111094,-0.507502913,-0.483866483,-0.498097062
3838506,9.189729691,-0.252390832,3.482721567,0.389485925,-0.099338852,0.499287575,0.662967026,-0.351147532,-0.448606223,-0.485718638,9.834759712,-0.262844086,0.193537191,-0.156391144,-0.042850047,0.703305542,0.510144472,-0.507535517,-0.483837783,-0.498057544
3838673,9.180796623,-0.26373437,3.482553244,0.329705864,-0.262491763,0.521954775,0.662934124,-0.351217866,-0.448576689,-0.485740155,9.85694313,-0.264726102,0.170677885,-0.090976305,-0.225750297,0.84668535,0.510175526,-0.507590771,-0.483812004,-0.497994512
3838840,9.195026398,-0.254890591,3.479503155,0.426214576,-0.358155161,0.503961861,0.662948489,-0.35123843,-0.448600024,-0.485684127,9.849430084,-0.299593925,0.164546818,-0.103872299,-0.281457931,0.843355715,0.510197163,-0.507654488,-0.483785689,-0.497932971
3839006,9.199363708,-0.246693924,3.485886574,0.454926342,-0.153996348,0.474686533,0.66292119,-0.351289809,-0.448567629,-0.485713989,9.85948658,-0.294735104,0.179720625,0.20297423,-0.345553696,0.934575319,0.510229111,-0.50772053,-0.483764678,-0.497853249
3839173,9.201180458,-0.273504764,3.454838037,0.297766834,-0.165393993,0.420029044,0.662903011,-0.351333261,-0.448543936,-0.485729337,9.822739601,-0.271639079,0.19005315,0.271078378,-0.446454942,0.786341846,0.510273159,-0.507754207,-0.483792454,-0.497746736
3839340,9.181769371,-0.275847286,3.49687314,0.302428335,-0.100248098,0.336326748,0.662888408,-0.351361603,-0.448522359,-0.485748768,9.828564644,-0.265769839,0.154447392,0.305092037,-0.535369456,0.669522345,0.510329962,-0.507759035,-0.483863473,-0.497614533
3839506,9.192848206,-0.270278692,3.470118999,0.526347339,-0.43231675,0.352449924,0.662878454,-0.351380408,-0.448557049,-0.485716611,9.85911274,-0.276680171,0.14837718,0.380022049,-0.801139653,0.841204345,0.510350585,-0.507823467,-0.483911425,-0.497480929
3839673,9.202493668,-0.259592682,3.401818275,0.779682517,-0.17834121,0.616683304,0.662925661,-0.351365626,-0.448578387,-0.485643327,9.883501053,-0.242685005,0.147666886,0.204037175,-0.853684127,0.800569713,0.510345876,-0.507907093,-0.483948171,-0.49736461
3839840,9.216254234,-0.237205863,3.445965528,0.50264281,0.413613081,0.503833771,0.662956357,-0.351358563,-0.448505849,-0.485673428,9.89349556,-0.232539296,0.165560514,-0.083855972,-0.65764451,0.417211682,0.510332108,-0.507944763,-0.48400566,-0.497284412
3840006,9.222305298,-0.250949621,3.466610909,0.42138657,-0.043426335,0.203448087,0.662938595,-0.351365566,-0.448492438,-0.485704809,9.888660431,-0.246057361,0.157163575,-0.338817567,-0.388519019,0.316592157,0.510306716,-0.507978082,-0.484028608,-0.497254103
3840173,9.191914558,-0.258413196,3.47783637,0.686951756,-0.062302891,0.300007939,0.662923336,-0.351369143,-0.448483348,-0.485731453,9.890165329,-0.267811447,0.144042477,-0.345451295,-0.148937836,0.664617479,0.510307968,-0.508032739,-0.483993053,-0.497231603
3840340,9.154014587,-0.268112123,3.512028217,0.696953595,-0.174717039,0.593760014,0.662940562,-0.351381838,-0.448484153,-0.485698164,9.872281075,-0.274947047,0.151663736,-0.340636075,0.020931976,0.966207027,0.510355234,-0.50808394,-0.483935893,-0.497186393
3840506,9.172646523,-0.265762031,3.501957893,0.405545056,-0.368579507,0.573897243,0.662937105,-0.351427436,-0.4484891,-0.485665292,9.8635149,-0.276982456,0.155324712,-0.343248606,0.226781249,0.783178806,0.510394752,-0.50811559,-0.483868241,-0.49717924
3840673,9.191373825,-0.272750318,3.481656075,0.167334169,-0.189700454,0.435972959,0.662947774,-0.351451963,-0.448484123,-0.485637456,9.861480713,-0.292269111,0.158894464,-0.321823567,0.435204625,0.538244605,0.510428607,-0.508117199,-0.483800769,-0.497208536
3840840,9.151546478,-0.252444476,3.517489433,0.103071913,-0.407984734,0.346840799,0.662928462,-0.351497948,-0.448495567,-0.485620081,9.842870712,-0.292676806,0.186338276,-0.006800171,0.582861781,0.374105453,0.510469615,-0.508087158,-0.483742326,-0.497254014
3841006,9.16789341,-0.258870929,3.483000517,0.300865948,-0.517325282,0.401229292,0.66292268,-0.351529717,-0.448532969,-0.48557055,9.833608627,-0.291943729,0.161365509,0.13786675,0.398002088,0.526052773,0.510550618,-0.508039832,-0.483729005,-0.497232199
3841173,9.191292763,-0.265644521,3.491512299,0.291875929,-0.457071453,0.378728569,0.662882447,-0.351589501,-0.448538601,-0.485576779,9.853205681,-0.273579866,0.162592262,0.23046948,0.262485355,0.583450854,0.510613143,-0.508018613,-0.483707786,-0.497210503
3841340,9.186532974,-0.271366179,3.468009233,0.329731464,-0.396356493,0.399321169,0.662902951,-0.351593345,-0.448578715,-0.485508889,9.864907265,-0.249154359,0.145716146,0.22465539,0.062027555,0.541714966,0.510653973,-0.508012712,-0.483700275,-0.497181714
3841506,9.190509796,-0.256886125,3.464608192,0.287918746,-0.153881103,0.423704475,0.662889361,-0.351631314,-0.448555112,-0.485521734,9.8647995,-0.238372102,0.154645935,-0.018466758,-0.103231996,0.605951667,0.510677874,-0.508032858,-0.48369211,-0.49714455
3841673,9.190052032,-0.260054648,3.462963104,0.29210645,-0.073021814,0.304285288,0.662866473,-0.351661354,-0.448525518,-0.485558718,9.85680294,-0.256793141,0.161694631,-0.0915398,-0.149680629,0.493012458,0.510687053,-0.508050978,-0.48369363,-0.497115165
3841840,9.201206207,-0.259661257,3.461267948,0.434820384,-0.086827047,0.324391246,0.662870228,-0.351662129,-0.448520213,-0.485557973,9.901276588,-0.254150331,0.164437592,-0.234945297,-0.162807137,0.555635512,0.510693312,-0.508080423,-0.48368603,-0.497086048
3842006,9.207897186,-0.251700491,3.475980282,0.520507574,-0.210152194,0.450098366,0.662885547,-0.351665229,-0.448531419,-0.485524446,9.833500862,-0.262443542,0.166107669,-0.267499059,-0.12404231,0.464556754,0.510693848,-0.508101702,-0.483681142,-0.497068495
3842173,9.182881355,-0.258835167,3.497659445,0.489157677,-0.193491131,0.39175263,0.662911534,-0.351651937,-0.448553085,-0.48547855,9.857458115,-0.293860584,0.159774318,-0.113003224,-0.186742187,0.677321494,0.510723293,-0.508124173,-0.483683676,-0.497012824
3842340,9.202132225,-0.271796376,3.443059921,0.426713973,-0.693092465,0.450725853,0.662876785,-0.351710647,-0.448593765,-0.485445857,9.823221207,-0.281315178,0.135102049,0.088498272,-0.322130919,0.719441473,0.510742843,-0.508161902,-0.4836891,-0.496948898
3842506,9.220610619,-0.238307863,3.474957466,0.338503838,0.055547539,0.327759296,0.662892163,-0.351703167,-0.44857347,-0.485449016,9.840878487,-0.270937055,0.132022843,0.055739634,-0.565771699,0.40195927,0.510726392,-0.508190572,-0.483741164,-0.496885717
3842673,9.200047493,-0.273916036,3.457877636,0.096182078,-0.286324322,0.1720469,0.662831008,-0.351761103,-0.448554635,-0.485507905,9.858376503,-0.270139545,0.132602185,-0.013485085,-0.595584869,0.267979234,0.510691106,-0.508218467,-0.483799249,-0.49683696
3842840,9.215246201,-0.247791827,3.442882776,0.628286004,0.072118968,0.140709773,0.662885249,-0.351679355,-0.448588878,-0.485461593,9.877263069,-0.282824337,0.123103775,-0.024075937,-0.508066237,0.463032782,0.510667086,-0.508262038,-0.4838278,-0.496789396
3843006,9.205426216,-0.258395284,3.457559347,0.560079277,0.034570739,0.26024422,0.662903666,-0.351648897,-0.448588848,-0.485458523,9.882966995,-0.274155617,0.112092644,0.048286341,-0.298720896,0.558529735,0.510664344,-0.508296788,-0.483834147,-0.496750295
3843173,9.186429024,-0.277306259,3.479317188,0.54828465,-0.185333505,0.361299127,0.662886798,-0.351666719,-0.448584199,-0.485472858,9.886404037,-0.258702844,0.131561518,-0.006083016,-0.101810478,0.442273676,0.510661721,-0.508313954,-0.483830065,-0.496739417
3843340,9.181583405,-0.269978702,3.476348877,0.542893171,0.036389239,0.149789467,0.662893295,-0.35163343,-0.448585898,-0.485486507,9.880077362,-0.24676545,0.12881498,-0.083689496,0.200092793,0.358148754,0.510698378,-0.508279443,-0.483836234,-0.496731013
3843506,9.185094833,-0.243167788,3.484223604,0.422744006,-0.010232273,0.137597829,0.662888944,-0.351614505,-0.448583752,-0.485508204,9.889736176,-0.263909787,0.124852546,-0.164215833,0.442901194,0.266442508,0.510727584,-0.50823766,-0.483814001,-0.496765375
3843673,9.178371429,-0.255738169,3.483955383,0.497802079,-0.352507621,0.245516941,0.662858009,-0.351633489,-0.448602974,-0.485518903,9.859428406,-0.261048824,0.136285678,-0.124144748,0.656434298,0.234593093,0.510795474,-0.508152246,-0.483806193,-0.496790528
3843840,9.18970871,-0.252855748,3.499594212,0.55178076,-0.268907756,0.242673934,0.662844419,-0.351632774,-0.448624462,-0.485518128,9.84177494,-0.238568887,0.134286538,-0.120379686,0.66259408,0.175235689,0.510822892,-0.508097172,-0.483764976,-0.496858835
3844006,9.189429283,-0.242910311,3.490153074,0.56191057,-0.388647109,0.111075871,0.662788451,-0.351654291,-0.44864592,-0.485559136,9.827163696,-0.231419951,0.138985723,-0.29389289,0.463096797,0.19963178,0.510852337,-0.508043885,-0.483753532,-0.49689424
3844173,9.200873375,-0.245785579,3.470451593,0.460279405,-0.451897651,0.108668275,0.662732899,-0.351680368,-0.448673576,-0.485590518,9.824996948,-0.234727949,0.163135841,-0.39439711,0.305309772,0.206752092,0.510859847,-0.508012831,-0.483743131,-0.496928543
3844340,9.195941925,-0.246454328,3.4538939,0.246989653,-0.298003733,0.182765812,0.662729084,-0.351677001,-0.448702365,-0.485571593,9.811367989,-0.232879013,0.142243981,-0.592140019,0.106670499,0.412806273,0.510832489,-0.508044958,-0.483696669,-0.496969104
3844506,9.198137283,-0.258488268,3.454187155,0.182330415,-0.153432876,0.202321112,0.662708879,-0.351692766,-0.448694289,-0.485595107,9.817407608,-0.223899424,0.142551616,-0.625462055,-0.256652057,0.481909335,0.510795772,-0.508096397,-0.483684987,-0.496965438
3844673,9.18707943,-0.236630484,3.445261002,0.200144023,0.002657317,0.32311058,0.66268754,-0.351722956,-0.448651046,-0.485642314,9.831236839,-0.2335722,0.161292851,-0.709254026,-0.391323626,0.461918592,0.510718644,-0.508184135,-0.483655691,-0.496983528
3844840,9.201817513,-0.243761435,3.466253281,0.207072243,0.105056889,0.31622076,0.662680686,-0.351736933,-0.448605001,-0.485684186,9.846962929,-0.258257508,0.180763707,-0.736710846,-0.549149096,0.306423932,0.510616064,-0.508274496,-0.483647466,-0.497004509
3845006,9.181036949,-0.24319616,3.450629234,0.362605423,0.175171643,0.383876741,0.662692368,-0.351733476,-0.448561072,-0.485711306,9.867757797,-0.292783707,0.157642633,-0.500254393,-0.551915228,0.214794502,0.510535002,-0.508329749,-0.483675092,-0.49700436
3845173,9.182084084,-0.244855762,3.449584484,0.533480525,0.307614952,0.407376379,0.662710071,-0.351717621,-0.448505729,-0.485749662,9.892962456,-0.285928488,0.160471573,-0.156173453,-0.61754781,0.142758787,0.510489225,-0.508339822,-0.483758539,-0.496959865
3845340,9.186890602,-0.25618875,3.473419905,0.636366725,0.228446051,0.431413889,0.662736833,-0.35169208,-0.448469698,-0.48576498,9.912556648,-0.273161441,0.150164947,0.134306595,-0.463256955,0.198658526,0.510464072,-0.508335948,-0.483831078,-0.496919006
3845506,9.185552597,-0.24696967,3.48581624,0.750548065,0.037516199,0.433706224,0.662736356,-0.351687878,-0.448444873,-0.485791534,9.88850975,-0.254597336,0.173088431,0.311802596,-0.275797546,0.210619628,0.510452688,-0.508318722,-0.483888149,-0.496892691
3845673,9.182938576,-0.255115896,3.51141715,0.6878739,-0.12930572,0.317091644,0.662729561,-0.351678818,-0.448449433,-0.485803157,9.86244297,-0.232181683,0.167691931,0.454657406,-0.107880682,0.315554827,0.510492206,-0.508265138,-0.483957767,-0.496839166
3845840,9.171422958,-0.264542162,3.534597635,0.685107708,-0.295557737,0.400217623,0.662719429,-0.351685464,-0.448466331,-0.48579663,9.88353157,-0.211228684,0.17189756,0.299508482,0.104967244,0.324186325,0.510530412,-0.508212745,-0.483994722,-0.496817648
3846006,9.166671753,-0.254284084,3.497942209,0.544686019,-0.509090781,0.388768733,0.6627177,-0.351691812,-0.448515952,-0.48574844,9.842587471,-0.218044937,0.156115755,0.217227697,0.226102501,0.544622004,0.510585845,-0.508173108,-0.484000146,-0.496795863
3846173,9.164438248,-0.247098252,3.488379478,0.529420853,-0.696716607,0.376116097,0.662676871,-0.351734787,-0.448564649,-0.485728025,9.832595825,-0.227443203,0.138216838,0.112919986,0.110576421,0.668164849,0.510632157,-0.508159518,-0.483996212,-0.49676609
3846340,9.173270226,-0.250403315,3.470024824,0.62599355,-0.821347952,0.414304614,0.662641525,-0.351774424,-0.448634148,-0.485683501,9.833418846,-0.226584911,0.143838629,0.069468044,0.084489889,0.768464148,0.510673761,-0.50816381,-0.483977467,-0.496737123
3846506,9.18825531,-0.245881498,3.446846962,0.557569146,-0.905921161,0.446333289,0.662577033,-0.351848572,-0.448689193,-0.485666931,9.842784882,-0.234710082,0.153322682,0.048747368,-0.039033752,0.815655589,0.510710835,-0.508178771,-0.483966291,-0.496694565
3846673,9.178336143,-0.245859504,3.474854231,0.523670852,-0.843400538,0.43962276,0.662533879,-0.351903021,-0.448750645,-0.485629588,9.867202759,-0.250838757,0.14266564,0.038374223,-0.080308616,0.777838469,0.510744452,-0.508191228,-0.483964115,-0.496649384
3846840,9.194163322,-0.239176467,3.461193085,0.486929417,-0.838009059,0.395056665,0.662519038,-0.351926506,-0.44883579,-0.485554159,9.860539436,-0.226978287,0.137766302,0.069058239,-0.202391535,0.753531933,0.510755241,-0.508222044,-0.48396039,-0.496610373
3847006,9.185373306,-0.242992967,3.47308135,0.2636123,-0.695986688,0.551217318,0.66251117,-0.351973623,-0.448881775,-0.485488027,9.852683067,-0.226234451,0.127441719,-0.015521296,-0.293854505,0.703612864,0.510760725,-0.508250594,-0.483973682,-0.496562392
3847173,9.198317528,-0.232652843,3.477814436,0.355139256,-0.750259876,0.529369652,0.662471771,-0.352042735,-0.448917657,-0.485458523,9.867090225,-0.206339836,0.158058703,-0.121954858,-0.356887311,0.870684445,0.510740161,-0.508327782,-0.483945578,-0.496532142
3847340,9.187760353,-0.234351084,3.489519358,0.348812938,-0.71012491,0.517024398,0.662436426,-0.352106005,-0.4489519,-0.485429287,9.826010704,-0.212117702,0.141138256,-0.22292012,-0.33953473,0.98070389,0.510729134,-0.508410215,-0.483909965,-0.496493906
3847506,9.198402405,-0.262168914,3.467068911,0.339246601,-0.716758549,0.543917656,0.662406683,-0.352167428,-0.44898805,-0.485391915,9.833316803,-0.227639139,0.13283053,-0.422712028,-0.620147467,1.006508708,0.510715783,-0.508498728,-0.48391223,-0.496414572
3847673,9.21860981,-0.234489366,3.431330442,0.282347977,-0.653482437,0.542060733,0.662372291,-0.352234751,-0.449009985,-0.485369623,9.845046997,-0.252983481,0.139986098,-0.414861709,-0.684755564,1.060128927,0.510676622,-0.508619308,-0.483889848,-0.496353149
3847840,9.190773964,-0.242005527,3.435361862,0.343306243,-0.517799139,0.48549509,0.66236347,-0.35226652,-0.44903931,-0.485331476,9.857952118,-0.284899771,0.11581596,-0.241899133,-0.659706295,1.179138303,0.510668814,-0.508724988,-0.483878523,-0.496263951
3848006,9.193063736,-0.250918806,3.423425913,0.162160411,-0.605689108,0.641438127,0.6623559,-0.352326602,-0.449060738,-0.485278368,9.811441422,-0.265980184,0.1271092,-0.078554146,-0.7191149,0.888229191,0.510644495,-0.508805275,-0.483902186,-0.496183634
3848173,9.193671227,-0.238679647,3.419515848,0.435499102,-0.257894248,0.489823669,0.662342548,-0.352355152,-0.449052513,-0.485283434,9.829823494,-0.27926749,0.096715577,0.119656123,-0.585672796,0.785086811,0.510642767,-0.508847356,-0.483944833,-0.496100664
3848340,9.198095322,-0.269220233,3.407377481,0.704137921,-0.504019439,0.533582926,0.662351906,-0.352357477,-0.449101359,-0.4852238,9.878480911,-0.269530147,0.080723494,0.21544762,-0.665584445,0.877138853,0.51065135,-0.508892,-0.483996749,-0.495995343
3848506,9.207062721,-0.227854118,3.394720078,0.730531812,-0.272544712,0.704611719,0.662359297,-0.352380425,-0.449098617,-0.48519969,9.918514252,-0.23966217,0.089064725,0.279312938,-0.546715856,0.888229311,0.510659039,-0.508937955,-0.484029084,-0.495908648
3848673,9.255535126,-0.221710548,3.429400444,0.448369473,0.373477966,0.577559948,0.66237992,-0.352381259,-0.449016958,-0.485246539,9.933131218,-0.209562257,0.090882331,-0.15435493,-0.180031657,0.430773586,0.510625184,-0.508958876,-0.48403579,-0.495915413
3848840,9.249162674,-0.239520058,3.468652964,0.211452052,-0.266730636,0.209236532,0.662346184,-0.352401137,-0.449019283,-0.485276014,9.901341438,-0.225064874,0.093039028,-0.395549744,0.194598898,0.374937892,0.510617077,-0.508944809,-0.484025598,-0.495948225
3849006,9.215267181,-0.226924375,3.479202509,0.322278172,-0.46306479,0.429198384,0.662334621,-0.352425784,-0.449047148,-0.48524797,9.881467819,-0.251545161,0.118111022,-0.486410767,0.499927849,0.806165993,0.510631323,-0.508967876,-0.483930647,-0.496002585
3849173,9.179027557,-0.247234225,3.502638817,0.341897517,-0.348473549,0.747935593,0.662331879,-0.35248208,-0.449032098,-0.485224754,9.87352562,-0.252401978,0.119167626,-0.443112522,0.755926847,0.814208567,0.510681152,-0.508955598,-0.483834863,-0.496057361
3849340,9.168600082,-0.259897053,3.472032309,0.273255497,-0.445379257,0.709721506,0.662332356,-0.352533519,-0.449035376,-0.485183656,9.839900017,-0.256555825,0.129963562,-0.526148915,0.975273967,0.650799513,0.51073885,-0.508911252,-0.483740777,-0.496135265
3849506,9.210575104,-0.257268786,3.454276562,0.272179723,-0.303472072,0.496700644,0.662326932,-0.352560788,-0.449035615,-0.485171199,9.817786217,-0.266484737,0.117550142,-0.564503908,1.059296489,0.276508301,0.510762095,-0.508846939,-0.483654737,-0.496261239
3849673,9.16720295,-0.237288505,3.449133873,0.280862451,-0.498307884,0.526296198,0.662300825,-0.352612555,-0.449045897,-0.485159665,9.824356079,-0.257907987,0.098260865,-0.466125578,1.081105709,0.373862177,0.5108006,-0.508780539,-0.483567327,-0.496374846
3849840,9.15993309,-0.254059583,3.443759203,0.377844989,-0.516608179,0.602365971,0.662308872,-0.352637768,-0.449079454,-0.485099316,9.856533051,-0.252533376,0.107944407,-0.439270616,1.175795794,0.427520812,0.510837018,-0.508722603,-0.483456254,-0.496504724
3850006,9.170201302,-0.26087448,3.462907553,0.477170944,-0.438258886,0.629271984,0.662307262,-0.352669328,-0.44909507,-0.485064119,9.887929916,-0.251160473,0.143944025,-0.366197616,1.379006982,0.524938703,0.510928333,-0.508623242,-0.483359218,-0.496606946
3850173,9.196185112,-0.256460547,3.441856384,0.349312425,-0.125438198,0.605362535,0.662325144,-0.352682799,-0.449077785,-0.485046089,9.915395737,-0.250632167,0.141691327,-0.3806431,1.611467838,0.52315855,0.511034787,-0.50850749,-0.483244956,-0.496727467
3850340,9.185102463,-0.26110962,3.484960318,0.341910273,0.068955787,0.580761552,0.662330508,-0.352702856,-0.449025333,-0.485072613,9.903892517,-0.256669313,0.159863219,-0.335436702,1.877814054,0.529625773,0.511142492,-0.508389473,-0.483091563,-0.496886522
3850506,9.210111618,-0.254822582,3.477701187,0.256888986,0.116211228,0.592466533,0.6623649,-0.352700919,-0.448983431,-0.485065669,9.915094376,-0.256469131,0.1632514,-0.359807223,2.162806988,0.480590314,0.511258364,-0.508254826,-0.48291263,-0.497078806
3850673,9.214363098,-0.25813064,3.491776705,0.167270124,0.02777057,0.48529017,0.662385166,-0.352703601,-0.448951602,-0.48506555,9.877809525,-0.248515084,0.164346665,-0.293380678,2.376839399,0.312660605,0.511383355,-0.508085966,-0.482737064,-0.497293323
3850840,9.207431793,-0.25369972,3.485443115,0.067649543,-0.054132439,0.448126167,0.662370801,-0.3527385,-0.448906511,-0.48510167,9.760950089,-0.266231745,0.164263695,-0.237288862,2.363969088,0.564689636,0.51153785,-0.507922888,-0.482557267,-0.497475535
3851006,9.181804657,-0.266216606,3.491340637,0.103814662,-0.337703407,0.578456342,0.662367225,-0.352780491,-0.448898524,-0.485083193,9.809675217,-0.267652363,0.154271454,-0.200534642,1.887585282,0.823416233,0.511651337,-0.507837296,-0.482366145,-0.497631639
3851173,9.199225426,-0.279729694,3.404229403,0.231596455,-0.80523777,0.59286356,0.662345529,-0.352839917,-0.448946804,-0.485025108,9.782521248,-0.237383172,0.167754158,-0.041300476,1.591758728,0.757975757,0.51178515,-0.507723153,-0.482250601,-0.497722566
3851340,9.194636345,-0.252676934,3.43541193,-0.026009696,0.547375381,0.4338983,0.662365735,-0.352838814,-0.448838443,-0.485098571,9.824159622,-0.226563334,0.15765889,-0.381744504,1.277414203,0.29904747,0.511824608,-0.50763756,-0.482153714,-0.497863173
3851507,9.217860222,-0.262536526,3.400615454,0.068904564,-0.056975443,0.155347422,0.662328243,-0.352856547,-0.448806584,-0.485166371,9.87862587,-0.241453573,0.164403483,-0.476037681,1.26322484,0.490067035,0.511879265,-0.507563472,-0.482047945,-0.497984767
3851673,9.199193001,-0.258553624,3.43157506,0.488056362,0.650645792,0.353922665,0.662391841,-0.352777958,-0.448741525,-0.485196859,9.879514694,-0.272542,0.18248868,-0.453472853,1.434176922,0.575536609,0.511944711,-0.507489264,-0.481916368,-0.498120457
3851840,9.190716743,-0.283841312,3.441295147,0.432579249,0.548079729,0.605759501,0.662442744,-0.352747917,-0.448653758,-0.485230297,9.910258293,-0.247857347,0.163565964,-0.499857366,1.804100633,0.649531603,0.512048125,-0.507386744,-0.481759667,-0.498270154
3852007,9.215407372,-0.27806443,3.452445507,0.322291017,0.402599633,0.522620738,0.662501395,-0.352705628,-0.448598802,-0.485231787,9.903530121,-0.253309935,0.186583057,-0.535484791,2.060753107,0.430837631,0.512149155,-0.507254064,-0.481596529,-0.498458922
3852173,9.205304146,-0.252873629,3.469872236,0.203870669,0.665475547,0.283769488,0.662538767,-0.352655649,-0.448510349,-0.485298872,9.878725052,-0.262200624,0.155064225,-0.610798836,2.392578363,0.174851507,0.512235522,-0.507097542,-0.481408149,-0.498711467
3852340,9.195226669,-0.259611189,3.488776207,0.162480563,0.599599659,0.300046355,0.662555754,-0.352629453,-0.448412836,-0.485384852,9.879858971,-0.257836223,0.182180643,-0.49295488,2.669221163,0.24193117,0.512349129,-0.506921411,-0.481197834,-0.498976648
3852507,9.197086334,-0.271595061,3.468062878,0.1720469,0.468693256,0.27842927,0.662571013,-0.352602124,-0.448335767,-0.485455036,9.877222061,-0.250029296,0.182458505,-0.553221524,2.887876749,0.065421239,0.512467027,-0.506715238,-0.4809874,-0.499268055
3852673,9.193714142,-0.266171038,3.441548824,0.24754034,0.888856649,0.258809865,0.662603438,-0.352548718,-0.448214591,-0.48556155,9.878634453,-0.252865404,0.15958716,-0.596186757,3.29403019,-0.099313244,0.512597322,-0.506470978,-0.480755866,-0.499604762
3852840,9.212340355,-0.245278955,3.485277653,0.25441736,1.100443006,0.063128896,0.662664592,-0.352439761,-0.448105633,-0.485657662,9.928091049,-0.242400452,0.176891074,-0.676111341,3.915523052,-0.266717911,0.512749553,-0.506178617,-0.480482191,-0.500008345
3853007,9.182601929,-0.26836893,3.479305267,0.324967563,1.191457987,0.131604463,0.662741661,-0.352320015,-0.447990716,-0.4857454,9.901334763,-0.232725248,0.211874649,-0.713364959,4.574179173,-0.475551069,0.5129444,-0.505811751,-0.48018831,-0.500461757
3853173,9.193956375,-0.257808208,3.492304087,0.136240363,1.253171802,0.142925277,0.662814021,-0.352214843,-0.447855651,-0.485847324,9.90236187,-0.255824298,0.214137748,-0.671091199,5.045977592,-0.494427592,0.513171792,-0.505406976,-0.479862452,-0.50094974
3853340,9.194153786,-0.25121358,3.461935759,0.122896127,1.500244617,0.089023337,0.662893295,-0.352094501,-0.447694778,-0.485974789,9.884150505,-0.228283763,0.247018546,-0.794787765,5.411726475,-0.67010504,0.513395071,-0.504978776,-0.479506314,-0.501493454
3853507,9.182396889,-0.246988595,3.485234737,0.155501097,1.583229899,0.07670363,0.662979484,-0.351963341,-0.447529614,-0.48610431,9.897241592,-0.233737737,0.270003527,-0.860702038,5.753515244,-0.758596957,0.513624668,-0.504528761,-0.47912094,-0.502079248
3853673,9.1977005,-0.254202187,3.493875265,0.166476145,1.76980567,-0.007222782,0.663084447,-0.351800621,-0.447360873,-0.486234277,9.898940086,-0.22162877,0.315268695,-0.841633379,6.012741566,-0.701634288,0.513869643,-0.504068613,-0.47870627,-0.502686083
3853840,9.199923515,-0.253022045,3.500353098,0.176938936,2.104409933,0.150826782,0.66317302,-0.351669073,-0.447115272,-0.486434311,9.86654377,-0.223148465,0.329507738,-0.788999379,6.304624557,-0.739515603,0.514144003,-0.503571749,-0.478285015,-0.503304124
3854007,9.177587509,-0.252958328,3.473531723,0.093979403,2.300743818,0.054920033,0.663289547,-0.351501226,-0.446869314,-0.48662287,9.869303703,-0.224383801,0.344247609,-0.813305736,6.351149559,-0.694398761,0.514428377,-0.503070176,-0.477861047,-0.503917456
3854173,9.187396049,-0.254218549,3.514653206,0.198133439,2.440051556,0.107195556,0.663437307,-0.351303935,-0.446625113,-0.486788064,9.842320442,-0.213596269,0.37308985,-0.614179909,6.353404999,-0.613705993,0.514735639,-0.502555966,-0.477448285,-0.50450778
3854340,9.157364845,-0.252023757,3.537158251,0.008202468,2.359064102,0.250818759,0.663600445,-0.351121336,-0.44638297,-0.486919373,9.842582703,-0.214653075,0.414154798,-0.5065552,6.249864578,-0.551556766,0.515042305,-0.502049267,-0.477041721,-0.505083203
3854507,9.164531708,-0.267454803,3.552985668,0.243263036,2.360652208,0.208340108,0.663746297,-0.350937665,-0.446139038,-0.487076521,9.84115696,-0.216694742,0.4260858,-0.414490372,6.201981544,-0.429653049,0.51535219,-0.501553953,-0.476628155,-0.505649388
3854673,9.152024269,-0.246695131,3.556650639,0.256427944,2.265257597,0.195252016,0.663884163,-0.350759685,-0.445904553,-0.487231493,9.828905106,-0.19463183,0.446446449,-0.130855307,5.956880569,-0.542105675,0.515655696,-0.501048446,-0.476260513,-0.50618732
3854840,9.129584312,-0.264195293,3.545054436,0.445821077,2.171425581,0.246285334,0.664029598,-0.350572377,-0.445690244,-0.487364233,9.815529823,-0.176981419,0.465307564,-0.134594753,5.801923752,-0.421264917,0.515963614,-0.500555634,-0.47590223,-0.506697893
3855007,9.161437035,-0.262926996,3.534068584,0.389537126,2.029236317,0.311354369,0.664163172,-0.350408435,-0.445478976,-0.487493187,9.836549759,-0.169537559,0.497942001,-0.138090864,5.560229301,-0.377659261,0.516246736,-0.500092149,-0.475548714,-0.50719893
3855173,9.148373604,-0.25488928,3.552456856,0.498378307,2.112323999,0.308511376,0.664310753,-0.350225359,-0.445269614,-0.487615019,9.844561577,-0.17116566,0.497494549,-0.222497538,5.393541813,-0.296505421,0.516536772,-0.499635935,-0.475213081,-0.507667482
3855340,9.161222458,-0.262459338,3.553659201,0.497136116,2.051071405,0.374771446,0.664438486,-0.35006839,-0.445048064,-0.487755775,9.870060921,-0.160145864,0.509143949,-0.228939146,5.310851097,-0.13940993,0.516819417,-0.499206036,-0.474861205,-0.508131683
3855507,9.1456604,-0.240292415,3.572525263,0.43739447,1.964013696,0.359339744,0.664582193,-0.349899888,-0.444849998,-0.487861872,9.849740028,-0.149735481,0.510794222,-0.383793533,5.297263622,0.024991594,0.517100811,-0.49879995,-0.474486351,-0.508594215
3855673,9.154202461,-0.24444674,3.585302591,0.331626832,1.944637656,0.361440003,0.664711893,-0.349748641,-0.444641203,-0.487984091,9.852782249,-0.15568237,0.514053524,-0.375085175,5.34508276,-0.019837037,0.517370582,-0.498394907,-0.474102139,-0.509074986
3855840,9.139486313,-0.254546165,3.579499722,0.399321109,1.889890313,0.497507423,0.664860845,-0.349594891,-0.444442302,-0.488072306,9.839457512,-0.172575414,0.540961266,-0.383908778,5.266746521,0.037298497,0.517654181,-0.497986525,-0.473733217,-0.509529591
3856007,9.150537491,-0.253418207,3.604269981,0.428417176,1.780345082,0.496675044,0.665005445,-0.349444866,-0.444256812,-0.48815167,9.877579689,-0.17746532,0.542450905,-0.433341295,5.406412601,0.109884903,0.517934859,-0.497586608,-0.473333359,-0.510006428
3856173,9.154698372,-0.24394156,3.594536066,0.399743855,1.710614681,0.436037034,0.665135801,-0.349301457,-0.444076329,-0.488240987,9.868328094,-0.206332803,0.558058023,-0.310425967,5.633763313,-0.06396772,0.518221378,-0.497151643,-0.472934335,-0.510509729
3856340,9.147074699,-0.252606779,3.61732173,0.403291166,2.025509834,0.477670461,0.665295362,-0.349132508,-0.443867743,-0.488333851,9.859272957,-0.194255367,0.579105318,-0.076658808,5.81417942,-0.022372693,0.518552065,-0.496679097,-0.472545385,-0.510993779
3856507,9.118534088,-0.260703385,3.606486797,0.319985837,1.716172218,0.551242828,0.665426254,-0.349006951,-0.44367218,-0.488423139,9.838477135,-0.163040832,0.58364898,-0.047818918,5.978722572,-0.227799371,0.518878222,-0.496179104,-0.472159207,-0.511505246
3856673,9.124419212,-0.234652221,3.597540855,0.358238369,1.76685977,0.401690304,0.665554464,-0.348862112,-0.443483502,-0.488523215,9.854759216,-0.15555115,0.57971698,-0.145633832,6.020579815,-0.410238653,0.519177675,-0.495675802,-0.471769691,-0.512048244
3856840,9.125421524,-0.235937893,3.61593771,0.546773434,1.650296688,0.416328043,0.66568166,-0.348711491,-0.443315953,-0.488609582,9.875525475,-0.157698676,0.596409202,-0.181581259,6.238005638,-0.2802414,0.519501388,-0.495164633,-0.471354783,-0.51259619
3857007,9.136548042,-0.235252932,3.588569641,0.56102699,1.884499192,0.568966866,0.665846765,-0.348542809,-0.443126738,-0.488676518,9.907003403,-0.146707684,0.619173527,-0.361408025,6.464793205,-0.3327218,0.519840896,-0.494633734,-0.470926285,-0.513158262
3857173,9.182713509,-0.225992694,3.598162889,0.096143663,2.498832703,0.456155777,0.666035175,-0.348355114,-0.442861468,-0.488794029,9.917711258,-0.117301397,0.652739942,-0.672231019,6.805903435,-0.61073488,0.520163596,-0.494078189,-0.470471829,-0.513782918
3857340,9.169202805,-0.236502498,3.651479483,-0.084509097,2.580319643,0.199183568,0.666180372,-0.348179519,-0.442574769,-0.488980919,9.92031765,-0.140193939,0.696591139,-0.89211607,7.309064865,-0.7342906,0.520487547,-0.493497223,-0.46996671,-0.514475167
3857507,9.120894432,-0.2677899,3.636744499,0.369879365,2.407318592,0.244735733,0.666329086,-0.347983748,-0.442327321,-0.489141583,9.9057827,-0.151623473,0.707232714,-0.938795209,7.720085144,-0.670860827,0.520831883,-0.492898583,-0.469415724,-0.515203238
3857673,9.109905243,-0.248225257,3.684879065,0.334252149,2.480839491,0.505409002,0.666502953,-0.347800195,-0.44205898,-0.489277601,9.856444359,-0.166628316,0.707514286,-0.850418568,8.036439896,-0.496066839,0.521225393,-0.492274553,-0.468840599,-0.515925109
3857840,9.10504818,-0.264768004,3.700826168,0.18472518,1.861447453,0.531661928,0.666641533,-0.347669333,-0.441844642,-0.48937574,9.831707954,-0.146334901,0.738634288,-0.805826962,8.175709724,-0.510794222,0.521630824,-0.49163419,-0.468259543,-0.516653001
3858007,9.098481178,-0.265264302,3.658639431,-0.003905937,1.626156688,0.299277961,0.666741967,-0.347555459,-0.441653162,-0.489492416,9.797336578,-0.166648388,0.763758361,-0.729104161,8.20129776,-0.714799404,0.522027731,-0.490970641,-0.467697322,-0.517391801
3858173,9.097114563,-0.255941927,3.659828186,0.10688819,1.493956685,0.207430854,0.666837931,-0.347430766,-0.441489846,-0.489597708,9.827972412,-0.165487692,0.780320644,-0.66909349,8.135651588,-0.83056885,0.52241087,-0.490301996,-0.467149079,-0.518134236
3858340,9.10488987,-0.263990313,3.640513659,0.302095413,1.586841106,0.300520182,0.666932762,-0.347304344,-0.441311568,-0.489718854,9.828632355,-0.166115582,0.797294259,-0.494414836,8.135421753,-0.843938708,0.522802293,-0.489620179,-0.466612399,-0.518866956
3858507,9.092947006,-0.251266807,3.665688515,0.410834134,1.775747657,0.295231193,0.667044163,-0.347153604,-0.441123039,-0.489843994,9.835130692,-0.138429418,0.836890996,-0.440871477,8.04491806,-0.68168211,0.523206592,-0.488948643,-0.466077775,-0.519572914
3858673,9.100681305,-0.252756417,3.653451204,0.458179235,1.653395891,0.36763832,0.667170525,-0.346999705,-0.440955609,-0.489931583,9.847072601,-0.13347204,0.856328189,-0.518144965,8.063820839,-0.613629103,0.523610294,-0.488285661,-0.465530097,-0.520280123
3858840,9.113197327,-0.257206827,3.660406113,0.178936705,1.982250094,0.285088539,0.667293668,-0.346846819,-0.440738171,-0.49006781,9.852379799,-0.110689722,0.893864274,-0.369309574,7.954133511,-0.690262437,0.524005532,-0.487617403,-0.465003103,-0.520979524
3859007,9.119716644,-0.25282985,3.680745125,-0.028506933,1.775184155,0.33108893,0.667396784,-0.346731901,-0.440523714,-0.490201682,9.850274086,-0.128552973,0.881631911,-0.521922886,7.987725258,-0.731281102,0.524393022,-0.486950874,-0.46446839,-0.521689594
3859173,9.132694244,-0.270120531,3.673674822,0.258912385,1.774595261,0.231276259,0.667525947,-0.346568376,-0.44034645,-0.490300655,9.875796318,-0.104893655,0.910353243,-0.553247273,8.08881855,-0.740924358,0.524783254,-0.486277878,-0.463923752,-0.522409379
3859340,9.132752419,-0.255431175,3.703459501,0.275509417,2.072560549,0.428340405,0.667650223,-0.346423656,-0.440107852,-0.49044767,9.806436539,-0.131475642,0.919829786,-0.647668481,8.223132133,-0.657094002,0.52518785,-0.485600978,-0.463361084,-0.523130894
3859507,9.051440239,-0.259267241,3.708182335,0.251062095,1.652794003,0.488376558,0.667793572,-0.346283704,-0.439930946,-0.490510076,9.847877502,-0.141476005,0.941462994,-0.579846025,8.224604607,-0.388672799,0.525616884,-0.484936386,-0.462784231,-0.523826718
3859673,9.124919891,-0.268783987,3.620366335,0.237961203,1.152436972,0.361119837,0.667862773,-0.346195966,-0.43978861,-0.490605414,9.830517769,-0.113937363,0.979093969,-0.599644601,8.453799248,-0.44829914,0.52605474,-0.484251112,-0.462192178,-0.524543583
3859840,9.106572151,-0.231610626,3.71817565,-0.197051316,3.031000376,0.176375464,0.668007553,-0.346011102,-0.439437211,-0.490853667,9.845286369,-0.10421472,0.967856407,-0.687893152,8.536478043,-0.983899355,0.526449919,-0.483529359,-0.461624235,-0.525312304
3860007,9.111326218,-0.256700397,3.685996771,-0.130970538,2.067053795,-0.157505289,0.668085635,-0.34585622,-0.439209789,-0.491060048,9.851044655,-0.129783586,1.006665826,-0.806813121,8.87416935,-1.130211949,0.526847124,-0.482780457,-0.461031318,-0.526123047
3860173,9.077425957,-0.242089108,3.682338953,0.185583204,2.67205143,-0.100517042,0.66822958,-0.345625758,-0.438947707,-0.491260737,9.8741436,-0.121546753,1.017512202,-0.820707977,9.177372932,-1.218588591,0.527255833,-0.482002735,-0.460419714,-0.526961625
3860340,9.08234024,-0.244021878,3.748109102,0.219520032,2.771582365,0.219545662,0.668414533,-0.345398962,-0.438667715,-0.491418719,9.884870529,-0.093241721,1.043057919,-0.874801993,9.783086777,-1.186431885,0.52770251,-0.481184095,-0.459754616,-0.527842522
3860507,9.113372803,-0.24817121,3.709348202,0.022840124,2.442625523,0.199337244,0.668571472,-0.345209479,-0.438409418,-0.491568774,9.891060829,-0.081868306,1.09177649,-0.911146402,10.39660072,-1.186534286,0.528186321,-0.480320185,-0.459039152,-0.528767407
3860673,9.101789474,-0.263872504,3.748674154,-0.383255601,3.211326599,-0.193401486,0.668720126,-0.344984919,-0.438062608,-0.491833299,9.867702484,-0.08378832,1.109674811,-1.063426852,10.95787811,-1.46354866,0.528674185,-0.479405075,-0.458287567,-0.529761612
3860840,9.043005943,-0.247303322,3.779518604,-0.774195075,3.576384544,-0.40605095,0.668859661,-0.344757974,-0.437663525,-0.492157966,9.846219063,-0.080732502,1.134639502,-1.123501539,11.40302849,-1.563156605,0.529178083,-0.478452295,-0.45750311,-0.530796826
3861007,9.05825901,-0.248659432,3.793684721,-0.649550855,3.175686598,-0.506209373,0.668941021,-0.344560832,-0.437300563,-0.492508113,9.817457199,-0.077974454,1.172237635,-1.184946537,11.63780785,-1.680693269,0.529682457,-0.477476954,-0.456703007,-0.531859815
3861173,9.077170372,-0.258640558,3.741338968,-0.422801614,3.19648385,-0.49743703,0.669059992,-0.344324678,-0.436964095,-0.492809981,9.814658165,-0.06387911,1.235067844,-1.244867444,11.78913975,-1.848341465,0.53017807,-0.476482064,-0.455897391,-0.532948315
3861340,9.101056099,-0.234419107,3.756144524,-0.533384442,3.301086187,-0.551364601,0.669167459,-0.344093412,-0.436607957,-0.493141234,9.79199791,-0.068633869,1.239361048,-1.099835515,11.92669296,-1.884199023,0.530688345,-0.475461245,-0.455093592,-0.534037709
3861507,9.100766182,-0.235318765,3.759224653,-0.449759036,3.574860811,-0.50647831,0.669304609,-0.343834728,-0.436231107,-0.493469059,9.799711227,-0.053994212,1.277760625,-1.143978953,12.05771446,-1.898311734,0.531201482,-0.474431455,-0.454276204,-0.535138547
3861673,9.070538521,-0.242011875,3.771390915,-0.404949665,3.8184762,-0.254180491,0.669462085,-0.343579471,-0.435813665,-0.49380219,9.801826477,-0.041860875,1.337504506,-1.236210465,12.10022163,-2.007588863,0.531700492,-0.473396599,-0.453454584,-0.536254942
3861840,9.041257858,-0.232121646,3.817323446,-0.442190528,3.866282463,-0.282136738,0.669638634,-0.343310714,-0.435399771,-0.49411428,9.800498962,-0.037434138,1.366486788,-1.215758801,12.13623333,-2.064064741,0.532197177,-0.472351909,-0.452634484,-0.537374973
3862007,9.06997776,-0.239944503,3.799168587,-0.72514689,3.840118408,-0.385227889,0.669778049,-0.343071431,-0.43496725,-0.494472355,9.789463997,-0.015168908,1.416563153,-1.197676182,12.22059917,-2.107081175,0.532695532,-0.47129494,-0.451811045,-0.538501143
3862173,9.06474781,-0.224700525,3.81991744,-0.475333363,3.965441704,-0.255960554,0.669964373,-0.342798501,-0.434541076,-0.494783938,9.78646183,-0.022787318,1.430167437,-1.287948012,12.23530102,-2.185903788,0.533180535,-0.470236838,-0.450983524,-0.539638579
3862340,9.056628227,-0.233773202,3.830760956,-0.317431033,3.953429699,-0.181043416,0.670153916,-0.342518955,-0.434120566,-0.495089769,9.810835838,0.002396614,1.457505465,-1.310449004,12.417346,-2.191910505,0.533673644,-0.469164163,-0.450139254,-0.540788472
3862507,9.046934128,-0.245459512,3.840285301,-0.475576699,4.508623123,-0.220589414,0.670358241,-0.342217654,-0.433632046,-0.495449513,9.792503357,-0.003429997,1.500341296,-1.446081161,12.69113255,-2.156847,0.534176111,-0.468081027,-0.4492594,-0.541961253
3862673,9.019633293,-0.248798624,3.861594677,-0.496156424,4.865702152,-0.156173438,0.670585215,-0.341897666,-0.433103025,-0.495826006,9.798632622,0.014315676,1.561117053,-1.548455238,12.91010857,-2.172150135,0.534682631,-0.466985881,-0.448354185,-0.543154776
3862840,9.028108597,-0.247053802,3.871019363,-0.398482382,4.503538609,-0.134735614,0.670806468,-0.341590285,-0.432619244,-0.496160746,9.792938232,0.016499015,1.555260062,-1.485166192,13.16532707,-2.122512817,0.53521204,-0.465866894,-0.44742924,-0.544355631
3863007,9.021883965,-0.239158943,3.890269279,-0.441332519,4.609063625,-0.073905461,0.671027362,-0.341287702,-0.432115078,-0.496509492,9.775310516,0.008394381,1.598991871,-1.507525802,13.4295845,-2.163429022,0.5357517,-0.464724302,-0.446483403,-0.545576751
3863173,9.008706093,-0.248073995,3.91007638,-0.560610771,4.857019901,-0.126116931,0.671254575,-0.340975314,-0.431580871,-0.496881545,9.799309731,0.013228838,1.640521526,-1.554538369,13.73477554,-2.298408747,0.536294937,-0.463550478,-0.4455176,-0.546829581
3863340,9.0001297,-0.249845654,3.934874535,-0.386905402,4.881646156,-0.075122051,0.671503723,-0.340642393,-0.431057453,-0.497227371,9.789439201,0.009184279,1.672801614,-1.468159556,14.18308926,-2.396800041,0.536862969,-0.46232602,-0.444528729,-0.548112333
3863507,9.00373745,-0.235328123,3.923592806,-0.624232709,4.938531876,-0.1121196,0.671764791,-0.340316027,-0.43052116,-0.497562826,9.783770561,0.03168194,1.737079263,-1.420891166,14.53776073,-2.436666012,0.537451446,-0.461064935,-0.443516731,-0.549416125
3863673,8.99161911,-0.252215594,3.907746553,-0.769315958,5.337271214,-0.22080712,0.672005534,-0.339980453,-0.429929942,-0.49797821,9.774056435,0.054910745,1.742732525,-1.47822547,14.91937733,-2.56703496,0.538047671,-0.459767193,-0.442477137,-0.550756633
3863840,8.999860764,-0.231540665,3.944816828,-0.146248534,5.323875427,-0.015226752,0.672284126,-0.339600474,-0.42937246,-0.498342186,9.794652939,0.059002455,1.777998924,-1.568740964,15.4647646,-2.717305183,0.538657963,-0.458420902,-0.441395819,-0.552148223
3864007,8.981913567,-0.229912028,3.96196723,-0.115730993,5.428361893,0.018140197,0.672587872,-0.339205891,-0.428810418,-0.498684973,9.804999352,0.070452556,1.808260202,-1.819655657,16.2586937,-2.990361929,0.539277434,-0.457010508,-0.440248281,-0.553626895
3864173,8.972063065,-0.226839721,4.003339767,-0.143469557,5.53961134,0.004629496,0.672919929,-0.338795274,-0.428243339,-0.49900347,9.815750122,0.108569428,1.856895447,-2.134487629,17.21234703,-3.061335325,0.53992784,-0.455540806,-0.43900311,-0.55519098
3864340,8.955189705,-0.22941798,4.056027412,-0.138487861,5.772826672,-0.051289428,0.67324388,-0.338370502,-0.427650571,-0.499362797,9.784173965,0.087883189,1.930375814,-2.403947115,18.02927017,-3.110589743,0.540604472,-0.454020023,-0.437672794,-0.556826115
3864507,8.947349548,-0.229642719,4.040272713,-0.126577973,5.321506977,0.059082106,0.673537254,-0.337988257,-0.427093267,-0.49970305,9.72706604,0.075474635,1.954139233,-2.407891512,18.71415329,-3.207456827,0.541312516,-0.452434599,-0.436291814,-0.558510005
3864673,8.953186989,-0.232320026,4.045385361,-0.246778399,4.786738873,-0.011474491,0.673791885,-0.337649703,-0.426584214,-0.500023186,9.71257782,0.083423577,2.007044315,-2.362979412,19.06134796,-3.291607618,0.542034268,-0.450808644,-0.434889555,-0.560215771
3864840,8.968001366,-0.235302314,4.02094841,-0.451833665,4.87657547,-0.118279457,0.674033821,-0.337317973,-0.426056474,-0.500370979,9.711916924,0.088918209,2.080544233,-2.368857861,19.4191227,-3.425204277,0.542762935,-0.449142098,-0.43346417,-0.561950922
3865007,8.98183918,-0.234475821,4.060702801,-0.468353868,4.958343506,-0.169953063,0.674262702,-0.336982608,-0.425518602,-0.500746071,9.680044174,0.074462697,2.143589735,-2.161151409,19.68791389,-3.4427104,0.54351598,-0.447432339,-0.432032228,-0.563686728
3865173,8.973293304,-0.222400576,4.064713955,-0.397957355,5.158033371,-0.180172548,0.674518406,-0.336622119,-0.424968988,-0.501110733,9.614460945,0.103261404,2.201994419,-1.784170508,19.73573494,-3.541626692,0.544284046,-0.445679158,-0.430630416,-0.565404654
3865340,8.939373016,-0.265454739,4.067286968,-0.110326715,5.583613396,-0.213609934,0.67480725,-0.336200625,-0.424399376,-0.501487195,9.582288742,0.127021655,2.265718937,-1.638818026,19.48384476,-3.494614363,0.545045197,-0.443934351,-0.429253876,-0.567088425
3865507,8.939731598,-0.253018588,4.072128773,0.064281479,5.104118347,-0.267255723,0.675070226,-0.335793704,-0.423891902,-0.501835167,9.611001015,0.126163095,2.352623224,-1.404282093,19.08826637,-3.292683601,0.545809031,-0.442212522,-0.42791152,-0.568711102
3865673,8.99095726,-0.235634133,4.021251678,0.420464545,5.38151741,-0.110198662,0.675381839,-0.335340023,-0.423376292,-0.50215441,9.591573715,0.168904573,2.41820097,-1.207486391,18.73565102,-3.203166246,0.546567023,-0.440506309,-0.42660445,-0.570287228
3865840,9.029623032,-0.201731533,4.036641598,0.437765926,7.927369595,0.050092053,0.675874233,-0.334706277,-0.422606081,-0.502563477,9.604973793,0.211855918,2.490602255,-1.22929585,18.26754379,-3.332024097,0.547279835,-0.438829094,-0.425337911,-0.571840644
3866007,8.953565598,-0.224904358,4.153725147,0.116633862,9.062217712,-0.097584412,0.676392257,-0.334015191,-0.421705127,-0.503082752,9.557657242,0.195218876,2.565058947,-1.289587975,17.89422417,-3.170753241,0.547975302,-0.437194079,-0.424082726,-0.573356986
3866173,8.896473885,-0.232551381,4.190158844,0.191768721,8.089484215,-0.03163169,0.676873267,-0.333388269,-0.42090416,-0.503522277,9.525161743,0.195814565,2.624460459,-1.107366323,17.43370819,-2.949945927,0.548668861,-0.435593247,-0.42286247,-0.574811637
3866340,8.880239487,-0.246590868,4.192219734,0.333163649,8.038399696,0.046877649,0.677349508,-0.332759023,-0.420111179,-0.503960073,9.542126656,0.227181688,2.665579319,-0.981671751,16.9790535,-2.682625532,0.549361587,-0.434033692,-0.421669185,-0.576204896
3866507,8.851507187,-0.235901594,4.259080887,0.213040039,7.976647377,0.217253342,0.677837551,-0.332155228,-0.419307381,-0.504371464,9.524792671,0.275538832,2.731386423,-1.068306684,16.87456703,-2.525209665,0.550052166,-0.43249616,-0.420464218,-0.57758081
3866673,8.838604927,-0.213201836,4.251699448,0.255569965,7.08641386,0.061374448,0.67826885,-0.331599206,-0.418603778,-0.504741848,9.492787361,0.32064715,2.765897989,-1.689261913,16.84868622,-2.439522743,0.550706267,-0.431012511,-0.419201225,-0.578983009
3866840,8.80494976,-0.20404698,4.308450699,0.178680599,6.786271095,0.095055133,0.678690672,-0.331073433,-0.417922735,-0.505084217,9.474129677,0.308081418,2.819688797,-2.08625865,16.73190308,-2.588370562,0.551312387,-0.429558069,-0.417921156,-0.580410898
3867007,8.771402359,-0.205645934,4.32774353,0.361478418,6.157619476,-0.110967018,0.679048955,-0.330565184,-0.417324424,-0.505429924,9.496730804,0.289203405,2.85608077,-2.463112116,16.7936058,-2.601561546,0.551894069,-0.428124338,-0.416602433,-0.581863284
3867173,8.775866508,-0.213143125,4.34381485,0.798046887,5.783187389,0.053729035,0.679406881,-0.330052882,-0.416785002,-0.5057289,9.487992287,0.260736734,2.87488842,-2.664594173,16.99394608,-2.635459661,0.552469254,-0.426684648,-0.415250272,-0.58333981
3867340,8.794538498,-0.193969235,4.351891994,0.437112808,6.012742519,0.182176754,0.679781437,-0.329564124,-0.416191459,-0.506033063,9.495809555,0.267880648,2.916096449,-2.656142235,17.27188492,-2.721826077,0.553051054,-0.425212383,-0.413879037,-0.584836185
3867507,8.780081749,-0.185911372,4.386523247,0.279684335,5.984222412,0.270412534,0.680142224,-0.329099506,-0.415583014,-0.506350636,9.504491806,0.265049905,2.935133219,-2.749910355,17.77083397,-2.796154261,0.553646922,-0.423697561,-0.41246143,-0.586371064
3867673,8.751437187,-0.174353659,4.40148592,-0.007427684,5.895704746,0.240035847,0.680480182,-0.328667462,-0.414962977,-0.506685555,9.519571304,0.277900249,2.979730606,-2.699683905,18.34728813,-3.106119633,0.55425024,-0.422107875,-0.411018074,-0.58795917
3867840,8.776304245,-0.191876531,4.401367188,-0.334258586,5.893438339,0.228458911,0.6808092,-0.328266501,-0.414319128,-0.507030249,9.541632652,0.269116908,2.987431526,-2.689810753,19.32040787,-3.297152519,0.554891586,-0.420419306,-0.409505695,-0.589616954
3868007,8.759711266,-0.180711389,4.427103519,-0.081141032,6.18023634,0.316707462,0.681182265,-0.327823699,-0.413661093,-0.50735271,9.51756382,0.270941705,3.049373627,-2.679489374,20.48072052,-3.541447878,0.555576801,-0.418612391,-0.407912225,-0.591359377
3868174,8.733399391,-0.213715151,4.499122143,-0.34885776,5.844799042,0.325159639,0.681505322,-0.327432305,-0.413015485,-0.507697582,9.488928795,0.292951971,3.042338133,-2.655746698,21.33730125,-3.606363297,0.556303263,-0.416722208,-0.406251848,-0.593151629
3868340,8.698289871,-0.219876364,4.470795155,-0.486103445,3.680628538,0.304631054,0.681705356,-0.327212393,-0.412574589,-0.507929504,9.392951012,0.315757483,3.092155457,-2.740934849,22.09203339,-3.463854551,0.55707556,-0.414778262,-0.404510707,-0.594976604
3868507,8.894378662,-0.199902117,4.345698357,-0.048177492,4.774599075,0.349722296,0.681990743,-0.326869667,-0.412055403,-0.508188248,9.350822449,0.336894125,3.145538092,-2.911169767,22.08628464,-3.465352774,0.55783093,-0.412844241,-0.402751476,-0.5968045
3868674,8.765648842,-0.204581559,4.446918964,-0.322374314,6.441421986,0.110768542,0.682344973,-0.326416254,-0.411362499,-0.508565247,9.357007027,0.355031133,3.236393929,-3.138560057,22.11755943,-3.692346096,0.558548629,-0.410908461,-0.400979906,-0.598659277
3868840,8.784710884,-0.200431272,4.413630486,-0.29860568,5.771546364,0.090060651,0.682658494,-0.326010317,-0.410737067,-0.508910537,9.368546486,0.341458797,3.306076288,-3.304185152,22.2648735,-3.807898283,0.559248745,-0.40896216,-0.399184912,-0.600535095
3869007,8.801868439,-0.218921691,4.436770439,-0.656658411,6.610682964,0.246464625,0.683007777,-0.325585008,-0.409995615,-0.509311855,9.389960289,0.368909895,3.376089573,-3.460192204,22.73925972,-3.837967396,0.559958041,-0.406980872,-0.39733538,-0.602443516
3869174,8.792378426,-0.22674489,4.420792103,-0.45285821,6.649640083,0.354819149,0.683384418,-0.325143754,-0.40925929,-0.50968051,9.374250412,0.376075268,3.407782555,-3.592047691,23.4193573,-3.798498869,0.560695589,-0.404948413,-0.395412415,-0.60438931
3869340,8.804353714,-0.211866707,4.468994141,-0.313755572,7.256200314,0.444066614,0.683813989,-0.324649662,-0.408468097,-0.510053992,9.340018272,0.385065526,3.467717886,-3.745199919,24.23462868,-4.043114185,0.561442196,-0.402837843,-0.393419445,-0.606403828
3869507,8.781332016,-0.198527008,4.522302151,-0.350010484,8.191577911,0.516473889,0.684302032,-0.32409367,-0.407577425,-0.510465264,9.272474289,0.384496778,3.523353577,-4.029220104,24.83097458,-4.213593483,0.562183559,-0.400682926,-0.391358048,-0.60847497
3869674,8.727194786,-0.200599089,4.575408459,-0.503545761,8.587281227,0.702114701,0.684810042,-0.323532015,-0.40662846,-0.510896981,9.235517502,0.416167259,3.613721609,-4.330976963,25.29223442,-4.341003895,0.562914371,-0.398499221,-0.389234692,-0.610591769
3869840,8.700787544,-0.18554157,4.630482674,-0.873380423,8.034404755,0.949123621,0.685278714,-0.32306239,-0.405694544,-0.511307895,9.165637016,0.440642327,3.709896564,-4.556880951,25.53003502,-4.230203629,0.563647091,-0.396313518,-0.387060255,-0.612716973
3870007,8.67128849,-0.206436828,4.566236496,-1.255803585,6.888863564,0.959663153,0.685663283,-0.32271561,-0.404845536,-0.511684179,9.050663948,0.457558602,3.796505213,-4.916099548,24.92429161,-4.031089306,0.564334631,-0.394216686,-0.38488692,-0.614802241
3870174,8.728979111,-0.205299616,4.495866299,-1.076425076,6.459965229,0.861796916,0.686026156,-0.322378129,-0.404055744,-0.512034714,8.942941666,0.441871345,3.901499271,-5.10887289,23.38910866,-3.230702877,0.564989507,-0.392312229,-0.382771641,-0.61673665
3870340,8.725095749,-0.214274764,4.513464928,-1.378834367,6.691761017,0.85730201,0.686389089,-0.322053075,-0.403220743,-0.512411118,8.943136215,0.419517517,3.981840134,-5.143179417,21.45938492,-2.331617594,0.565609336,-0.390628725,-0.38075614,-0.618482053
3870507,8.737856865,-0.249399573,4.517758846,-1.668475389,7.888706207,0.678025901,0.686787426,-0.321654737,-0.402254701,-0.512886345,9.014762878,0.402066857,4.063091755,-4.976964951,20.08036613,-1.562837958,0.566226304,-0.389093995,-0.378821522,-0.620070994
3870674,8.710739136,-0.264535695,4.52466011,-1.952085137,9.038986206,0.641284466,0.687245727,-0.321198821,-0.401152551,-0.513421178,9.090283394,0.373410255,4.142670631,-4.462251186,19.60019493,-1.065451622,0.566886067,-0.387583882,-0.376941174,-0.621557951
3870840,8.680183411,-0.258919954,4.563144207,-1.863401532,10.51773739,0.63557303,0.687786043,-0.320621878,-0.399909973,-0.514027238,9.09975338,0.347373128,4.155636311,-3.950163126,19.61328125,-0.774529219,0.56759733,-0.386042923,-0.375086248,-0.622988343
3871007,8.642724037,-0.292272896,4.639408112,-1.618454337,10.88930035,0.756810665,0.688367069,-0.319999427,-0.398642272,-0.514622092,9.055846214,0.323872894,4.206540108,-3.185174704,19.75795555,-0.377775103,0.568390906,-0.384444296,-0.373263061,-0.624346972
3871174,8.630905151,-0.31047985,4.705219269,-1.1100806,10.6388483,0.553317845,0.688939869,-0.319332778,-0.397445828,-0.515194535,8.99029541,0.317756474,4.281177998,-2.514594793,19.8648243,-0.045232102,0.569253564,-0.382795572,-0.371469975,-0.6256423
3871340,8.58912468,-0.298232913,4.773697853,-0.910775185,10.2041235,0.387590736,0.689483225,-0.318668813,-0.396314561,-0.51575017,8.953258514,0.330888629,4.359777451,-1.902718902,19.58552742,0.109065436,0.570144892,-0.381126821,-0.369743586,-0.626870751
3871507,8.579370499,-0.314900368,4.798945904,-0.571470678,9.510426521,0.183854401,0.689989507,-0.318009615,-0.395287365,-0.516267836,8.878742218,0.325885236,4.37909174,-1.31977272,19.1751442,0.307935476,0.571060658,-0.379454792,-0.368090004,-0.628023684
3871674,8.560797691,-0.311147511,4.831050873,-0.503110409,9.435907364,0.045622636,0.690476894,-0.317340344,-0.394278318,-0.51679939,8.857829094,0.337190747,4.451841831,-0.751848936,18.7459259,0.39115122,0.571988523,-0.377776355,-0.366516083,-0.629110754
3871840,8.552685738,-0.304263026,4.872869968,-0.261031896,9.700357437,-0.077299155,0.690984547,-0.316620469,-0.393264711,-0.517334521,8.863925934,0.346053511,4.49436903,-0.331070095,18.51268005,0.336762547,0.572918355,-0.376078457,-0.36499995,-0.630162537
3872007,8.49739933,-0.282189041,4.907988548,-0.177739382,9.375525475,-0.121801227,0.691475451,-0.315912098,-0.392292112,-0.517849684,8.866888046,0.366862684,4.52914381,-0.188842654,18.72883034,0.047223475,0.573836982,-0.374330699,-0.363491654,-0.631238043
3872174,8.493868828,-0.286322087,4.926248074,-0.234048918,9.290247917,-0.050994899,0.69195956,-0.315219492,-0.391319215,-0.518361032,8.838198662,0.393261969,4.57884407,-0.225955471,18.87482071,-0.42850095,0.574713826,-0.372544765,-0.36199075,-0.632358491
3872340,8.469551086,-0.287129462,4.930794716,0.190283209,9.455949783,0.084156953,0.692484319,-0.314478099,-0.390354782,-0.518837512,8.805360794,0.406999141,4.639924049,-0.380989373,18.93612671,-0.577631056,0.575567603,-0.370755374,-0.360475659,-0.633498132
3872507,8.457241058,-0.26693514,4.952519417,0.406083018,9.216187477,0.064614452,0.69299376,-0.313733965,-0.389428377,-0.51930362,8.782186508,0.420730293,4.688662529,-0.606202006,18.68620682,-0.672654212,0.576383293,-0.368999898,-0.358963072,-0.634639382
3872674,8.472358704,-0.273910224,4.960724354,0.297754109,8.93384552,0.17217499,0.693490863,-0.313027471,-0.388516605,-0.519749105,8.773465157,0.428340584,4.727995396,-0.898635387,18.42883873,-0.810181975,0.577153146,-0.36728254,-0.357449651,-0.635789156
3872840,8.464537621,-0.280466706,4.96708107,0.325761646,8.947381973,0.303184003,0.693998933,-0.312324047,-0.387598723,-0.520179331,8.755274773,0.43803215,4.782274723,-1.26361692,18.52879524,-0.906754792,0.577895701,-0.365578711,-0.355896562,-0.636966705
3873007,8.456896782,-0.276561379,5.019865036,0.265520513,9.164808273,0.408388168,0.694528043,-0.311614215,-0.386650056,-0.52060473,8.72033596,0.433224738,4.812039852,-1.512674809,18.4273777,-1.103319407,0.578597546,-0.363892168,-0.354336768,-0.638163686
3873174,8.434056282,-0.270951778,5.024718285,0.285088629,9.42137146,0.2866382,0.695062697,-0.310874671,-0.385682225,-0.52105087,8.691184998,0.425006717,4.838518143,-1.74728775,18.32508278,-1.202504873,0.579268515,-0.362226933,-0.352766395,-0.639371336
3873340,8.408242226,-0.265353024,5.077480316,0.161161557,9.517624855,0.298701763,0.695589006,-0.310143054,-0.384691745,-0.521516621,8.690394402,0.436024874,4.886068821,-1.969567657,18.42962837,-1.43330133,0.579907656,-0.360556215,-0.351176143,-0.640610516
3873507,8.405652046,-0.272442758,5.11730051,0.278467745,9.56836319,0.298202366,0.69612515,-0.309394926,-0.383704245,-0.521973014,8.702540398,0.410931587,4.905765057,-2.203322411,18.80186272,-1.626984715,0.58053124,-0.3588579,-0.349540293,-0.641892731
3873674,8.390194893,-0.256100297,5.120491982,0.454439878,9.685861588,0.33007735,0.696676254,-0.308621168,-0.382715523,-0.5224213,8.724614143,0.415935725,4.944649696,-2.264498472,19.53800011,-1.768303156,0.581171274,-0.357086062,-0.347841233,-0.643223166
3873840,8.345648766,-0.261790574,5.143088341,0.359570414,9.290951729,0.361837119,0.697202623,-0.30788821,-0.381757408,-0.5228526,8.607913017,0.412891597,4.968876362,-2.408634901,20.27391052,-2.077820778,0.581807256,-0.355239242,-0.346079797,-0.644619644
3874007,8.3683424,-0.256257594,5.155014038,0.31751433,8.995676041,0.335904211,0.697706997,-0.307179481,-0.380826414,-0.523275316,8.576666832,0.422227174,5.03587389,-2.54778862,20.2364006,-2.07587409,0.58242923,-0.353404731,-0.344305336,-0.646014929
3874174,8.341731071,-0.253370851,5.172831535,0.248257533,9.46451664,0.200656325,0.698222995,-0.306433737,-0.379848152,-0.523735344,8.538658142,0.418570161,5.099938869,-2.696009636,20.29488754,-2.477097511,0.583003581,-0.351554215,-0.342529625,-0.647448897
3874340,8.31584549,-0.261094391,5.176526546,0.088587947,9.5370121,-0.063135318,0.698713779,-0.305683643,-0.37886107,-0.524233878,8.490086555,0.460145921,5.123396397,-2.94622016,20.22255707,-3.04169178,0.583503306,-0.349700511,-0.340762228,-0.64893353
3874507,8.334628105,-0.263278186,5.176264286,0.473290801,9.299839973,-0.232717067,0.699194968,-0.304902852,-0.377934009,-0.5247159,8.492118835,0.44951877,5.18381691,-3.261115789,19.92176056,-3.470730305,0.583926499,-0.347877562,-0.339009553,-0.650448978
3874674,8.322094917,-0.240283877,5.181350231,0.598255277,9.712576866,-0.305636495,0.699697196,-0.304073036,-0.376977175,-0.525215864,8.498868942,0.464034289,5.256205559,-3.373683929,19.63470268,-3.468604565,0.584324837,-0.346088409,-0.337267578,-0.651949346
3874840,8.342312813,-0.240548909,5.155791283,0.440109551,10.06431484,-0.168736517,0.700220585,-0.303239524,-0.375965804,-0.525725007,8.486778259,0.471006662,5.324495316,-3.656999111,19.46019173,-3.698645353,0.584673643,-0.344325721,-0.335522324,-0.653468668
3875007,8.409099579,-0.237534225,5.164850235,0.517844319,12.95265198,-0.052698165,0.70091182,-0.302183032,-0.374660313,-0.526344061,8.4773283,0.476670504,5.399367332,-3.857456923,19.60846329,-4.08615303,0.584977806,-0.342544109,-0.33376202,-0.655032337
3875174,8.293131828,-0.209104612,5.335742474,0.671200454,14.68166447,-0.03832943,0.701702178,-0.300978661,-0.373188496,-0.527025819,8.407138824,0.486635059,5.425845623,-4.164029121,19.74589157,-4.191832066,0.585258186,-0.340767354,-0.331963181,-0.65662092
3875340,8.246582031,-0.237768069,5.369596481,0.479188263,13.18483543,0.091731928,0.702409685,-0.299914122,-0.371847868,-0.52763772,8.306475639,0.484380931,5.486266613,-4.179025173,19.39705467,-4.29068327,0.58550632,-0.339017302,-0.330194592,-0.658195496
3875507,8.215894699,-0.265680283,5.390587807,0.016987629,12.10771084,0.056226298,0.703033388,-0.298976272,-0.370581985,-0.528229475,8.243258476,0.480972111,5.514622211,-4.244363308,18.90754509,-4.239035606,0.585727811,-0.337319106,-0.328455955,-0.659739017
3875674,8.194560051,-0.271216542,5.407613277,-0.210766971,11.25233459,-0.003496135,0.703594387,-0.29812333,-0.369387448,-0.528800786,8.228052139,0.4859038,5.534385204,-4.300057888,18.51234055,-4.265352249,0.585920632,-0.335659415,-0.32674408,-0.661262631
3875840,8.190296173,-0.250808477,5.405700207,0.142336249,11.06138039,-0.012511809,0.704158187,-0.297247887,-0.368238837,-0.529344141,8.246748924,0.470296651,5.564148903,-4.183916569,18.52034187,-4.242774963,0.586117029,-0.333987385,-0.32503888,-0.662773788
3876007,8.153333664,-0.267848104,5.447585583,0.363758117,11.82097816,0.001466328,0.704771101,-0.2962915,-0.367027789,-0.529905498,8.263363838,0.485704094,5.56367445,-4.02103281,19.15688515,-4.281143188,0.58634299,-0.332235694,-0.323294312,-0.664305806
3876174,8.130455017,-0.252081782,5.496064186,0.466926157,12.45824814,0.019574516,0.705421865,-0.295275211,-0.365757465,-0.530484855,8.259731293,0.470765382,5.632031918,-3.78603673,20.1771965,-4.19863224,0.586631119,-0.330366582,-0.321478784,-0.665862858
3876340,8.095773697,-0.269138843,5.530532837,0.362567216,12.6424036,0.190078363,0.706088603,-0.294263273,-0.364451677,-0.531058431,8.2364254,0.481347084,5.669742107,-3.582774401,21.04448509,-4.295654297,0.586954534,-0.32838887,-0.319610626,-0.667453587
3876507,8.087254524,-0.268352479,5.576985359,0.365487039,12.9209938,0.115993582,0.706762135,-0.293224752,-0.363119096,-0.53164947,8.210107803,0.496877968,5.746414185,-3.284117937,22.0096283,-4.378780842,0.587322891,-0.326285005,-0.317689866,-0.669076324
3876674,8.062811852,-0.249867097,5.587080956,0.677296162,13.07273579,0.228881612,0.707463145,-0.292147398,-0.36178866,-0.532216847,8.155042648,0.48791334,5.788841724,-2.974280834,22.79356003,-4.569545746,0.587716997,-0.324066252,-0.315737963,-0.670730472
3876840,8.054115295,-0.235302716,5.640079975,0.714255393,13.28411865,0.096527927,0.708163917,-0.291041881,-0.360443473,-0.53280288,8.076828957,0.495359719,5.81587553,-2.776102304,23.2632618,-4.801737785,0.588112473,-0.321770579,-0.313772649,-0.672409236
3877007,8.059766769,-0.250350803,5.667410851,0.645446897,13.24673748,0.110243529,0.708858252,-0.289945751,-0.359094858,-0.533387542,8.044342995,0.505306482,5.884576321,-2.512444258,23.68009758,-4.850696564,0.588527322,-0.319405705,-0.311796039,-0.674091101
3877174,8.045804024,-0.236956432,5.727761745,0.546172023,13.97662354,0.30272311,0.70959872,-0.28881228,-0.357653677,-0.533986151,7.971398354,0.513393104,5.908201694,-2.417830944,24.22144699,-4.774447441,0.588971257,-0.316979349,-0.309774935,-0.675778449
3877340,7.960394859,-0.239794433,5.770226479,0.303132892,14.06026077,0.448920488,0.710341573,-0.287703574,-0.356177241,-0.53458339,7.943459511,0.543339491,5.941927433,-2.12004447,24.56959152,-4.703590393,0.589443862,-0.314492702,-0.307746083,-0.677453101
3877507,8.002295494,-0.23808904,5.726726055,0.081915863,12.96025848,0.470704079,0.711017251,-0.28670314,-0.35479477,-0.535141766,7.874186039,0.577742219,6.001116753,-2.206372499,25.02142906,-4.916676044,0.589903772,-0.311955452,-0.305675864,-0.679161012
3877674,8.039010048,-0.231257066,5.722558022,0.388026386,16.69778824,0.5733729,0.711903036,-0.285384119,-0.353043646,-0.535826862,7.868350983,0.602025509,6.065952301,-2.50091958,25.45066071,-5.335918903,0.590319633,-0.309378296,-0.303554714,-0.680927634
3877840,7.912512779,-0.201224804,5.867194176,0.651709437,17.96229935,0.672532558,0.712867498,-0.283942729,-0.351176023,-0.536537051,7.852491379,0.612839878,6.202775478,-2.753345966,25.85085106,-5.758683205,0.590691209,-0.306760162,-0.301389158,-0.68274945
3878007,7.908685684,-0.20950073,5.829378605,0.066676334,17.97253418,0.746053934,0.713809013,-0.282562643,-0.349256188,-0.537266433,7.798926353,0.618338704,6.339622021,-3.151586533,26.0210743,-5.880011559,0.591031373,-0.304149449,-0.299170554,-0.6845963
3878174,7.836631298,-0.210835963,5.854421139,0.101522453,17.7294178,0.949521482,0.714750826,-0.281206459,-0.347353786,-0.53795898,7.696316242,0.636214018,6.472964287,-3.325727463,25.5949688,-5.826852798,0.591341972,-0.30159387,-0.296964467,-0.686416924
3878340,7.817166805,-0.231689334,5.885805607,-0.02726474,16.58287239,0.899986088,0.715620756,-0.27994895,-0.345560431,-0.538612723,7.584373951,0.654535353,6.549674988,-3.516452312,24.5568924,-5.83317709,0.591590285,-0.299153328,-0.294824481,-0.688190997
3878507,7.831444263,-0.252678752,5.86660862,0.156128779,16.53052139,0.749729276,0.71647954,-0.278667331,-0.343791157,-0.53926748,7.480605125,0.667915463,6.629379749,-3.65478611,22.94027328,-5.841654301,0.591755092,-0.296881735,-0.29280597,-0.689892769
3878674,7.755391598,-0.244800165,5.958201408,0.500197351,17.15091515,0.618976414,0.717368364,-0.277293265,-0.341987729,-0.539940238,7.425810337,0.67330271,6.681061268,-3.686596394,21.12229729,-5.54749012,0.591864228,-0.294803649,-0.290924311,-0.691484511
3878840,7.71949625,-0.251018107,6.000191212,0.651555657,16.44638443,0.505255759,0.718215108,-0.275951564,-0.340272307,-0.540585518,7.421108246,0.667301774,6.717805386,-3.608449936,19.38554382,-5.268782139,0.59192574,-0.292901665,-0.28918469,-0.69296819
3879007,7.708017826,-0.234127924,6.059495926,0.473355174,16.48508644,0.540652633,0.719054937,-0.274625629,-0.338535517,-0.541234136,7.455440998,0.676003456,6.741695881,-3.528448343,18.28089142,-4.984750271,0.591968179,-0.291113019,-0.287533343,-0.694371402
3879174,7.664557457,-0.268112689,6.113335133,0.285652339,16.51813889,0.532110751,0.719884098,-0.273314714,-0.336778939,-0.541890979,7.441756725,0.674499154,6.789198399,-3.484624863,17.7412262,-4.673900604,0.592016876,-0.289385438,-0.285917222,-0.69571799
3879340,7.604800224,-0.250083119,6.184801102,0.325185537,15.94987011,0.446551383,0.720676243,-0.272038788,-0.335086405,-0.542529106,7.432859421,0.67281884,6.786528587,-3.20608592,17.57099152,-4.214036465,0.592112601,-0.287667751,-0.284322202,-0.697001278
3879507,7.564412117,-0.274470299,6.231716633,0.262434244,14.19263935,0.439904809,0.721376181,-0.270906359,-0.333571613,-0.543098807,7.380290031,0.666234076,6.833670139,-3.015130997,17.60250854,-3.958012342,0.592239499,-0.285938829,-0.282730967,-0.698251247
3879674,7.540294647,-0.273290873,6.243189812,0.392277986,13.2307682,0.203614712,0.722012997,-0.269823611,-0.332175642,-0.543646753,7.308777809,0.687265694,6.842739582,-2.704370975,17.39765739,-3.732991219,0.592389703,-0.28421095,-0.281177342,-0.6994555
3879840,7.489347935,-0.285182178,6.302929401,0.522774696,12.21712875,0.058941253,0.722592115,-0.268799454,-0.330900729,-0.544161975,7.2801404,0.678791344,6.882017136,-2.329029322,17.24798965,-3.338926554,0.592585504,-0.282479942,-0.27965644,-0.700599611
3880007,7.477455139,-0.267033309,6.303211212,0.462994576,11.54578114,0.046621535,0.723133683,-0.267833203,-0.329690754,-0.544653296,7.263616562,0.676775217,6.914612293,-2.029386044,16.97710991,-2.992194176,0.592814267,-0.280762762,-0.278173149,-0.701686144
3880174,7.443247318,-0.26243037,6.341406822,0.486737549,11.00156212,0.048132684,0.72364819,-0.266906828,-0.328538626,-0.545120656,7.245170593,0.670885861,6.930899143,-1.618365884,17.0567646,-2.758106709,0.593083143,-0.279009491,-0.276713371,-0.70273453
3880340,7.449021339,-0.2852678,6.370255947,0.567417562,10.86185741,0.092647575,0.724161148,-0.265984386,-0.327404737,-0.545572519,7.18780756,0.691729367,6.923089981,-1.466085315,17.21707344,-2.564371824,0.593380809,-0.277232736,-0.275245577,-0.703762114
3880507,7.403813839,-0.257841706,6.385638237,0.484419584,11.20122433,0.164734527,0.724690676,-0.265046477,-0.326224446,-0.546032429,7.154399872,0.701606393,6.942700863,-1.265115023,17.31492805,-2.363132477,0.593707442,-0.275434911,-0.273779958,-0.704763651
3880674,7.375173569,-0.274040222,6.444607258,0.56128335,11.11972523,0.278595805,0.7252267,-0.264111549,-0.325053424,-0.546472132,7.146703243,0.714673698,6.979968548,-1.281712055,17.59890556,-2.128673553,0.594064713,-0.27361685,-0.272276938,-0.705752254
3880840,7.362786293,-0.26550895,6.466158867,0.646573603,10.84528542,0.363911778,0.725758016,-0.263192564,-0.323913515,-0.546886921,7.155813217,0.73213017,7.031554699,-1.28965199,18.06576538,-2.13611412,0.594435334,-0.271749526,-0.27073133,-0.706755519
3881007,7.369951248,-0.2371611,6.479991436,0.760114729,11.00631332,0.618309975,0.726319671,-0.26225999,-0.322754741,-0.547274113,7.108605862,0.712731838,7.052605629,-1.320349097,18.68149757,-2.152596712,0.594823003,-0.269819021,-0.269128144,-0.7077806
3881174,7.345647335,-0.23601684,6.490404606,0.44451493,11.36157322,0.711399376,0.726891458,-0.261335999,-0.321528703,-0.547678411,7.022422314,0.700822175,7.050472736,-1.322999954,18.89149666,-2.038530111,0.595226049,-0.267869711,-0.267500103,-0.708798707
3881340,7.32759285,-0.257475317,6.516131401,0.481525362,11.37136936,0.648315251,0.727458179,-0.260403454,-0.320305943,-0.548086464,6.906284332,0.7102983,7.081485271,-1.467378974,18.47986221,-1.846959591,0.595622718,-0.265980929,-0.265883446,-0.709784329
3881507,7.320899963,-0.242464125,6.537068367,0.58534658,11.60826397,0.79499948,0.728049636,-0.259447128,-0.31905967,-0.548481584,6.848868847,0.676591516,7.116991043,-1.722250938,17.59598732,-1.828364372,0.595973194,-0.264204323,-0.264314413,-0.710739017
3881674,7.322563171,-0.230556011,6.536126614,0.81082809,12.37865639,0.867316782,0.728688776,-0.258407921,-0.317745924,-0.548885882,6.873571396,0.673083901,7.164825916,-2.024827003,16.8730545,-1.94560647,0.596268475,-0.262522548,-0.262779474,-0.711683214
3881840,7.351830482,-0.204987988,6.478157043,1.883777022,14.67202854,1.123066425,0.729491651,-0.257082611,-0.316263855,-0.549297512,6.906672955,0.685658514,7.216134548,-2.472652197,16.63842773,-2.784320831,0.596447229,-0.260870337,-0.261248797,-0.712703705
3882007,7.260613918,-0.133660212,6.597178459,1.891109109,16.94927788,1.414699674,0.730418742,-0.255586803,-0.314528555,-0.549759865,6.895978451,0.751978576,7.2934618,-3.316925287,16.8035965,-4.446740627,0.596424222,-0.259209573,-0.259677619,-0.713902116
3882174,7.239104271,-0.167388916,6.660844803,1.686809301,16.32946396,1.598906398,0.731319964,-0.254168749,-0.312834203,-0.550185621,6.898521423,0.794439614,7.327250004,-4.297572136,16.90011597,-5.716235638,0.596231937,-0.257574141,-0.258042455,-0.71524632
3882340,7.235883713,-0.162907705,6.662934303,1.453861713,16.75833702,1.796777487,0.732243538,-0.25274846,-0.311066538,-0.550613701,6.873425484,0.785004258,7.386255741,-5.117052555,17.03249741,-6.38985157,0.595939279,-0.255968899,-0.256334186,-0.716679335
3882507,7.16622448,-0.19995448,6.712510109,0.918132842,16.30696106,1.774980783,0.733120739,-0.25141868,-0.309303224,-0.551048458,6.822805405,0.790641844,7.438374996,-5.723599911,16.97955704,-6.383153915,0.595618129,-0.254420072,-0.254565299,-0.718126893
3882674,7.155632973,-0.223351002,6.727900505,0.465120584,15.72237301,1.503357768,0.733929098,-0.250170261,-0.307574123,-0.55150795,6.778192997,0.780595183,7.463253975,-5.869810104,16.7238121,-5.867427826,0.59533149,-0.25292778,-0.252782404,-0.719520271
3882840,7.12726593,-0.240693122,6.744926453,0.216536388,15.51671982,1.27286911,0.734696925,-0.248953268,-0.305853963,-0.551992893,6.729712009,0.757822573,7.515124798,-5.728106022,16.33885002,-4.791576862,0.595143974,-0.251501203,-0.251006395,-0.72079581
3883007,7.082734585,-0.29494378,6.730422974,-0.051968209,14.8849802,0.923844457,0.735395133,-0.247799009,-0.304190904,-0.552501321,6.644884109,0.717456341,7.562125683,-4.99008894,15.62429523,-3.820150852,0.595055521,-0.250119567,-0.249332532,-0.721929729
3883174,7.052667141,-0.313579023,6.813711643,0.322931498,14.46042061,0.626775205,0.736060619,-0.246624753,-0.302612752,-0.553006828,6.642474174,0.670243144,7.605840206,-4.078300953,14.87581253,-2.651838779,0.595092475,-0.248778522,-0.247775123,-0.722898185
3883340,6.983419895,-0.3071329,6.843068123,0.528409541,13.24806786,0.215498969,0.736644089,-0.245507136,-0.301194251,-0.553501248,6.59913063,0.634633541,7.648716927,-2.895555973,14.22824287,-1.712299705,0.595245004,-0.247435942,-0.246362686,-0.723715603
3883507,7.010164261,-0.306047767,6.839437485,0.58185035,12.40634251,-0.007824683,0.737172127,-0.244441062,-0.299876958,-0.553985238,6.573482513,0.62956661,7.678907871,-1.466699243,13.65011024,-0.970824301,0.595504165,-0.246056259,-0.245122671,-0.724393785
3883674,7.035856724,-0.323427588,6.842522144,0.701359451,13.45758057,-0.22427775,0.737730145,-0.243267432,-0.298463166,-0.554522395,6.545352459,0.626565874,7.726924419,-0.329481989,13.28402805,-0.80352211,0.59580636,-0.244621769,-0.244026795,-0.725000739
3883840,6.918046951,-0.289863855,6.970040321,0.925304174,14.61457157,-0.363406062,0.738331854,-0.241969824,-0.296947092,-0.555103064,6.498454094,0.636092722,7.762105942,0.669753194,13.07192802,-0.521987081,0.596164286,-0.243132353,-0.243043378,-0.725537598
3884007,6.858022213,-0.280504525,7.010614872,1.290221214,12.54896832,-0.435685039,0.738848388,-0.240795717,-0.295683354,-0.555600584,6.423598289,0.648168862,7.782842159,1.361219525,12.55713749,-0.285415262,0.596551597,-0.241644904,-0.24216792,-0.726008654
3884174,6.817522049,-0.311915249,7.066004753,1.344878554,10.98187828,-0.390324891,0.739300907,-0.23974362,-0.294589669,-0.556034327,6.32590723,0.712709606,7.81286335,1.803820133,11.77420902,-0.29868266,0.596923888,-0.24020049,-0.241406411,-0.726435602
3884340,6.797319412,-0.278072983,7.048877239,1.790437102,9.252674103,-0.280856133,0.739702284,-0.238787591,-0.293713033,-0.556375563,6.28747654,0.753395557,7.819086552,1.61041832,10.71491623,-0.713416338,0.597206891,-0.23886919,-0.240729734,-0.726866364
3884507,6.780154705,-0.242084548,7.062558174,2.110774755,8.504037857,-0.182311207,0.740089595,-0.23786141,-0.29293856,-0.55666548,6.26360321,0.800249696,7.83198452,0.893684983,9.847746849,-1.350135565,0.597366095,-0.237668678,-0.240073845,-0.727346003
3884674,6.739462852,-0.224836275,7.106645584,2.187728167,8.200348854,-0.08339496,0.74047339,-0.236955285,-0.292198896,-0.556930065,6.277760029,0.832614779,7.864677429,-0.011051882,9.173362732,-1.725579143,0.597429454,-0.236604065,-0.239393011,-0.72786516
3884841,6.715552807,-0.209748507,7.113606453,1.882104754,7.657871723,0.213155329,0.740846753,-0.23613809,-0.291482031,-0.557156265,6.251788616,0.865545869,7.843542576,-1.200531483,8.638864517,-1.831628561,0.59742099,-0.235694841,-0.238635764,-0.728415608
3885007,6.687495708,-0.196723729,7.12741375,1.648324609,7.561453342,0.295564204,0.741213739,-0.235356867,-0.290753096,-0.557379484,6.228293896,0.864619017,7.884166718,-2.541599989,7.950586796,-1.879601002,0.597336531,-0.234972551,-0.237797424,-0.728992164
3885174,6.663814545,-0.182509348,7.172127724,1.45694685,7.243254185,0.435012609,0.741571367,-0.23462747,-0.290037543,-0.557584405,6.236348629,0.844069302,7.878956795,-4.098801613,7.282569885,-2.306437016,0.597129464,-0.234440789,-0.236866117,-0.729635954
3885341,6.672426224,-0.201553285,7.153646946,1.07817328,6.821374893,0.573039472,0.741908491,-0.233978257,-0.289331406,-0.557775438,6.231567383,0.820633769,7.898278236,-5.394598961,6.610812187,-2.666743755,0.596815765,-0.234079629,-0.235867381,-0.730331719
3885507,6.708672047,-0.200140297,7.132421017,0.689013779,6.756625175,0.623048246,0.742233038,-0.233377993,-0.288598418,-0.557974815,6.206599712,0.751668513,7.892092228,-6.335609913,5.933163643,-2.908860445,0.596419871,-0.23386313,-0.234835178,-0.731056631
3885674,6.679832935,-0.189321056,7.200228214,0.516396999,6.882333279,0.741174102,0.742565811,-0.232790843,-0.287833512,-0.558172286,6.246971607,0.708373487,7.908374786,-6.679831982,5.187501431,-2.972982168,0.595979154,-0.233753055,-0.233832598,-0.731772423
3885841,6.665189743,-0.196233898,7.19674921,0.290825844,6.405819893,0.816833854,0.74287653,-0.232269451,-0.287098765,-0.558354497,6.27346468,0.613997459,7.881574154,-6.519369602,4.733747005,-3.195518255,0.595503747,-0.23366937,-0.232893303,-0.732485354
3886007,6.639753342,-0.21722883,7.212365627,-0.078118742,5.973964214,0.547311425,0.74313426,-0.231811404,-0.28638944,-0.558566213,6.252262592,0.574485302,7.906723976,-5.671395779,4.409528255,-3.017163992,0.595064521,-0.233552784,-0.232065663,-0.733141959
3886174,6.685762882,-0.235308811,7.184442043,-0.35336566,4.667025089,0.325697541,0.743309855,-0.231479749,-0.28580603,-0.558768928,6.253296375,0.58627671,7.909680367,-4.443572998,4.065241337,-2.99151206,0.5946576,-0.233367532,-0.231397107,-0.733742058
3886341,6.67921114,-0.262264907,7.185038567,-0.517940104,6.469274998,0.203371257,0.7435444,-0.231014267,-0.285018235,-0.559051812,6.242863655,0.618778646,7.910804749,-3.452809811,3.811983347,-3.261265039,0.594246626,-0.23311466,-0.230864763,-0.734322846
3886507,6.613666534,-0.245709941,7.233134747,-0.0425427,5.27167654,-0.175459817,0.743713856,-0.230579033,-0.284411043,-0.559315324,6.262090683,0.617125452,7.869369984,-2.298881054,3.585375071,-3.260484457,0.593867004,-0.232786387,-0.23047474,-0.734856486
3886674,6.65529108,-0.25239557,7.193128586,0.360966235,5.109292507,-0.406665713,0.743870795,-0.230103582,-0.283861548,-0.559581161,6.27726841,0.630227864,7.874243736,-1.293710232,3.574873209,-3.132304907,0.59353447,-0.232377008,-0.230188429,-0.73534441
3886841,6.646071434,-0.257132024,7.231924534,0.7758919,5.081079006,-0.506145358,0.744032025,-0.22958149,-0.283352077,-0.559839427,6.268700123,0.657786489,7.875205994,-0.418383539,3.762499809,-2.690652847,0.593284607,-0.231887043,-0.229964331,-0.735770524
3887007,6.655878067,-0.25323689,7.235166073,1.001924038,4.606309891,-0.363533914,0.744192481,-0.22907953,-0.282907397,-0.560056806,6.249347687,0.729639947,7.872240067,0.095797904,3.819653988,-2.26274085,0.593099654,-0.231361255,-0.229775771,-0.736144066
3887174,6.621740818,-0.261257648,7.266782761,1.422971249,4.720593452,-0.334360987,0.744373679,-0.22852391,-0.282483429,-0.560257137,6.224629402,0.779252648,7.863353252,0.338286132,3.810894251,-1.867268085,0.59296447,-0.230828881,-0.229600593,-0.736474633
3887341,6.607213974,-0.255750388,7.242602825,1.676178336,4.260845661,-0.041018739,0.744567871,-0.227990359,-0.282119811,-0.560399532,6.203220844,0.822377264,7.850737095,0.307743043,3.652224302,-1.595965981,0.592851639,-0.230325297,-0.229426831,-0.736777186
3887507,6.603910446,-0.217121407,7.255566597,1.786338687,4.03966713,0.012761529,0.744760811,-0.227465227,-0.281787187,-0.560523868,6.233114719,0.835380435,7.834237099,0.115494087,3.77951932,-1.135820985,0.592785537,-0.22984007,-0.229206279,-0.737050474
3887674,6.604950428,-0.204698473,7.235074997,1.818341732,4.154552937,0.102687724,0.744966447,-0.226930916,-0.281441569,-0.560640812,6.240585804,0.842127025,7.846657753,-0.274235159,4.027692795,-0.964190066,0.592732549,-0.229367718,-0.228917167,-0.737330019
3887841,6.599890709,-0.195670322,7.247574329,1.758472085,4.322124004,0.274497718,0.745190561,-0.226396441,-0.281067163,-0.560746729,6.23292923,0.813313782,7.860042095,-0.660589993,4.351271152,-0.782557666,0.592696548,-0.228900224,-0.228553012,-0.737617314
3888007,6.591010094,-0.174364105,7.260303497,1.640115499,4.660493374,0.533173144,0.745445371,-0.225857794,-0.28063795,-0.560840368,6.225607395,0.810880303,7.834777832,-0.830120504,4.613008022,-0.325089246,0.592712164,-0.228434637,-0.228133067,-0.737879038
3888174,6.582130909,-0.180498198,7.269340992,1.39214623,4.732336998,0.639811635,0.745703161,-0.225344419,-0.280177206,-0.560934603,6.225828171,0.796743453,7.874530792,-1.08884716,5.006866932,-0.013331411,0.592765272,-0.227959707,-0.227641299,-0.738135099
3888341,6.589359283,-0.158702224,7.269942284,1.333390832,5.151438236,0.968742788,0.746002376,-0.224816576,-0.279655278,-0.561008871,6.22485733,0.799738646,7.899745941,-1.109695792,5.356006145,0.080161348,0.592838645,-0.227452338,-0.22711423,-0.738394797
3888507,6.579782963,-0.14953135,7.29461813,1.183774114,5.300491333,1.008954644,0.746305525,-0.224294364,-0.279103696,-0.561089396,6.197405815,0.787618041,7.904978275,-1.168489814,5.706182957,0.178270787,0.592931926,-0.226916,-0.226547688,-0.738659143
3888674,6.565324783,-0.152762115,7.311579227,0.85823679,5.036590099,0.978181064,0.746584415,-0.22382766,-0.278555095,-0.561177254,6.170512199,0.760579407,7.899589539,-1.109324574,5.885857105,0.271129668,0.593042254,-0.226358414,-0.225968987,-0.738918781
3888841,6.570305824,-0.185033739,7.302239418,0.860554874,5.24802351,1.045273542,0.746876836,-0.22334601,-0.277981609,-0.561264575,6.139853477,0.766418397,7.940616131,-0.82907033,6.021859646,0.674875438,0.593209207,-0.225775555,-0.225395471,-0.739138246
3889007,6.543294907,-0.188606098,7.295630932,0.848171115,5.27231741,0.885770559,0.747156084,-0.222857296,-0.277409673,-0.561370075,6.113324642,0.774222374,7.960154533,-0.605842829,5.908191204,1.009582281,0.593415141,-0.225196689,-0.224844709,-0.739317119
3889174,6.534582615,-0.173926279,7.349509239,0.759819984,5.384871483,0.906273246,0.747438192,-0.222369805,-0.27681756,-0.561480045,6.079266548,0.751958072,8.003278732,-0.328457266,5.854557514,1.48166275,0.593678713,-0.224615201,-0.224312961,-0.739443898
3889341,6.489906311,-0.191146731,7.360601902,0.756439209,5.278989792,1.006098986,0.747723579,-0.221895292,-0.276233405,-0.561575592,6.060816765,0.746852875,8.04269886,-0.102604479,5.485554695,1.751556396,0.593966365,-0.224062741,-0.22382842,-0.739527464
3889507,6.488176346,-0.181552738,7.372821808,0.609678388,5.314898014,0.952337861,0.748000801,-0.221431509,-0.275634855,-0.561683595,6.032338142,0.755523086,8.108464241,0.210107386,5.318521976,1.967023373,0.594281375,-0.223508194,-0.223384753,-0.73957628
3889674,6.427719593,-0.198182061,7.378553867,0.693047643,4.918118954,0.897603393,0.748259783,-0.220988795,-0.275087982,-0.561781108,6.020974159,0.755550504,8.1465168,0.495138288,4.953886509,2.308274269,0.594630301,-0.222979173,-0.222991914,-0.739574134
3889841,6.416847229,-0.18822293,7.429524899,0.610779583,3.923641443,0.921243966,0.748477876,-0.220637187,-0.274641633,-0.561847031,5.970495224,0.761788607,8.172967911,0.630834401,4.311558247,2.533653259,0.594986618,-0.222514644,-0.222661644,-0.739526987
3890007,6.40147543,-0.186809868,7.449690342,0.356624842,3.123590469,0.851820707,0.748650014,-0.220375657,-0.27426374,-0.561904967,5.929023266,0.764154613,8.20375061,0.563063145,3.339159727,2.592920542,0.595315456,-0.222162232,-0.222406015,-0.73944515
3890174,6.401267052,-0.159805208,7.438103199,-0.090348803,2.088184357,0.821789861,0.748764038,-0.220246106,-0.273962766,-0.561950564,5.920066833,0.772375941,8.234374046,0.529484928,2.153739929,2.641136885,0.595609963,-0.221941456,-0.222247541,-0.739321947
3890341,6.376959801,-0.159946442,7.476465702,-0.819555163,1.13508451,0.78736639,0.748813868,-0.220272437,-0.273707002,-0.561998546,5.901912212,0.75398767,8.263271332,0.541452467,1.014659882,2.619948864,0.595865667,-0.221841097,-0.222189382,-0.739163578
3890507,6.368846416,-0.162522107,7.458469391,-1.33793056,-0.257689387,0.687656164,0.74878341,-0.220464826,-0.273563564,-0.562033474,5.904755592,0.755184531,8.261345863,0.474942714,-0.240631297,2.72683692,0.596090138,-0.221884519,-0.222228959,-0.738957644
3890674,6.358685017,-0.170040607,7.451297283,-1.692243934,-1.20771575,0.75550431,0.74870944,-0.220775977,-0.273492306,-0.56204468,5.904080868,0.733344793,8.295367241,0.413100779,-1.425128818,2.860765219,0.596288562,-0.22206454,-0.222359821,-0.738703847
3890841,6.349829197,-0.202154428,7.449687481,-1.999788046,-2.444001913,0.69352138,0.748571217,-0.221218899,-0.273532301,-0.562035143,5.889769554,0.675302804,8.301143646,0.589533925,-2.570605993,3.26543355,0.596499205,-0.222365096,-0.222595453,-0.738372445
3891007,6.345853806,-0.206079543,7.467578411,-2.280875206,-3.772302866,0.702037692,0.748371661,-0.221801236,-0.273693353,-0.561993062,5.877783298,0.623167813,8.296601295,0.852115452,-3.995850563,3.453700304,0.596692324,-0.222801566,-0.222976133,-0.737969935
3891174,6.338869572,-0.194966868,7.473066807,-3.005931616,-5.273052216,0.735052407,0.74809128,-0.22258614,-0.273957074,-0.561927676,5.805705547,0.59494549,8.269762993,1.12953949,-5.68453455,2.685216665,0.596756935,-0.223369896,-0.223557159,-0.737569988
3891341,6.330827236,-0.168294936,7.493162155,-4.74087429,-7.837360382,0.752853572,0.747653008,-0.223769531,-0.274356723,-0.56184572,5.732679367,0.602542639,8.214488983,0.998671293,-7.92823267,1.405644417,0.596606672,-0.22414805,-0.224359289,-0.737211883
3891507,6.400842667,-0.201804668,7.369941235,-4.753155708,-9.951280594,0.670726478,0.747121632,-0.225122899,-0.274987102,-0.56170392,5.906794548,0.606990516,8.179386139,1.034746766,-9.793504715,0.029140852,0.596248269,-0.225077227,-0.225370646,-0.736910045
3891674,6.449286461,-0.226911664,7.30534935,-3.25720644,-8.409214973,0.749536633,0.746706069,-0.226190239,-0.275568813,-0.56154269,5.993471146,0.669139504,8.122760773,0.91115278,-10.47789001,-0.92565608,0.595760047,-0.226058558,-0.226458251,-0.736671209
3891841,6.436722279,-0.266374886,7.343536377,-2.002362728,-7.382860661,0.864716768,0.746381104,-0.227041796,-0.276137322,-0.561351418,6.053369522,0.752427995,8.099858284,0.511402547,-10.72589874,-1.28034091,0.595210969,-0.227088764,-0.227535129,-0.736466289
3892007,6.429728985,-0.257296503,7.365066051,-1.081970334,-7.737842083,0.867931426,0.746071756,-0.227822214,-0.276819021,-0.561110735,6.110301495,0.779628694,8.031603813,0.039296303,-10.72123814,-1.120953083,0.594661951,-0.228163943,-0.228554994,-0.736261666
3892174,6.459757328,-0.277565956,7.32899189,-0.705335438,-8.061162949,0.528844714,0.745733559,-0.228574008,-0.277577221,-0.560880005,6.126934052,0.783389747,8.005764008,-0.244345248,-10.63271999,-0.477600187,0.594173729,-0.229274929,-0.229514763,-0.736012042
3892341,6.516351223,-0.334377855,7.316813469,-0.463128984,-7.379712105,0.351873755,0.745415568,-0.229236498,-0.278286606,-0.560680866,6.16321373,0.815834701,7.98474884,-0.436350882,-10.68277931,0.632332981,0.593794644,-0.230444372,-0.230420694,-0.735669613
3892507,6.499149799,-0.323652089,7.329899311,-0.320248425,-6.400793552,0.093275063,0.745120704,-0.229793355,-0.278909385,-0.560535312,6.18834877,0.783523142,7.947517872,-0.53908354,-10.84558773,1.509465933,0.593498886,-0.23166886,-0.231299683,-0.735247672
3892674,6.519871235,-0.339966804,7.3171525,-0.319019049,-7.463401794,-0.341686308,0.744746745,-0.230419025,-0.279661357,-0.560400963,6.210934639,0.759822071,7.929080486,-0.249800771,-11.17111206,2.812679052,0.593339622,-0.232946485,-0.232193187,-0.734690785
3892841,6.571984291,-0.356435597,7.284629822,-0.452845395,-7.60959816,-0.511844218,0.744346678,-0.2310628,-0.280424058,-0.560285866,6.247429371,0.709498703,7.917480469,0.318257153,-11.28281021,4.171613216,0.593339145,-0.234232247,-0.233110219,-0.733991563
3893007,6.573182583,-0.378002524,7.277244568,-0.37522617,-8.597992897,-0.415028274,0.743917227,-0.231783777,-0.281295449,-0.560121894,6.248740196,0.652733803,7.865098476,1.138606906,-11.67806435,4.890984535,0.593428135,-0.235513225,-0.234123558,-0.733186662
3893174,6.627288818,-0.370188564,7.224842548,-0.185435981,-9.242613792,-0.34556663,0.743471205,-0.232539043,-0.282249093,-0.559921205,6.283710003,0.650996149,7.844032764,1.930526257,-12.2100935,5.267466545,0.593564332,-0.2367948,-0.235253319,-0.732301593
3893341,6.640585899,-0.335926086,7.21266222,0.259975374,-9.292058945,-0.233152464,0.743046582,-0.233254448,-0.28324008,-0.559686899,6.307056904,0.64338237,7.804530144,2.599107981,-12.69843864,5.136777401,0.593690515,-0.238065496,-0.236499816,-0.731385171
3893507,6.671843529,-0.325001121,7.186121941,0.492525965,-9.881714821,-0.090015851,0.742615819,-0.233998254,-0.284308285,-0.55940634,6.353340626,0.664242208,7.773977757,3.076068163,-13.18513298,4.98822403,0.593798339,-0.239340916,-0.237843052,-0.730445325
3893674,6.695250988,-0.309388995,7.150435448,0.19041127,-9.942084312,0.075307757,0.742183983,-0.234786689,-0.285351723,-0.559117615,6.38713932,0.677335083,7.760137081,3.201314211,-13.70256042,4.87290287,0.593877554,-0.24065569,-0.239247099,-0.729489684
3893841,6.731670856,-0.280673176,7.137512207,0.297562063,-10.25997829,0.248539358,0.741753817,-0.235594869,-0.286432594,-0.55879575,6.399486542,0.70799154,7.749314308,2.954984665,-14.55896378,4.628058434,0.593889654,-0.242073119,-0.24070628,-0.728530347
3894007,6.77765131,-0.283145905,7.086197853,0.318372339,-10.46496773,0.478490174,0.741335392,-0.236428604,-0.287527502,-0.558436573,6.415811062,0.746346474,7.74945879,2.481789351,-15.70705318,4.323664188,0.593809247,-0.243641183,-0.24222374,-0.72756958
3894174,6.798830509,-0.264973938,7.033271313,0.668498099,-10.79562855,0.786034822,0.740938306,-0.2372621,-0.288676709,-0.558017015,6.427662373,0.762102485,7.754517078,1.788645744,-17.37116814,3.929895401,0.593600154,-0.245429799,-0.243823916,-0.726603925
3894341,6.833917141,-0.246457577,7.030016899,0.729456425,-10.85765076,0.934639812,0.740547419,-0.238099426,-0.289832234,-0.557580054,6.474652767,0.749388278,7.7384305,1.111842275,-18.994133,3.634529829,0.593273699,-0.247435957,-0.24550125,-0.725624681
3894507,6.854807854,-0.234383509,6.990919113,0.405891001,-10.51787281,1.174784541,0.740179777,-0.238954738,-0.290915519,-0.557137907,6.554980755,0.740420103,7.701875687,0.557326794,-20.20608139,3.475027561,0.592862189,-0.249610022,-0.247228101,-0.724629462
3894674,6.882886887,-0.242232531,6.984121799,0.52128911,-10.587924,1.461275697,0.739828169,-0.239812329,-0.292007267,-0.556665182,6.525230885,0.709484577,7.659680843,0.018165836,-21.33824158,3.27871871,0.592363834,-0.251940399,-0.249000341,-0.723622859
3894841,6.856311321,-0.266940117,7.005233288,0.291504681,-11.65649796,1.563124537,0.739434958,-0.240786359,-0.293190539,-0.556144834,6.480480671,0.645766199,7.614477158,-0.419229478,-23.21616554,3.203200817,0.591767311,-0.254500538,-0.250888139,-0.722562253
3895007,6.93616581,-0.294712603,6.912322044,-0.078195617,-12.9718399,1.23083806,0.738943458,-0.241892472,-0.294495344,-0.555628598,6.481734276,0.606304049,7.592129707,-0.57486552,-25.86590195,2.793551683,0.591017544,-0.257334054,-0.252999008,-0.721435368
3895174,6.923460007,-0.281830221,6.896965504,0.173135519,-11.72823906,1.044262171,0.738497615,-0.242863595,-0.295692027,-0.555162132,6.612706661,0.604800999,7.543785572,-0.522462189,-28.22388077,1.836416721,0.590073526,-0.260371,-0.255349278,-0.720289588
3895341,6.900465965,-0.231795803,6.930165768,0.14929013,-13.20516205,0.78699559,0.737964094,-0.243946552,-0.297052413,-0.554670155,6.72950983,0.601884425,7.489292145,-0.501600683,-29.80570602,0.830449522,0.58895582,-0.263529688,-0.257870317,-0.719156563
3895507,7.001368523,-0.231087252,6.861878395,-0.163088962,-13.56687641,0.626967311,0.737388551,-0.245080978,-0.298433483,-0.554193854,6.850207329,0.576482534,7.385159492,-0.228491649,-30.39883995,0.348558009,0.587765813,-0.266703695,-0.260483712,-0.71801722
3895674,7.006958008,-0.272721708,6.901751041,-0.113784485,-12.62320042,0.850848019,0.736864805,-0.246139541,-0.299711287,-0.55373174,6.938513756,0.594815671,7.255997658,0.063961513,-30.38182831,0.117594674,0.586551011,-0.269837141,-0.263129622,-0.716874361
3895841,6.958971977,-0.296103507,6.918606281,0.154912114,-13.41548061,1.064739704,0.736341298,-0.247249782,-0.301080912,-0.553190291,6.966608524,0.619526923,7.155961037,0.292222589,-30.14154243,-0.086545587,0.585327506,-0.272913098,-0.265781105,-0.715730846
3896007,6.989001274,-0.281576514,6.911447048,0.031292338,-14.29486847,1.144369841,0.73577553,-0.248444155,-0.302532226,-0.552615762,7.052078724,0.643503964,7.068504333,0.394750535,-29.65092659,-0.061393831,0.584111452,-0.275925159,-0.268395722,-0.714592874
3896174,7.012516499,-0.303931624,6.869760036,0.159458384,-14.56827164,1.109267592,0.735187292,-0.249638677,-0.30402711,-0.552039862,7.13325119,0.654938757,6.967931271,0.413217336,-28.82719231,-0.015124343,0.582923889,-0.278847069,-0.270935178,-0.713469207
3896341,7.009569645,-0.308808655,6.870503426,0.448805332,-15.07354832,1.084653854,0.734584451,-0.250840276,-0.305598736,-0.551429331,7.203557491,0.672364771,6.8890481,0.606196523,-27.81834412,0.266263902,0.581802726,-0.281654596,-0.273393065,-0.712343097
3896507,7.027787685,-0.32836172,6.794265747,0.500325263,-15.37058926,0.901228309,0.733957887,-0.252055794,-0.307207465,-0.550815105,7.273831367,0.682257593,6.830379486,0.608322382,-26.8098793,0.777930081,0.580765486,-0.284373641,-0.275740474,-0.711203635
3896674,7.081060886,-0.325500906,6.76618433,0.56526643,-15.61904812,0.689206302,0.733289599,-0.253264606,-0.30886054,-0.550225914,7.32529974,0.65866673,6.765759468,0.792145133,-25.88439941,1.431721449,0.579831839,-0.287003756,-0.277997613,-0.710029244
3896841,7.119549274,-0.329861879,6.726508617,0.652183115,-15.86574936,0.4584741,0.732601047,-0.254479617,-0.310548246,-0.54963243,7.383718967,0.669190764,6.729023933,1.001170516,-25.06642151,1.96595192,0.578986883,-0.289549768,-0.280181229,-0.708825588
3897007,7.182026386,-0.326337844,6.685054779,0.484278947,-15.55317211,0.31328842,0.731898665,-0.255675167,-0.312196165,-0.549079299,7.436733723,0.662871897,6.653546333,1.287367344,-24.15779305,2.394721746,0.578227758,-0.291992009,-0.282296211,-0.707603276
3897174,7.206172466,-0.331241786,6.626727104,0.399257451,-15.22200871,0.234478027,0.731200278,-0.256849617,-0.313802481,-0.548545897,7.464312553,0.64169395,6.642525196,1.73851037,-23.55373001,3.063765287,0.577574193,-0.294358402,-0.284374982,-0.706323147
3897341,7.250834942,-0.318648428,6.628656387,0.324058503,-14.97410393,0.30163458,0.730518639,-0.25801906,-0.315368772,-0.548006535,7.530724049,0.622062325,6.575285435,2.17929244,-22.99380493,3.66028595,0.57701695,-0.296651691,-0.286423057,-0.704990208
3897507,7.305847645,-0.326769382,6.554312229,0.255928665,-14.65523815,0.378626406,0.729850173,-0.259166688,-0.316895664,-0.547474623,7.56755352,0.637609243,6.548992634,2.630717516,-22.54032135,4.24846983,0.576551855,-0.298882157,-0.288450718,-0.703600585
3897674,7.333415031,-0.315435737,6.546430111,0.242814958,-14.27835846,0.311264962,0.729188979,-0.260285258,-0.318380445,-0.546963274,7.59474802,0.649971783,6.506080627,2.863050461,-22.26463509,4.599633217,0.5761379,-0.301076561,-0.290460438,-0.702175796
3897841,7.365128994,-0.342233419,6.506773472,-0.025356589,-14.14507008,0.205945447,0.728522003,-0.261421978,-0.319827825,-0.546465516,7.635696411,0.640685439,6.481891632,3.121873379,-22.16384888,4.796703339,0.575753152,-0.303244263,-0.292476296,-0.700720251
3898007,7.394092083,-0.338370919,6.441933632,0.28205359,-14.1775713,0.170843199,0.727845967,-0.262517363,-0.321309388,-0.545971751,7.641897678,0.622906387,6.46202755,3.338153839,-22.35054016,4.933622837,0.575377464,-0.305415571,-0.294520438,-0.699227929
3898174,7.429372311,-0.341161668,6.431824684,0.228702322,-14.49760437,0.147522837,0.727148235,-0.263641804,-0.322820216,-0.545468271,7.644629002,0.634061992,6.385567188,3.499950409,-22.97803116,5.058422565,0.574988246,-0.307639182,-0.296624422,-0.697682381
3898341,7.474191189,-0.331494659,6.372645855,0.578508079,-14.57965565,0.176426783,0.726462841,-0.264738709,-0.324363083,-0.54493469,7.69491148,0.632093012,6.345505714,3.671376944,-23.69332123,5.102887154,0.574573278,-0.309919149,-0.298799843,-0.696085155
3898507,7.484495163,-0.325232863,6.329250813,0.774893582,-14.50120354,0.159842566,0.725770175,-0.265798897,-0.325918436,-0.544413388,7.754544258,0.591004491,6.30714035,3.86059165,-24.24075699,5.15089798,0.57414037,-0.312236905,-0.301033914,-0.694441974
3898674,7.528231621,-0.308748841,6.29005909,0.887192547,-14.62789726,0.101099804,0.725071788,-0.26684773,-0.327501506,-0.543880522,7.769983292,0.612365007,6.237585068,4.013979912,-24.88290787,5.1262393,0.573676109,-0.314601541,-0.303333938,-0.69275558
3898841,7.558961868,-0.307781816,6.248678207,0.917274654,-14.66226959,0.309420824,0.724386275,-0.267912507,-0.329075485,-0.543320179,7.785209179,0.608564019,6.179260731,4.065059185,-25.66961098,5.015804768,0.573159993,-0.317031831,-0.30570519,-0.691030264
3899007,7.590773106,-0.286647648,6.219497204,1.016395807,-14.8823595,0.300353944,0.723705471,-0.268993467,-0.330671638,-0.542723954,7.815225601,0.613810778,6.112962723,4.11545372,-27.0162735,5.023169994,0.572578311,-0.319588691,-0.308188498,-0.68922925
3899174,7.617548943,-0.293034375,6.205081463,1.046887994,-14.79127026,0.143885866,0.723003209,-0.270047039,-0.332271695,-0.5421592,7.880848885,0.626123667,6.049875736,4.110985279,-28.11720657,5.030637741,0.571938217,-0.32225135,-0.310757309,-0.687365234
3899341,7.63247633,-0.273581833,6.160643101,1.126825094,-14.54055786,0.275151014,0.722320616,-0.271076381,-0.333846152,-0.541587889,7.947392941,0.618864,5.997490406,3.986994028,-28.83903885,5.14437151,0.571260631,-0.324995756,-0.313362569,-0.68545109
3899507,7.666283607,-0.279339075,6.105051517,1.225306034,-14.45186043,0.246119007,0.7216506,-0.272093266,-0.335413516,-0.541002452,8.034517288,0.60422796,5.936757565,4.014885902,-29.27495575,5.409514427,0.570580184,-0.327787369,-0.315988213,-0.683480263
3899674,7.6614604,-0.280764818,6.107687473,1.269769669,-14.05988216,0.141849607,0.720983028,-0.273064107,-0.336949468,-0.540448487,8.077711105,0.624472201,5.873393059,4.056597233,-29.46070671,5.43254137,0.569884658,-0.330588818,-0.318626076,-0.681483686
3899841,7.682992935,-0.284879506,6.112769127,1.336183429,-14.56636238,0.168742985,0.720300734,-0.274072528,-0.338538289,-0.539854884,8.111151695,0.61017406,5.794210434,3.991323233,-29.5687027,5.40878582,0.569167554,-0.333398879,-0.321261197,-0.679473877
3900007,7.713365555,-0.273438752,6.07127285,1.274674773,-14.93101406,0.15051955,0.719594896,-0.275116056,-0.340158015,-0.539246798,8.154577255,0.60338366,5.721785545,3.8155303,-29.69243813,5.388987064,0.568423092,-0.33622843,-0.323883682,-0.677454889
3900174,7.727635384,-0.282578737,6.060418129,1.31830585,-14.70121384,-0.020387722,0.718884885,-0.276126742,-0.34176302,-0.538661897,8.191052437,0.612764716,5.639570713,3.723925829,-29.70743752,5.493705273,0.56767267,-0.339065433,-0.326486796,-0.675417542
3900341,7.747485638,-0.273111969,6.058086395,1.33879602,-14.92650223,-0.054926466,0.718158782,-0.277150989,-0.343392432,-0.538067877,8.234294891,0.587400615,5.559724808,3.62197423,-29.58336639,5.518203735,0.566914439,-0.341893226,-0.329061866,-0.673376083
3900507,7.744986534,-0.269923031,6.011944294,1.183941603,-14.79751778,0.065882318,0.717436492,-0.278184921,-0.344990551,-0.537475169,8.276928902,0.591704667,5.492522717,3.614737988,-29.47649384,5.591046333,0.566157103,-0.344708055,-0.331617266,-0.671321452
3900674,7.754065514,-0.271296591,6.004002094,1.121164799,-14.9823513,0.153849185,0.716708541,-0.279243469,-0.346597493,-0.536863208,8.283179283,0.60206455,5.408341408,3.482601881,-29.51892281,5.339042187,0.565355599,-0.347519159,-0.334169298,-0.66927892
3900841,7.781627178,-0.272207052,5.961824417,1.35262692,-15.35464668,0.070723131,0.715962529,-0.280301839,-0.348262638,-0.536229134,8.34181881,0.57565105,5.313570499,3.367677689,-29.67484283,5.370020866,0.564532816,-0.350349694,-0.336714804,-0.667218864
3901007,7.805026054,-0.248779863,5.883880138,1.512962699,-15.46710014,0.054138891,0.71521157,-0.281349719,-0.349951297,-0.53558296,8.397217751,0.56074965,5.257818222,3.462508678,-29.88067818,5.538207054,0.563710034,-0.35319376,-0.339271039,-0.665116787
3901174,7.892427444,-0.246972531,5.822507858,1.402469397,-14.39107037,0.311610758,0.714526594,-0.28233698,-0.351507187,-0.534958243,8.440878868,0.577432632,5.218846321,3.402933836,-30.15514946,5.449318886,0.562850952,-0.356057972,-0.341841668,-0.662997782
3901341,7.952481747,-0.255257905,5.830307484,1.664807081,-11.73305416,0.385810673,0.713992655,-0.283093184,-0.352802962,-0.534418166,8.513656616,0.574106693,5.180835724,3.416110754,-30.25956535,5.115314484,0.561943769,-0.358907402,-0.344432265,-0.660886765
3901508,7.869295597,-0.23904185,5.863605022,1.722653031,-10.86574364,0.461175978,0.713509202,-0.283779114,-0.35400936,-0.533902228,8.542884827,0.546250522,5.091721058,3.478658199,-30.56531143,5.231955528,0.561024308,-0.361779541,-0.347040594,-0.658733845
3901674,7.866034031,-0.242086008,5.841935635,1.583871126,-12.07371902,0.502118111,0.71295923,-0.284574479,-0.355327547,-0.533337593,8.576486588,0.532316864,4.994466305,3.580507517,-30.92038536,5.574975491,0.560113549,-0.364687204,-0.349662155,-0.656515539
3901841,7.9034729,-0.258842081,5.783130646,1.057952404,-13.10427094,0.564305723,0.712336302,-0.285506546,-0.356707871,-0.53275007,8.633706093,0.54624176,4.90721035,3.61801815,-31.10900116,5.685738564,0.559193909,-0.367607653,-0.35228914,-0.654262483
3902008,7.950649261,-0.247727901,5.761889458,0.990066051,-14.32486057,0.507035792,0.711640239,-0.286536157,-0.358210415,-0.532119155,8.697324753,0.536580086,4.817837715,3.404560804,-31.01163101,5.831308842,0.558269799,-0.370535851,-0.354872406,-0.651999891
3902174,8.000879288,-0.238308311,5.696301937,1.331317067,-14.3505249,0.420515984,0.710947216,-0.287526637,-0.359744012,-0.531476259,8.740156174,0.531364501,4.742743492,3.406084776,-30.70980835,5.700182915,0.557337105,-0.373420775,-0.357430816,-0.649750471
3902341,7.99038744,-0.243618369,5.679759502,1.522669554,-13.91704082,0.495868593,0.710287094,-0.288466454,-0.361243039,-0.53083235,8.737966537,0.510150194,4.657813072,3.224732876,-30.75976372,5.791121483,0.556388974,-0.376321971,-0.359963506,-0.647486925
3902508,8.004375458,-0.245884806,5.613727093,1.473109365,-14.75683212,0.616248488,0.70958817,-0.289481461,-0.36281836,-0.530139923,8.758820534,0.474295348,4.567383766,3.330719471,-31.2760582,5.943147182,0.555422127,-0.379263341,-0.362531871,-0.645163774
3902674,8.062149048,-0.243514001,5.579178333,0.978578806,-14.78272724,0.483369678,0.708853304,-0.290541083,-0.364362001,-0.529483914,8.849982262,0.482023597,4.477732182,3.329016209,-31.77717972,6.219266415,0.554442644,-0.382258117,-0.365117162,-0.642776668
3902841,8.103888512,-0.251870483,5.525061607,1.197401166,-14.38443661,0.610536873,0.708155572,-0.29155302,-0.365874708,-0.528817832,8.914504051,0.477376819,4.380064011,3.326096296,-31.89910889,6.115419388,0.553434253,-0.38525036,-0.367709339,-0.640376866
3903008,8.150420189,-0.241077527,5.490524769,1.389201641,-13.98764229,0.621089101,0.707484841,-0.292514116,-0.36735934,-0.528155088,8.978206635,0.464737356,4.28621912,3.293491364,-31.8279438,5.969298363,0.55240202,-0.388222456,-0.370292664,-0.637980461
3903174,8.165793419,-0.240095988,5.420392513,1.43360126,-13.60187435,0.689039648,0.706839085,-0.29344359,-0.368803471,-0.527497351,8.980376244,0.450471371,4.212017536,3.36314559,-31.81256294,6.035327911,0.551368177,-0.391182452,-0.372869045,-0.635561466
3903341,8.185311317,-0.244925603,5.442433834,1.613569021,-13.54540062,0.685453951,0.706201434,-0.294349045,-0.370254487,-0.526829958,8.956951141,0.427757233,4.141933441,3.494232416,-32.17276001,6.066410065,0.550312757,-0.394158095,-0.375476122,-0.633097947
3903508,8.206731796,-0.240752608,5.394202709,1.552444339,-13.71887493,0.565099776,0.705539584,-0.295266539,-0.37172249,-0.52616924,8.925169945,0.404643387,4.029203415,3.560941696,-33.16781235,6.243716717,0.54921031,-0.397220492,-0.378149807,-0.630544782
3903674,8.194022179,-0.236481771,5.412893772,1.124750495,-14.55488777,0.79160589,0.704828262,-0.296303034,-0.373232365,-0.525470734,8.986496925,0.388597935,3.938839912,3.773144722,-34.39767075,6.577606678,0.548069239,-0.400387108,-0.380912125,-0.627866387
3903841,8.257242203,-0.247713894,5.287635326,1.477655888,-16.69977951,0.884631574,0.704019666,-0.297470719,-0.374983221,-0.524647772,9.075073242,0.401084781,3.855512619,3.977574348,-35.15439987,6.675653934,0.546892524,-0.403601378,-0.383737355,-0.625108063
3904008,8.36954689,-0.224516496,5.206322193,1.641768813,-14.32342434,0.846865237,0.703340888,-0.29843691,-0.37650308,-0.523920238,9.202302933,0.410282373,3.718881369,4.034383297,-34.96463776,6.34581089,0.545684934,-0.406764627,-0.386561453,-0.622367084
3904174,8.335633278,-0.220338196,5.238955498,1.446689248,-12.19464779,0.568992853,0.70274657,-0.299244821,-0.377801418,-0.523322225,9.258058548,0.36015439,3.627719164,3.872330427,-34.58450699,6.150705338,0.544456899,-0.409884661,-0.389341921,-0.619656622
