// Start Time: Unknown
// Update Rate: 60.0Hz
//Filter Profile: human (46.1)
// Option Flags: AHS Disabled ICC Disabled
// Firmware Version: 4.0.2
0	sampleTimeFine	Year	Month	Day	Second	UTC_Nano	UTC_Year	UTC_Month	UTC_Day	UTC_Hour	UTC_Minute	UTC_Second	UTC_Valid	Acc_X	Acc_Y	Acc_Z	Mat[1][1]	Mat[2][1]	Mat[3][1]	Mat[1][2]	Mat[2][2]	Mat[3][2]	Mat[1][3]	Mat[2][3]	Mat[3][3]
0	1350458													0.108682	0.265272	-0.408715	-0.166474	-0.957582	0.235207	0.047487	0.230473	0.971919	-0.984902	0.172969	0.007105
1	1350625													9.631602	0.468941	-1.612744	-0.166653	-0.957129	0.236920	0.047578	0.232195	0.971505	-0.984867	0.173176	0.006842
2	1350791													9.626861	0.488864	-1.642005	-0.166515	-0.957080	0.237214	0.047519	0.232504	0.971434	-0.984893	0.173030	0.006764
3	1350958													9.639480	0.491437	-1.623905	-0.166756	-0.956917	0.237703	0.047772	0.232954	0.971314	-0.984840	0.173328	0.006868
4	1351458													9.652670	0.474080	-1.619170	-0.166841	-0.956803	0.238102	0.048091	0.233302	0.971214	-0.984810	0.173489	0.007089
5	1351625													9.648025	0.452619	-1.655948	-0.166782	-0.956621	0.238872	0.048173	0.234070	0.971026	-0.984816	0.173456	0.007045
6	1351791													9.682218	0.458581	-1.638999	-0.166874	-0.956498	0.239299	0.048010	0.234532	0.970922	-0.984809	0.173510	0.006785
7	1351958													9.663902	0.427249	-1.632259	-0.166848	-0.956440	0.239549	0.047826	0.234818	0.970862	-0.984822	0.173443	0.006563
8	1352125													9.600149	0.401631	-1.629789	-0.166824	-0.956384	0.239792	0.047506	0.235121	0.970805	-0.984842	0.173345	0.006210
9	1352291													9.590025	0.371613	-1.669936	-0.166935	-0.956420	0.239572	0.047063	0.234975	0.970861	-0.984844	0.173345	0.005786
10	1352458													9.637961	0.396538	-1.683156	-0.167149	-0.956409	0.239463	0.046477	0.234966	0.970892	-0.984836	0.173413	0.005177
11	1352625													9.671183	0.442193	-1.638958	-0.167426	-0.956492	0.238939	0.046014	0.234515	0.971023	-0.984810	0.173569	0.004748
12	1352791													9.718816	0.458545	-1.625844	-0.167530	-0.956589	0.238477	0.045728	0.234096	0.971138	-0.984806	0.173600	0.004524
13	1352958													9.680657	0.460337	-1.628716	-0.167427	-0.956757	0.237876	0.045495	0.233527	0.971285	-0.984834	0.173442	0.004429
14	1353125													9.639904	0.475680	-1.623260	-0.167250	-0.956925	0.237323	0.045263	0.233007	0.971421	-0.984875	0.173212	0.004343
15	1353291													9.624943	0.516408	-1.608540	-0.167058	-0.957074	0.236856	0.045041	0.232573	0.971535	-0.984918	0.172971	0.004255
16	1353458													9.624040	0.508940	-1.584162	-0.166820	-0.957162	0.236670	0.044802	0.232427	0.971581	-0.984969	0.172683	0.004110
17	1353625													9.606765	0.492463	-1.575089	-0.166594	-0.957219	0.236599	0.044552	0.232399	0.971599	-0.985019	0.172404	0.003930
18	1353791													9.617755	0.465373	-1.581579	-0.166400	-0.957267	0.236540	0.044304	0.232384	0.971615	-0.985063	0.172156	0.003742
19	1353958													9.632377	0.419264	-1.591472	-0.166278	-0.957396	0.236102	0.044041	0.231986	0.971722	-0.985095	0.171974	0.003591
20	1354125													9.624998	0.396268	-1.601058	-0.166221	-0.957513	0.235668	0.043765	0.231594	0.971828	-0.985117	0.171852	0.003410
21	1354291													9.638144	0.413899	-1.615137	-0.166255	-0.957609	0.235254	0.043568	0.231207	0.971928	-0.985120	0.171838	0.003282
22	1354458													9.664182	0.441116	-1.619472	-0.166308	-0.957711	0.234800	0.043439	0.230769	0.972038	-0.985117	0.171857	0.003224
23	1354625													9.621300	0.447219	-1.623598	-0.166373	-0.957831	0.234266	0.043405	0.230233	0.972167	-0.985107	0.171911	0.003270
24	1354791													9.662623	0.444636	-1.654306	-0.166513	-0.957914	0.233824	0.043323	0.229798	0.972274	-0.985087	0.172026	0.003235
25	1354958													9.613175	0.478185	-1.644595	-0.166654	-0.958004	0.233355	0.043154	0.229352	0.972386	-0.985071	0.172122	0.003120
26	1355125													9.614265	0.538710	-1.658502	-0.166864	-0.958052	0.233009	0.043076	0.229013	0.972470	-0.985039	0.172307	0.003055
27	1355291													9.647318	0.479841	-1.672389	-0.167083	-0.958037	0.232914	0.043081	0.228915	0.972493	-0.985001	0.172521	0.003026
28	1355458													9.663375	0.426940	-1.656018	-0.167217	-0.958040	0.232804	0.043002	0.228816	0.972519	-0.984982	0.172633	0.002936
29	1355625													9.646038	0.439691	-1.676744	-0.167317	-0.958053	0.232679	0.042874	0.228712	0.972550	-0.984970	0.172700	0.002808
30	1355791													9.662889	0.438570	-1.673944	-0.167362	-0.958110	0.232411	0.042692	0.228471	0.972614	-0.984971	0.172700	0.002667
31	1355958													9.632376	0.450881	-1.665701	-0.167322	-0.958176	0.232169	0.042522	0.228257	0.972672	-0.984985	0.172622	0.002551
32	1356125													9.623556	0.426237	-1.666884	-0.167262	-0.958264	0.231848	0.042395	0.227953	0.972749	-0.985001	0.172533	0.002498
33	1356291													9.632314	0.421238	-1.675002	-0.167187	-0.958367	0.231478	0.042318	0.227591	0.972837	-0.985017	0.172441	0.002506
34	1356458													9.652494	0.432385	-1.654400	-0.167069	-0.958480	0.231093	0.042238	0.227214	0.972928	-0.985040	0.172307	0.002524
35	1356625													9.682931	0.435901	-1.634598	-0.166875	-0.958603	0.230723	0.042176	0.226850	0.973016	-0.985076	0.172103	0.002574
36	1356791													9.646191	0.476858	-1.645515	-0.166649	-0.958752	0.230265	0.042099	0.226399	0.973124	-0.985117	0.171864	0.002634
37	1356958													9.657286	0.489768	-1.634571	-0.166377	-0.958872	0.229964	0.042031	0.226106	0.973195	-0.985166	0.171583	0.002684
38	1357125													9.644412	0.476984	-1.617662	-0.166060	-0.958989	0.229705	0.041972	0.225855	0.973256	-0.985222	0.171260	0.002745
39	1357291													9.652784	0.472391	-1.602322	-0.165744	-0.959085	0.229534	0.041871	0.225700	0.973297	-0.985280	0.170929	0.002750
40	1357458													9.616996	0.454993	-1.586470	-0.165492	-0.959152	0.229433	0.041661	0.225634	0.973321	-0.985331	0.170635	0.002618
41	1357625													9.614975	0.449100	-1.583116	-0.165282	-0.959241	0.229212	0.041460	0.225446	0.973373	-0.985375	0.170384	0.002508
42	1357791													9.620693	0.414660	-1.573569	-0.165116	-0.959347	0.228888	0.041264	0.225151	0.973450	-0.985411	0.170177	0.002411
43	1357958													9.626352	0.412684	-1.579875	-0.164996	-0.959464	0.228486	0.041128	0.224766	0.973544	-0.985436	0.170028	0.002375
44	1358125													9.649251	0.421445	-1.582415	-0.164914	-0.959593	0.228001	0.040983	0.224300	0.973658	-0.985456	0.169914	0.002337
45	1358291													9.677870	0.424093	-1.596393	-0.164854	-0.959739	0.227431	0.040816	0.223750	0.973792	-0.985473	0.169817	0.002287
46	1358458													9.643828	0.443306	-1.592726	-0.164780	-0.959885	0.226867	0.040691	0.223200	0.973923	-0.985491	0.169715	0.002280
47	1358625													9.641036	0.459786	-1.583881	-0.164708	-0.960014	0.226372	0.040598	0.222713	0.974038	-0.985506	0.169622	0.002292
48	1358791													9.637586	0.454278	-1.609193	-0.164655	-0.960129	0.225923	0.040470	0.222280	0.974142	-0.985521	0.169541	0.002257
49	1358958													9.635051	0.457683	-1.617261	-0.164634	-0.960228	0.225517	0.040360	0.221887	0.974237	-0.985529	0.169494	0.002225
50	1359125													9.634951	0.454790	-1.596952	-0.164648	-0.960312	0.225148	0.040265	0.221530	0.974322	-0.985530	0.169485	0.002193
51	1359291													9.659084	0.449386	-1.617794	-0.164669	-0.960393	0.224786	0.040176	0.221178	0.974406	-0.985530	0.169485	0.002163
52	1359458													9.654112	0.442624	-1.608646	-0.164607	-0.960473	0.224489	0.040139	0.220883	0.974474	-0.985542	0.169416	0.002194
53	1359625													9.634442	0.431398	-1.620701	-0.164623	-0.960546	0.224166	0.040098	0.220561	0.974549	-0.985541	0.169422	0.002207
54	1359791													9.667433	0.438296	-1.580587	-0.164581	-0.960627	0.223852	0.040139	0.220236	0.974620	-0.985547	0.169389	0.002312
55	1359958													9.614215	0.409294	-1.599558	-0.164562	-0.960714	0.223489	0.040165	0.219864	0.974703	-0.985549	0.169375	0.002406
56	1360125													9.592275	0.442355	-1.642255	-0.164654	-0.960815	0.222989	0.040127	0.219362	0.974818	-0.985535	0.169456	0.002436
57	1360291													9.648040	0.447743	-1.643760	-0.164858	-0.960893	0.222501	0.040029	0.218883	0.974930	-0.985505	0.169631	0.002379
58	1360458													9.664083	0.445719	-1.661939	-0.165053	-0.960978	0.221988	0.039881	0.218388	0.975047	-0.985478	0.169788	0.002279
59	1360625													9.674012	0.496860	-1.630064	-0.165190	-0.961080	0.221442	0.039822	0.217844	0.975171	-0.985458	0.169907	0.002287
60	1360791													9.701603	0.463884	-1.602348	-0.165188	-0.961177	0.221023	0.039851	0.217414	0.975266	-0.985457	0.169910	0.002390
61	1360958													9.685681	0.438397	-1.610194	-0.165066	-0.961296	0.220596	0.039818	0.216987	0.975362	-0.985478	0.169783	0.002460
62	1361125													9.642964	0.455929	-1.612173	-0.164904	-0.961437	0.220105	0.039705	0.216509	0.975473	-0.985510	0.169598	0.002471
63	1361291													9.643930	0.474809	-1.571099	-0.164716	-0.961571	0.219657	0.039565	0.216079	0.975574	-0.985547	0.169384	0.002452
64	1361458													9.619096	0.507594	-1.578692	-0.164520	-0.961683	0.219315	0.039415	0.215758	0.975651	-0.985586	0.169159	0.002409
65	1361625													9.616693	0.478522	-1.571336	-0.164380	-0.961761	0.219079	0.039290	0.215540	0.975704	-0.985614	0.168994	0.002357
66	1361792													9.624698	0.431738	-1.569069	-0.164306	-0.961814	0.218899	0.039164	0.215380	0.975745	-0.985632	0.168893	0.002280
67	1361958													9.630693	0.399273	-1.593505	-0.164272	-0.961886	0.218610	0.038981	0.215117	0.975810	-0.985645	0.168820	0.002158
68	1362125													9.653087	0.402010	-1.596583	-0.164316	-0.961977	0.218174	0.038778	0.214710	0.975908	-0.985645	0.168818	0.002023
69	1362292													9.656446	0.419905	-1.587546	-0.164381	-0.962076	0.217689	0.038604	0.214247	0.976016	-0.985641	0.168843	0.001922
70	1362458													9.646326	0.454919	-1.590415	-0.164441	-0.962178	0.217193	0.038550	0.213753	0.976127	-0.985633	0.168888	0.001943
71	1362625													9.624157	0.420905	-1.602044	-0.164590	-0.962251	0.216758	0.038535	0.213314	0.976223	-0.985609	0.169029	0.001971
72	1362792													9.668916	0.418732	-1.640562	-0.164747	-0.962343	0.216228	0.038417	0.212796	0.976341	-0.985587	0.169156	0.001913
73	1362958													9.656172	0.500699	-1.629704	-0.164923	-0.962438	0.215668	0.038330	0.212243	0.976465	-0.985561	0.169308	0.001886
74	1363125													9.655884	0.522216	-1.630425	-0.165104	-0.962487	0.215311	0.038394	0.211869	0.976544	-0.985529	0.169498	0.001974
75	1363292													9.643365	0.474552	-1.623194	-0.165271	-0.962522	0.215028	0.038385	0.211584	0.976606	-0.985501	0.169658	0.001978
76	1363458													9.646587	0.453132	-1.630917	-0.165424	-0.962555	0.214761	0.038310	0.211325	0.976665	-0.985478	0.169792	0.001917
77	1363625													9.636958	0.445190	-1.619030	-0.165564	-0.962609	0.214412	0.038187	0.210992	0.976742	-0.985459	0.169901	0.001826
78	1363792													9.637112	0.447952	-1.634940	-0.165683	-0.962672	0.214036	0.038024	0.210639	0.976824	-0.985446	0.169982	0.001705
79	1363958													9.637446	0.444512	-1.634498	-0.165818	-0.962731	0.213665	0.037925	0.210279	0.976906	-0.985427	0.170092	0.001644
80	1364125													9.644988	0.440288	-1.644326	-0.165900	-0.962794	0.213319	0.037845	0.209941	0.976981	-0.985416	0.170154	0.001608
81	1364292													9.650825	0.449100	-1.644201	-0.165922	-0.962876	0.212932	0.037819	0.209553	0.977066	-0.985413	0.170170	0.001645
82	1364458													9.657543	0.444905	-1.642663	-0.165882	-0.962976	0.212509	0.037794	0.209128	0.977158	-0.985421	0.170124	0.001705
83	1364625													9.661922	0.466881	-1.641790	-0.165790	-0.963082	0.212100	0.037783	0.208716	0.977246	-0.985437	0.170031	0.001785
84	1364792													9.677063	0.491138	-1.624396	-0.165627	-0.963199	0.211698	0.037772	0.208310	0.977333	-0.985465	0.169870	0.001881
85	1364958													9.654540	0.485542	-1.639451	-0.165425	-0.963307	0.211362	0.037757	0.207971	0.977406	-0.985499	0.169667	0.001968
86	1365125													9.662062	0.480838	-1.628800	-0.165161	-0.963424	0.211034	0.037729	0.207644	0.977477	-0.985545	0.169403	0.002054
87	1365292													9.629676	0.452761	-1.608497	-0.164911	-0.963530	0.210748	0.037691	0.207361	0.977538	-0.985588	0.169150	0.002120
88	1365458													9.622606	0.444150	-1.596407	-0.164720	-0.963631	0.210433	0.037609	0.207056	0.977606	-0.985623	0.168946	0.002135
89	1365625													9.626653	0.443410	-1.605231	-0.164563	-0.963742	0.210047	0.037537	0.206677	0.977689	-0.985652	0.168776	0.002165
90	1365792													9.641612	0.442849	-1.602395	-0.164414	-0.963869	0.209582	0.037457	0.206219	0.977789	-0.985680	0.168612	0.002198
91	1365958													9.652491	0.438954	-1.607813	-0.164284	-0.964014	0.209018	0.037347	0.205666	0.977909	-0.985706	0.168461	0.002215
92	1366125													9.644516	0.453520	-1.598386	-0.164180	-0.964074	0.208821	0.037247	0.205484	0.977951	-0.985727	0.168338	0.002173
93	1366292													9.640879	0.447394	-1.590468	-0.164113	-0.964132	0.208605	0.037165	0.205279	0.977998	-0.985741	0.168255	0.002143
94	1366458													9.640623	0.457234	-1.591365	-0.164078	-0.964193	0.208351	0.037040	0.205043	0.978052	-0.985752	0.168194	0.002071
95	1366625													9.647181	0.468673	-1.589228	-0.164071	-0.964245	0.208117	0.036931	0.204824	0.978102	-0.985757	0.168164	0.002005
96	1366792													9.645418	0.471541	-1.602505	-0.164116	-0.964280	0.207916	0.036815	0.204640	0.978145	-0.985754	0.168184	0.001915
97	1366958													9.634159	0.486117	-1.604583	-0.164158	-0.964308	0.207754	0.036712	0.204493	0.978179	-0.985751	0.168203	0.001832
98	1367125													9.634150	0.480660	-1.605202	-0.164249	-0.964310	0.207674	0.036655	0.204421	0.978197	-0.985738	0.168280	0.001770
99	1367292													9.673942	0.504142	-1.583681	-0.164301	-0.964301	0.207674	0.036647	0.204423	0.978197	-0.985729	0.168329	0.001752
100	1367458													9.655531	0.496324	-1.617000	-0.164285	-0.964283	0.207771	0.036690	0.204514	0.978176	-0.985730	0.168323	0.001781
101	1367625													9.653618	0.487431	-1.600608	-0.164241	-0.964261	0.207907	0.036698	0.204651	0.978147	-0.985737	0.168282	0.001774
102	1367792													9.686846	0.487516	-1.615600	-0.164112	-0.964244	0.208087	0.036663	0.204839	0.978109	-0.985760	0.168149	0.001736
103	1367958													9.646553	0.456648	-1.574889	-0.163956	-0.964234	0.208257	0.036614	0.205020	0.978073	-0.985788	0.167986	0.001690
104	1368125													9.576111	0.415308	-1.619871	-0.163858	-0.964231	0.208347	0.036494	0.205132	0.978054	-0.985809	0.167865	0.001576
105	1368292													9.633849	0.397710	-1.622689	-0.163889	-0.964244	0.208263	0.036311	0.205078	0.978072	-0.985810	0.167858	0.001402
106	1368458													9.649330	0.413733	-1.638948	-0.163990	-0.964281	0.208011	0.036102	0.204858	0.978126	-0.985801	0.167913	0.001217
107	1368625													9.682960	0.452473	-1.599762	-0.164008	-0.964344	0.207705	0.036049	0.204556	0.978191	-0.985800	0.167919	0.001215
108	1368792													9.701580	0.454516	-1.602488	-0.163919	-0.964426	0.207397	0.036111	0.204233	0.978256	-0.985813	0.167844	0.001348
109	1368958													9.675179	0.450914	-1.597794	-0.163722	-0.964529	0.207070	0.036090	0.203906	0.978325	-0.985846	0.167646	0.001426
110	1369125													9.630383	0.515313	-1.557095	-0.163500	-0.964631	0.206773	0.035992	0.203621	0.978388	-0.985887	0.167409	0.001427
111	1369292													9.627689	0.525765	-1.560355	-0.163308	-0.964700	0.206602	0.035834	0.203475	0.978424	-0.985924	0.167188	0.001340
112	1369458													9.608188	0.513895	-1.550907	-0.163138	-0.964725	0.206618	0.035655	0.203521	0.978421	-0.985959	0.166984	0.001195
113	1369625													9.623115	0.468636	-1.546645	-0.163030	-0.964720	0.206727	0.035498	0.203659	0.978398	-0.985982	0.166847	0.001043
114	1369792													9.627747	0.418150	-1.571455	-0.163014	-0.964699	0.206838	0.035337	0.203799	0.978375	-0.985991	0.166798	0.000867
115	1369958													9.637841	0.399660	-1.573765	-0.163063	-0.964696	0.206816	0.035155	0.203807	0.978380	-0.985989	0.166808	0.000680
116	1370125													9.634512	0.398543	-1.585339	-0.163208	-0.964704	0.206664	0.035023	0.203676	0.978412	-0.985970	0.166922	0.000546
117	1370292													9.632681	0.410565	-1.560862	-0.163426	-0.964711	0.206457	0.034972	0.203475	0.978455	-0.985935	0.167126	0.000485
118	1370458													9.672188	0.459241	-1.574696	-0.163681	-0.964716	0.206232	0.035025	0.203237	0.978503	-0.985891	0.167385	0.000523
119	1370625													9.608370	0.490178	-1.604136	-0.163987	-0.964684	0.206137	0.035151	0.203119	0.978523	-0.985836	0.167711	0.000601
120	1370792													9.609237	0.471220	-1.620113	-0.164476	-0.964606	0.206113	0.035201	0.203085	0.978528	-0.985753	0.168200	0.000553
121	1370958													9.552894	0.524611	-1.649558	-0.165175	-0.964483	0.206133	0.035121	0.203119	0.978524	-0.985639	0.168868	0.000324
122	1371125													9.594565	0.568303	-1.619648	-0.166025	-0.964296	0.206324	0.035137	0.203310	0.978484	-0.985495	0.169702	0.000128
123	1371292													9.639852	0.506784	-1.641915	-0.166957	-0.964048	0.206728	0.035145	0.203719	0.978398	-0.985338	0.170616	-0.000131
124	1371458													9.614961	0.460828	-1.688536	-0.167940	-0.963777	0.207194	0.035034	0.204212	0.978300	-0.985175	0.171554	-0.000531
125	1371625													9.478231	0.450817	-1.705107	-0.169244	-0.963486	0.207486	0.034724	0.204563	0.978237	-0.984962	0.172766	-0.001165
126	1371792													9.472423	0.461500	-1.733449	-0.170830	-0.963137	0.207810	0.034081	0.205008	0.978167	-0.984711	0.174183	-0.002197
127	1371958													9.456815	0.336891	-1.749313	-0.172884	-0.962702	0.208123	0.032559	0.205604	0.978094	-0.984404	0.175873	-0.004201
128	1372125													9.636762	0.474183	-1.741845	-0.175388	-0.962359	0.207617	0.029051	0.205735	0.978176	-0.984071	0.177592	-0.008125
129	1372292													9.761257	1.006810	-1.690166	-0.177855	-0.961927	0.207517	0.023942	0.206587	0.978135	-0.983765	0.178935	-0.013712
130	1372458													10.055296	1.083710	-1.706578	-0.179688	-0.961351	0.208605	0.017625	0.208876	0.977783	-0.983566	0.179372	-0.020588
131	1372625													9.827746	0.908062	-1.695661	-0.180814	-0.960650	0.210849	0.010229	0.212534	0.977100	-0.983464	0.178830	-0.028602
132	1372792													9.844755	0.647910	-1.749516	-0.181337	-0.959859	0.213982	0.002209	0.217191	0.976127	-0.983418	0.177481	-0.037264
133	1372958													9.709446	0.383453	-1.772007	-0.181309	-0.959015	0.217755	-0.006023	0.222503	0.974913	-0.983408	0.175449	-0.046118
134	1373125													9.593358	0.023827	-1.801965	-0.181088	-0.958119	0.221845	-0.014018	0.228067	0.973545	-0.983367	0.173187	-0.054731
135	1373292													9.487079	-0.369358	-1.780069	-0.180917	-0.957262	0.225653	-0.021167	0.233176	0.972204	-0.983271	0.171112	-0.062448
136	1373458													9.460962	-0.645507	-1.788919	-0.181008	-0.956511	0.228744	-0.026791	0.237295	0.971068	-0.983117	0.169643	-0.068578
137	1373625													9.513084	-0.793384	-1.785971	-0.181247	-0.955975	0.230785	-0.030457	0.240016	0.970291	-0.982966	0.168833	-0.072618
138	1373792													9.629124	-0.843599	-1.770860	-0.181456	-0.955705	0.231737	-0.031900	0.241245	0.969940	-0.982882	0.168609	-0.074263
139	1373958													9.725270	-0.867045	-1.760047	-0.181348	-0.955753	0.231622	-0.031133	0.240988	0.970029	-0.982926	0.168701	-0.073458
140	1374125													9.793167	-0.745941	-1.804613	-0.180716	-0.956176	0.230367	-0.028786	0.239265	0.970527	-0.983114	0.168759	-0.070764
141	1374292													9.818218	-0.485609	-1.769001	-0.179557	-0.956855	0.228449	-0.025252	0.236629	0.971272	-0.983423	0.168629	-0.066651
142	1374458													9.685979	-0.398111	-1.776472	-0.177882	-0.957720	0.226119	-0.020644	0.233365	0.972170	-0.983835	0.168263	-0.061283
143	1374625													9.676026	-0.324038	-1.752925	-0.175951	-0.958714	0.223403	-0.015279	0.229575	0.973171	-0.984280	0.167817	-0.055042
144	1374792													9.608880	-0.199505	-1.776153	-0.173943	-0.959786	0.220351	-0.009648	0.225412	0.974216	-0.984709	0.167332	-0.048468
145	1374958													9.550388	-0.059179	-1.727162	-0.172063	-0.960862	0.217115	-0.004033	0.221088	0.975246	-0.985078	0.166928	-0.041916
146	1375125													9.501453	0.132424	-1.705901	-0.170508	-0.961868	0.213864	0.001273	0.216827	0.976209	-0.985355	0.166724	-0.035746
147	1375292													9.522335	0.321100	-1.649980	-0.169294	-0.962747	0.210849	0.005975	0.212930	0.977049	-0.985548	0.166668	-0.030295
148	1375458													9.583443	0.463128	-1.631259	-0.168384	-0.963462	0.208296	0.009881	0.209653	0.977726	-0.985672	0.166692	-0.025782
149	1375625													9.636703	0.576345	-1.642917	-0.167675	-0.963981	0.206458	0.012973	0.207247	0.978203	-0.985757	0.166698	-0.022244
150	1375792													9.677757	0.625143	-1.583118	-0.167048	-0.964321	0.205377	0.015202	0.205760	0.978484	-0.985832	0.166576	-0.019713
151	1375958													9.697739	0.657175	-1.573043	-0.166446	-0.964481	0.205114	0.016640	0.205238	0.978571	-0.985910	0.166292	-0.018112
152	1376125													9.659463	0.628668	-1.592656	-0.165817	-0.964493	0.205568	0.017288	0.205579	0.978488	-0.986005	0.165803	-0.017414
153	1376292													9.628702	0.568220	-1.589890	-0.165276	-0.964349	0.206675	0.017353	0.206681	0.978255	-0.986095	0.165268	-0.017425
154	1376458													9.637065	0.452019	-1.550677	-0.164920	-0.964081	0.208204	0.017151	0.208260	0.977923	-0.986158	0.164850	-0.017811
155	1376625													9.634210	0.275373	-1.581091	-0.164621	-0.963792	0.209774	0.016953	0.209880	0.977580	-0.986211	0.164487	-0.018212
156	1376792													9.606005	0.154437	-1.579848	-0.164422	-0.963550	0.211039	0.016815	0.211182	0.977302	-0.986247	0.164239	-0.018520
157	1376958													9.613649	0.095802	-1.607310	-0.164421	-0.963370	0.211857	0.016757	0.212021	0.977122	-0.986248	0.164209	-0.018717
158	1377125													9.573066	0.122401	-1.632546	-0.164659	-0.963265	0.212153	0.016837	0.212313	0.977057	-0.986207	0.164453	-0.018741
159	1377292													9.602195	0.221340	-1.630633	-0.165093	-0.963229	0.211976	0.017071	0.212103	0.977098	-0.986130	0.164931	-0.018573
160	1377458													9.683899	0.288475	-1.669291	-0.165613	-0.963237	0.211536	0.017382	0.211614	0.977199	-0.986038	0.165514	-0.018303
161	1377625													9.755460	0.334790	-1.686051	-0.166117	-0.963269	0.210992	0.017577	0.211038	0.977320	-0.985949	0.166058	-0.018126
162	1377792													9.748585	0.376442	-1.678345	-0.166516	-0.963332	0.210388	0.017574	0.210434	0.977450	-0.985882	0.166458	-0.018111
163	1377958													9.744048	0.430655	-1.667479	-0.166820	-0.963395	0.209862	0.017429	0.209930	0.977561	-0.985833	0.166734	-0.018229
164	1378125													9.685863	0.412338	-1.656792	-0.167038	-0.963434	0.209507	0.017203	0.209612	0.977633	-0.985800	0.166906	-0.018439
165	1378292													9.627319	0.353758	-1.665126	-0.167243	-0.963442	0.209305	0.016940	0.209456	0.977671	-0.985770	0.167055	-0.018709
166	1378459													9.540484	0.333132	-1.644871	-0.167475	-0.963442	0.209120	0.016662	0.209320	0.977705	-0.985736	0.167225	-0.019003
167	1378625													9.537489	0.319672	-1.650874	-0.167729	-0.963431	0.208970	0.016449	0.209208	0.977733	-0.985696	0.167432	-0.019243
168	1378792													9.608119	0.317359	-1.630885	-0.167951	-0.963418	0.208851	0.016311	0.209115	0.977755	-0.985660	0.167622	-0.019407
169	1378959													9.630948	0.323897	-1.664063	-0.168064	-0.963408	0.208808	0.016294	0.209077	0.977763	-0.985641	0.167729	-0.019440
170	1379125													9.659183	0.346098	-1.667507	-0.168016	-0.963406	0.208850	0.016364	0.209107	0.977756	-0.985648	0.167697	-0.019369
171	1379292													9.657735	0.311797	-1.653617	-0.167845	-0.963409	0.208976	0.016493	0.209209	0.977732	-0.985675	0.167554	-0.019225
172	1379459													9.699204	0.257884	-1.664616	-0.167643	-0.963429	0.209047	0.016510	0.209274	0.977718	-0.985709	0.167359	-0.019177
173	1379625													9.663122	0.225184	-1.661807	-0.167367	-0.963494	0.208968	0.016319	0.209221	0.977732	-0.985760	0.167050	-0.019293
174	1379792													9.663479	0.304270	-1.661154	-0.167104	-0.963577	0.208794	0.016138	0.209070	0.977768	-0.985807	0.166759	-0.019386
175	1379959													9.664098	0.295095	-1.635681	-0.166867	-0.963638	0.208703	0.016166	0.208968	0.977789	-0.985847	0.166535	-0.019292
176	1380125													9.680674	0.282377	-1.599673	-0.166574	-0.963698	0.208662	0.016297	0.208899	0.977801	-0.985894	0.166276	-0.019092
177	1380292													9.653242	0.281911	-1.605099	-0.166282	-0.963762	0.208598	0.016454	0.208801	0.977820	-0.985941	0.166026	-0.018862
178	1380459													9.650155	0.289041	-1.579801	-0.166000	-0.963826	0.208528	0.016589	0.208703	0.977838	-0.985986	0.165781	-0.018656
179	1380625													9.607147	0.311182	-1.581377	-0.165779	-0.963869	0.208505	0.016663	0.208663	0.977846	-0.986022	0.165580	-0.018531
180	1380792													9.602357	0.316774	-1.580733	-0.165649	-0.963884	0.208539	0.016639	0.208699	0.977838	-0.986044	0.165448	-0.018533
181	1380959													9.604155	0.318908	-1.571990	-0.165607	-0.963866	0.208654	0.016550	0.208830	0.977812	-0.986053	0.165386	-0.018631
182	1381125													9.584759	0.279704	-1.589235	-0.165651	-0.963825	0.208808	0.016329	0.209024	0.977774	-0.986049	0.165379	-0.018887
183	1381292													9.563065	0.261162	-1.549010	-0.165711	-0.963785	0.208947	0.015997	0.209222	0.977737	-0.986045	0.165365	-0.019253
184	1381459													9.603142	0.243094	-1.553957	-0.165710	-0.963760	0.209062	0.015640	0.209398	0.977705	-0.986050	0.165286	-0.019626
185	1381625													9.678004	0.233267	-1.541546	-0.165600	-0.963742	0.209234	0.015295	0.209628	0.977662	-0.986074	0.165101	-0.019974
186	1381792													9.715909	0.189845	-1.569320	-0.165391	-0.963739	0.209409	0.014982	0.209854	0.977618	-0.986114	0.164827	-0.020270
187	1381959													9.709771	0.142041	-1.573579	-0.165189	-0.963752	0.209510	0.014696	0.209999	0.977591	-0.986152	0.164566	-0.020527
188	1382125													9.680280	0.091571	-1.589571	-0.165138	-0.963784	0.209402	0.014423	0.209935	0.977609	-0.986165	0.164460	-0.020768
189	1382292													9.652209	0.047211	-1.645079	-0.165347	-0.963842	0.208970	0.014213	0.209536	0.977698	-0.986133	0.164629	-0.020947
190	1382459													9.689539	0.085431	-1.622489	-0.165763	-0.963927	0.208247	0.014196	0.208814	0.977852	-0.986064	0.165048	-0.020930
191	1382625													9.740926	0.146279	-1.624816	-0.166181	-0.964042	0.207379	0.014444	0.207901	0.978043	-0.985989	0.165528	-0.020624
192	1382792													9.725427	0.248206	-1.631864	-0.166524	-0.964152	0.206591	0.015087	0.207000	0.978224	-0.985922	0.166015	-0.019924
193	1382959													9.659733	0.357445	-1.628936	-0.166777	-0.964220	0.206072	0.016142	0.206301	0.978355	-0.985863	0.166494	-0.018842
194	1383125													9.538175	0.442611	-1.608519	-0.167088	-0.964193	0.205945	0.017456	0.205955	0.978406	-0.985787	0.167075	-0.017581
195	1383292													9.519154	0.485100	-1.612509	-0.167590	-0.964047	0.206222	0.018808	0.206016	0.978368	-0.985677	0.167843	-0.016394
196	1383459													9.561466	0.522764	-1.636342	-0.168189	-0.963802	0.206876	0.020029	0.206481	0.978246	-0.985551	0.168674	-0.015424
197	1383625													9.629397	0.545539	-1.642162	-0.168780	-0.963480	0.207893	0.021016	0.207354	0.978040	-0.985430	0.169442	-0.014749
198	1383792													9.691006	0.513256	-1.648941	-0.169158	-0.963126	0.209224	0.021718	0.208589	0.977762	-0.985350	0.169940	-0.014368
199	1383959													9.684625	0.445479	-1.657603	-0.169365	-0.962786	0.210614	0.022122	0.209934	0.977465	-0.985305	0.170208	-0.014256
200	1384125													9.695847	0.351003	-1.687065	-0.169493	-0.962478	0.211916	0.022205	0.211243	0.977181	-0.985281	0.170331	-0.014432
201	1384292													9.679962	0.263042	-1.703179	-0.169593	-0.962240	0.212915	0.022004	0.212293	0.976958	-0.985269	0.170370	-0.014830
202	1384459													9.684626	0.177013	-1.717872	-0.169760	-0.962089	0.213463	0.021586	0.212925	0.976830	-0.985249	0.170434	-0.015378
203	1384625													9.681302	0.125888	-1.705639	-0.169965	-0.962065	0.213407	0.021054	0.212964	0.976833	-0.985225	0.170520	-0.015941
204	1384792													9.647396	0.107377	-1.714938	-0.170165	-0.962172	0.212764	0.020497	0.212410	0.976966	-0.985202	0.170607	-0.016423
205	1384959													9.641952	0.141218	-1.709903	-0.170391	-0.962374	0.211668	0.020032	0.211382	0.977198	-0.985173	0.170746	-0.016739
206	1385125													9.593259	0.201972	-1.684787	-0.170598	-0.962624	0.210361	0.019823	0.210095	0.977480	-0.985141	0.170926	-0.016760
207	1385292													9.584184	0.269199	-1.682449	-0.170796	-0.962876	0.209043	0.019773	0.208768	0.977765	-0.985108	0.171131	-0.016618
208	1385459													9.563480	0.345015	-1.695517	-0.171011	-0.963103	0.207818	0.019832	0.207518	0.978030	-0.985070	0.171375	-0.016387
209	1385625													9.627440	0.397596	-1.691426	-0.171236	-0.963259	0.206905	0.019948	0.206574	0.978228	-0.985028	0.171636	-0.016158
210	1385792													9.661420	0.430417	-1.694241	-0.171438	-0.963333	0.206395	0.020085	0.206035	0.978338	-0.984990	0.171870	-0.015974
211	1385959													9.651004	0.461771	-1.666655	-0.171551	-0.963321	0.206356	0.020378	0.205947	0.978351	-0.984965	0.172042	-0.015700
212	1386125													9.666457	0.395809	-1.667258	-0.171658	-0.963216	0.206758	0.020816	0.206281	0.978271	-0.984937	0.172232	-0.015359
213	1386292													9.652238	0.347072	-1.690667	-0.171775	-0.963104	0.207183	0.021277	0.206632	0.978187	-0.984906	0.172436	-0.015002
214	1386459													9.625533	0.299691	-1.677654	-0.171948	-0.962929	0.207850	0.021791	0.207223	0.978051	-0.984865	0.172704	-0.014648
215	1386625													9.632916	0.306924	-1.666159	-0.172150	-0.962751	0.208505	0.022279	0.207805	0.977916	-0.984819	0.172993	-0.014324
216	1386792													9.599939	0.300708	-1.676160	-0.172381	-0.962591	0.209056	0.022741	0.208287	0.977803	-0.984768	0.173309	-0.014015
217	1386959													9.619548	0.304113	-1.678272	-0.172654	-0.962436	0.209543	0.023245	0.208697	0.977704	-0.984708	0.173675	-0.013660
218	1387125													9.648376	0.307953	-1.678779	-0.172884	-0.962331	0.209835	0.023709	0.208915	0.977646	-0.984657	0.173994	-0.013302
219	1387292													9.657969	0.314878	-1.681733	-0.173050	-0.962251	0.210062	0.024105	0.209078	0.977602	-0.984618	0.174237	-0.012985
220	1387459													9.652262	0.325167	-1.728306	-0.173178	-0.962217	0.210114	0.024415	0.209077	0.977594	-0.984588	0.174428	-0.012715
221	1387625													9.633437	0.362012	-1.710386	-0.173296	-0.962193	0.210128	0.024632	0.209055	0.977594	-0.984562	0.174589	-0.012528
222	1387792													9.594383	0.397656	-1.718593	-0.173428	-0.962173	0.210107	0.024827	0.209001	0.977600	-0.984534	0.174760	-0.012359
223	1387959													9.612299	0.367201	-1.740582	-0.173684	-0.962128	0.210104	0.024909	0.208986	0.977601	-0.984486	0.175027	-0.012332
224	1388125													9.632439	0.358561	-1.767260	-0.173921	-0.962123	0.209932	0.024795	0.208835	0.977636	-0.984447	0.175237	-0.012465
225	1388292													9.657269	0.404719	-1.761439	-0.174101	-0.962139	0.209709	0.024653	0.208636	0.977683	-0.984419	0.175386	-0.012604
226	1388459													9.641672	0.371763	-1.776332	-0.174217	-0.962118	0.209710	0.024535	0.208659	0.977681	-0.984402	0.175474	-0.012746
227	1388625													9.670098	0.320706	-1.812279	-0.174269	-0.962113	0.209686	0.024324	0.208673	0.977683	-0.984398	0.175480	-0.012963
228	1388792													9.681087	0.306590	-1.774113	-0.174183	-0.962174	0.209477	0.024085	0.208503	0.977725	-0.984419	0.175348	-0.013144
229	1388959													9.681980	0.328880	-1.766127	-0.173965	-0.962263	0.209250	0.023883	0.208304	0.977772	-0.984462	0.175096	-0.013256
230	1389125													9.651462	0.347787	-1.731996	-0.173583	-0.962392	0.208977	0.023744	0.208046	0.977831	-0.984533	0.174696	-0.013262
231	1389292													9.629221	0.337039	-1.738819	-0.173104	-0.962509	0.208832	0.023751	0.207892	0.977863	-0.984617	0.174232	-0.013126
232	1389459													9.639288	0.328369	-1.758295	-0.172526	-0.962636	0.208724	0.023810	0.207764	0.977889	-0.984717	0.173681	-0.012924
233	1389625													9.621464	0.349024	-1.755871	-0.171862	-0.962737	0.208807	0.023919	0.207820	0.977875	-0.984831	0.173054	-0.012689
234	1389792													9.649757	0.370126	-1.739774	-0.171098	-0.962889	0.208736	0.024071	0.207712	0.977894	-0.984960	0.172340	-0.012361
235	1389959													9.634342	0.392095	-1.737368	-0.170241	-0.963010	0.208877	0.024317	0.207801	0.977869	-0.985102	0.171552	-0.011959
236	1390125													9.683827	0.397900	-1.704379	-0.169311	-0.963083	0.209297	0.024583	0.208170	0.977784	-0.985256	0.170694	-0.011570
237	1390292													9.688590	0.396967	-1.696285	-0.168273	-0.963181	0.209683	0.024896	0.208496	0.977706	-0.985426	0.169742	-0.011105
238	1390459													9.678439	0.368423	-1.651252	-0.167131	-0.963249	0.210284	0.025190	0.209042	0.977582	-0.985613	0.168681	-0.010673
239	1390625													9.664563	0.382975	-1.653203	-0.165875	-0.963341	0.210852	0.025420	0.209566	0.977464	-0.985819	0.167497	-0.010274
240	1390792													9.686777	0.360793	-1.670835	-0.164548	-0.963428	0.211495	0.025633	0.210168	0.977329	-0.986036	0.166238	-0.009887
241	1390959													9.698226	0.355319	-1.630690	-0.163081	-0.963530	0.212166	0.025776	0.210810	0.977187	-0.986276	0.164829	-0.009543
242	1391125													9.724936	0.346385	-1.633122	-0.161461	-0.963706	0.212604	0.025858	0.211225	0.977095	-0.986540	0.163260	-0.009185
243	1391292													9.737970	0.346894	-1.640525	-0.159586	-0.963897	0.213153	0.025934	0.211752	0.976979	-0.986843	0.161440	-0.008795
244	1391459													9.779541	0.347262	-1.635910	-0.157429	-0.964119	0.213754	0.025959	0.212339	0.976851	-0.987189	0.159333	-0.008400
245	1391625													9.829566	0.344584	-1.646174	-0.154852	-0.964427	0.214248	0.025953	0.212818	0.976747	-0.987597	0.156812	-0.007925
246	1391792													9.851173	0.336809	-1.619333	-0.151673	-0.964772	0.214967	0.025976	0.213517	0.976594	-0.988089	0.153707	-0.007324
247	1391959													9.902061	0.306821	-1.650560	-0.147807	-0.965222	0.215639	0.026108	0.214150	0.976452	-0.988672	0.149956	-0.006453
248	1392125													9.856947	0.234105	-1.630454	-0.143093	-0.965891	0.215823	0.026392	0.214266	0.976419	-0.989357	0.145415	-0.005168
249	1392292													9.812361	0.247182	-1.576552	-0.137810	-0.966588	0.216138	0.026809	0.214500	0.976356	-0.990096	0.140346	-0.003647
250	1392459													9.740508	0.247837	-1.519103	-0.131998	-0.967389	0.216183	0.027441	0.214442	0.976351	-0.990870	0.134809	-0.001760
251	1392625													9.753125	0.289213	-1.450479	-0.125991	-0.968193	0.216166	0.028241	0.214314	0.976357	-0.991629	0.129117	0.000341
252	1392792													9.818213	0.482644	-1.417376	-0.119623	-0.969067	0.215867	0.029086	0.213914	0.976419	-0.992393	0.123081	0.002597
253	1392959													9.781125	0.516283	-1.361867	-0.112950	-0.970351	0.213683	0.030157	0.211612	0.976888	-0.993143	0.116783	0.005361
254	1393125													9.834213	0.423157	-1.315137	-0.105952	-0.971646	0.211373	0.031269	0.209208	0.977371	-0.993879	0.110164	0.008216
255	1393292													9.884187	0.510905	-1.238998	-0.098394	-0.972908	0.209209	0.032209	0.207006	0.977809	-0.994626	0.102949	0.010968
256	1393459													9.747043	0.500976	-1.135235	-0.090329	-0.974066	0.207453	0.033051	0.205257	0.978150	-0.995363	0.095212	0.013653
257	1393625													9.719136	0.533314	-1.043823	-0.082068	-0.975109	0.205980	0.033793	0.203836	0.978422	-0.996054	0.087257	0.016223
258	1393792													9.693252	0.547497	-0.940910	-0.073749	-0.976010	0.204855	0.034450	0.202798	0.978614	-0.996682	0.079229	0.018667
259	1393959													9.696259	0.520973	-0.855264	-0.065392	-0.976780	0.204023	0.035021	0.202088	0.978741	-0.997245	0.071147	0.020993
260	1394125													9.699866	0.511229	-0.737803	-0.056994	-0.977409	0.203526	0.035454	0.201747	0.978796	-0.997745	0.063001	0.023154
261	1394292													9.769411	0.483824	-0.657590	-0.048473	-0.977942	0.203174	0.035771	0.201583	0.978818	-0.998184	0.054714	0.025211
262	1394459													9.792858	0.487421	-0.564631	-0.039767	-0.978370	0.203003	0.036019	0.201629	0.978800	-0.998560	0.046236	0.027222
263	1394625													9.861330	0.472992	-0.466787	-0.030876	-0.978707	0.202926	0.036203	0.201794	0.978759	-0.998867	0.037566	0.029202
264	1394792													9.829825	0.432547	-0.386742	-0.021886	-0.978968	0.202836	0.036274	0.201974	0.978719	-0.999102	0.028778	0.031091
265	1394959													9.887631	0.401933	-0.306947	-0.012634	-0.979162	0.202685	0.036201	0.202121	0.978691	-0.999265	0.019702	0.032893
266	1395126													9.898217	0.439421	-0.216254	-0.003033	-0.979295	0.202416	0.036020	0.202179	0.978686	-0.999346	0.010259	0.034661
267	1395292													9.915546	0.388388	-0.133831	0.006952	-0.979321	0.202195	0.035765	0.202314	0.978667	-0.999336	0.000427	0.036432
268	1395459													9.992662	0.387305	-0.043139	0.017549	-0.979271	0.201794	0.035388	0.202307	0.978683	-0.999220	-0.010034	0.038205
269	1395626													9.934972	0.416047	0.080895	0.028709	-0.979127	0.201209	0.034914	0.202152	0.978732	-0.998978	-0.021074	0.039989
270	1395792													9.925629	0.419090	0.153658	0.040414	-0.978863	0.200482	0.034425	0.201891	0.978803	-0.998590	-0.032656	0.041856
271	1395959													9.858713	0.410656	0.261132	0.052629	-0.978470	0.199568	0.033886	0.201480	0.978906	-0.998039	-0.044757	0.043760
272	1396126													9.814200	0.368714	0.386643	0.065260	-0.977880	0.198724	0.033308	0.201172	0.978990	-0.997312	-0.057269	0.045700
273	1396292													9.791462	0.368468	0.529488	0.078068	-0.977164	0.197626	0.032756	0.200638	0.979118	-0.996410	-0.069964	0.047671
274	1396459													9.769887	0.371669	0.666209	0.091077	-0.976195	0.196846	0.032195	0.200451	0.979175	-0.995323	-0.082843	0.049685
275	1396626													9.768811	0.383471	0.832206	0.104155	-0.975073	0.195917	0.031699	0.200143	0.979254	-0.994056	-0.095783	0.051755
276	1396792													9.748517	0.364121	0.961691	0.117302	-0.973788	0.194879	0.031251	0.199756	0.979347	-0.992604	-0.108789	0.053864
277	1396959													9.684870	0.355725	1.115509	0.130342	-0.972358	0.193731	0.030860	0.199282	0.979456	-0.990989	-0.121686	0.055982
278	1397126													9.614669	0.376147	1.228313	0.143170	-0.970794	0.192513	0.030517	0.198755	0.979574	-0.989228	-0.134371	0.058081
279	1397292													9.489115	0.361234	1.391870	0.155568	-0.969132	0.191263	0.030281	0.198208	0.979692	-0.987361	-0.146617	0.060181
280	1397459													9.454440	0.349625	1.535212	0.167213	-0.967449	0.189952	0.030191	0.197599	0.979818	-0.985458	-0.158104	0.062249
281	1397626													9.523777	0.324756	1.700385	0.178186	-0.965776	0.188484	0.030202	0.196827	0.979973	-0.983533	-0.168925	0.064241
282	1397792													9.581747	0.339282	1.832986	0.188674	-0.964104	0.186832	0.030312	0.195875	0.980160	-0.981572	-0.179267	0.066181
283	1397959													9.583861	0.337161	1.912744	0.198802	-0.962398	0.185116	0.030453	0.194861	0.980358	-0.979567	-0.189259	0.068047
284	1398126													9.591675	0.353746	2.011976	0.208755	-0.960620	0.183387	0.030679	0.193859	0.980550	-0.977487	-0.199069	0.069939
285	1398292													9.670834	0.382402	2.099931	0.218796	-0.958705	0.181697	0.030994	0.192943	0.980720	-0.975278	-0.208946	0.071929
286	1398459													9.689943	0.471210	2.217548	0.229110	-0.956581	0.180170	0.031396	0.192259	0.980842	-0.972894	-0.219065	0.074081
287	1398626													9.642422	0.452971	2.334562	0.239727	-0.954216	0.178893	0.031756	0.191875	0.980906	-0.970321	-0.229468	0.076300
288	1398792													9.574627	0.476179	2.449242	0.250531	-0.951637	0.177823	0.031978	0.191715	0.980930	-0.967580	-0.240067	0.078462
289	1398959													9.499156	0.468430	2.514113	0.261298	-0.948883	0.177045	0.031976	0.191826	0.980908	-0.964728	-0.250648	0.080465
290	1399126													9.417970	0.437876	2.572127	0.271908	-0.945997	0.176511	0.031781	0.192149	0.980851	-0.961798	-0.261092	0.082311
291	1399292													9.397325	0.378673	2.656249	0.282290	-0.943017	0.176159	0.031471	0.192631	0.980766	-0.958813	-0.271317	0.084055
292	1399459													9.427323	0.345772	2.780993	0.292528	-0.939942	0.175887	0.031115	0.193191	0.980668	-0.955751	-0.281400	0.085760
293	1399626													9.487469	0.352099	2.916723	0.302858	-0.936712	0.175633	0.030787	0.193808	0.980556	-0.952538	-0.291562	0.087535
294	1399792													9.493999	0.370025	3.048919	0.313416	-0.933259	0.175496	0.030499	0.194604	0.980408	-0.949126	-0.301923	0.089455
295	1399959													9.384434	0.352770	3.145806	0.324088	-0.929626	0.175394	0.030255	0.195491	0.980239	-0.945543	-0.312377	0.091482
296	1400126													9.281379	0.343045	3.249024	0.334748	-0.925852	0.175331	0.030068	0.196466	0.980050	-0.941828	-0.322798	0.093605
297	1400292													9.247486	0.331664	3.308402	0.345236	-0.922013	0.175225	0.029930	0.197425	0.979861	-0.938039	-0.333039	0.095754
298	1400459													9.161506	0.290796	3.379870	0.355502	-0.918134	0.175063	0.029822	0.198345	0.979678	-0.934200	-0.343057	0.097892
299	1400626													9.180429	0.215629	3.463067	0.365463	-0.914277	0.174742	0.029787	0.199119	0.979523	-0.930349	-0.352774	0.100004
300	1400792													9.189010	0.271945	3.571988	0.375260	-0.910413	0.174152	0.029786	0.199629	0.979419	-0.926441	-0.362349	0.102030
301	1400959													9.168114	0.344897	3.721205	0.384914	-0.906513	0.173425	0.029950	0.200071	0.979323	-0.922466	-0.371761	0.104160
302	1401126													9.132748	0.390188	3.829909	0.394554	-0.902485	0.172767	0.030343	0.200714	0.979180	-0.918372	-0.381097	0.106576
303	1401292													9.110833	0.393265	3.945909	0.404222	-0.898289	0.172285	0.030869	0.201650	0.978971	-0.914140	-0.390403	0.109240
304	1401459													9.025225	0.359684	4.001188	0.413914	-0.893944	0.171869	0.031405	0.202712	0.978735	-0.909774	-0.399714	0.111979
305	1401626													8.993833	0.387293	4.084854	0.423559	-0.889489	0.171484	0.031841	0.203806	0.978493	-0.905309	-0.408989	0.114646
306	1401792													9.005610	0.411890	4.237776	0.433250	-0.884880	0.171117	0.032149	0.204914	0.978252	-0.900700	-0.418327	0.117227
307	1401959													9.012218	0.377607	4.350040	0.443091	-0.880057	0.170793	0.032236	0.206034	0.978014	-0.895897	-0.427844	0.119661
308	1402126													8.931496	0.327471	4.481368	0.453060	-0.875065	0.170290	0.032051	0.206885	0.977840	-0.890904	-0.437562	0.121778
309	1402292													8.815709	0.306138	4.592006	0.462936	-0.870049	0.169425	0.031658	0.207248	0.977776	-0.885826	-0.447284	0.123487
310	1402459													8.711505	0.305787	4.682731	0.472535	-0.865121	0.168156	0.031180	0.207093	0.977824	-0.880760	-0.456813	0.124834
311	1402626													8.635423	0.332088	4.800681	0.481699	-0.860384	0.166449	0.030805	0.206444	0.977973	-0.875795	-0.465961	0.125948
312	1402792													8.660484	0.425294	5.011006	0.490513	-0.855775	0.164456	0.030674	0.205557	0.978164	-0.870894	-0.474757	0.127079
313	1402959													8.644661	0.529168	5.103122	0.499146	-0.851129	0.162583	0.030793	0.204932	0.978292	-0.865971	-0.483303	0.128500
314	1403126													8.588226	0.483521	5.188935	0.507547	-0.846434	0.161078	0.030981	0.204754	0.978323	-0.861067	-0.491555	0.130146
315	1403292													8.480330	0.425222	5.266809	0.515684	-0.841712	0.159972	0.031035	0.204942	0.978282	-0.856216	-0.499520	0.131808
316	1403459													8.389814	0.405229	5.343874	0.523402	-0.837092	0.159144	0.031053	0.205385	0.978189	-0.851520	-0.507044	0.133493
317	1403626													8.335359	0.420550	5.436795	0.530548	-0.832667	0.158693	0.031004	0.206151	0.978029	-0.847088	-0.513971	0.135189
318	1403792													8.275002	0.398953	5.502100	0.537187	-0.828425	0.158564	0.030952	0.207226	0.977803	-0.842895	-0.520355	0.136960
319	1403959													8.203341	0.410022	5.626457	0.543184	-0.824453	0.158835	0.030961	0.208716	0.977486	-0.839043	-0.526037	0.138896
320	1404126													8.118207	0.398624	5.741003	0.548434	-0.820844	0.159483	0.031096	0.210614	0.977075	-0.835616	-0.530902	0.141033
321	1404292													8.116082	0.352473	5.796733	0.552857	-0.817680	0.160465	0.031350	0.212846	0.976583	-0.832686	-0.534880	0.143308
322	1404459													8.134885	0.308903	5.899861	0.556371	-0.815080	0.161545	0.031672	0.215074	0.976084	-0.830330	-0.537948	0.145477
323	1404626													8.120938	0.298953	5.960439	0.559050	-0.813052	0.162511	0.032020	0.217026	0.975641	-0.828515	-0.540229	0.147362
324	1404792													8.106505	0.332650	5.963444	0.560917	-0.811618	0.163241	0.032361	0.218527	0.975294	-0.827239	-0.541777	0.148840
325	1404959													8.100267	0.425248	5.967251	0.562092	-0.810685	0.163838	0.032634	0.219679	0.975026	-0.826431	-0.542708	0.149936
326	1405126													8.091721	0.420576	5.925970	0.562586	-0.810252	0.164280	0.032791	0.220421	0.974853	-0.826088	-0.543052	0.150575
327	1405292													8.130366	0.466866	5.901163	0.562530	-0.810217	0.164644	0.032767	0.220831	0.974762	-0.826127	-0.542938	0.150772
328	1405459													8.102345	0.423732	5.847290	0.561988	-0.810544	0.164885	0.032599	0.220892	0.974753	-0.826503	-0.542425	0.150562
329	1405626													8.175776	0.399618	5.871450	0.560978	-0.811243	0.164886	0.032394	0.220539	0.974840	-0.827196	-0.541523	0.149997
330	1405792													8.157504	0.406419	5.839854	0.559513	-0.812298	0.164670	0.032155	0.219805	0.975014	-0.828197	-0.540238	0.149104
331	1405959													8.110329	0.342180	5.836267	0.557543	-0.813709	0.164390	0.031867	0.218858	0.975236	-0.829536	-0.538497	0.147953
332	1406126													8.077658	0.298717	5.800927	0.554920	-0.815594	0.163922	0.031719	0.217645	0.975513	-0.831299	-0.536132	0.146645
333	1406292													8.085476	0.250223	5.783803	0.551461	-0.818081	0.163202	0.031847	0.216142	0.975842	-0.833593	-0.532941	0.145247
334	1406459													8.101869	0.220388	5.743103	0.547177	-0.821143	0.162238	0.032240	0.214362	0.976222	-0.836396	-0.528936	0.143768
335	1406626													8.150242	0.173952	5.709123	0.542046	-0.824801	0.160904	0.032952	0.212188	0.976673	-0.839703	-0.524099	0.142195
336	1406792													8.296432	0.179873	5.685257	0.536146	-0.829011	0.159022	0.033917	0.209392	0.977243	-0.843444	-0.518552	0.140382
337	1406959													8.497639	0.380717	5.640719	0.529929	-0.833436	0.156715	0.035162	0.206232	0.977871	-0.847313	-0.512692	0.138593
338	1407126													8.406533	0.437320	5.533549	0.523547	-0.837897	0.154360	0.036444	0.203033	0.978493	-0.851217	-0.506661	0.136834
339	1407292													8.383638	0.451267	5.413474	0.516695	-0.842560	0.152053	0.037676	0.199801	0.979112	-0.855340	-0.500173	0.134980
340	1407459													8.391627	0.451630	5.303108	0.509285	-0.847461	0.149794	0.038757	0.196467	0.979744	-0.859725	-0.493164	0.132903
341	1407626													8.439369	0.484900	5.226030	0.501296	-0.852586	0.147647	0.039653	0.193092	0.980379	-0.864367	-0.485606	0.130604
342	1407792													8.518209	0.512512	5.151433	0.492754	-0.857883	0.145706	0.040270	0.189748	0.981007	-0.869236	-0.477528	0.128046
343	1407959													8.618845	0.562306	5.053789	0.483814	-0.863233	0.144056	0.040538	0.186531	0.981612	-0.874231	-0.469078	0.125240
344	1408126													8.673749	0.579264	4.916443	0.474613	-0.868527	0.142841	0.040516	0.183669	0.982153	-0.879262	-0.460355	0.122361
345	1408292													8.739259	0.586691	4.786750	0.465236	-0.873707	0.142093	0.040202	0.181214	0.982622	-0.884273	-0.451439	0.119432
346	1408459													8.740309	0.534666	4.640231	0.455679	-0.878776	0.141808	0.039634	0.179182	0.983017	-0.889261	-0.442320	0.116479
347	1408626													8.785743	0.490086	4.518262	0.445952	-0.883743	0.141859	0.038909	0.177483	0.983354	-0.894211	-0.433010	0.113534
348	1408792													8.816242	0.440729	4.429243	0.436016	-0.888641	0.142155	0.038076	0.176035	0.983647	-0.899133	-0.423473	0.110590
349	1408959													8.836941	0.355861	4.309762	0.425805	-0.893506	0.142610	0.037141	0.174739	0.983914	-0.904053	-0.413658	0.107590
350	1409126													8.957822	0.309327	4.207320	0.415236	-0.898391	0.143084	0.036175	0.173466	0.984175	-0.908994	-0.403489	0.104528
351	1409292													8.978462	0.284303	4.089040	0.404364	-0.903282	0.143426	0.035264	0.172100	0.984448	-0.913918	-0.393017	0.101445
352	1409459													9.052550	0.298705	3.949067	0.393283	-0.908121	0.143682	0.034555	0.170764	0.984706	-0.918768	-0.382304	0.098539
353	1409626													9.073614	0.299209	3.840320	0.382012	-0.912881	0.143924	0.034003	0.169515	0.984941	-0.923532	-0.371366	0.095798
354	1409792													9.111039	0.274019	3.700053	0.370597	-0.917536	0.144171	0.033499	0.168327	0.985162	-0.928190	-0.360268	0.093117
355	1409959													9.170396	0.254800	3.604299	0.358962	-0.922115	0.144399	0.032946	0.167132	0.985384	-0.932771	-0.348958	0.090374
356	1410126													9.204105	0.264396	3.500803	0.347175	-0.926586	0.144594	0.032385	0.165938	0.985604	-0.937241	-0.337495	0.087617
357	1410292													9.237262	0.286474	3.363953	0.335219	-0.930942	0.144829	0.031807	0.164818	0.985811	-0.941603	-0.325856	0.084860
358	1410459													9.277514	0.281121	3.257454	0.323112	-0.935171	0.145097	0.031250	0.163781	0.986002	-0.945845	-0.314055	0.082143
359	1410626													9.345485	0.243832	3.069479	0.310841	-0.939266	0.145455	0.030618	0.162852	0.986175	-0.949969	-0.302090	0.079380
360	1410792													9.386332	0.215082	2.949169	0.298516	-0.943216	0.145711	0.029951	0.161856	0.986360	-0.953934	-0.290080	0.076567
361	1410959													9.399766	0.193904	2.820360	0.286139	-0.947010	0.145932	0.029219	0.160852	0.986546	-0.957742	-0.278026	0.073697
362	1411126													9.417487	0.210255	2.659324	0.273563	-0.950690	0.146126	0.028491	0.159863	0.986728	-0.961432	-0.265769	0.070819
363	1411292													9.507226	0.216579	2.552451	0.260936	-0.954200	0.146341	0.027801	0.158958	0.986894	-0.964956	-0.253447	0.068005
364	1411459													9.503256	0.218132	2.438336	0.248342	-0.957506	0.146658	0.027136	0.158218	0.987031	-0.968292	-0.241142	0.065276
365	1411626													9.536358	0.194468	2.305391	0.235550	-0.960676	0.147031	0.026437	0.157566	0.987155	-0.971503	-0.228637	0.062512
366	1411793													9.563244	0.197698	2.159865	0.222582	-0.963698	0.147454	0.025719	0.157000	0.987264	-0.974575	-0.215955	0.059731
367	1411959													9.529533	0.239019	2.057368	0.209529	-0.966550	0.147916	0.025045	0.156529	0.987356	-0.977482	-0.203175	0.057005
368	1412126													9.595304	0.240434	1.909117	0.196308	-0.969227	0.148533	0.024399	0.156262	0.987414	-0.980239	-0.190214	0.054323
369	1412293													9.638821	0.218212	1.772476	0.183017	-0.971709	0.149287	0.023741	0.156176	0.987444	-0.982823	-0.177174	0.051652
370	1412459													9.667332	0.156160	1.645806	0.169701	-0.974004	0.150062	0.023116	0.156163	0.987461	-0.985224	-0.164105	0.049016
371	1412626													9.710163	0.132059	1.510337	0.156459	-0.976111	0.150758	0.022528	0.156125	0.987480	-0.987427	-0.151104	0.046417
372	1412793													9.732723	0.135554	1.356255	0.143302	-0.978026	0.151428	0.021973	0.156114	0.987495	-0.989435	-0.138182	0.043862
373	1412959													9.759653	0.175793	1.260584	0.130221	-0.979749	0.152101	0.021533	0.156165	0.987496	-0.991251	-0.125318	0.041433
374	1413126													9.792931	0.174558	1.095046	0.117398	-0.981256	0.152820	0.021221	0.156327	0.987477	-0.992858	-0.112685	0.039175
375	1413293													9.759477	0.192487	0.978655	0.104693	-0.982574	0.153582	0.020968	0.156577	0.987443	-0.994284	-0.100158	0.036995
376	1413459													9.841198	0.162099	0.843026	0.092116	-0.983707	0.154386	0.020734	0.156906	0.987396	-0.995532	-0.087754	0.034849
377	1413626													9.863845	0.153796	0.733573	0.079835	-0.984660	0.155151	0.020486	0.157235	0.987349	-0.996598	-0.075647	0.032724
378	1413793													9.797263	0.153941	0.586827	0.067889	-0.985437	0.155900	0.020198	0.157586	0.987299	-0.997488	-0.063878	0.030602
379	1413959													9.800545	0.173733	0.462762	0.056101	-0.986062	0.156634	0.019974	0.157958	0.987244	-0.998225	-0.052256	0.028557
380	1414126													9.874712	0.139833	0.321642	0.044486	-0.986518	0.157490	0.019739	0.158483	0.987164	-0.998815	-0.040806	0.026523
381	1414293													9.886175	0.118914	0.213357	0.033226	-0.986815	0.158407	0.019499	0.159104	0.987069	-0.999258	-0.029708	0.024528
382	1414459													9.870971	0.141399	0.132717	0.022340	-0.987035	0.158941	0.019360	0.159378	0.987028	-0.999563	-0.018973	0.022669
383	1414626													9.900764	0.109725	0.018262	0.011828	-0.987112	0.159593	0.019210	0.159799	0.986963	-0.999746	-0.008608	0.020852
384	1414793													9.911435	0.088659	-0.108843	0.001680	-0.987094	0.160135	0.019062	0.160137	0.986911	-0.999817	0.001395	0.019085
385	1414959													9.846804	0.098568	-0.197975	-0.008180	-0.986983	0.160616	0.018975	0.160440	0.986863	-0.999786	0.011120	0.017416
386	1415126													9.816931	0.099127	-0.293440	-0.017829	-0.986798	0.160970	0.018912	0.160634	0.986833	-0.999662	0.020639	0.015799
387	1415293													9.879362	0.099487	-0.387508	-0.027275	-0.986546	0.161192	0.018842	0.160716	0.986821	-0.999450	0.029952	0.014205
388	1415459													9.884456	0.127865	-0.453357	-0.036390	-0.986225	0.161356	0.018782	0.160759	0.986815	-0.999161	0.038941	0.012673
389	1415626													9.858134	0.115349	-0.531963	-0.045110	-0.985850	0.161448	0.018720	0.160750	0.986818	-0.998807	0.047538	0.011204
390	1415793													9.827991	0.096023	-0.569590	-0.053729	-0.985392	0.161605	0.018652	0.160820	0.986807	-0.998381	0.056034	0.009739
391	1415959													9.890649	0.096250	-0.650841	-0.062168	-0.984882	0.161687	0.018597	0.160829	0.986807	-0.997892	0.064355	0.008317
392	1416126													9.838181	0.089708	-0.721112	-0.070356	-0.984362	0.161496	0.018595	0.160574	0.986849	-0.997349	0.072433	0.007006
393	1416293													9.820860	0.116312	-0.801199	-0.078348	-0.983816	0.161143	0.018697	0.160162	0.986914	-0.996751	0.080336	0.005846
394	1416459													9.772110	0.113524	-0.880588	-0.086141	-0.983214	0.160841	0.018804	0.159807	0.986969	-0.996105	0.088043	0.004723
395	1416626													9.692184	0.099016	-0.983956	-0.093826	-0.982590	0.160354	0.018905	0.159277	0.987053	-0.995409	0.095643	0.003632
396	1416793													9.727001	0.146990	-1.012770	-0.101609	-0.981889	0.159903	0.018905	0.158800	0.987130	-0.994645	0.103324	0.002427
397	1416959													9.754764	0.127304	-1.091565	-0.109389	-0.981141	0.159359	0.018880	0.158242	0.987220	-0.993820	0.111000	0.001214
398	1417126													9.760251	0.140064	-1.167355	-0.117054	-0.980347	0.158801	0.018776	0.157687	0.987311	-0.992948	0.118550	-0.000051
399	1417293													9.723053	0.125765	-1.278941	-0.124409	-0.979516	0.158335	0.018631	0.157240	0.987385	-0.992056	0.125790	-0.001313
400	1417459													9.708571	0.120900	-1.369934	-0.131703	-0.978647	0.157812	0.018453	0.156751	0.987466	-0.991117	0.132965	-0.002585
401	1417626													9.732258	0.109958	-1.471401	-0.138960	-0.977717	0.157352	0.018245	0.156339	0.987535	-0.990130	0.140098	-0.003887
402	1417793													9.679490	0.131159	-1.517030	-0.145979	-0.976777	0.156833	0.017997	0.155883	0.987612	-0.989124	0.146993	-0.005176
403	1417959													9.647334	0.145750	-1.519682	-0.152897	-0.975808	0.156275	0.017765	0.155395	0.987693	-0.988082	0.153791	-0.006425
404	1418126													9.736564	0.112186	-1.546293	-0.159793	-0.974783	0.155768	0.017381	0.154993	0.987763	-0.986997	0.160545	-0.007824
405	1418293													9.698010	0.105182	-1.582257	-0.166500	-0.973745	0.155235	0.016918	0.154588	0.987834	-0.985896	0.167101	-0.009265
406	1418459													9.639401	0.108615	-1.650393	-0.173125	-0.972669	0.154734	0.016462	0.154227	0.987898	-0.984762	0.173577	-0.010688
407	1418626													9.601607	0.105102	-1.715928	-0.179712	-0.971557	0.154208	0.016029	0.153848	0.987965	-0.983589	0.180020	-0.012075
408	1418793													9.546720	0.105979	-1.772125	-0.186296	-0.970388	0.153754	0.015661	0.153541	0.988018	-0.982369	0.186472	-0.013407
409	1418959													9.518844	0.073193	-1.859416	-0.192989	-0.969148	0.153321	0.015371	0.153254	0.988067	-0.981081	0.193043	-0.014679
410	1419126													9.525232	0.086409	-1.923694	-0.199808	-0.967825	0.152941	0.015096	0.153030	0.988106	-0.979719	0.199740	-0.015966
411	1419293													9.544772	0.076024	-2.037167	-0.206758	-0.966419	0.152594	0.014881	0.152840	0.988139	-0.978279	0.206576	-0.017219
412	1419459													9.657456	0.111938	-2.097829	-0.213706	-0.964953	0.152299	0.014743	0.152697	0.988163	-0.976787	0.213422	-0.018406
413	1419626													9.617247	0.133797	-2.141387	-0.220357	-0.963498	0.152033	0.014717	0.152563	0.988184	-0.975308	0.219991	-0.019439
414	1419793													9.564329	0.124356	-2.220229	-0.226834	-0.961993	0.152041	0.014819	0.152683	0.988164	-0.973821	0.226403	-0.020378
415	1419959													9.541159	0.093273	-2.317302	-0.233155	-0.960457	0.152186	0.014954	0.152939	0.988122	-0.972325	0.232661	-0.021296
416	1420126													9.505694	0.109018	-2.409810	-0.239333	-0.958913	0.152331	0.015090	0.153198	0.988080	-0.970820	0.238779	-0.022195
417	1420293													9.383967	0.127355	-2.452876	-0.245396	-0.957337	0.152597	0.015315	0.153562	0.988020	-0.969302	0.244794	-0.023021
418	1420459													9.397471	0.100539	-2.494938	-0.251577	-0.955679	0.152925	0.015586	0.153985	0.987950	-0.967712	0.250929	-0.023844
419	1420626													9.469476	0.088910	-2.556651	-0.257684	-0.953995	0.153274	0.015772	0.154457	0.987874	-0.966101	0.256976	-0.024755
420	1420793													9.479011	0.088564	-2.640594	-0.263511	-0.952353	0.153578	0.015869	0.154903	0.987802	-0.964526	0.262734	-0.025705
421	1420959													9.434812	0.081569	-2.657944	-0.269001	-0.950770	0.153866	0.015975	0.155328	0.987734	-0.963008	0.268159	-0.026595
422	1421126													9.426414	0.100539	-2.714014	-0.274305	-0.949205	0.154161	0.016106	0.155753	0.987665	-0.961508	0.273405	-0.027436
423	1421293													9.442694	0.114214	-2.782426	-0.279488	-0.947636	0.154506	0.016275	0.156219	0.987588	-0.960011	0.278534	-0.028239
424	1421459													9.410043	0.071933	-2.843724	-0.284404	-0.946120	0.154827	0.016473	0.156649	0.987517	-0.958563	0.283404	-0.028966
425	1421626													9.376841	0.053287	-2.886683	-0.289037	-0.944668	0.155112	0.016731	0.157018	0.987454	-0.957172	0.288006	-0.029579
426	1421793													9.306114	0.033665	-2.929794	-0.293549	-0.943248	0.155280	0.016990	0.157263	0.987411	-0.955793	0.292492	-0.030138
427	1421959													9.368491	0.085355	-2.938872	-0.298030	-0.941837	0.155310	0.017306	0.157346	0.987392	-0.954399	0.296961	-0.030594
428	1422126													9.406231	0.086158	-3.019284	-0.302227	-0.940497	0.155320	0.017684	0.157379	0.987380	-0.953072	0.301160	-0.030933
429	1422293													9.322064	0.104836	-3.080304	-0.306175	-0.939230	0.155253	0.018133	0.157301	0.987384	-0.951803	0.305127	-0.031131
430	1422459													9.289346	0.107706	-3.125544	-0.309999	-0.937992	0.155153	0.018619	0.157171	0.987396	-0.950555	0.308980	-0.031258
431	1422626													9.256660	0.148043	-3.212709	-0.313778	-0.936770	0.154937	0.019137	0.156905	0.987428	-0.949303	0.312799	-0.031306
432	1422793													9.209912	0.212025	-3.242727	-0.317494	-0.935537	0.154819	0.019723	0.156716	0.987447	-0.948055	0.316562	-0.031305
433	1422959													9.309982	0.190823	-3.289093	-0.320974	-0.934339	0.154874	0.020330	0.156692	0.987438	-0.946870	0.320091	-0.031299
434	1423126													9.464770	0.163932	-3.301875	-0.323880	-0.933313	0.155015	0.020884	0.156754	0.987417	-0.945868	0.323042	-0.031279
435	1423293													9.564548	0.115207	-3.293833	-0.325720	-0.932645	0.155179	0.021238	0.156871	0.987391	-0.945228	0.324908	-0.031288
436	1423459													9.395206	0.069423	-3.293645	-0.326498	-0.932366	0.155218	0.021418	0.156878	0.987386	-0.944955	0.325704	-0.031251
437	1423626													9.142452	0.083499	-3.291579	-0.327040	-0.932209	0.155022	0.021467	0.156672	0.987417	-0.944767	0.326253	-0.031226
438	1423793													9.049197	0.136524	-3.290606	-0.327845	-0.931990	0.154636	0.021516	0.156275	0.987479	-0.944486	0.327067	-0.031182
439	1423959													9.076477	0.138146	-3.276393	-0.328953	-0.931679	0.154154	0.021673	0.155748	0.987559	-0.944098	0.328201	-0.031041
440	1424126													9.154486	0.170023	-3.303365	-0.330155	-0.931341	0.153627	0.021967	0.155129	0.987650	-0.943671	0.329453	-0.030758
441	1424293													9.269940	0.202708	-3.327205	-0.331178	-0.931064	0.153107	0.022268	0.154507	0.987741	-0.943306	0.330527	-0.030436
442	1424459													9.329572	0.204056	-3.331845	-0.331841	-0.930905	0.152633	0.022509	0.153942	0.987823	-0.943067	0.331236	-0.030131
443	1424626													9.286198	0.204211	-3.364322	-0.332047	-0.930894	0.152254	0.022665	0.153491	0.987890	-0.942990	0.331477	-0.029868
444	1424793													9.310207	0.237316	-3.366750	-0.331828	-0.931015	0.151991	0.022732	0.153181	0.987937	-0.943066	0.331280	-0.029666
445	1424959													9.222241	0.222480	-3.358764	-0.331160	-0.931272	0.151872	0.022737	0.153032	0.987960	-0.943301	0.330626	-0.029503
446	1425126													9.201612	0.215774	-3.343705	-0.330290	-0.931587	0.151836	0.022699	0.152978	0.987969	-0.943607	0.329763	-0.029381
447	1425293													9.251081	0.198893	-3.352353	-0.329238	-0.931951	0.151887	0.022646	0.153016	0.987964	-0.943975	0.328715	-0.029273
448	1425459													9.308158	0.166458	-3.353788	-0.327865	-0.932428	0.151930	0.022502	0.153066	0.987960	-0.944457	0.327336	-0.029203
449	1425626													9.324940	0.173864	-3.345152	-0.326078	-0.933052	0.151943	0.022373	0.153066	0.987963	-0.945078	0.325553	-0.029036
450	1425793													9.310020	0.189759	-3.315163	-0.323866	-0.933812	0.152003	0.022387	0.153054	0.987964	-0.945838	0.323371	-0.028664
451	1425959													9.360572	0.176075	-3.278467	-0.321235	-0.934705	0.152100	0.022397	0.153068	0.987962	-0.946735	0.320774	-0.028236
452	1426126													9.347125	0.171495	-3.238544	-0.318012	-0.935796	0.152167	0.022375	0.153047	0.987966	-0.947823	0.317590	-0.027732
453	1426293													9.362350	0.181237	-3.199353	-0.314236	-0.937055	0.152259	0.022322	0.153045	0.987967	-0.949082	0.313854	-0.027175
454	1426459													9.360764	0.172146	-3.153406	-0.310013	-0.938450	0.152325	0.022240	0.153016	0.987973	-0.950472	0.309672	-0.026566
455	1426626													9.330176	0.167104	-3.117552	-0.305455	-0.939944	0.152321	0.022136	0.152914	0.987992	-0.951949	0.305159	-0.025901
456	1426793													9.360752	0.153746	-3.075576	-0.300692	-0.941487	0.152268	0.022026	0.152758	0.988018	-0.953467	0.300443	-0.025196
457	1426959													9.411060	0.139453	-3.060758	-0.295642	-0.943111	0.152108	0.021854	0.152507	0.988061	-0.955049	0.295437	-0.024477
458	1427126													9.485168	0.154997	-2.995509	-0.290291	-0.944819	0.151818	0.021652	0.152123	0.988124	-0.956693	0.290131	-0.023703
459	1427293													9.565101	0.146044	-2.947666	-0.284425	-0.946656	0.151475	0.021421	0.151686	0.988197	-0.958459	0.284313	-0.022865
460	1427459													9.570396	0.168193	-2.888454	-0.277585	-0.948748	0.151073	0.021222	0.151159	0.988282	-0.960467	0.277539	-0.021825
461	1427626													9.491896	0.161707	-2.841571	-0.269744	-0.951058	0.150753	0.021155	0.150665	0.988358	-0.962700	0.269793	-0.020522
462	1427793													9.386444	0.078712	-2.769956	-0.261475	-0.953439	0.150285	0.021079	0.150024	0.988458	-0.964980	0.261625	-0.019130
463	1427959													9.406787	0.080659	-2.671118	-0.253060	-0.955816	0.149585	0.020891	0.149183	0.988589	-0.967225	0.253297	-0.017784
464	1428126													9.411675	0.156542	-2.554844	-0.244619	-0.958147	0.148716	0.020760	0.148165	0.988745	-0.969397	0.244953	-0.016353
465	1428293													9.508512	0.192082	-2.458201	-0.236211	-0.960381	0.147892	0.020819	0.147163	0.988893	-0.971479	0.236666	-0.014768
466	1428460													9.603765	0.168958	-2.371068	-0.227638	-0.962574	0.147077	0.020952	0.146166	0.989038	-0.973520	0.228224	-0.013105
467	1428626													9.666653	0.200379	-2.329057	-0.218662	-0.964777	0.146259	0.021053	0.145187	0.989180	-0.975574	0.219375	-0.011435
468	1428793													9.661419	0.206915	-2.266318	-0.209103	-0.967002	0.145542	0.021176	0.144320	0.989304	-0.977664	0.209949	-0.009701
469	1428960													9.596792	0.205453	-2.144549	-0.198815	-0.969258	0.144951	0.021394	0.143576	0.989408	-0.979804	0.199810	-0.007809
470	1429126													9.514869	0.182053	-2.018045	-0.188138	-0.971478	0.144345	0.021780	0.142806	0.989511	-0.981901	0.189309	-0.005708
471	1429293													9.553361	0.204761	-1.908529	-0.177308	-0.973599	0.143762	0.022223	0.142078	0.989606	-0.983904	0.178660	-0.003556
472	1429460													9.616785	0.200868	-1.751526	-0.166480	-0.975592	0.143196	0.022716	0.141389	0.989693	-0.985783	0.168017	-0.001377
473	1429626													9.670066	0.220819	-1.660649	-0.155549	-0.977472	0.142662	0.023301	0.140749	0.989771	-0.987553	0.157283	0.000883
474	1429793													9.740163	0.249940	-1.587452	-0.144434	-0.979244	0.142195	0.023965	0.140198	0.989833	-0.989224	0.146374	0.003218
475	1429960													9.770597	0.295560	-1.477787	-0.132971	-0.980917	0.141851	0.024675	0.139801	0.989872	-0.990813	0.135124	0.005615
476	1430126													9.801038	0.301261	-1.389136	-0.121000	-0.982483	0.141728	0.025411	0.139665	0.989873	-0.992327	0.123376	0.008066
477	1430293													9.838637	0.318303	-1.281696	-0.108488	-0.983873	0.142211	0.026125	0.140184	0.989781	-0.993754	0.111095	0.010496
478	1430460													9.844090	0.334621	-1.181547	-0.095434	-0.985137	0.142822	0.026815	0.140880	0.989663	-0.995074	0.098278	0.012971
479	1430626													9.876752	0.310602	-1.067812	-0.081753	-0.986255	0.143589	0.027520	0.141782	0.989515	-0.996273	0.084847	0.015551
480	1430793													9.876310	0.292971	-0.963710	-0.067332	-0.987229	0.144382	0.028087	0.142778	0.989356	-0.997335	0.070671	0.018115
481	1430960													9.865496	0.251319	-0.851449	-0.052253	-0.988009	0.145283	0.028476	0.143948	0.989175	-0.998228	0.055824	0.020613
482	1431126													9.806099	0.247070	-0.680780	-0.036515	-0.988596	0.146101	0.028675	0.145102	0.989001	-0.998922	0.040303	0.023050
483	1431293													9.805554	0.211867	-0.532446	-0.020317	-0.988956	0.146812	0.028710	0.146204	0.988838	-0.999381	0.024305	0.025422
484	1431460													9.836720	0.210258	-0.372284	-0.003754	-0.989063	0.147445	0.028613	0.147279	0.988681	-0.999584	0.007931	0.027747
485	1431626													9.840752	0.229958	-0.196924	0.013169	-0.988915	0.147899	0.028452	0.148223	0.988545	-0.999508	-0.008810	0.030089
486	1431793													9.838053	0.226062	-0.023101	0.030458	-0.988467	0.148340	0.028338	0.149203	0.988400	-0.999134	-0.025902	0.032555
487	1431960													9.696614	0.191932	0.144485	0.047934	-0.987727	0.148653	0.028215	0.150104	0.988268	-0.998452	-0.043177	0.035064
488	1432126													9.705976	0.172032	0.342998	0.065353	-0.986705	0.148806	0.028107	0.150886	0.988152	-0.997466	-0.060396	0.037594
489	1432293													9.721581	0.194475	0.602256	0.082749	-0.985456	0.148421	0.028073	0.151178	0.988108	-0.996175	-0.077599	0.040174
490	1432460													9.678264	0.216672	0.763837	0.100044	-0.983907	0.148046	0.028148	0.151532	0.988052	-0.994585	-0.094681	0.042855
491	1432626													9.614310	0.239628	0.933979	0.117176	-0.982053	0.147792	0.028300	0.152059	0.987966	-0.992708	-0.111583	0.045609
492	1432793													9.597251	0.279635	1.091987	0.134033	-0.979909	0.147691	0.028540	0.152791	0.987846	-0.990566	-0.128189	0.048446
493	1432960													9.606657	0.316244	1.290956	0.150759	-0.977463	0.147776	0.028831	0.153769	0.987686	-0.988150	-0.144642	0.051363
494	1433126													9.577589	0.288102	1.492929	0.167213	-0.974739	0.148065	0.029161	0.155003	0.987484	-0.985489	-0.160802	0.054343
495	1433293													9.582812	0.172547	1.625082	0.183391	-0.971772	0.148415	0.029421	0.156334	0.987266	-0.982600	-0.176689	0.057261
496	1433460													9.516253	0.146077	1.742894	0.199237	-0.968620	0.148594	0.029597	0.157513	0.987073	-0.979504	-0.192263	0.060051
497	1433626													9.519913	0.190245	1.923201	0.214819	-0.965290	0.148554	0.029825	0.158518	0.986906	-0.976198	-0.207575	0.062843
498	1433793													9.580888	0.245632	2.119091	0.230318	-0.961724	0.148459	0.030077	0.159523	0.986736	-0.972650	-0.222798	0.065667
499	1433960													9.569577	0.284370	2.319257	0.245939	-0.957859	0.148391	0.030266	0.160608	0.986554	-0.968813	-0.238141	0.068491
500	1434126													9.599827	0.307588	2.536201	0.261751	-0.953661	0.148378	0.030405	0.161810	0.986353	-0.964656	-0.253668	0.071350
501	1434293													9.542130	0.267951	2.723203	0.277764	-0.949120	0.148383	0.030435	0.163078	0.986144	-0.960167	-0.269399	0.074183
502	1434460													9.387465	0.191049	2.868350	0.293786	-0.944304	0.148258	0.030309	0.164227	0.985957	-0.955391	-0.285167	0.076868
503	1434626													9.342987	0.127195	3.007632	0.309627	-0.939297	0.147827	0.030024	0.165047	0.985829	-0.950384	-0.300801	0.079305
504	1434793													9.298409	0.065100	3.069881	0.325358	-0.934111	0.146895	0.029566	0.165321	0.985797	-0.945129	-0.316393	0.081406
505	1434960													9.121076	0.140306	3.190271	0.340842	-0.928802	0.145446	0.029049	0.165041	0.985859	-0.939672	-0.331797	0.083234
506	1435126													9.066613	0.357057	3.322734	0.355931	-0.923364	0.143914	0.028758	0.164749	0.985916	-0.934070	-0.346779	0.085194
507	1435293													8.934224	0.478945	3.505781	0.370558	-0.917755	0.142875	0.028762	0.165091	0.985859	-0.928364	-0.361208	0.087572
508	1435460													8.924976	0.417013	3.658133	0.384571	-0.912041	0.142430	0.029084	0.166191	0.985664	-0.922637	-0.374915	0.090439
509	1435626													8.943586	0.304013	3.825970	0.398108	-0.906213	0.142437	0.029551	0.167860	0.985368	-0.916863	-0.388073	0.093606
510	1435793													8.958390	0.173235	3.957450	0.411122	-0.900384	0.142430	0.030011	0.169529	0.985068	-0.911086	-0.400709	0.096719
511	1435960													8.960082	0.211434	4.082267	0.423756	-0.894537	0.142248	0.030405	0.171005	0.984801	-0.905266	-0.412990	0.099663
512	1436126													8.883720	0.317704	4.202389	0.436138	-0.888605	0.142005	0.030769	0.172438	0.984540	-0.899354	-0.425026	0.102549
513	1436293													8.865076	0.356323	4.288336	0.448247	-0.882569	0.141938	0.031037	0.174053	0.984247	-0.893371	-0.436780	0.105411
514	1436460													8.775105	0.384186	4.417213	0.460199	-0.876383	0.142023	0.031154	0.175812	0.983931	-0.887269	-0.448379	0.108211
515	1436626													8.759183	0.332225	4.549331	0.471956	-0.870076	0.142217	0.031083	0.177634	0.983606	-0.881074	-0.459798	0.110880
516	1436793													8.696032	0.303944	4.724498	0.483662	-0.863596	0.142383	0.030906	0.179426	0.983286	-0.874709	-0.471178	0.113472
517	1436960													8.589829	0.330881	4.884725	0.495201	-0.856999	0.142581	0.030754	0.181305	0.982946	-0.868234	-0.482371	0.116138
518	1437126													8.574751	0.382377	5.052248	0.506560	-0.850257	0.143037	0.030656	0.183553	0.982532	-0.861659	-0.493326	0.119046
519	1437293													8.444981	0.345251	5.201295	0.517613	-0.843445	0.143796	0.030570	0.186185	0.982039	-0.855068	-0.503921	0.122156
520	1437460													8.348737	0.273355	5.295135	0.528206	-0.836699	0.144679	0.030470	0.188955	0.981513	-0.848569	-0.514033	0.125301
521	1437626													8.281409	0.282878	5.403378	0.538291	-0.830093	0.145564	0.030302	0.191676	0.980990	-0.842214	-0.523647	0.128331
522	1437793													8.268115	0.269833	5.518795	0.548006	-0.823551	0.146466	0.030065	0.194379	0.980466	-0.835934	-0.532898	0.131281
523	1437960													8.246005	0.272506	5.625435	0.557447	-0.817048	0.147260	0.029806	0.196958	0.979959	-0.829677	-0.541886	0.134146
524	1438126													8.228833	0.257269	5.777138	0.566808	-0.810447	0.148003	0.029565	0.199541	0.979443	-0.823319	-0.550780	0.137062
525	1438293													8.150239	0.146718	5.842844	0.576106	-0.803778	0.148470	0.029469	0.201949	0.978953	-0.816843	-0.559606	0.140030
526	1438460													7.973987	0.114974	5.924069	0.585166	-0.797220	0.148399	0.029680	0.203935	0.978535	-0.810371	-0.568200	0.142997
527	1438626													7.899691	0.114440	6.025491	0.593713	-0.790993	0.147765	0.030367	0.205526	0.978180	-0.804103	-0.576271	0.146044
528	1438793													7.854391	0.145328	6.135707	0.601803	-0.785071	0.146614	0.031678	0.206898	0.977849	-0.798016	-0.583829	0.149382
529	1438960													7.863315	0.082708	6.212178	0.609541	-0.779392	0.144940	0.033731	0.208164	0.977512	-0.792037	-0.590944	0.153174
530	1439126													7.732788	0.118272	6.339231	0.616792	-0.774074	0.142747	0.036550	0.209322	0.977163	-0.786277	-0.597489	0.157401
531	1439460													7.699357	0.204465	6.486879	0.623393	-0.769235	0.140212	0.039925	0.210401	0.976799	-0.780889	-0.603332	0.161874
532	1439626													7.626659	0.294254	6.625508	0.629261	-0.764934	0.137506	0.043562	0.211361	0.976437	-0.775973	-0.608443	0.166324
533	1439793													7.573936	0.507505	6.835609	0.634098	-0.761374	0.135015	0.047139	0.212344	0.976057	-0.771814	-0.612552	0.170537
534	1439960													7.564769	0.620016	6.960191	0.637937	-0.758519	0.132985	0.050275	0.213342	0.975683	-0.768446	-0.615739	0.174233
535	1440126													7.528496	0.731467	7.068915	0.640685	-0.756466	0.131457	0.052798	0.214212	0.975359	-0.765986	-0.617958	0.177183
536	1440293													7.487222	0.800508	7.115599	0.642288	-0.755289	0.130400	0.054701	0.214869	0.975110	-0.764509	-0.619169	0.179323
537	1440460													7.348610	0.856965	7.106684	0.642755	-0.754955	0.130036	0.055899	0.215510	0.974900	-0.764030	-0.619353	0.180721
538	1440626													7.397951	0.824373	6.980725	0.642262	-0.755364	0.130094	0.056583	0.215989	0.974755	-0.764394	-0.618687	0.181463
539	1440793													7.471767	0.787002	6.858828	0.641022	-0.756317	0.130671	0.056674	0.216427	0.974653	-0.765427	-0.617368	0.181598
540	1440960													7.476866	0.771178	6.713984	0.639288	-0.757623	0.131598	0.056207	0.216717	0.974615	-0.766910	-0.615663	0.181128
541	1441126													7.620503	0.600387	6.617310	0.637123	-0.759227	0.132848	0.055165	0.216835	0.974648	-0.768786	-0.613642	0.180033
542	1441293													7.714097	0.441516	6.545541	0.634873	-0.760935	0.133843	0.053826	0.216374	0.974826	-0.770739	-0.611686	0.178328
543	1441460													7.520184	0.529222	6.517859	0.632387	-0.762914	0.134343	0.052640	0.215344	0.975118	-0.772862	-0.609581	0.176341
544	1441626													7.358378	0.572746	6.467115	0.629048	-0.765588	0.134807	0.051717	0.214247	0.975410	-0.775644	-0.606608	0.174366
545	1441793													7.403453	0.547228	6.411287	0.624616	-0.769074	0.135573	0.050921	0.213344	0.975649	-0.779270	-0.602502	0.172420
546	1441960													7.666064	0.467522	6.374025	0.619355	-0.773148	0.136533	0.050267	0.212596	0.975846	-0.783500	-0.597532	0.170537
547	1442126													7.882627	0.397803	6.353312	0.613752	-0.777441	0.137456	0.049692	0.211801	0.976049	-0.787933	-0.592222	0.168626
548	1442293													7.976828	0.280624	6.293104	0.608004	-0.781828	0.138117	0.049002	0.210588	0.976346	-0.792420	-0.586854	0.166350
549	1442460													7.920745	0.408846	6.254131	0.602096	-0.786373	0.138193	0.048301	0.208640	0.976799	-0.796961	-0.581452	0.163604
550	1442626													7.705920	0.592499	6.243068	0.595676	-0.791221	0.138345	0.047524	0.206652	0.977260	-0.801818	-0.575555	0.160700
551	1442793													7.672005	0.611050	6.232721	0.588237	-0.796672	0.138893	0.046730	0.204950	0.977656	-0.807337	-0.568603	0.157788
552	1442960													7.781036	0.472688	6.231313	0.579645	-0.802799	0.139729	0.045941	0.203397	0.978018	-0.813573	-0.560484	0.154779
553	1443126													8.030848	0.361781	6.168915	0.570215	-0.809392	0.140499	0.045152	0.201648	0.978417	-0.820254	-0.551564	0.151528
554	1443293													8.107299	0.315588	6.042465	0.560132	-0.816317	0.140993	0.044369	0.199516	0.978889	-0.827214	-0.542052	0.147974
555	1443460													8.160377	0.312599	5.867255	0.549427	-0.823521	0.141221	0.043570	0.197025	0.979430	-0.834405	-0.531973	0.144132
556	1443626													8.172557	0.363402	5.720199	0.538077	-0.830966	0.141310	0.042866	0.194409	0.979984	-0.841805	-0.521249	0.140227
557	1443793													8.185134	0.381580	5.502410	0.526036	-0.838614	0.141463	0.042291	0.191925	0.980498	-0.849410	-0.509795	0.136426
558	1443960													8.206538	0.305889	5.285877	0.513186	-0.846494	0.141733	0.041791	0.189586	0.980974	-0.857260	-0.497499	0.132668
559	1444126													8.241190	0.249840	5.095774	0.499400	-0.854660	0.141975	0.041307	0.187175	0.981458	-0.865386	-0.484275	0.128779
560	1444293													8.389973	0.240161	4.924727	0.484678	-0.863081	0.142051	0.040859	0.184564	0.981971	-0.873738	-0.470136	0.124719
561	1444460													8.676875	0.283618	4.770350	0.469512	-0.871453	0.141873	0.040502	0.181774	0.982506	-0.881996	-0.455553	0.120640
562	1444626													8.842416	0.340218	4.607045	0.454300	-0.879522	0.141608	0.040311	0.179091	0.983006	-0.889936	-0.440871	0.116816
563	1444793													8.942820	0.373162	4.393977	0.439293	-0.887150	0.141374	0.040239	0.176646	0.983452	-0.897442	-0.426334	0.113298
564	1444960													8.983082	0.330185	4.200164	0.424588	-0.894310	0.141191	0.040205	0.174415	0.983851	-0.904494	-0.412055	0.110010
565	1445127													9.051655	0.264477	4.010172	0.410209	-0.901027	0.140994	0.040168	0.172300	0.984225	-0.911106	-0.398075	0.106871
566	1445293													9.081523	0.265118	3.866375	0.396254	-0.907295	0.140705	0.040065	0.170191	0.984596	-0.917266	-0.384513	0.103789
567	1445460													9.096231	0.267913	3.739953	0.382568	-0.913200	0.140381	0.039947	0.168146	0.984952	-0.923063	-0.371203	0.100807
568	1445627													9.145153	0.298195	3.631897	0.369017	-0.918802	0.140105	0.039834	0.166240	0.985280	-0.928569	-0.358004	0.097945
569	1445793													9.272104	0.342606	3.521260	0.355637	-0.924091	0.139921	0.039738	0.164523	0.985572	-0.933779	-0.344946	0.095233
570	1445960													9.322074	0.336160	3.395745	0.342473	-0.929060	0.139856	0.039663	0.163021	0.985825	-0.938690	-0.332071	0.092680
571	1446127													9.327864	0.312955	3.245587	0.329543	-0.933717	0.139906	0.039555	0.161708	0.986046	-0.943312	-0.319410	0.090223
572	1446293													9.312052	0.294906	3.098833	0.316676	-0.938146	0.139992	0.039488	0.160499	0.986246	-0.947711	-0.306792	0.087871
573	1446460													9.269720	0.316831	2.941453	0.303734	-0.942389	0.140170	0.039409	0.159421	0.986424	-0.951941	-0.294087	0.085560
574	1446627													9.351198	0.332236	2.815094	0.290566	-0.946482	0.140510	0.039285	0.158522	0.986574	-0.956048	-0.281145	0.083244
575	1446793													9.455374	0.312547	2.702861	0.277374	-0.950363	0.140978	0.039163	0.157797	0.986695	-0.959964	-0.268162	0.080988
576	1446960													9.433612	0.282017	2.553161	0.264107	-0.954063	0.141461	0.039004	0.157114	0.986810	-0.963704	-0.255106	0.078707
577	1447127													9.476730	0.293813	2.440117	0.250719	-0.957600	0.141926	0.038831	0.156438	0.986924	-0.967281	-0.241929	0.076406
578	1447293													9.542406	0.289688	2.292345	0.237212	-0.960961	0.142422	0.038540	0.155800	0.987037	-0.970693	-0.228648	0.073993
579	1447460													9.529259	0.265240	2.141926	0.223658	-0.964135	0.142901	0.038207	0.155175	0.987148	-0.973918	-0.215324	0.071543
580	1447627													9.627303	0.227502	1.999210	0.209982	-0.967147	0.143298	0.037850	0.154497	0.987268	-0.976972	-0.201885	0.069048
581	1447793													9.654659	0.238317	1.834807	0.196379	-0.969965	0.143541	0.037515	0.153717	0.987403	-0.979810	-0.188520	0.066575
582	1447960													9.722722	0.259961	1.665529	0.182966	-0.972557	0.143724	0.037215	0.152938	0.987535	-0.982415	-0.175336	0.064176
583	1448127													9.732026	0.259899	1.539682	0.169821	-0.974906	0.143939	0.036996	0.152265	0.987647	-0.984780	-0.162398	0.061926
584	1448293													9.710265	0.272085	1.422911	0.156943	-0.977027	0.144178	0.036917	0.151688	0.987739	-0.986917	-0.149696	0.059876
585	1448460													9.716648	0.245651	1.338045	0.144163	-0.978960	0.144409	0.036891	0.151149	0.987822	-0.988866	-0.137080	0.057905
586	1448627													9.794681	0.224393	1.206905	0.131461	-0.980718	0.144602	0.036801	0.150595	0.987910	-0.990638	-0.124551	0.055889
587	1448793													9.866290	0.260244	1.046421	0.119108	-0.982273	0.144751	0.036608	0.150034	0.988003	-0.992206	-0.112380	0.053829
588	1448960													9.788074	0.224086	0.929544	0.107195	-0.983635	0.144817	0.036402	0.149441	0.988100	-0.993571	-0.100647	0.051825
589	1449127													9.891797	0.211882	0.790453	0.095582	-0.984841	0.144747	0.036023	0.148740	0.988220	-0.994770	-0.089242	0.049693
590	1449293													9.968798	0.214426	0.670842	0.084622	-0.985881	0.144489	0.035423	0.147894	0.988369	-0.995783	-0.078519	0.047438
591	1449460													9.911841	0.237018	0.560145	0.074484	-0.986758	0.144088	0.034731	0.146969	0.988531	-0.996617	-0.068625	0.045218
592	1449627													9.871606	0.235676	0.470798	0.064853	-0.987503	0.143639	0.034168	0.146055	0.988686	-0.997310	-0.059211	0.043213
593	1449793													9.904716	0.250300	0.402635	0.055534	-0.987990	0.144197	0.033663	0.146190	0.988684	-0.997889	-0.050051	0.041377
594	1449960													9.916705	0.277243	0.325027	0.046646	-0.988370	0.144741	0.033354	0.146359	0.988669	-0.998355	-0.041289	0.039793
595	1450127													9.912998	0.254275	0.236204	0.038217	-0.988650	0.145292	0.033230	0.146576	0.988641	-0.998717	-0.032955	0.038454
596	1450293													9.929460	0.242697	0.152345	0.030228	-0.988846	0.145842	0.033138	0.146820	0.988608	-0.998994	-0.025051	0.037206
597	1450460													9.842448	0.239747	0.105459	0.022522	-0.988980	0.146328	0.033079	0.147022	0.988580	-0.999199	-0.017425	0.036026
598	1450627													9.851077	0.259975	0.081400	0.014977	-0.989061	0.146743	0.032986	0.147169	0.988561	-0.999344	-0.009965	0.034829
599	1450793													9.817478	0.250480	0.029374	0.007620	-0.989093	0.147098	0.032821	0.147271	0.988552	-0.999432	-0.002705	0.033586
600	1450960													9.771133	0.267894	0.017443	0.000118	-0.989072	0.147432	0.032584	0.147357	0.988546	-0.999469	0.004688	0.032245
601	1451127													9.788173	0.268397	-0.042256	-0.007546	-0.989009	0.147664	0.032301	0.147350	0.988557	-0.999450	0.012230	0.030834
602	1451293													9.816076	0.229339	-0.130389	-0.015311	-0.988911	0.147720	0.031962	0.147178	0.988593	-0.999372	0.019858	0.029354
603	1451460													9.769753	0.235833	-0.216257	-0.023163	-0.988760	0.147703	0.031528	0.146947	0.988642	-0.999234	0.027556	0.027770
604	1451627													9.747787	0.256357	-0.326899	-0.031113	-0.988551	0.147645	0.031072	0.146688	0.988695	-0.999033	0.035349	0.026153
605	1451793													9.731089	0.250869	-0.381780	-0.039183	-0.988281	0.147533	0.030721	0.146385	0.988751	-0.998760	0.043274	0.024625
606	1451960													9.722315	0.222005	-0.425561	-0.047450	-0.987935	0.147420	0.030351	0.146092	0.988805	-0.998412	0.051393	0.023052
607	1452127													9.810179	0.187841	-0.509173	-0.055913	-0.987507	0.147325	0.029818	0.145838	0.988859	-0.997990	0.059683	0.021292
608	1452293													9.789206	0.177570	-0.605765	-0.064406	-0.987040	0.146985	0.029240	0.145361	0.988947	-0.997495	0.067992	0.019499
609	1452460													9.751596	0.200827	-0.686173	-0.072755	-0.986514	0.146619	0.028666	0.144879	0.989034	-0.996938	0.076160	0.017739
610	1452627													9.709666	0.195159	-0.794658	-0.080839	-0.985919	0.146384	0.028040	0.144557	0.989099	-0.996333	0.084062	0.015959
611	1452793													9.710148	0.185701	-0.874622	-0.088499	-0.985306	0.146084	0.027427	0.144194	0.989169	-0.995699	0.091547	0.014263
612	1452960													9.696012	0.167389	-0.953126	-0.096029	-0.984619	0.145957	0.026880	0.144016	0.989210	-0.995016	0.098916	0.012636
613	1453127													9.818663	0.129814	-1.024541	-0.103484	-0.983907	0.145666	0.026405	0.143683	0.989271	-0.994281	0.106220	0.011111
614	1453293													9.882011	0.178298	-1.077221	-0.110764	-0.983172	0.145276	0.025999	0.143259	0.989344	-0.993507	0.113360	0.009694
615	1453460													9.838846	0.146165	-1.147460	-0.117808	-0.982408	0.144899	0.025651	0.142856	0.989411	-0.992705	0.120278	0.008370
616	1453627													9.749958	0.161317	-1.206765	-0.124752	-0.981669	0.144095	0.025333	0.142031	0.989538	-0.991864	0.127097	0.007150
617	1453793													9.714738	0.165648	-1.273309	-0.131748	-0.980821	0.143640	0.025013	0.141568	0.989612	-0.990968	0.133972	0.005882
618	1453960													9.716790	0.165680	-1.339716	-0.138893	-0.979949	0.142856	0.024787	0.140769	0.989732	-0.989997	0.141008	0.004739
619	1454127													9.761623	0.182311	-1.458079	-0.145898	-0.979034	0.142147	0.024603	0.140049	0.989839	-0.988994	0.147913	0.003655
620	1454293													9.764619	0.158068	-1.491389	-0.152693	-0.978090	0.141507	0.024411	0.139410	0.989934	-0.987972	0.154611	0.002590
621	1454460													9.771901	0.143241	-1.579811	-0.159271	-0.977140	0.140823	0.024139	0.138746	0.990034	-0.986940	0.161083	0.001489
622	1454627													9.740468	0.136755	-1.612842	-0.165589	-0.976201	0.140043	0.023698	0.138023	0.990145	-0.985910	0.167276	0.000279
623	1454793													9.706061	0.100877	-1.687042	-0.171802	-0.975248	0.139193	0.023255	0.137239	0.990265	-0.984857	0.173367	-0.000898
624	1454960													9.624936	0.088857	-1.794054	-0.178038	-0.974274	0.138176	0.022854	0.136287	0.990406	-0.983758	0.179487	-0.001998
625	1455127													9.580442	-0.015371	-1.870306	-0.184266	-0.973289	0.136946	0.022510	0.135117	0.990574	-0.982619	0.185612	-0.002989
626	1455293													9.549530	-0.125575	-1.917176	-0.190519	-0.972341	0.135113	0.022180	0.133335	0.990823	-0.981433	0.191767	-0.003837
627	1455460													9.661323	-0.073562	-1.965171	-0.196558	-0.971466	0.132737	0.021878	0.130998	0.991141	-0.980248	0.197721	-0.004495
628	1455627													9.686132	-0.004464	-1.966250	-0.202204	-0.970680	0.129977	0.021690	0.128248	0.991505	-0.979103	0.203305	-0.004878
629	1455793													9.693134	0.078309	-2.041052	-0.207531	-0.969957	0.126943	0.021597	0.125194	0.991897	-0.977990	0.208591	-0.005034
630	1455960													9.671781	0.146755	-2.063144	-0.212487	-0.969283	0.123857	0.021522	0.122078	0.992287	-0.976927	0.213514	-0.005079
631	1456127													9.572671	0.204720	-2.112821	-0.217193	-0.968619	0.120853	0.021397	0.119055	0.992657	-0.975894	0.218184	-0.005132
632	1456293													9.516900	0.244989	-2.170373	-0.221789	-0.967909	0.118161	0.021192	0.116365	0.992980	-0.974864	0.222736	-0.005297
633	1456460													9.454972	0.258201	-2.198514	-0.226361	-0.967131	0.115840	0.020909	0.114075	0.993252	-0.973819	0.227255	-0.005601
634	1456627													9.424730	0.267944	-2.227335	-0.231062	-0.966246	0.113928	0.020495	0.112237	0.993470	-0.972723	0.231888	-0.006131
635	1456793													9.459897	0.300202	-2.286708	-0.235975	-0.965215	0.112590	0.020062	0.110998	0.993618	-0.971552	0.236728	-0.006829
636	1456960													9.539133	0.247624	-2.336585	-0.240932	-0.964077	0.111833	0.019578	0.110377	0.993697	-0.970344	0.241603	-0.007719
637	1457127													9.576367	0.188259	-2.390202	-0.245748	-0.962897	0.111518	0.018986	0.110243	0.993723	-0.969148	0.246323	-0.008810
638	1457293													9.613426	0.181079	-2.468140	-0.250271	-0.961731	0.111522	0.018397	0.110443	0.993712	-0.968001	0.250749	-0.009948
639	1457460													9.550013	0.161422	-2.539724	-0.254350	-0.960621	0.111860	0.017907	0.110966	0.993663	-0.966946	0.254741	-0.011022
640	1457627													9.449667	0.094047	-2.550696	-0.257968	-0.959595	0.112382	0.017467	0.111668	0.993592	-0.965995	0.258278	-0.012045
641	1457793													9.440759	0.078351	-2.561590	-0.261479	-0.958569	0.113023	0.017053	0.112491	0.993506	-0.965058	0.261709	-0.013067
642	1457960													9.496963	0.068782	-2.614586	-0.264816	-0.957573	0.113699	0.016614	0.113360	0.993415	-0.964156	0.264961	-0.014110
643	1458127													9.527610	0.068800	-2.631717	-0.267899	-0.956634	0.114376	0.016200	0.114226	0.993323	-0.963311	0.267963	-0.015103
644	1458293													9.537877	0.064164	-2.655300	-0.270533	-0.955812	0.115044	0.015737	0.115093	0.993230	-0.962582	0.270512	-0.016095
645	1458460													9.437802	0.029607	-2.685622	-0.272760	-0.955105	0.115654	0.015254	0.115904	0.993143	-0.961961	0.272654	-0.017045
646	1458627													9.396119	0.014027	-2.724430	-0.274952	-0.954420	0.116122	0.014703	0.116589	0.993071	-0.961345	0.274755	-0.018023
647	1458793													9.408797	-0.014006	-2.748674	-0.277210	-0.953727	0.116449	0.014038	0.117166	0.993013	-0.960707	0.276908	-0.019091
648	1458960													9.438367	-0.008124	-2.776759	-0.279355	-0.953080	0.116619	0.013353	0.117586	0.992973	-0.960095	0.278949	-0.020122
649	1459127													9.405663	-0.019828	-2.854923	-0.281313	-0.952493	0.116704	0.012660	0.117921	0.992942	-0.959533	0.280805	-0.021114
650	1459293													9.399050	-0.040639	-2.907919	-0.283036	-0.951980	0.116723	0.011979	0.118181	0.992920	-0.959035	0.282430	-0.022045
651	1459460													9.409126	-0.058637	-2.948400	-0.284448	-0.951575	0.116593	0.011270	0.118289	0.992915	-0.958625	0.283747	-0.022923
652	1459627													9.384730	-0.014417	-2.941640	-0.285516	-0.951289	0.116320	0.010695	0.118202	0.992932	-0.958314	0.284742	-0.023574
653	1459793													9.432472	0.023385	-2.949569	-0.286247	-0.951095	0.116107	0.010390	0.118089	0.992949	-0.958099	0.285435	-0.023921
654	1459960													9.495915	0.008189	-2.975463	-0.286505	-0.951023	0.116064	0.010303	0.118077	0.992951	-0.958023	0.285681	-0.024031
655	1460127													9.454453	-0.013821	-2.983796	-0.286229	-0.951110	0.116028	0.010303	0.118033	0.992956	-0.958106	0.285408	-0.023985
656	1460293													9.369788	-0.000407	-2.990282	-0.285635	-0.951290	0.116015	0.010403	0.117974	0.992962	-0.958282	0.284832	-0.023801
657	1460460													9.372073	0.031563	-2.959498	-0.284725	-0.951555	0.116082	0.010555	0.117975	0.992960	-0.958551	0.283946	-0.023547
658	1460627													9.377098	0.048502	-2.963874	-0.283509	-0.951896	0.116262	0.010698	0.118089	0.992945	-0.958910	0.282753	-0.023296
659	1460793													9.406691	0.048725	-2.905196	-0.281994	-0.952309	0.116561	0.010871	0.118312	0.992917	-0.959355	0.281264	-0.023010
660	1460960													9.394176	0.048076	-2.880648	-0.280138	-0.952811	0.116937	0.011041	0.118608	0.992880	-0.959896	0.279435	-0.022706
661	1461127													9.409997	0.044418	-2.841862	-0.278088	-0.953357	0.117382	0.011207	0.118973	0.992834	-0.960490	0.277411	-0.022401
662	1461293													9.447126	0.046124	-2.797133	-0.275825	-0.953956	0.117851	0.011373	0.119359	0.992786	-0.961141	0.275175	-0.022072
663	1461460													9.473185	0.035250	-2.782203	-0.273302	-0.954622	0.118330	0.011561	0.119745	0.992737	-0.961859	0.272685	-0.021691
664	1461627													9.473035	0.039077	-2.757692	-0.270536	-0.955356	0.118768	0.011709	0.120094	0.992693	-0.962639	0.269950	-0.021303
665	1461794													9.488339	0.038769	-2.734136	-0.267468	-0.956162	0.119230	0.011878	0.120457	0.992647	-0.963494	0.266917	-0.020861
666	1461960													9.513751	0.033409	-2.701684	-0.264049	-0.957057	0.119670	0.012021	0.120798	0.992604	-0.964434	0.263535	-0.020391
667	1462127													9.511179	0.041485	-2.647971	-0.260152	-0.958071	0.120086	0.012106	0.121122	0.992564	-0.965492	0.259671	-0.019911
668	1462294													9.559226	0.017761	-2.623342	-0.255856	-0.959180	0.120463	0.012169	0.121405	0.992528	-0.966638	0.255410	-0.019390
669	1462460													9.614113	0.030529	-2.591671	-0.251064	-0.960405	0.120788	0.012204	0.121634	0.992500	-0.967893	0.250655	-0.018817
670	1462627													9.584811	0.024035	-2.595254	-0.245830	-0.961720	0.121092	0.012254	0.121832	0.992475	-0.969236	0.245464	-0.018165
671	1462794													9.575008	0.029394	-2.536271	-0.240206	-0.963107	0.121352	0.012363	0.121966	0.992457	-0.970643	0.239895	-0.017390
672	1462960													9.648169	0.084269	-2.463809	-0.234078	-0.964585	0.121585	0.012548	0.122051	0.992444	-0.972137	0.233835	-0.016466
673	1463127													9.756631	0.086009	-2.398202	-0.227244	-0.966175	0.121928	0.012918	0.122202	0.992421	-0.973752	0.227097	-0.015289
674	1463294													9.814340	0.056352	-2.327428	-0.219504	-0.967915	0.122306	0.013430	0.122354	0.992396	-0.975519	0.219477	-0.013858
675	1463460													9.774303	0.059388	-2.261446	-0.210905	-0.969787	0.122609	0.014100	0.122399	0.992381	-0.977405	0.211027	-0.012141
676	1463627													9.692254	0.044470	-2.168888	-0.201651	-0.971736	0.122743	0.014870	0.122266	0.992386	-0.979344	0.201941	-0.010205
677	1463794													9.679339	0.136892	-2.087483	-0.191911	-0.973698	0.122810	0.015726	0.122069	0.992397	-0.981286	0.192384	-0.008114
678	1463960													9.686411	0.119427	-1.984242	-0.181765	-0.975629	0.122917	0.016587	0.121940	0.992399	-0.983202	0.182423	-0.005981
679	1464127													9.681288	0.122695	-1.908022	-0.171219	-0.977526	0.122995	0.017371	0.121824	0.992400	-0.985080	0.172054	-0.003878
680	1464294													9.800124	0.119814	-1.850734	-0.160146	-0.979387	0.123105	0.018012	0.121794	0.992392	-0.986929	0.161145	-0.001864
681	1464460													9.823410	0.124604	-1.745703	-0.148252	-0.981239	0.123252	0.018532	0.121850	0.992375	-0.988776	0.149406	0.000120
682	1464627													9.814898	0.129438	-1.569887	-0.135805	-0.983021	0.123393	0.019093	0.121927	0.992355	-0.990552	0.137122	0.002210
683	1464794													9.841144	0.121738	-1.513766	-0.122664	-0.984721	0.123602	0.019710	0.122101	0.992322	-0.992252	0.124159	0.004432
684	1464960													9.727065	0.145120	-1.428136	-0.109019	-0.986225	0.124400	0.020323	0.122908	0.992210	-0.993832	0.110698	0.006644
685	1465127													9.654660	0.157815	-1.219347	-0.094914	-0.987568	0.125302	0.020912	0.123864	0.992079	-0.995266	0.096782	0.008895
686	1465294													9.713275	0.176147	-1.076777	-0.080482	-0.988729	0.126245	0.021508	0.124904	0.991936	-0.996524	0.082548	0.011213
687	1465460													9.715059	0.167493	-0.878348	-0.065655	-0.989690	0.127288	0.022076	0.126091	0.991773	-0.997598	0.067924	0.013570
688	1465627													9.739043	0.147721	-0.711210	-0.050581	-0.990433	0.128389	0.022629	0.127384	0.991595	-0.998464	0.053062	0.015969
689	1465794													9.656223	0.135371	-0.526148	-0.035613	-0.990953	0.129396	0.023106	0.128627	0.991424	-0.999099	0.038297	0.018317
690	1465960													9.630402	0.101541	-0.374930	-0.021045	-0.991241	0.130380	0.023537	0.129882	0.991250	-0.999501	0.023929	0.020598
691	1466127													9.692864	0.124505	-0.308323	-0.006770	-0.991324	0.131267	0.023798	0.131073	0.991087	-0.999694	0.009834	0.022704
692	1466294													9.723115	0.183820	-0.142878	0.007390	-0.991201	0.132158	0.023966	0.132299	0.990920	-0.999685	-0.004156	0.024732
693	1466460													9.883713	0.233009	0.035279	0.021717	-0.990847	0.133234	0.024102	0.133746	0.990723	-0.999474	-0.018304	0.026786
694	1466627													10.024350	0.196934	0.258651	0.036581	-0.990222	0.134619	0.024284	0.135550	0.990473	-0.999036	-0.032964	0.029005
695	1466794													9.931049	0.141196	0.422714	0.052005	-0.989324	0.136139	0.024489	0.137546	0.990193	-0.998347	-0.048161	0.031380
696	1466960													9.632607	0.093966	0.540293	0.067448	-0.988187	0.137614	0.024856	0.139550	0.989903	-0.997413	-0.063346	0.033975
697	1467127													9.517058	0.086433	0.709056	0.082234	-0.986864	0.139057	0.025546	0.141571	0.989599	-0.996286	-0.077826	0.036852
698	1467294													9.608995	0.065260	0.791729	0.096441	-0.985440	0.140024	0.026507	0.143173	0.989343	-0.994986	-0.091702	0.039929
699	1467460													9.656393	0.079134	0.907487	0.110431	-0.983844	0.140910	0.027611	0.144759	0.989082	-0.993500	-0.105335	0.043151
700	1467627													9.797969	0.122282	1.097708	0.124488	-0.982040	0.141775	0.028955	0.146421	0.988798	-0.991799	-0.118989	0.046663
701	1467794													9.880938	0.211664	1.290674	0.139093	-0.979942	0.142714	0.030432	0.148276	0.988478	-0.989812	-0.133147	0.050446
702	1467960													9.718424	0.260362	1.378174	0.154169	-0.977526	0.143788	0.032098	0.150406	0.988103	-0.987523	-0.147719	0.054564
703	1468127													9.552219	0.307721	1.510528	0.169268	-0.974821	0.145164	0.034018	0.152980	0.987644	-0.984983	-0.162239	0.059056
704	1468294													9.499795	0.305331	1.611717	0.184173	-0.971870	0.146795	0.036051	0.155929	0.987110	-0.982232	-0.176507	0.063755
705	1468460													9.515789	0.284284	1.745581	0.198816	-0.968705	0.148606	0.038066	0.159151	0.986520	-0.979297	-0.190479	0.068517
706	1468627													9.681785	0.308030	1.968356	0.213507	-0.965304	0.150342	0.039863	0.162370	0.985924	-0.976128	-0.204509	0.073147
707	1468794													9.867022	0.351126	2.181824	0.228652	-0.961570	0.151994	0.041364	0.165585	0.985328	-0.972629	-0.219010	0.077635
708	1468960													9.713547	0.360514	2.374763	0.244277	-0.957485	0.153463	0.042554	0.168689	0.984750	-0.968771	-0.234021	0.081952
709	1469127													9.488080	0.346044	2.546654	0.259895	-0.953170	0.154663	0.043599	0.171587	0.984204	-0.964652	-0.249047	0.086152
710	1469294													9.274768	0.322025	2.643651	0.275116	-0.948748	0.155525	0.044478	0.174154	0.983713	-0.960382	-0.263718	0.090111
711	1469460													9.139070	0.281697	2.787811	0.289536	-0.944375	0.155965	0.045292	0.176280	0.983298	-0.956095	-0.277636	0.093812
712	1469627													9.173746	0.260520	2.934673	0.303086	-0.940112	0.155974	0.046069	0.177936	0.982963	-0.951849	-0.290736	0.097240
713	1469794													9.267521	0.275638	3.109457	0.316032	-0.935924	0.155468	0.046909	0.179080	0.982716	-0.947588	-0.303277	0.100499
714	1469960													9.302307	0.324427	3.234895	0.328583	-0.931758	0.154467	0.047714	0.179715	0.982561	-0.943269	-0.315482	0.103509
715	1470127													9.323559	0.417630	3.392312	0.340983	-0.927509	0.153159	0.048532	0.180074	0.982455	-0.938816	-0.327567	0.106416
716	1470294													9.157999	0.497702	3.471254	0.353145	-0.923176	0.151773	0.049412	0.180403	0.982351	-0.934263	-0.339413	0.109324
717	1470460													9.038511	0.584456	3.562564	0.364881	-0.918802	0.150545	0.050365	0.180934	0.982205	-0.929691	-0.350806	0.112295
718	1470627													8.958687	0.587950	3.610844	0.376153	-0.914414	0.149520	0.051316	0.181683	0.982017	-0.925136	-0.361716	0.115264
719	1470794													9.039772	0.551545	3.690576	0.387079	-0.909988	0.148633	0.052166	0.182554	0.981811	-0.920570	-0.372284	0.118133
720	1470960													9.177244	0.556282	3.808831	0.398009	-0.905409	0.147729	0.052798	0.183374	0.981624	-0.915861	-0.382895	0.120788
721	1471127													9.168723	0.630317	3.912436	0.409305	-0.900515	0.146776	0.053136	0.184122	0.981466	-0.910849	-0.393920	0.123211
722	1471294													9.105083	0.672298	4.008092	0.421006	-0.895230	0.146001	0.053101	0.185010	0.981301	-0.905502	-0.405381	0.125428
723	1471460													8.989418	0.701493	4.132692	0.433054	-0.889562	0.145410	0.052777	0.186069	0.981118	-0.899822	-0.417203	0.127526
724	1471627													8.811300	0.707408	4.286325	0.445135	-0.883633	0.145076	0.052318	0.187399	0.980890	-0.893934	-0.429038	0.129647
725	1471794													8.630507	0.649983	4.482969	0.456843	-0.877623	0.145162	0.051927	0.189219	0.980561	-0.888031	-0.440424	0.132015
726	1471960													8.679181	0.429850	4.614684	0.468057	-0.871643	0.145470	0.051763	0.191375	0.980151	-0.882181	-0.451237	0.134694
727	1472127													8.695448	0.246992	4.737190	0.478903	-0.865718	0.145547	0.051980	0.193469	0.979728	-0.876328	-0.461629	0.137653
728	1472294													8.802724	0.179954	4.817684	0.489637	-0.859787	0.144987	0.052653	0.195137	0.979362	-0.870335	-0.471898	0.140817
729	1472460													8.616035	0.269106	4.899342	0.500317	-0.853841	0.143658	0.053953	0.196339	0.979051	-0.864159	-0.482085	0.144299
730	1472627													8.454732	0.431925	4.986474	0.510779	-0.847913	0.141944	0.055911	0.197519	0.978703	-0.857892	-0.491965	0.148296
731	1472794													8.456483	0.473994	5.074446	0.521014	-0.841984	0.140025	0.058488	0.198883	0.978276	-0.851542	-0.501506	0.152866
732	1472960													8.416317	0.573623	5.151265	0.531341	-0.835873	0.137814	0.061423	0.200262	0.977815	-0.844928	-0.511088	0.157749
733	1473127													8.256258	0.663730	5.282489	0.541523	-0.829692	0.135515	0.064516	0.201735	0.977313	-0.838207	-0.520494	0.162773
734	1473294													8.360556	0.716280	5.437320	0.551725	-0.823309	0.133273	0.067538	0.203374	0.976769	-0.831287	-0.529907	0.167811
735	1473460													8.235754	0.766569	5.558276	0.562119	-0.816604	0.131071	0.070414	0.205156	0.976193	-0.824053	-0.539507	0.172823
736	1473627													7.931803	0.867307	5.672180	0.572336	-0.809783	0.129163	0.073408	0.207476	0.975482	-0.816727	-0.548821	0.178190
737	1473794													7.712858	0.717354	5.793568	0.581727	-0.803262	0.127922	0.076612	0.210683	0.974548	-0.809768	-0.557121	0.184100
738	1473960													7.729986	0.604615	5.896077	0.590083	-0.797313	0.126858	0.079983	0.214090	0.973534	-0.803371	-0.564320	0.190102
739	1474127													7.795988	0.728564	5.978137	0.597646	-0.791828	0.125810	0.082971	0.217157	0.972604	-0.797455	-0.570835	0.195482
740	1474294													7.837604	1.068306	6.081844	0.604580	-0.786620	0.125348	0.084922	0.220121	0.971769	-0.792004	-0.576868	0.199882
741	1474460													8.045071	1.121753	6.203794	0.611337	-0.781301	0.125837	0.085340	0.223171	0.971036	-0.786755	-0.582892	0.203109
742	1474627													7.937042	1.035568	6.332513	0.618231	-0.775707	0.126763	0.084526	0.225955	0.970464	-0.781438	-0.589256	0.205260
743	1474794													7.706672	0.764042	6.477393	0.624782	-0.770281	0.127730	0.083398	0.228487	0.969968	-0.776332	-0.595366	0.206995
744	1474960													7.626183	0.542078	6.658470	0.630572	-0.765527	0.127854	0.082821	0.230161	0.969622	-0.771699	-0.600828	0.208535
745	1475127													7.439978	0.624640	6.829846	0.635322	-0.761728	0.127030	0.082957	0.230860	0.969444	-0.767779	-0.605371	0.209861
746	1475294													7.537772	0.825624	6.923290	0.638894	-0.758926	0.125876	0.083206	0.230836	0.969429	-0.764782	-0.608889	0.210627
747	1475460													7.401585	1.114941	6.973712	0.641453	-0.756954	0.124737	0.083137	0.230227	0.969579	-0.762645	-0.611569	0.210611
748	1475627													7.542280	1.116150	7.005066	0.643026	-0.755631	0.124661	0.082154	0.229896	0.969741	-0.761425	-0.613327	0.209907
749	1475794													7.510894	0.997430	7.027786	0.643975	-0.754770	0.124974	0.080537	0.229328	0.970012	-0.760796	-0.614598	0.208468
750	1475960													7.384791	0.911678	6.944822	0.644195	-0.754469	0.125656	0.078592	0.228709	0.970317	-0.760813	-0.615198	0.206628
751	1476127													7.360053	0.939581	6.877076	0.643607	-0.754770	0.126852	0.076498	0.228352	0.970568	-0.761523	-0.614961	0.204708
752	1476294													7.324547	0.984693	6.851486	0.642155	-0.755679	0.128786	0.074260	0.228535	0.970699	-0.762969	-0.613776	0.202871
753	1476460													7.416851	0.780116	6.744834	0.639893	-0.757093	0.131710	0.071565	0.229359	0.970707	-0.765124	-0.611723	0.200947
754	1476627													7.477713	0.716997	6.635509	0.637075	-0.758905	0.134904	0.068664	0.230197	0.970719	-0.767737	-0.609157	0.198762
755	1476794													7.478060	0.632820	6.545025	0.633686	-0.761106	0.138420	0.065733	0.231261	0.970669	-0.770793	-0.606000	0.196576
756	1476960													7.515129	0.430738	6.404241	0.629830	-0.763673	0.141840	0.062730	0.232025	0.970685	-0.774196	-0.602469	0.194041
757	1477127													7.453981	0.469569	6.324470	0.625364	-0.766817	0.144608	0.059836	0.231892	0.970899	-0.778035	-0.598513	0.190901
758	1477294													7.494385	0.671767	6.344849	0.620199	-0.770490	0.147302	0.056998	0.231544	0.971153	-0.782371	-0.593913	0.187520
759	1477460													7.731802	0.694221	6.377531	0.614487	-0.774460	0.150389	0.054064	0.231514	0.971328	-0.787072	-0.588738	0.184132
760	1477627													8.012053	0.465431	6.378617	0.608650	-0.778406	0.153718	0.050842	0.231601	0.971481	-0.791808	-0.583477	0.180540
761	1477794													8.195907	0.478323	6.366753	0.602976	-0.782229	0.156646	0.047369	0.231117	0.971772	-0.796352	-0.578535	0.176412
762	1477960													7.900962	0.542170	6.282772	0.597499	-0.785778	0.159836	0.043561	0.230843	0.972015	-0.800685	-0.573816	0.172158
763	1478127													7.601622	0.372357	6.083793	0.591375	-0.789658	0.163448	0.039899	0.231094	0.972113	-0.805409	-0.568362	0.168169
764	1478294													7.896726	0.111822	5.989511	0.584356	-0.794084	0.167208	0.036866	0.231814	0.972061	-0.810659	-0.561866	0.164737
765	1478461													8.376066	-0.074496	5.930195	0.577309	-0.798592	0.170190	0.034715	0.232249	0.972037	-0.815787	-0.555258	0.161803
766	1478627													8.408108	-0.022451	5.855416	0.570786	-0.802827	0.172254	0.033386	0.232303	0.972070	-0.820420	-0.549093	0.159399
767	1478794													8.330025	-0.062498	5.803156	0.564431	-0.807034	0.173534	0.032870	0.232028	0.972154	-0.824826	-0.543010	0.157491
768	1478961													8.314628	0.018235	5.734784	0.558072	-0.811347	0.173988	0.033132	0.231297	0.972319	-0.829131	-0.536860	0.155962
769	1479127													8.176761	0.085026	5.615297	0.551452	-0.815872	0.173934	0.033999	0.230311	0.972523	-0.833513	-0.530387	0.154744
770	1479294													8.201425	0.118355	5.529788	0.544318	-0.820731	0.173550	0.035269	0.229090	0.972766	-0.838137	-0.523373	0.153644
771	1479461													8.236714	0.148132	5.418425	0.536688	-0.825892	0.172823	0.036772	0.227518	0.973079	-0.842979	-0.515885	0.152476
772	1479627													8.318072	0.137233	5.329581	0.528487	-0.831404	0.171666	0.038445	0.225443	0.973498	-0.848071	-0.507881	0.151107
773	1479794													8.430859	0.231803	5.249574	0.519900	-0.837136	0.170020	0.040204	0.222792	0.974037	-0.853280	-0.499567	0.149486
774	1479961													8.569049	0.393931	5.181567	0.511157	-0.842888	0.168102	0.042052	0.219876	0.974621	-0.858458	-0.491116	0.147836
775	1480127													8.562387	0.482778	5.073976	0.502335	-0.848532	0.166294	0.043907	0.217104	0.975161	-0.863557	-0.482556	0.146315
776	1480294													8.553744	0.481770	4.911658	0.493321	-0.854123	0.164644	0.045674	0.214453	0.975666	-0.868647	-0.473797	0.144806
777	1480461													8.648354	0.503741	4.816093	0.484034	-0.859690	0.163231	0.047281	0.211962	0.976134	-0.873771	-0.464764	0.143244
778	1480627													8.759277	0.501708	4.711621	0.474635	-0.865132	0.162073	0.048697	0.209664	0.976560	-0.878835	-0.455617	0.141643
779	1480794													8.836806	0.536078	4.679636	0.465363	-0.870331	0.161124	0.049953	0.207571	0.976944	-0.883709	-0.446585	0.140071
780	1480961													8.904402	0.497394	4.583664	0.456381	-0.875206	0.160407	0.050992	0.205705	0.977285	-0.888322	-0.437835	0.138508
781	1481127													8.895231	0.430562	4.499612	0.447758	-0.879764	0.159773	0.051758	0.203888	0.977625	-0.892656	-0.429470	0.136827
782	1481294													8.853038	0.430368	4.440116	0.439217	-0.884185	0.159078	0.052239	0.201908	0.978010	-0.896861	-0.421249	0.134870
783	1481461													8.855636	0.499472	4.394533	0.430498	-0.888586	0.158385	0.052531	0.199847	0.978418	-0.901061	-0.412887	0.132712
784	1481627													8.837163	0.560954	4.314308	0.421534	-0.892953	0.157936	0.052714	0.198001	0.978783	-0.905279	-0.404265	0.130536
785	1481794													8.883211	0.537407	4.211161	0.412163	-0.897345	0.157774	0.052823	0.196411	0.979098	-0.909577	-0.395214	0.128354
786	1481961													9.042704	0.509776	4.084372	0.402610	-0.901673	0.157769	0.052822	0.194953	0.979389	-0.913846	-0.385978	0.126118
787	1482127													9.114280	0.452311	3.982014	0.393051	-0.905887	0.157732	0.052694	0.193446	0.979695	-0.918006	-0.376758	0.123769
788	1482294													9.175066	0.460121	3.883171	0.383520	-0.909986	0.157601	0.052547	0.191875	0.980012	-0.922037	-0.367572	0.121405
789	1482461													9.173019	0.403496	3.796257	0.374052	-0.913956	0.157380	0.052412	0.190260	0.980334	-0.925925	-0.358448	0.119070
790	1482627													9.173777	0.378240	3.699382	0.364487	-0.917887	0.156948	0.052369	0.188480	0.980680	-0.929735	-0.349225	0.116767
791	1482794													9.197305	0.418469	3.614318	0.354754	-0.921773	0.156477	0.052434	0.186713	0.981014	-0.933488	-0.339814	0.114570
792	1482961													9.247802	0.392691	3.482698	0.344881	-0.925598	0.155963	0.052534	0.184931	0.981346	-0.937175	-0.330254	0.112405
793	1483127													9.248919	0.401838	3.336269	0.334892	-0.929369	0.155308	0.052698	0.183041	0.981692	-0.940782	-0.320576	0.110275
794	1483294													9.281758	0.451347	3.248771	0.324800	-0.933044	0.154707	0.052890	0.181238	0.982016	-0.944303	-0.310776	0.108214
795	1483461													9.310433	0.442734	3.106026	0.314634	-0.936612	0.154156	0.053025	0.179493	0.982329	-0.947731	-0.300900	0.106139
796	1483627													9.309722	0.426695	3.016455	0.304314	-0.940094	0.153674	0.053075	0.177808	0.982633	-0.951092	-0.290872	0.104005
797	1483794													9.202016	0.372408	2.883639	0.293648	-0.943566	0.153148	0.053112	0.176068	0.982944	-0.954437	-0.280505	0.101817
798	1483961													9.145643	0.355621	2.764281	0.282228	-0.947134	0.152596	0.053261	0.174286	0.983254	-0.957868	-0.269374	0.099634
799	1484127													9.256609	0.403109	2.673258	0.269954	-0.950798	0.152011	0.053512	0.172443	0.983565	-0.961385	-0.257383	0.097431
800	1484294													9.449971	0.475470	2.618070	0.257199	-0.954398	0.151567	0.053832	0.170751	0.983843	-0.964858	-0.244885	0.095294
801	1484461													9.544695	0.499880	2.517110	0.244356	-0.957808	0.151309	0.054106	0.169263	0.984085	-0.968175	-0.232280	0.093183
802	1484627													9.580145	0.533679	2.423164	0.231471	-0.961011	0.151255	0.054254	0.167988	0.984295	-0.971328	-0.219630	0.091023
803	1484794													9.630595	0.509489	2.271295	0.218500	-0.964014	0.151441	0.054220	0.166945	0.984474	-0.974330	-0.206896	0.088747
804	1484961													9.637003	0.515741	2.126358	0.205506	-0.966819	0.151754	0.054047	0.166039	0.984637	-0.977162	-0.194147	0.086375
805	1485127													9.629664	0.501584	1.978397	0.192508	-0.969422	0.152193	0.053787	0.165285	0.984778	-0.979820	-0.181391	0.083961
806	1485294													9.711837	0.450445	1.786467	0.179593	-0.971816	0.152707	0.053507	0.164651	0.984899	-0.982285	-0.168710	0.081569
807	1485461													9.795541	0.416050	1.650182	0.166950	-0.973995	0.153171	0.053146	0.164016	0.985025	-0.984532	-0.156309	0.079146
808	1485627													9.740583	0.388391	1.497277	0.154687	-0.975973	0.153454	0.052645	0.163246	0.985180	-0.986560	-0.144316	0.076632
809	1485794													9.740800	0.414698	1.424728	0.142575	-0.977795	0.153587	0.052214	0.162386	0.985345	-0.988406	-0.132466	0.074207
810	1485961													9.782198	0.391362	1.282713	0.130863	-0.979432	0.153581	0.051885	0.161466	0.985513	-0.990042	-0.120998	0.071947
811	1486127													9.823302	0.406553	1.172255	0.119372	-0.980904	0.153549	0.051575	0.160572	0.985676	-0.991509	-0.109742	0.069758
812	1486294													9.880359	0.372020	1.056351	0.108405	-0.982199	0.153406	0.051313	0.159638	0.985841	-0.992782	-0.098998	0.067705
813	1486461													9.905112	0.343425	0.950415	0.097873	-0.983355	0.153080	0.051071	0.158579	0.986025	-0.993888	-0.088688	0.065742
814	1486627													9.877097	0.335104	0.858079	0.087659	-0.984398	0.152565	0.050857	0.157377	0.986228	-0.994851	-0.078693	0.063859
815	1486794													9.806594	0.334090	0.731123	0.077705	-0.985346	0.151837	0.050673	0.156004	0.986456	-0.995688	-0.068959	0.062053
816	1486961													9.803476	0.363666	0.649747	0.067869	-0.986077	0.151809	0.050435	0.155356	0.986570	-0.996419	-0.059301	0.060277
817	1487127													9.866008	0.385674	0.577341	0.058133	-0.986718	0.151686	0.050170	0.154639	0.986696	-0.997047	-0.049750	0.058493
818	1487294													9.834086	0.371545	0.452238	0.048670	-0.987258	0.151501	0.049866	0.153893	0.986828	-0.997569	-0.040474	0.056721
819	1487461													9.760476	0.380271	0.366063	0.039243	-0.987724	0.151200	0.049502	0.153052	0.986977	-0.998003	-0.031247	0.054901
820	1487627													9.797143	0.357886	0.275079	0.029746	-0.988114	0.150816	0.049004	0.152143	0.987143	-0.998356	-0.021973	0.052948
821	1487794													9.792618	0.340119	0.133357	0.020286	-0.988423	0.150364	0.048381	0.151189	0.987320	-0.998623	-0.012754	0.050888
822	1487961													9.828388	0.362155	0.046986	0.010837	-0.988656	0.149808	0.047575	0.150157	0.987517	-0.998809	-0.003575	0.048662
823	1488127													9.823021	0.368317	-0.023901	0.001575	-0.988809	0.149176	0.046699	0.149086	0.987721	-0.998908	0.005411	0.046411
824	1488294													9.828155	0.389025	-0.072923	-0.007538	-0.988875	0.148559	0.045897	0.148065	0.987912	-0.998918	0.014265	0.044271
825	1488461													9.818089	0.358268	-0.167143	-0.016573	-0.988838	0.148068	0.045071	0.147199	0.988080	-0.998846	0.023049	0.042128
826	1488627													9.777170	0.350311	-0.231958	-0.025511	-0.988728	0.147536	0.044322	0.146320	0.988244	-0.998692	0.031751	0.040090
827	1488794													9.832340	0.396974	-0.311428	-0.034389	-0.988526	0.147081	0.043690	0.145541	0.988387	-0.998453	0.040416	0.038184
828	1488961													9.820861	0.391312	-0.393795	-0.042996	-0.988224	0.146848	0.043121	0.145011	0.988490	-0.998144	0.048834	0.036379
829	1489127													9.821185	0.371676	-0.484571	-0.051469	-0.987837	0.146725	0.042642	0.144612	0.988569	-0.997764	0.057138	0.034681
830	1489294													9.827830	0.364634	-0.597092	-0.059672	-0.987383	0.146680	0.042107	0.144321	0.988635	-0.997330	0.065170	0.032964
831	1489461													9.848451	0.327912	-0.643880	-0.067677	-0.986861	0.146716	0.041475	0.144143	0.988687	-0.996845	0.072997	0.031175
832	1489627													9.909527	0.298540	-0.748989	-0.075369	-0.986301	0.146731	0.040777	0.143978	0.988740	-0.996322	0.080503	0.029367
833	1489794													9.822773	0.290571	-0.829322	-0.082754	-0.985713	0.146703	0.040056	0.143799	0.988796	-0.995765	0.087703	0.027584
834	1489961													9.792352	0.321885	-0.877985	-0.090043	-0.985071	0.146724	0.039425	0.143681	0.988838	-0.995157	0.094822	0.025899
835	1490127													9.800651	0.271965	-0.979958	-0.097155	-0.984383	0.146805	0.038806	0.143644	0.988868	-0.994512	0.101770	0.024244
836	1490294													9.886080	0.272584	-1.062349	-0.103912	-0.983694	0.146795	0.038201	0.143538	0.988907	-0.993853	0.108367	0.022663
837	1490461													9.805464	0.271762	-1.113065	-0.110219	-0.983015	0.146743	0.037620	0.143411	0.988948	-0.993195	0.114522	0.021174
838	1490627													9.791915	0.284851	-1.185803	-0.116195	-0.982394	0.146290	0.037213	0.142878	0.989040	-0.992529	0.120365	0.019956
839	1490794													9.744233	0.254702	-1.238049	-0.121890	-0.981761	0.145904	0.036921	0.142414	0.989118	-0.991857	0.125950	0.018889
840	1490961													9.732923	0.242120	-1.284716	-0.127437	-0.981121	0.145470	0.036682	0.141904	0.989201	-0.991168	0.131397	0.017906
841	1491127													9.753890	0.232674	-1.351770	-0.132745	-0.980482	0.145033	0.036464	0.141398	0.989281	-0.990479	0.136610	0.016982
842	1491294													9.725360	0.240567	-1.411597	-0.137843	-0.979853	0.144523	0.036269	0.140825	0.989370	-0.989790	0.141619	0.016126
843	1491461													9.736501	0.243766	-1.464720	-0.142706	-0.979230	0.144025	0.036150	0.140261	0.989454	-0.989105	0.146408	0.015383
844	1491627													9.726088	0.273872	-1.531295	-0.147304	-0.978614	0.143584	0.036051	0.139759	0.989529	-0.988434	0.150938	0.014693
845	1491794													9.750002	0.297108	-1.591104	-0.151584	-0.978016	0.143203	0.035977	0.139322	0.989593	-0.987789	0.155158	0.014068
846	1491961													9.732209	0.273194	-1.634312	-0.155500	-0.977440	0.142935	0.035938	0.139001	0.989640	-0.987182	0.159026	0.013512
847	1492127													9.718744	0.267519	-1.673287	-0.159066	-0.976899	0.142711	0.035976	0.138720	0.989678	-0.986612	0.162559	0.013080
848	1492294													9.732870	0.284243	-1.700610	-0.162346	-0.976380	0.142571	0.036057	0.138521	0.989703	-0.986075	0.165815	0.012717
849	1492461													9.740205	0.303129	-1.717966	-0.165246	-0.975891	0.142585	0.036181	0.138477	0.989705	-0.985589	0.168703	0.012426
850	1492627													9.742434	0.316874	-1.733337	-0.167753	-0.975446	0.142705	0.036377	0.138533	0.989689	-0.985158	0.171215	0.012245
851	1492794													9.682036	0.300374	-1.735415	-0.169927	-0.975030	0.142972	0.036592	0.138739	0.989653	-0.984777	0.173400	0.012103
852	1492961													9.664464	0.274314	-1.719160	-0.171911	-0.974635	0.143295	0.036797	0.139006	0.989608	-0.984425	0.175397	0.011967
853	1493127													9.632115	0.259337	-1.734810	-0.173850	-0.974249	0.143582	0.036966	0.139243	0.989568	-0.984078	0.177344	0.011806
854	1493294													9.635665	0.279897	-1.744256	-0.175836	-0.973853	0.143845	0.037026	0.139476	0.989533	-0.983723	0.179321	0.011533
855	1493461													9.621243	0.289929	-1.749406	-0.177803	-0.973462	0.144075	0.036953	0.139700	0.989504	-0.983372	0.181260	0.011134
856	1493627													9.631480	0.280840	-1.753057	-0.179729	-0.973079	0.144272	0.036873	0.139893	0.989480	-0.983025	0.183158	0.010738
857	1493794													9.640561	0.287233	-1.787205	-0.181613	-0.972702	0.144459	0.036734	0.140089	0.989457	-0.982684	0.185004	0.010289
858	1493961													9.619164	0.271349	-1.774684	-0.183465	-0.972333	0.144600	0.036555	0.140247	0.989442	-0.982346	0.186814	0.009813
859	1494127													9.623059	0.242759	-1.800104	-0.185329	-0.971970	0.144661	0.036317	0.140336	0.989438	-0.982005	0.188625	0.009291
860	1494294													9.594926	0.248741	-1.820378	-0.187207	-0.971623	0.144576	0.035991	0.140295	0.989455	-0.981661	0.190436	0.008705
861	1494461													9.612381	0.247032	-1.826890	-0.189025	-0.971298	0.144395	0.035719	0.140148	0.989486	-0.981322	0.192195	0.008202
862	1494627													9.616732	0.253044	-1.840702	-0.190831	-0.970987	0.144107	0.035459	0.139890	0.989532	-0.980982	0.193943	0.007734
863	1494794													9.608458	0.251575	-1.849642	-0.192619	-0.970683	0.143777	0.035228	0.139586	0.989583	-0.980641	0.195678	0.007308
864	1494961													9.597911	0.241056	-1.875253	-0.194358	-0.970400	0.143352	0.035018	0.139182	0.989647	-0.980305	0.197365	0.006931
865	1495128													9.579144	0.245542	-1.894545	-0.196090	-0.970125	0.142848	0.034832	0.138693	0.989723	-0.979967	0.199051	0.006595
866	1495294													9.553861	0.249017	-1.886618	-0.197820	-0.969851	0.142325	0.034625	0.138190	0.989800	-0.979627	0.200731	0.006244
867	1495461													9.551966	0.228674	-1.910825	-0.199564	-0.969583	0.141718	0.034374	0.137611	0.989890	-0.979282	0.202418	0.005867
868	1495628													9.604621	0.239988	-1.958866	-0.201353	-0.969313	0.141029	0.034080	0.136958	0.989990	-0.978926	0.204144	0.005457
869	1495794													9.542854	0.279177	-1.989223	-0.203179	-0.969042	0.140273	0.033837	0.136226	0.990100	-0.978557	0.205914	0.005111
870	1495961													9.568010	0.309670	-1.957292	-0.205041	-0.968746	0.139608	0.033738	0.135558	0.990195	-0.978172	0.207740	0.004889
871	1496128													9.587495	0.281496	-1.989867	-0.206883	-0.968435	0.139047	0.033721	0.134979	0.990275	-0.977784	0.209560	0.004732
872	1496294													9.577787	0.258823	-2.014557	-0.208780	-0.968109	0.138477	0.033753	0.134380	0.990355	-0.977380	0.211440	0.004621
873	1496461													9.606176	0.290305	-1.993188	-0.210654	-0.967773	0.137986	0.033793	0.133860	0.990424	-0.976976	0.213300	0.004505
874	1496628													9.602217	0.259369	-2.055607	-0.212421	-0.967447	0.137563	0.033822	0.133413	0.990483	-0.976593	0.215052	0.004381
875	1496794													9.589660	0.306757	-2.053041	-0.214033	-0.967142	0.137210	0.033861	0.133035	0.990533	-0.976239	0.216653	0.004275
876	1496961													9.539895	0.277078	-2.105804	-0.215440	-0.966861	0.136985	0.033885	0.132793	0.990564	-0.975929	0.218049	0.004153
877	1497128													9.574032	0.256922	-2.115081	-0.216734	-0.966597	0.136806	0.033884	0.132604	0.990590	-0.975642	0.219330	0.004012
878	1497294													9.564980	0.255762	-2.115197	-0.217937	-0.966353	0.136622	0.033777	0.132435	0.990616	-0.975378	0.220506	0.003778
879	1497461													9.595300	0.237864	-2.133938	-0.219055	-0.966129	0.136421	0.033660	0.132251	0.990645	-0.975132	0.221597	0.003550
