// Start Time: Unknown
// Update Rate: 60.0Hz
//Filter Profile: human (46.1)
// Option Flags: AHS Disabled ICC Disabled
// Firmware Version: 4.0.2
0	sampleTimeFine	Year	Month	Day	Second	UTC_Nano	UTC_Year	UTC_Month	UTC_Day	UTC_Hour	UTC_Minute	UTC_Second	UTC_Valid	Acc_X	Acc_Y	Acc_Z	Mat[1][1]	Mat[2][1]	Mat[3][1]	Mat[1][2]	Mat[2][2]	Mat[3][2]	Mat[1][3]	Mat[2][3]	Mat[3][3]
0	4942259													-0.300062	0.100779	0.095181	0.147950	-0.836218	-0.528063	0.010247	-0.532615	0.846296	-0.988942	-0.130620	-0.070231
1	4942425													9.701321	0.131469	1.480510	0.147606	-0.835912	-0.528644	0.010534	-0.533140	0.845962	-0.988990	-0.130437	-0.069889
2	4942592													9.707333	0.133036	1.421140	0.147902	-0.835935	-0.528524	0.011215	-0.532950	0.846073	-0.988938	-0.131063	-0.069449
3	4942759													9.725646	0.145785	1.429251	0.147486	-0.836094	-0.528390	0.011892	-0.532694	0.846224	-0.988993	-0.131090	-0.068622
4	4942925													9.743341	0.123072	1.417966	0.147027	-0.836263	-0.528248	0.012510	-0.532437	0.846377	-0.989053	-0.131049	-0.067821
5	4943092													9.721955	0.103327	1.426556	0.146537	-0.836282	-0.528356	0.012803	-0.532473	0.846350	-0.989122	-0.130786	-0.067320
6	4943259													9.707722	0.098800	1.428276	0.146171	-0.836207	-0.528575	0.012830	-0.532667	0.846228	-0.989176	-0.130476	-0.067132
7	4943425													9.718497	0.097934	1.414408	0.145861	-0.836184	-0.528698	0.012766	-0.532778	0.846159	-0.989223	-0.130171	-0.067036
8	4943592													9.744470	0.111241	1.426077	0.145568	-0.836284	-0.528619	0.012620	-0.532698	0.846211	-0.989268	-0.129852	-0.066990
9	4943759													9.736017	0.111481	1.415856	0.145374	-0.836365	-0.528545	0.012493	-0.532625	0.846259	-0.989298	-0.129627	-0.066981
10	4943925													9.726625	0.112157	1.407824	0.145160	-0.836492	-0.528403	0.012348	-0.532486	0.846349	-0.989331	-0.129381	-0.066967
11	4944092													9.730299	0.112554	1.408453	0.144924	-0.836537	-0.528396	0.012200	-0.532483	0.846353	-0.989368	-0.129103	-0.066964
12	4944259													9.736056	0.123629	1.442603	0.144678	-0.836789	-0.528065	0.012046	-0.532151	0.846564	-0.989406	-0.128840	-0.066911
13	4944425													9.746588	0.139608	1.395572	0.144495	-0.836849	-0.528019	0.011940	-0.532106	0.846594	-0.989433	-0.128633	-0.066894
14	4944592													9.719903	0.140566	1.398755	0.144328	-0.836854	-0.528057	0.011808	-0.532150	0.846568	-0.989459	-0.128419	-0.066922
15	4944759													9.689261	0.126523	1.428523	0.144133	-0.836870	-0.528086	0.011694	-0.532181	0.846550	-0.989489	-0.128191	-0.066919
16	4944925													9.733681	0.142408	1.418030	0.143933	-0.836817	-0.528224	0.011636	-0.532314	0.846467	-0.989519	-0.127981	-0.066880
17	4945092													9.788372	0.154610	1.455080	0.143838	-0.836859	-0.528183	0.011598	-0.532271	0.846494	-0.989533	-0.127884	-0.066855
18	4945259													9.685260	0.074081	1.360718	0.143677	-0.836863	-0.528220	0.011505	-0.532310	0.846472	-0.989558	-0.127696	-0.066853
19	4945425													9.752332	0.084154	1.373387	0.143671	-0.836754	-0.528396	0.011322	-0.532510	0.846348	-0.989561	-0.127579	-0.067032
20	4945592													9.760857	0.220465	1.424304	0.143849	-0.836609	-0.528576	0.011389	-0.532696	0.846230	-0.989534	-0.127750	-0.067100
21	4945759													9.759968	0.165555	1.466403	0.144185	-0.836419	-0.528786	0.011442	-0.532925	0.846085	-0.989485	-0.128043	-0.067269
22	4945925													9.684443	0.127565	1.482843	0.144437	-0.836311	-0.528888	0.011298	-0.533064	0.846000	-0.989449	-0.128170	-0.067545
23	4946092													9.682076	0.092876	1.481004	0.144460	-0.836187	-0.529078	0.011288	-0.533259	0.845877	-0.989446	-0.128168	-0.067595
24	4946259													9.724792	0.164810	1.473319	0.144476	-0.836117	-0.529183	0.011362	-0.533357	0.845814	-0.989443	-0.128213	-0.067557
25	4946425													9.719245	0.139072	1.459618	0.144495	-0.836087	-0.529225	0.011392	-0.533397	0.845788	-0.989440	-0.128241	-0.067548
26	4946592													9.688972	0.104865	1.481476	0.144475	-0.836040	-0.529306	0.011426	-0.533473	0.845740	-0.989443	-0.128236	-0.067521
27	4946759													9.718647	0.119292	1.445893	0.144434	-0.835955	-0.529450	0.011470	-0.533610	0.845653	-0.989448	-0.128214	-0.067483
28	4946925													9.721193	0.127188	1.419947	0.144392	-0.835988	-0.529410	0.011506	-0.533562	0.845682	-0.989454	-0.128201	-0.067423
29	4947092													9.718573	0.124749	1.434388	0.144393	-0.835951	-0.529468	0.011529	-0.533617	0.845647	-0.989453	-0.128210	-0.067413
30	4947259													9.714206	0.111334	1.450249	0.144368	-0.835961	-0.529460	0.011535	-0.533607	0.845654	-0.989457	-0.128192	-0.067393
31	4947425													9.727745	0.120783	1.427293	0.144328	-0.835932	-0.529516	0.011502	-0.533665	0.845618	-0.989463	-0.128137	-0.067408
32	4947592													9.735756	0.099454	1.435658	0.144285	-0.835977	-0.529456	0.011484	-0.533604	0.845656	-0.989470	-0.128096	-0.067390
33	4947759													9.723021	0.137269	1.441101	0.144217	-0.835910	-0.529582	0.011424	-0.533734	0.845575	-0.989480	-0.127997	-0.067424
34	4947925													9.697111	0.140252	1.455019	0.144038	-0.836012	-0.529469	0.011348	-0.533617	0.845650	-0.989507	-0.127814	-0.067374
35	4948092													9.730576	0.075019	1.321132	0.143709	-0.836168	-0.529311	0.011217	-0.533453	0.845756	-0.989556	-0.127480	-0.067283
36	4948259													9.716110	0.111358	1.382550	0.143465	-0.836313	-0.529148	0.011222	-0.533270	0.845871	-0.989592	-0.127291	-0.067121
37	4948425													9.761723	0.167563	1.408421	0.143343	-0.836240	-0.529297	0.011302	-0.533402	0.845787	-0.989609	-0.127220	-0.067008
38	4948592													9.720471	0.151892	1.441312	0.143286	-0.836185	-0.529399	0.011186	-0.533516	0.845716	-0.989618	-0.127101	-0.067092
39	4948759													9.709772	0.104284	1.425444	0.143105	-0.836230	-0.529377	0.011025	-0.533502	0.845727	-0.989646	-0.126864	-0.067127
40	4948925													9.742464	0.130567	1.418707	0.142992	-0.836316	-0.529272	0.010909	-0.533403	0.845791	-0.989664	-0.126715	-0.067149
41	4949092													9.705841	0.166730	1.454569	0.142894	-0.836470	-0.529055	0.010888	-0.533179	0.845932	-0.989678	-0.126639	-0.067081
42	4949259													9.696786	0.105677	1.455742	0.142744	-0.836546	-0.528975	0.010925	-0.533083	0.845992	-0.989699	-0.126540	-0.066955
43	4949425													9.739884	0.142687	1.421145	0.142543	-0.836498	-0.529105	0.010971	-0.533195	0.845921	-0.989728	-0.126385	-0.066826
44	4949592													9.745343	0.166101	1.440217	0.142389	-0.836524	-0.529106	0.010991	-0.533183	0.845928	-0.989750	-0.126266	-0.066725
45	4949759													9.717630	0.179776	1.439888	0.142305	-0.836529	-0.529121	0.011014	-0.533190	0.845924	-0.989762	-0.126207	-0.066662
46	4949925													9.697083	0.152568	1.438465	0.142197	-0.836571	-0.529084	0.011058	-0.533139	0.845955	-0.989777	-0.126142	-0.066560
47	4950092													9.744382	0.159223	1.402306	0.142092	-0.836615	-0.529041	0.011123	-0.533081	0.845991	-0.989791	-0.126093	-0.066442
48	4950259													9.737744	0.137419	1.428470	0.142031	-0.836640	-0.529018	0.011144	-0.533051	0.846010	-0.989799	-0.126055	-0.066387
49	4950425													9.715729	0.123243	1.440757	0.142003	-0.836743	-0.528863	0.011141	-0.532892	0.846110	-0.989804	-0.126042	-0.066350
50	4950592													9.711202	0.128132	1.426978	0.141961	-0.836732	-0.528892	0.011147	-0.532918	0.846094	-0.989810	-0.126007	-0.066327
51	4950759													9.732198	0.125461	1.412326	0.141914	-0.836847	-0.528723	0.011130	-0.532746	0.846202	-0.989816	-0.125973	-0.066290
52	4950925													9.752584	0.136071	1.400972	0.141913	-0.836891	-0.528652	0.011099	-0.532679	0.846245	-0.989817	-0.125961	-0.066306
53	4951092													9.743777	0.134544	1.400579	0.141927	-0.836988	-0.528496	0.011053	-0.532527	0.846341	-0.989815	-0.125960	-0.066329
54	4951259													9.737397	0.131869	1.395747	0.141929	-0.837093	-0.528329	0.010999	-0.532365	0.846443	-0.989816	-0.125946	-0.066350
55	4951425													9.727788	0.144654	1.394767	0.141947	-0.837158	-0.528222	0.010932	-0.532267	0.846506	-0.989814	-0.125933	-0.066402
56	4951592													9.732588	0.133378	1.407191	0.141920	-0.837295	-0.528011	0.010854	-0.532062	0.846636	-0.989819	-0.125886	-0.066422
57	4951759													9.726754	0.137755	1.423313	0.141931	-0.837318	-0.527972	0.010791	-0.532031	0.846656	-0.989818	-0.125865	-0.066476
58	4951925													9.722896	0.146102	1.430300	0.141985	-0.837315	-0.527963	0.010749	-0.532031	0.846657	-0.989810	-0.125888	-0.066540
59	4952092													9.717278	0.150297	1.446165	0.142035	-0.837506	-0.527645	0.010682	-0.531721	0.846852	-0.989804	-0.125919	-0.066577
60	4952259													9.715537	0.141629	1.420824	0.142039	-0.837583	-0.527523	0.010624	-0.531605	0.846926	-0.989804	-0.125901	-0.066610
61	4952425													9.751248	0.162220	1.434181	0.142062	-0.837578	-0.527524	0.010623	-0.531609	0.846923	-0.989801	-0.125919	-0.066624
62	4952592													9.752495	0.150762	1.443429	0.142130	-0.837728	-0.527268	0.010586	-0.531358	0.847081	-0.989791	-0.125978	-0.066654
63	4952759													9.708813	0.066696	1.319638	0.142171	-0.837724	-0.527263	0.010460	-0.531373	0.847074	-0.989787	-0.125945	-0.066783
64	4952925													9.777584	0.127611	1.414920	0.142428	-0.837553	-0.527465	0.010348	-0.531609	0.846927	-0.989751	-0.126084	-0.067049
65	4953092													9.734997	0.229179	1.451532	0.142838	-0.837288	-0.527775	0.010449	-0.531937	0.846719	-0.989691	-0.126458	-0.067232
66	4953259													9.761200	0.152253	1.448138	0.143320	-0.837184	-0.527809	0.010408	-0.532010	0.846674	-0.989622	-0.126839	-0.067534
67	4953425													9.674062	0.124537	1.486110	0.143611	-0.837076	-0.527901	0.010228	-0.532147	0.846590	-0.989581	-0.126979	-0.067860
68	4953759													9.722409	0.189206	1.479448	0.143888	-0.836869	-0.528154	0.010300	-0.532413	0.846422	-0.989540	-0.127230	-0.067988
69	4953925													9.698652	0.125532	1.450259	0.143983	-0.836879	-0.528112	0.010347	-0.532370	0.846448	-0.989526	-0.127339	-0.067993
70	4954092													9.674431	0.115190	1.480167	0.144003	-0.836912	-0.528054	0.010355	-0.532312	0.846485	-0.989523	-0.127365	-0.067988
71	4954259													9.725832	0.135216	1.464629	0.144002	-0.836889	-0.528091	0.010354	-0.532350	0.846461	-0.989523	-0.127360	-0.067994
72	4954425													9.724555	0.117128	1.443579	0.144059	-0.836828	-0.528173	0.010325	-0.532440	0.846405	-0.989515	-0.127386	-0.068063
73	4954592													9.731955	0.128397	1.456325	0.144128	-0.836784	-0.528224	0.010294	-0.532500	0.846367	-0.989505	-0.127423	-0.068134
74	4954759													9.714378	0.133689	1.453668	0.144153	-0.836879	-0.528066	0.010222	-0.532352	0.846461	-0.989503	-0.127418	-0.068186
75	4954925													9.716252	0.125922	1.440186	0.144165	-0.836907	-0.528019	0.010140	-0.532316	0.846485	-0.989502	-0.127388	-0.068255
76	4955092													9.724548	0.136490	1.450595	0.144132	-0.836916	-0.528013	0.010079	-0.532315	0.846486	-0.989507	-0.127327	-0.068289
77	4955259													9.739386	0.147082	1.498044	0.144089	-0.836963	-0.527950	0.009993	-0.532259	0.846523	-0.989514	-0.127250	-0.068329
78	4955425													9.676888	0.112226	1.430393	0.143805	-0.837056	-0.527881	0.009903	-0.532181	0.846573	-0.989557	-0.126969	-0.068241
79	4955592													9.730961	0.117375	1.413876	0.143590	-0.837124	-0.527830	0.009757	-0.532134	0.846604	-0.989589	-0.126714	-0.068242
80	4955759													9.759124	0.165427	1.397231	0.143398	-0.837139	-0.527859	0.009810	-0.532143	0.846598	-0.989616	-0.126579	-0.068096
81	4955925													9.743620	0.159525	1.420979	0.143346	-0.836983	-0.528121	0.009812	-0.532403	0.846434	-0.989624	-0.126515	-0.068106
82	4956092													9.690491	0.160207	1.464921	0.143243	-0.836956	-0.528191	0.009648	-0.532488	0.846382	-0.989641	-0.126335	-0.068200
83	4956259													9.734544	0.106001	1.412098	0.143040	-0.836981	-0.528207	0.009538	-0.532505	0.846373	-0.989671	-0.126103	-0.068186
84	4956425													9.736942	0.156483	1.469575	0.142947	-0.837024	-0.528164	0.009476	-0.532463	0.846401	-0.989685	-0.125995	-0.068182
85	4956592													9.703115	0.145970	1.442964	0.142776	-0.837091	-0.528103	0.009485	-0.532388	0.846448	-0.989710	-0.125862	-0.068072
86	4956759													9.717323	0.141271	1.438986	0.142507	-0.837143	-0.528094	0.009504	-0.532358	0.846466	-0.989748	-0.125646	-0.067909
87	4956925													9.760743	0.149990	1.438618	0.142261	-0.837024	-0.528348	0.009544	-0.532593	0.846318	-0.989783	-0.125441	-0.067778
88	4957092													9.737941	0.180657	1.449633	0.142065	-0.837034	-0.528386	0.009567	-0.532614	0.846304	-0.989811	-0.125285	-0.067658
89	4957259													9.706701	0.184452	1.462935	0.141851	-0.837088	-0.528358	0.009581	-0.532570	0.846332	-0.989842	-0.125115	-0.067526
90	4957425													9.709842	0.176176	1.434911	0.141602	-0.837133	-0.528353	0.009602	-0.532545	0.846347	-0.989877	-0.124918	-0.067371
91	4957592													9.738786	0.149130	1.405853	0.141365	-0.837247	-0.528236	0.009611	-0.532409	0.846433	-0.989911	-0.124733	-0.067217
92	4957759													9.718146	0.140231	1.429937	0.141145	-0.837299	-0.528213	0.009611	-0.532370	0.846457	-0.989942	-0.124550	-0.067094
93	4957925													9.727730	0.124666	1.441834	0.140960	-0.837369	-0.528151	0.009560	-0.532301	0.846501	-0.989969	-0.124372	-0.067028
94	4958092													9.715237	0.121105	1.451847	0.140744	-0.837347	-0.528243	0.009484	-0.532389	0.846447	-0.990001	-0.124143	-0.066989
95	4958259													9.740337	0.128561	1.393353	0.140529	-0.837388	-0.528235	0.009394	-0.532378	0.846455	-0.990032	-0.123913	-0.066948
96	4958425													9.736911	0.152096	1.419051	0.140336	-0.837455	-0.528182	0.009287	-0.532324	0.846490	-0.990060	-0.123698	-0.066927
97	4958592													9.729106	0.120363	1.421701	0.140158	-0.837593	-0.528010	0.009151	-0.532155	0.846598	-0.990087	-0.123489	-0.066921
98	4958759													9.712325	0.138125	1.413646	0.139960	-0.837600	-0.528051	0.009030	-0.532198	0.846572	-0.990116	-0.123254	-0.066923
99	4958926													9.733966	0.142640	1.408239	0.139763	-0.837636	-0.528045	0.008904	-0.532195	0.846575	-0.990145	-0.123021	-0.066923
100	4959092													9.742496	0.155298	1.408434	0.139591	-0.837621	-0.528116	0.008786	-0.532269	0.846530	-0.990170	-0.122808	-0.066941
101	4959259													9.737512	0.146774	1.405784	0.139465	-0.837597	-0.528186	0.008657	-0.532347	0.846482	-0.990189	-0.122627	-0.066993
102	4959426													9.730565	0.146977	1.417363	0.139347	-0.837559	-0.528278	0.008566	-0.532443	0.846422	-0.990207	-0.122471	-0.067020
103	4959592													9.716806	0.162217	1.425505	0.139283	-0.837669	-0.528120	0.008453	-0.532293	0.846518	-0.990217	-0.122370	-0.067058
104	4959759													9.693004	0.146221	1.433670	0.139119	-0.837800	-0.527956	0.008333	-0.532131	0.846621	-0.990241	-0.122181	-0.067049
105	4959926													9.738792	0.160160	1.380910	0.138935	-0.837889	-0.527863	0.008365	-0.532021	0.846690	-0.990266	-0.122050	-0.066908
106	4960092													9.755500	0.164062	1.427279	0.138815	-0.837906	-0.527868	0.008341	-0.532020	0.846691	-0.990283	-0.121936	-0.066864
107	4960259													9.703816	0.069924	1.296396	0.138666	-0.837854	-0.527989	0.008162	-0.532155	0.846608	-0.990306	-0.121705	-0.066953
108	4960426													9.753263	0.108314	1.390291	0.138798	-0.837660	-0.528262	0.007990	-0.532461	0.846417	-0.990288	-0.121702	-0.067211
109	4960592													9.789108	0.218669	1.414373	0.139167	-0.837482	-0.528448	0.008077	-0.532663	0.846289	-0.990236	-0.122044	-0.067365
110	4960759													9.783017	0.137759	1.469067	0.139667	-0.837383	-0.528472	0.008032	-0.532727	0.846249	-0.990166	-0.122438	-0.067678
111	4960926													9.653701	0.097303	1.480132	0.139939	-0.837359	-0.528438	0.007796	-0.532742	0.846242	-0.990129	-0.122542	-0.068024
112	4961092													9.680285	0.085896	1.451561	0.139977	-0.837317	-0.528495	0.007731	-0.532809	0.846200	-0.990125	-0.122534	-0.068108
113	4961259													9.712107	0.185730	1.431209	0.139994	-0.837284	-0.528542	0.007786	-0.532851	0.846173	-0.990122	-0.122575	-0.068077
114	4961426													9.700523	0.171619	1.440056	0.139987	-0.837277	-0.528556	0.007736	-0.532871	0.846161	-0.990123	-0.122540	-0.068118
115	4961592													9.677474	0.145352	1.457944	0.139972	-0.837245	-0.528610	0.007690	-0.532931	0.846124	-0.990126	-0.122499	-0.068157
116	4961759													9.708960	0.149943	1.420977	0.139909	-0.837241	-0.528634	0.007638	-0.532956	0.846108	-0.990135	-0.122416	-0.068171
117	4961926													9.724036	0.146850	1.427536	0.139864	-0.837272	-0.528597	0.007553	-0.532926	0.846128	-0.990142	-0.122335	-0.068213
118	4962092													9.729766	0.147669	1.407824	0.139819	-0.837337	-0.528505	0.007478	-0.532839	0.846183	-0.990149	-0.122265	-0.068240
119	4962259													9.732190	0.137920	1.445213	0.139777	-0.837358	-0.528484	0.007366	-0.532829	0.846191	-0.990156	-0.122171	-0.068309
120	4962426													9.735571	0.143604	1.430116	0.139693	-0.837464	-0.528337	0.007217	-0.532694	0.846277	-0.990169	-0.122032	-0.068370
121	4962592													9.741579	0.135171	1.435487	0.139566	-0.837569	-0.528203	0.007091	-0.532565	0.846359	-0.990187	-0.121869	-0.068389
122	4962759													9.731479	0.130658	1.475305	0.139359	-0.837769	-0.527942	0.006952	-0.532304	0.846525	-0.990218	-0.121641	-0.068357
123	4962926													9.692460	0.094799	1.369359	0.138894	-0.838058	-0.527606	0.006819	-0.531948	0.846750	-0.990284	-0.121206	-0.068170
124	4963092													9.707581	0.102300	1.385401	0.138494	-0.838257	-0.527394	0.006698	-0.531721	0.846893	-0.990341	-0.120822	-0.068026
125	4963259													9.750181	0.165575	1.365603	0.138117	-0.838358	-0.527332	0.006772	-0.531624	0.846954	-0.990393	-0.120550	-0.067749
126	4963426													9.751549	0.158668	1.400453	0.137914	-0.838439	-0.527257	0.006725	-0.531539	0.847007	-0.990421	-0.120360	-0.067668
127	4963592													9.672421	0.094473	1.438328	0.137649	-0.838552	-0.527146	0.006540	-0.531431	0.847076	-0.990460	-0.120047	-0.067667
128	4963759													9.724536	0.070449	1.373269	0.137313	-0.838724	-0.526960	0.006420	-0.531234	0.847201	-0.990507	-0.119715	-0.067561
129	4963926													9.723804	0.148863	1.369483	0.137038	-0.838846	-0.526837	0.006368	-0.531098	0.847286	-0.990545	-0.119465	-0.067439
130	4964092													9.697989	0.129461	1.417426	0.136771	-0.838983	-0.526688	0.006416	-0.530923	0.847396	-0.990582	-0.119279	-0.067232
131	4964259													9.706502	0.101219	1.421596	0.136401	-0.839053	-0.526674	0.006463	-0.530878	0.847424	-0.990633	-0.118994	-0.066989
132	4964426													9.743186	0.136397	1.420256	0.136001	-0.839096	-0.526708	0.006512	-0.530879	0.847422	-0.990687	-0.118680	-0.066736
133	4964592													9.721639	0.146365	1.409533	0.135677	-0.839178	-0.526661	0.006564	-0.530804	0.847469	-0.990731	-0.118439	-0.066509
134	4964759													9.709450	0.137231	1.412844	0.135362	-0.839258	-0.526615	0.006594	-0.530732	0.847514	-0.990774	-0.118194	-0.066307
135	4964926													9.723545	0.130463	1.397049	0.135007	-0.839412	-0.526461	0.006632	-0.530548	0.847629	-0.990822	-0.117927	-0.066061
136	4965092													9.733526	0.125519	1.392044	0.134650	-0.839480	-0.526443	0.006678	-0.530501	0.847658	-0.990871	-0.117652	-0.065826
137	4965259													9.719112	0.116462	1.386097	0.134345	-0.839585	-0.526355	0.006684	-0.530390	0.847727	-0.990912	-0.117406	-0.065643
138	4965426													9.728672	0.110086	1.393383	0.134012	-0.839688	-0.526274	0.006715	-0.530282	0.847794	-0.990957	-0.117149	-0.065426
139	4965592													9.729753	0.111631	1.365039	0.133703	-0.839899	-0.526017	0.006742	-0.529999	0.847971	-0.990999	-0.116923	-0.065200
140	4965759													9.742841	0.110386	1.345005	0.133447	-0.839933	-0.526027	0.006764	-0.529990	0.847977	-0.991033	-0.116718	-0.065045
141	4965926													9.726010	0.114392	1.342915	0.133210	-0.840005	-0.525973	0.006789	-0.529916	0.848023	-0.991065	-0.116536	-0.064887
142	4966092													9.736889	0.123869	1.350457	0.132960	-0.840117	-0.525857	0.006791	-0.529783	0.848106	-0.991098	-0.116335	-0.064735
143	4966259													9.751262	0.125796	1.336325	0.132721	-0.840192	-0.525797	0.006790	-0.529707	0.848153	-0.991130	-0.116138	-0.064598
144	4966426													9.732026	0.135583	1.366065	0.132478	-0.840255	-0.525758	0.006783	-0.529652	0.848188	-0.991163	-0.115933	-0.064468
145	4966592													9.741261	0.131115	1.370474	0.132226	-0.840387	-0.525610	0.006786	-0.529486	0.848292	-0.991196	-0.115733	-0.064309
146	4966759													9.738350	0.118860	1.354067	0.131934	-0.840439	-0.525600	0.006795	-0.529456	0.848310	-0.991235	-0.115493	-0.064142
147	4966926													9.736288	0.129172	1.331326	0.131614	-0.840519	-0.525553	0.006787	-0.529389	0.848352	-0.991278	-0.115221	-0.063970
148	4967092													9.738892	0.163026	1.327284	0.131402	-0.840582	-0.525505	0.006875	-0.529316	0.848397	-0.991305	-0.115094	-0.063774
149	4967259													9.768521	0.163233	1.368427	0.131158	-0.840679	-0.525410	0.006944	-0.529196	0.848471	-0.991337	-0.114932	-0.063571
150	4967426													9.697148	0.068653	1.252107	0.130928	-0.840664	-0.525492	0.006860	-0.529274	0.848423	-0.991368	-0.114688	-0.063530
151	4967592													9.755655	0.108102	1.282581	0.130941	-0.840520	-0.525720	0.006830	-0.529508	0.848277	-0.991367	-0.114665	-0.063594
152	4967759													9.804825	0.239341	1.339496	0.131120	-0.840327	-0.525983	0.006992	-0.529766	0.848115	-0.991342	-0.114882	-0.063588
153	4967926													9.795817	0.151171	1.372255	0.131529	-0.840266	-0.525979	0.007048	-0.529782	0.848105	-0.991287	-0.115257	-0.063760
154	4968092													9.669849	0.088315	1.384241	0.131866	-0.840169	-0.526049	0.006901	-0.529892	0.848037	-0.991244	-0.115457	-0.064077
155	4968259													9.654945	0.097396	1.369467	0.131888	-0.840047	-0.526238	0.006961	-0.530077	0.847921	-0.991240	-0.115494	-0.064063
156	4968426													9.737325	0.172383	1.357453	0.131870	-0.839920	-0.526445	0.007085	-0.530271	0.847798	-0.991242	-0.115529	-0.063976
157	4968592													9.735305	0.159967	1.344457	0.131913	-0.839903	-0.526461	0.007151	-0.530282	0.847791	-0.991236	-0.115599	-0.063944
158	4968759													9.702890	0.116878	1.375148	0.131939	-0.839820	-0.526587	0.007181	-0.530408	0.847712	-0.991232	-0.115628	-0.063950
159	4968926													9.722567	0.134033	1.349714	0.131942	-0.839789	-0.526637	0.007201	-0.530456	0.847682	-0.991231	-0.115637	-0.063942
160	4969092													9.735562	0.121670	1.326362	0.131970	-0.839787	-0.526632	0.007209	-0.530452	0.847685	-0.991228	-0.115665	-0.063950
161	4969259													9.755829	0.130346	1.322091	0.132042	-0.839755	-0.526665	0.007221	-0.530488	0.847662	-0.991218	-0.115730	-0.063983
162	4969426													9.752553	0.127199	1.316431	0.132145	-0.839688	-0.526746	0.007188	-0.530581	0.847604	-0.991204	-0.115793	-0.064078
163	4969592													9.762202	0.142630	1.334329	0.132251	-0.839723	-0.526664	0.007093	-0.530516	0.847645	-0.991191	-0.115837	-0.064205
164	4969759													9.760157	0.124409	1.367324	0.132319	-0.839733	-0.526631	0.007017	-0.530496	0.847658	-0.991182	-0.115857	-0.064303
165	4969926													9.725842	0.145155	1.362893	0.132311	-0.839814	-0.526504	0.006940	-0.530376	0.847734	-0.991184	-0.115818	-0.064346
166	4970092													9.743896	0.095877	1.255831	0.132208	-0.839914	-0.526371	0.006761	-0.530255	0.847811	-0.991199	-0.115646	-0.064425
167	4970259													9.757649	0.128264	1.327263	0.132139	-0.839989	-0.526267	0.006738	-0.530149	0.847878	-0.991208	-0.115584	-0.064394
168	4970426													9.765589	0.176461	1.292295	0.132202	-0.839953	-0.526310	0.006792	-0.530190	0.847852	-0.991200	-0.115662	-0.064387
169	4970592													9.740449	0.160696	1.313645	0.132369	-0.839994	-0.526203	0.006626	-0.530112	0.847902	-0.991178	-0.115723	-0.064604
170	4970759													9.738556	0.100520	1.335063	0.132471	-0.840056	-0.526077	0.006495	-0.530007	0.847968	-0.991166	-0.115749	-0.064754
171	4970926													9.744711	0.137670	1.338329	0.132625	-0.840014	-0.526105	0.006392	-0.530058	0.847937	-0.991146	-0.115821	-0.064929
172	4971092													9.730480	0.161412	1.349096	0.132779	-0.840077	-0.525966	0.006380	-0.529929	0.848018	-0.991125	-0.115955	-0.065004
173	4971259													9.713569	0.127635	1.357096	0.132901	-0.840096	-0.525904	0.006387	-0.529874	0.848052	-0.991109	-0.116066	-0.065055
174	4971426													9.767634	0.134623	1.370925	0.133009	-0.840130	-0.525823	0.006423	-0.529795	0.848101	-0.991094	-0.116183	-0.065071
175	4971592													9.754292	0.159939	1.356638	0.133131	-0.840133	-0.525787	0.006461	-0.529763	0.848121	-0.991077	-0.116308	-0.065099
176	4971759													9.764316	0.135696	1.321605	0.133291	-0.840137	-0.525741	0.006509	-0.529720	0.848147	-0.991056	-0.116473	-0.065139
177	4971926													9.760135	0.145870	1.337716	0.133466	-0.840211	-0.525579	0.006574	-0.529561	0.848246	-0.991032	-0.116668	-0.065155
178	4972092													9.736653	0.142594	1.356459	0.133636	-0.840249	-0.525475	0.006604	-0.529464	0.848307	-0.991008	-0.116835	-0.065207
179	4972259													9.734472	0.110659	1.370371	0.133843	-0.840240	-0.525437	0.006654	-0.529433	0.848326	-0.990980	-0.117039	-0.065270
180	4972426													9.754925	0.091590	1.357750	0.134069	-0.840279	-0.525315	0.006641	-0.529327	0.848392	-0.990950	-0.117232	-0.065387
181	4972592													9.724666	0.086862	1.376354	0.134322	-0.840298	-0.525221	0.006638	-0.529249	0.848440	-0.990915	-0.117451	-0.065512
182	4972759													9.730667	0.111503	1.367170	0.134585	-0.840268	-0.525201	0.006644	-0.529246	0.848442	-0.990880	-0.117677	-0.065646
183	4972926													9.734519	0.115458	1.386871	0.134830	-0.840315	-0.525063	0.006636	-0.529124	0.848519	-0.990847	-0.117890	-0.065766
184	4973092													9.744117	0.092985	1.369519	0.135070	-0.840310	-0.525010	0.006616	-0.529089	0.848540	-0.990814	-0.118086	-0.065905
185	4973259													9.729623	0.093343	1.380091	0.135309	-0.840331	-0.524915	0.006597	-0.529011	0.848589	-0.990782	-0.118284	-0.066036
186	4973426													9.729065	0.114546	1.371948	0.135541	-0.840319	-0.524874	0.006548	-0.528991	0.848602	-0.990750	-0.118457	-0.066198
187	4973592													9.737307	0.117157	1.360646	0.135753	-0.840303	-0.524844	0.006490	-0.528982	0.848608	-0.990721	-0.118607	-0.066357
188	4973759													9.736553	0.139400	1.397146	0.135993	-0.840302	-0.524784	0.006459	-0.528942	0.848634	-0.990689	-0.118798	-0.066505
189	4973926													9.705200	0.135735	1.389107	0.136259	-0.840250	-0.524799	0.006387	-0.528983	0.848608	-0.990653	-0.118982	-0.066712
190	4974092													9.697426	0.124688	1.396248	0.136427	-0.840268	-0.524726	0.006346	-0.528926	0.848644	-0.990630	-0.119108	-0.066827
191	4974259													9.748516	0.140144	1.376682	0.136551	-0.840321	-0.524608	0.006373	-0.528813	0.848715	-0.990613	-0.119236	-0.066854
192	4974426													9.774132	0.120107	1.384539	0.136756	-0.840361	-0.524492	0.006399	-0.528706	0.848781	-0.990584	-0.119432	-0.066926
193	4974592													9.711849	0.058485	1.306110	0.136878	-0.840321	-0.524524	0.006331	-0.528755	0.848751	-0.990568	-0.119496	-0.067055
194	4974759													9.767574	0.116768	1.363770	0.137222	-0.840143	-0.524718	0.006340	-0.528974	0.848615	-0.990520	-0.119775	-0.067261
195	4974926													9.766607	0.214767	1.367600	0.137732	-0.839933	-0.524922	0.006571	-0.529186	0.848480	-0.990448	-0.120312	-0.067366
196	4975092													9.762162	0.153853	1.400004	0.138402	-0.839773	-0.525001	0.006638	-0.529305	0.848406	-0.990354	-0.120906	-0.067682
197	4975259													9.682793	0.095307	1.450072	0.138830	-0.839658	-0.525072	0.006554	-0.529416	0.848337	-0.990295	-0.121216	-0.067995
198	4975426													9.691437	0.100458	1.447639	0.139086	-0.839506	-0.525248	0.006663	-0.529598	0.848223	-0.990258	-0.121476	-0.068066
199	4975593													9.720945	0.157086	1.456814	0.139308	-0.839435	-0.525302	0.006810	-0.529649	0.848189	-0.990226	-0.121737	-0.068068
200	4975759													9.696150	0.099526	1.422894	0.139425	-0.839430	-0.525279	0.006941	-0.529618	0.848208	-0.990208	-0.121907	-0.068016
201	4975926													9.687392	0.112380	1.442269	0.139512	-0.839343	-0.525395	0.007078	-0.529725	0.848140	-0.990195	-0.122045	-0.067962
202	4976093													9.710701	0.136711	1.416203	0.139542	-0.839278	-0.525490	0.007200	-0.529808	0.848087	-0.990190	-0.122128	-0.067888
203	4976259													9.723035	0.110229	1.404498	0.139581	-0.839283	-0.525473	0.007319	-0.529779	0.848104	-0.990184	-0.122225	-0.067805
204	4976426													9.722528	0.114875	1.421807	0.139686	-0.839238	-0.525517	0.007430	-0.529817	0.848080	-0.990168	-0.122370	-0.067772
205	4976593													9.715289	0.130975	1.421746	0.139753	-0.839252	-0.525476	0.007490	-0.529772	0.848107	-0.990158	-0.122461	-0.067751
206	4976759													9.720118	0.130278	1.403032	0.139800	-0.839237	-0.525488	0.007523	-0.529784	0.848099	-0.990151	-0.122517	-0.067751
207	4977259													9.691370	0.101469	1.381472	0.139520	-0.839437	-0.525243	0.007541	-0.529515	0.848267	-0.990191	-0.122311	-0.067548
208	4977426													9.730086	0.096816	1.387805	0.139299	-0.839510	-0.525185	0.007502	-0.529445	0.848311	-0.990222	-0.122109	-0.067453
209	4977593													9.759950	0.176123	1.371054	0.139138	-0.839520	-0.525212	0.007683	-0.529439	0.848313	-0.990243	-0.122068	-0.067215
210	4977759													9.767322	0.164627	1.369858	0.139085	-0.839521	-0.525223	0.007774	-0.529436	0.848314	-0.990250	-0.122071	-0.067110
211	4977926													9.689282	0.155509	1.427220	0.139026	-0.839530	-0.525225	0.007663	-0.529447	0.848308	-0.990259	-0.121962	-0.067174
212	4978093													9.718287	0.116292	1.416864	0.138896	-0.839538	-0.525246	0.007621	-0.529466	0.848297	-0.990278	-0.121828	-0.067143
213	4978259													9.742193	0.171755	1.389993	0.138812	-0.839503	-0.525325	0.007658	-0.529534	0.848254	-0.990289	-0.121771	-0.067076
214	4978426													9.714669	0.147032	1.412541	0.138724	-0.839556	-0.525264	0.007759	-0.529454	0.848303	-0.990301	-0.121755	-0.066934
215	4978593													9.724514	0.130472	1.428046	0.138574	-0.839571	-0.525279	0.007889	-0.529444	0.848308	-0.990321	-0.121698	-0.066744
216	4978759													9.746807	0.141301	1.416127	0.138433	-0.839531	-0.525380	0.008013	-0.529520	0.848259	-0.990339	-0.121637	-0.066576
217	4978926													9.740526	0.146464	1.424092	0.138351	-0.839531	-0.525401	0.008114	-0.529524	0.848256	-0.990350	-0.121620	-0.066449
218	4979093													9.710011	0.163404	1.430436	0.138273	-0.839557	-0.525381	0.008204	-0.529488	0.848278	-0.990360	-0.121604	-0.066326
219	4979259													9.735034	0.154521	1.416046	0.138199	-0.839654	-0.525245	0.008271	-0.529337	0.848371	-0.990370	-0.121589	-0.066209
220	4979426													9.750359	0.145995	1.411679	0.138141	-0.839708	-0.525173	0.008344	-0.529251	0.848424	-0.990377	-0.121584	-0.066105
221	4979593													9.756759	0.120590	1.396634	0.138098	-0.839726	-0.525157	0.008380	-0.529227	0.848439	-0.990383	-0.121569	-0.066049
222	4979759													9.724809	0.125450	1.413460	0.138110	-0.839748	-0.525119	0.008395	-0.529188	0.848463	-0.990381	-0.121589	-0.066037
223	4979926													9.732598	0.131730	1.397632	0.138084	-0.839731	-0.525152	0.008407	-0.529218	0.848444	-0.990385	-0.121571	-0.066016
224	4980093													9.735462	0.138800	1.391667	0.138067	-0.839764	-0.525104	0.008427	-0.529167	0.848476	-0.990387	-0.121572	-0.065984
225	4980259													9.732202	0.126887	1.370742	0.138069	-0.839751	-0.525123	0.008384	-0.529191	0.848461	-0.990387	-0.121548	-0.066024
226	4980426													9.739232	0.127005	1.396852	0.138104	-0.839807	-0.525024	0.008336	-0.529100	0.848519	-0.990383	-0.121561	-0.066070
227	4980593													9.735300	0.135610	1.376350	0.138138	-0.839826	-0.524986	0.008268	-0.529071	0.848537	-0.990379	-0.121555	-0.066141
228	4980759													9.760188	0.130585	1.366301	0.138164	-0.839830	-0.524973	0.008201	-0.529068	0.848540	-0.990375	-0.121543	-0.066211
229	4980926													9.753591	0.153813	1.390000	0.138235	-0.839836	-0.524944	0.008136	-0.529052	0.848551	-0.990366	-0.121570	-0.066300
230	4981093													9.729698	0.136350	1.398483	0.138366	-0.839906	-0.524798	0.008083	-0.528920	0.848633	-0.990348	-0.121664	-0.066396
231	4981259													9.709606	0.122489	1.393112	0.138453	-0.839903	-0.524779	0.007993	-0.528918	0.848635	-0.990337	-0.121690	-0.066517
232	4981426													9.716037	0.133764	1.391813	0.138473	-0.839964	-0.524678	0.007938	-0.528823	0.848695	-0.990334	-0.121686	-0.066560
233	4981593													9.769219	0.149335	1.375356	0.138524	-0.840033	-0.524553	0.007978	-0.528695	0.848774	-0.990327	-0.121761	-0.066536
234	4981759													9.775949	0.121487	1.404094	0.138613	-0.840115	-0.524398	0.007957	-0.528548	0.848866	-0.990315	-0.121836	-0.066579
235	4981926													9.709927	0.052855	1.288467	0.138641	-0.840102	-0.524411	0.007844	-0.528577	0.848849	-0.990312	-0.121799	-0.066693
236	4982093													9.789091	0.123026	1.386842	0.138925	-0.839897	-0.524665	0.007766	-0.528862	0.848672	-0.990272	-0.121976	-0.066950
237	4982259													9.755400	0.238840	1.413845	0.139399	-0.839714	-0.524831	0.007902	-0.529046	0.848556	-0.990205	-0.122435	-0.067113
238	4982426													9.769155	0.134703	1.423259	0.139982	-0.839542	-0.524952	0.007886	-0.529210	0.848454	-0.990123	-0.122908	-0.067459
239	4982593													9.665095	0.098068	1.450889	0.140311	-0.839408	-0.525077	0.007735	-0.529378	0.848351	-0.990077	-0.123095	-0.067785
240	4982759													9.716311	0.102677	1.437485	0.140542	-0.839267	-0.525242	0.007768	-0.529556	0.848239	-0.990044	-0.123294	-0.067905
241	4982926													9.735498	0.165793	1.453120	0.140739	-0.839194	-0.525306	0.007821	-0.529628	0.848194	-0.990016	-0.123482	-0.067975
242	4983093													9.713569	0.109053	1.446032	0.140904	-0.839135	-0.525356	0.007889	-0.529682	0.848160	-0.989992	-0.123654	-0.068014
243	4983259													9.675694	0.100364	1.429532	0.141004	-0.839032	-0.525493	0.007981	-0.529815	0.848075	-0.989977	-0.123776	-0.068010
244	4983426													9.715132	0.127774	1.453954	0.141055	-0.838960	-0.525594	0.008062	-0.529911	0.848015	-0.989969	-0.123854	-0.067983
245	4983593													9.728149	0.124988	1.412008	0.141134	-0.838926	-0.525628	0.008105	-0.529945	0.847993	-0.989957	-0.123941	-0.067994
246	4983759													9.730788	0.114134	1.422365	0.141253	-0.838863	-0.525696	0.008144	-0.530018	0.847947	-0.989940	-0.124056	-0.068035
247	4983926													9.732488	0.124255	1.427930	0.141332	-0.838818	-0.525746	0.008172	-0.530070	0.847914	-0.989928	-0.124134	-0.068062
248	4984093													9.744901	0.104715	1.403297	0.141384	-0.838789	-0.525779	0.008205	-0.530103	0.847894	-0.989921	-0.124192	-0.068066
249	4984259													9.739343	0.111388	1.439034	0.141438	-0.838783	-0.525774	0.008236	-0.530097	0.847897	-0.989913	-0.124255	-0.068068
250	4984426													9.729701	0.148244	1.465673	0.141443	-0.838803	-0.525740	0.008238	-0.530064	0.847918	-0.989912	-0.124263	-0.068064
251	4984593													9.691633	0.096491	1.398180	0.141230	-0.838892	-0.525656	0.008255	-0.529962	0.847981	-0.989942	-0.124100	-0.067922
252	4984759													9.736031	0.102215	1.369409	0.141053	-0.838929	-0.525644	0.008240	-0.529939	0.847995	-0.989968	-0.123944	-0.067837
253	4984926													9.739550	0.167734	1.380204	0.140910	-0.838930	-0.525682	0.008445	-0.529942	0.847992	-0.989986	-0.123929	-0.067589
254	4985093													9.740595	0.153841	1.399992	0.140906	-0.838913	-0.525709	0.008527	-0.529959	0.847980	-0.989986	-0.123968	-0.067521
255	4985259													9.691360	0.148191	1.430647	0.140858	-0.838955	-0.525656	0.008466	-0.529909	0.848012	-0.989994	-0.123900	-0.067540
256	4985426													9.736745	0.105603	1.406112	0.140721	-0.838937	-0.525720	0.008486	-0.529963	0.847979	-0.990013	-0.123790	-0.067458
257	4985593													9.749399	0.181117	1.416153	0.140667	-0.838968	-0.525686	0.008545	-0.529917	0.848007	-0.990020	-0.123779	-0.067373
258	4985759													9.695342	0.138124	1.413303	0.140589	-0.839052	-0.525573	0.008691	-0.529779	0.848091	-0.990030	-0.123800	-0.067189
259	4985926													9.734683	0.119534	1.433111	0.140434	-0.839078	-0.525573	0.008844	-0.529749	0.848108	-0.990051	-0.123751	-0.066974
260	4986093													9.754261	0.160927	1.438184	0.140313	-0.839067	-0.525622	0.008986	-0.529773	0.848092	-0.990066	-0.123722	-0.066795
261	4986259													9.730653	0.171926	1.432092	0.140254	-0.839076	-0.525623	0.009096	-0.529756	0.848101	-0.990074	-0.123731	-0.066668
262	4986426													9.703737	0.155998	1.424264	0.140155	-0.839136	-0.525554	0.009224	-0.529663	0.848158	-0.990087	-0.123721	-0.066495
263	4986593													9.720447	0.153763	1.407513	0.140067	-0.839239	-0.525413	0.009336	-0.529501	0.848258	-0.990098	-0.123718	-0.066331
264	4986759													9.747139	0.136096	1.406265	0.140021	-0.839267	-0.525381	0.009439	-0.529453	0.848287	-0.990103	-0.123737	-0.066213
265	4986926													9.742970	0.133536	1.402646	0.139987	-0.839291	-0.525351	0.009481	-0.529415	0.848310	-0.990108	-0.123734	-0.066154
266	4987093													9.737350	0.129269	1.401970	0.139994	-0.839256	-0.525406	0.009510	-0.529468	0.848277	-0.990107	-0.123750	-0.066141
267	4987259													9.738642	0.135663	1.408225	0.140024	-0.839240	-0.525424	0.009508	-0.529488	0.848264	-0.990102	-0.123773	-0.066162
268	4987426													9.750462	0.136583	1.412605	0.140020	-0.839264	-0.525386	0.009515	-0.529448	0.848289	-0.990103	-0.123777	-0.066148
269	4987593													9.750058	0.117275	1.406154	0.140020	-0.839269	-0.525378	0.009494	-0.529443	0.848292	-0.990103	-0.123766	-0.066165
270	4987759													9.735106	0.116037	1.405989	0.140027	-0.839256	-0.525397	0.009438	-0.529470	0.848276	-0.990103	-0.123740	-0.066219
271	4987926													9.725659	0.127670	1.394532	0.139991	-0.839233	-0.525443	0.009378	-0.529521	0.848245	-0.990108	-0.123674	-0.066258
272	4988093													9.750135	0.133855	1.405883	0.139947	-0.839211	-0.525490	0.009325	-0.529572	0.848213	-0.990115	-0.123606	-0.066286
273	4988259													9.735709	0.144323	1.432793	0.139911	-0.839188	-0.525537	0.009262	-0.529625	0.848181	-0.990121	-0.123538	-0.066328
274	4988426													9.710225	0.143853	1.418481	0.139886	-0.839198	-0.525526	0.009187	-0.529622	0.848184	-0.990125	-0.123477	-0.066377
275	4988593													9.714757	0.135284	1.418889	0.139869	-0.839216	-0.525503	0.009108	-0.529607	0.848194	-0.990128	-0.123422	-0.066432
276	4988759													9.737810	0.124014	1.363185	0.139771	-0.839267	-0.525447	0.009012	-0.529556	0.848227	-0.990143	-0.123294	-0.066453
277	4988926													9.753347	0.155114	1.395615	0.139728	-0.839279	-0.525439	0.008979	-0.529549	0.848232	-0.990149	-0.123240	-0.066457
278	4989093													9.748165	0.117110	1.411068	0.139707	-0.839273	-0.525455	0.008954	-0.529567	0.848221	-0.990152	-0.123207	-0.066469
279	4989259													9.719846	0.046421	1.309742	0.139672	-0.839207	-0.525569	0.008818	-0.529697	0.848141	-0.990159	-0.123096	-0.066583
280	4989426													9.773214	0.137916	1.414482	0.139824	-0.838976	-0.525898	0.008730	-0.530050	0.847921	-0.990138	-0.123151	-0.066789
281	4989593													9.749106	0.226728	1.414207	0.140232	-0.838713	-0.526208	0.008847	-0.530377	0.847716	-0.990079	-0.123532	-0.066956
282	4989759													9.773885	0.132980	1.456641	0.140729	-0.838522	-0.526380	0.008772	-0.530594	0.847581	-0.990009	-0.123896	-0.067315
283	4989926													9.683430	0.082348	1.462760	0.140936	-0.838379	-0.526552	0.008587	-0.530806	0.847450	-0.989981	-0.123958	-0.067610
284	4990093													9.703448	0.109414	1.457667	0.141053	-0.838196	-0.526813	0.008643	-0.531070	0.847284	-0.989964	-0.124065	-0.067664
285	4990259													9.742929	0.175104	1.430476	0.141118	-0.838120	-0.526916	0.008686	-0.531174	0.847218	-0.989955	-0.124135	-0.067678
286	4990426													9.709871	0.107966	1.415692	0.141109	-0.838064	-0.527008	0.008716	-0.531262	0.847163	-0.989956	-0.124136	-0.067661
287	4990593													9.700626	0.102574	1.421467	0.141104	-0.837935	-0.527214	0.008801	-0.531460	0.847038	-0.989956	-0.124160	-0.067616
288	4990759													9.719400	0.132279	1.413741	0.141034	-0.837861	-0.527350	0.008843	-0.531587	0.846958	-0.989965	-0.124113	-0.067563
289	4990926													9.739161	0.119650	1.407616	0.141023	-0.837860	-0.527355	0.008874	-0.531588	0.846957	-0.989966	-0.124121	-0.067531
290	4991093													9.728318	0.112057	1.380888	0.141061	-0.837825	-0.527400	0.008913	-0.531630	0.846930	-0.989961	-0.124170	-0.067524
291	4991259													9.729938	0.131776	1.413825	0.141055	-0.837850	-0.527362	0.008919	-0.531591	0.846954	-0.989962	-0.124170	-0.067511
292	4991426													9.722585	0.118530	1.404877	0.141046	-0.837883	-0.527311	0.008855	-0.531547	0.846982	-0.989963	-0.124133	-0.067553
293	4991593													9.748406	0.102436	1.418087	0.140971	-0.837845	-0.527392	0.008831	-0.531626	0.846933	-0.989974	-0.124050	-0.067545
294	4991759													9.720566	0.141682	1.455043	0.140832	-0.837890	-0.527358	0.008772	-0.531590	0.846956	-0.989995	-0.123904	-0.067515
295	4991926													9.704472	0.061874	1.323759	0.140471	-0.837957	-0.527349	0.008701	-0.531565	0.846973	-0.990047	-0.123563	-0.067378
296	4992093													9.712214	0.117561	1.393150	0.140145	-0.838045	-0.527296	0.008677	-0.531492	0.847019	-0.990093	-0.123281	-0.067214
297	4992260													9.754388	0.179814	1.366392	0.139889	-0.838012	-0.527415	0.008852	-0.531573	0.846966	-0.990128	-0.123150	-0.066943
298	4992426													9.745898	0.144534	1.405773	0.139796	-0.837983	-0.527486	0.008843	-0.531639	0.846925	-0.990141	-0.123061	-0.066911
299	4992593													9.686128	0.125999	1.435825	0.139530	-0.838020	-0.527498	0.008723	-0.531648	0.846921	-0.990179	-0.122772	-0.066871
300	4992760													9.741880	0.117040	1.407727	0.139222	-0.838026	-0.527570	0.008693	-0.531704	0.846886	-0.990223	-0.122491	-0.066740
301	4992926													9.742574	0.170237	1.380179	0.139000	-0.838073	-0.527554	0.008748	-0.531665	0.846909	-0.990254	-0.122335	-0.066570
302	4993093													9.689678	0.147559	1.404847	0.138737	-0.838096	-0.527586	0.008887	-0.531663	0.846910	-0.990289	-0.122187	-0.066313
303	4993260													9.728996	0.120176	1.402213	0.138398	-0.838111	-0.527651	0.009028	-0.531688	0.846892	-0.990336	-0.121972	-0.066018
304	4993426													9.757446	0.148733	1.400490	0.138076	-0.838109	-0.527739	0.009160	-0.531740	0.846858	-0.990379	-0.121765	-0.065743
305	4993593													9.730854	0.143071	1.401174	0.137863	-0.838133	-0.527757	0.009269	-0.531730	0.846863	-0.990408	-0.121643	-0.065537
306	4993760													9.720233	0.149874	1.399876	0.137616	-0.838186	-0.527736	0.009386	-0.531678	0.846894	-0.990441	-0.121500	-0.065300
307	4993926													9.738649	0.139692	1.375342	0.137315	-0.838291	-0.527648	0.009495	-0.531555	0.846970	-0.990482	-0.121311	-0.065031
308	4994093													9.749287	0.129389	1.346156	0.137076	-0.838371	-0.527584	0.009545	-0.531469	0.847024	-0.990515	-0.121142	-0.064849
309	4994260													9.743665	0.108476	1.353648	0.136861	-0.838417	-0.527566	0.009541	-0.531437	0.847044	-0.990544	-0.120961	-0.064734
310	4994426													9.725779	0.112281	1.365652	0.136637	-0.838478	-0.527527	0.009544	-0.531383	0.847078	-0.990575	-0.120777	-0.064605
311	4994593													9.752685	0.126771	1.341902	0.136366	-0.838511	-0.527545	0.009519	-0.531386	0.847076	-0.990613	-0.120534	-0.064482
312	4994760													9.763008	0.124074	1.332689	0.136159	-0.838553	-0.527532	0.009437	-0.531369	0.847088	-0.990642	-0.120317	-0.064437
313	4994926													9.757814	0.110204	1.317458	0.136018	-0.838533	-0.527599	0.009320	-0.531442	0.847043	-0.990663	-0.120130	-0.064470
314	4995093													9.749662	0.116149	1.344514	0.135891	-0.838466	-0.527739	0.009206	-0.531589	0.846952	-0.990681	-0.119952	-0.064519
315	4995260													9.756959	0.120671	1.334913	0.135762	-0.838455	-0.527790	0.009080	-0.531647	0.846918	-0.990700	-0.119772	-0.064565
316	4995426													9.729396	0.117844	1.328352	0.135657	-0.838441	-0.527838	0.008927	-0.531707	0.846881	-0.990716	-0.119598	-0.064645
317	4995593													9.728118	0.118329	1.359043	0.135549	-0.838426	-0.527890	0.008749	-0.531774	0.846841	-0.990732	-0.119407	-0.064746
318	4995760													9.738162	0.128041	1.349656	0.135339	-0.838418	-0.527957	0.008594	-0.531846	0.846797	-0.990762	-0.119142	-0.064774
319	4995926													9.749100	0.147425	1.322955	0.135168	-0.838425	-0.527990	0.008526	-0.531877	0.846779	-0.990786	-0.118959	-0.064744
320	4996093													9.768099	0.130379	1.334213	0.135022	-0.838447	-0.527993	0.008475	-0.531876	0.846780	-0.990806	-0.118809	-0.064709
321	4996260													9.702911	0.055689	1.240394	0.134869	-0.838499	-0.527949	0.008303	-0.531842	0.846803	-0.990829	-0.118591	-0.064767
322	4996426													9.773169	0.107788	1.314977	0.134965	-0.838343	-0.528171	0.008179	-0.532088	0.846650	-0.990817	-0.118588	-0.064957
323	4996593													9.811463	0.216654	1.369360	0.135261	-0.838224	-0.528284	0.008255	-0.532212	0.846571	-0.990776	-0.118869	-0.065068
324	4996760													9.816116	0.136350	1.374441	0.135758	-0.838132	-0.528303	0.008151	-0.532277	0.846531	-0.990708	-0.119230	-0.065429
325	4996926													9.662952	0.054940	1.418899	0.136182	-0.838023	-0.528367	0.007911	-0.532398	0.846457	-0.990652	-0.119452	-0.065873
326	4997093													9.664083	0.074733	1.394336	0.136319	-0.837883	-0.528555	0.007919	-0.532597	0.846332	-0.990633	-0.119556	-0.065968
327	4997260													9.748761	0.144012	1.370180	0.136371	-0.837771	-0.528717	0.007975	-0.532758	0.846230	-0.990626	-0.119618	-0.065972
328	4997426													9.724005	0.114070	1.372810	0.136489	-0.837712	-0.528781	0.007976	-0.532830	0.846185	-0.990609	-0.119713	-0.066044
329	4997593													9.696500	0.083801	1.398408	0.136583	-0.837652	-0.528852	0.008013	-0.532904	0.846138	-0.990596	-0.119805	-0.066073
330	4997760													9.710673	0.098192	1.372298	0.136631	-0.837583	-0.528949	0.008041	-0.533001	0.846077	-0.990589	-0.119853	-0.066089
331	4997926													9.745229	0.084080	1.345559	0.136707	-0.837575	-0.528942	0.008058	-0.532997	0.846079	-0.990579	-0.119927	-0.066115
332	4998093													9.743080	0.088604	1.341275	0.136812	-0.837584	-0.528900	0.008061	-0.532962	0.846101	-0.990564	-0.120021	-0.066164
333	4998260													9.749303	0.089985	1.347261	0.136925	-0.837553	-0.528921	0.008103	-0.532985	0.846086	-0.990548	-0.120136	-0.066192
334	4998426													9.770570	0.074539	1.341346	0.137030	-0.837547	-0.528903	0.008058	-0.532979	0.846090	-0.990534	-0.120202	-0.066285
335	4998593													9.755792	0.094072	1.388820	0.137119	-0.837570	-0.528843	0.008040	-0.532927	0.846123	-0.990522	-0.120272	-0.066341
336	4998760													9.692899	0.084191	1.355754	0.137018	-0.837680	-0.528695	0.008026	-0.532772	0.846221	-0.990536	-0.120190	-0.066276
337	4998926													9.737066	0.053489	1.306724	0.136881	-0.837726	-0.528657	0.007971	-0.532731	0.846247	-0.990555	-0.120049	-0.066243
338	4999093													9.769958	0.129237	1.347125	0.136815	-0.837766	-0.528612	0.008115	-0.532664	0.846288	-0.990563	-0.120074	-0.066077
339	4999260													9.772269	0.133010	1.346574	0.136912	-0.837718	-0.528661	0.008211	-0.532709	0.846259	-0.990549	-0.120204	-0.066056
340	4999426													9.684534	0.114006	1.388141	0.137009	-0.837777	-0.528544	0.008147	-0.532604	0.846325	-0.990536	-0.120260	-0.066146
341	4999593													9.742035	0.068090	1.356398	0.136948	-0.837825	-0.528484	0.008181	-0.532536	0.846368	-0.990544	-0.120232	-0.066076
342	4999760													9.748852	0.142773	1.358580	0.136962	-0.837778	-0.528554	0.008254	-0.532598	0.846328	-0.990542	-0.120277	-0.066031
343	4999926													9.722941	0.140831	1.372781	0.136952	-0.837857	-0.528431	0.008400	-0.532456	0.846416	-0.990542	-0.120357	-0.065883
344	5000093													9.728666	0.099082	1.376242	0.136803	-0.837898	-0.528405	0.008579	-0.532398	0.846451	-0.990561	-0.120331	-0.065645
345	5000260													9.754191	0.131433	1.385283	0.136725	-0.837905	-0.528414	0.008774	-0.532378	0.846461	-0.990570	-0.120369	-0.065438
346	5000426													9.746652	0.136203	1.378642	0.136676	-0.837970	-0.528323	0.008932	-0.532264	0.846531	-0.990575	-0.120420	-0.065263
347	5000593													9.731775	0.134519	1.390286	0.136640	-0.838011	-0.528268	0.009147	-0.532179	0.846582	-0.990578	-0.120509	-0.065052
348	5000760													9.745659	0.155880	1.356263	0.136574	-0.838055	-0.528216	0.009343	-0.532099	0.846631	-0.990586	-0.120563	-0.064841
349	5000926													9.738188	0.117267	1.352368	0.136526	-0.838104	-0.528151	0.009477	-0.532013	0.846683	-0.990591	-0.120600	-0.064691
350	5001093													9.728206	0.128257	1.363880	0.136540	-0.838156	-0.528065	0.009637	-0.531908	0.846747	-0.990588	-0.120704	-0.064549
351	5001260													9.734651	0.109310	1.354993	0.136532	-0.838177	-0.528033	0.009761	-0.531860	0.846776	-0.990588	-0.120766	-0.064434
352	5001426													9.720449	0.117754	1.352028	0.136499	-0.838152	-0.528081	0.009833	-0.531898	0.846751	-0.990591	-0.120773	-0.064361
353	5001593													9.746305	0.106120	1.337634	0.136445	-0.838170	-0.528066	0.009906	-0.531870	0.846768	-0.990598	-0.120768	-0.064268
354	5001760													9.744801	0.118337	1.342866	0.136411	-0.838165	-0.528082	0.009956	-0.531878	0.846762	-0.990602	-0.120765	-0.064209
355	5001926													9.753630	0.103474	1.341625	0.136360	-0.838150	-0.528120	0.009947	-0.531914	0.846740	-0.990609	-0.120715	-0.064195
356	5002093													9.752324	0.136700	1.347415	0.136351	-0.838133	-0.528149	0.009951	-0.531942	0.846722	-0.990611	-0.120707	-0.064190
357	5002260													9.748876	0.116279	1.367516	0.136358	-0.838129	-0.528154	0.009877	-0.531957	0.846714	-0.990610	-0.120672	-0.064259
358	5002426													9.735748	0.122110	1.359710	0.136308	-0.838159	-0.528118	0.009787	-0.531929	0.846733	-0.990618	-0.120586	-0.064303
359	5002593													9.738220	0.135706	1.313183	0.136294	-0.838181	-0.528088	0.009737	-0.531903	0.846749	-0.990621	-0.120549	-0.064334
360	5002760													9.760538	0.147143	1.364566	0.136293	-0.838244	-0.527989	0.009732	-0.531803	0.846812	-0.990621	-0.120553	-0.064323
361	5002926													9.737114	0.089150	1.309573	0.136206	-0.838246	-0.528007	0.009626	-0.531829	0.846797	-0.990634	-0.120421	-0.064370
362	5003093													9.727104	0.054851	1.247636	0.136249	-0.838139	-0.528166	0.009466	-0.532012	0.846684	-0.990629	-0.120360	-0.064552
363	5003260													9.788192	0.180696	1.342754	0.136497	-0.837981	-0.528352	0.009495	-0.532213	0.846557	-0.990595	-0.120569	-0.064689
364	5003426													9.793642	0.204248	1.379919	0.136915	-0.837861	-0.528434	0.009590	-0.532312	0.846494	-0.990536	-0.120965	-0.064846
365	5003593													9.751355	0.116013	1.411948	0.137418	-0.837715	-0.528536	0.009409	-0.532470	0.846396	-0.990468	-0.121283	-0.065288
366	5003760													9.655454	0.064069	1.402618	0.137675	-0.837547	-0.528735	0.009288	-0.532703	0.846251	-0.990434	-0.121419	-0.065560
367	5003926													9.726851	0.137896	1.389366	0.137817	-0.837361	-0.528992	0.009370	-0.532962	0.846087	-0.990413	-0.121562	-0.065606
368	5004093													9.747778	0.167499	1.380900	0.137918	-0.837247	-0.529146	0.009409	-0.533120	0.845987	-0.990399	-0.121655	-0.065649
369	5004260													9.701190	0.099347	1.407123	0.138091	-0.837130	-0.529286	0.009415	-0.533272	0.845891	-0.990375	-0.121794	-0.065758
370	5004426													9.701540	0.103643	1.383023	0.138230	-0.836976	-0.529493	0.009444	-0.533487	0.845755	-0.990355	-0.121909	-0.065839
371	5004593													9.751375	0.134408	1.379445	0.138370	-0.836872	-0.529621	0.009420	-0.533629	0.845666	-0.990336	-0.122004	-0.065955
372	5004760													9.746985	0.104279	1.360840	0.138545	-0.836821	-0.529657	0.009407	-0.533678	0.845635	-0.990311	-0.122141	-0.066066
373	5004926													9.745687	0.105312	1.343620	0.138739	-0.836769	-0.529688	0.009393	-0.533725	0.845606	-0.990284	-0.122294	-0.066188
374	5005093													9.759141	0.114431	1.362203	0.138942	-0.836719	-0.529713	0.009311	-0.533774	0.845576	-0.990257	-0.122418	-0.066373
375	5005260													9.746674	0.080233	1.355127	0.139147	-0.836676	-0.529728	0.009225	-0.533813	0.845552	-0.990229	-0.122543	-0.066560
376	5005426													9.749145	0.123615	1.400898	0.139322	-0.836620	-0.529770	0.009144	-0.533878	0.845512	-0.990205	-0.122643	-0.066731
377	5005593													9.707147	0.106768	1.365103	0.139319	-0.836708	-0.529633	0.009067	-0.533748	0.845595	-0.990206	-0.122609	-0.066775
378	5005760													9.746198	0.047814	1.333877	0.139340	-0.836739	-0.529577	0.008904	-0.533714	0.845618	-0.990205	-0.122544	-0.066917
379	5005926													9.770982	0.119896	1.343388	0.139414	-0.836762	-0.529521	0.008927	-0.533659	0.845652	-0.990194	-0.122623	-0.066930
380	5006093													9.747953	0.129220	1.340188	0.139607	-0.836657	-0.529637	0.008982	-0.533783	0.845574	-0.990166	-0.122805	-0.067005
381	5006260													9.721032	0.106704	1.398653	0.139892	-0.836644	-0.529583	0.008793	-0.533771	0.845583	-0.990128	-0.122947	-0.067314
382	5006426													9.739821	0.053644	1.382888	0.140100	-0.836636	-0.529539	0.008638	-0.533760	0.845592	-0.990100	-0.123041	-0.067553
383	5006593													9.737700	0.144825	1.423479	0.140319	-0.836621	-0.529506	0.008592	-0.533748	0.845600	-0.990069	-0.123203	-0.067707
384	5006760													9.716856	0.131258	1.401902	0.140555	-0.836669	-0.529366	0.008611	-0.533621	0.845680	-0.990035	-0.123423	-0.067799
385	5006926													9.724287	0.079742	1.417877	0.140778	-0.836633	-0.529365	0.008681	-0.533626	0.845676	-0.990003	-0.123648	-0.067860
386	5007093													9.748172	0.115455	1.407992	0.141017	-0.836561	-0.529414	0.008734	-0.533686	0.845638	-0.989969	-0.123873	-0.067952
387	5007260													9.758531	0.120033	1.404829	0.141342	-0.836537	-0.529366	0.008771	-0.533655	0.845657	-0.989922	-0.124170	-0.068090
388	5007426													9.739025	0.144779	1.414718	0.141699	-0.836521	-0.529295	0.008842	-0.533600	0.845691	-0.989870	-0.124513	-0.068214
389	5007593													9.733400	0.140168	1.406973	0.142079	-0.836496	-0.529234	0.008917	-0.533554	0.845719	-0.989815	-0.124878	-0.068347
390	5007760													9.741479	0.113403	1.419164	0.142494	-0.836496	-0.529122	0.008986	-0.533462	0.845777	-0.989755	-0.125273	-0.068499
391	5007926													9.742026	0.099637	1.396015	0.142953	-0.836441	-0.529085	0.008981	-0.533458	0.845779	-0.989689	-0.125658	-0.068747
392	5008093													9.738585	0.102213	1.418882	0.143499	-0.836403	-0.528998	0.008991	-0.533406	0.845812	-0.989610	-0.126129	-0.069023
393	5008260													9.721261	0.097444	1.407054	0.144076	-0.836363	-0.528904	0.008972	-0.533354	0.845844	-0.989526	-0.126611	-0.069340
394	5008426													9.734084	0.085813	1.435132	0.144705	-0.836338	-0.528772	0.008936	-0.533270	0.845898	-0.989434	-0.127131	-0.069694
395	5008593													9.733707	0.102647	1.411440	0.145406	-0.836346	-0.528566	0.008879	-0.533119	0.845994	-0.989332	-0.127706	-0.070092
396	5008760													9.736823	0.074236	1.449556	0.146134	-0.836351	-0.528358	0.008759	-0.532977	0.846084	-0.989226	-0.128270	-0.070560
397	5008927													9.728708	0.094460	1.447456	0.146867	-0.836363	-0.528136	0.008664	-0.532817	0.846186	-0.989118	-0.128852	-0.071007
398	5009093													9.733694	0.109710	1.447811	0.147658	-0.836306	-0.528004	0.008561	-0.532756	0.846226	-0.989001	-0.129472	-0.071506
399	5009260													9.733198	0.120116	1.440457	0.148498	-0.836259	-0.527844	0.008431	-0.532672	0.846280	-0.988877	-0.130121	-0.072051
400	5009427													9.709056	0.113494	1.478290	0.149302	-0.836266	-0.527606	0.008265	-0.532513	0.846381	-0.988757	-0.130727	-0.072593
401	5009593													9.722346	0.102131	1.450145	0.150089	-0.836254	-0.527401	0.008127	-0.532382	0.846465	-0.988639	-0.131331	-0.073109
402	5009760													9.747348	0.124455	1.516768	0.150965	-0.836182	-0.527266	0.008024	-0.532325	0.846502	-0.988507	-0.132023	-0.073653
403	5009927													9.709109	0.066313	1.456085	0.151805	-0.836124	-0.527117	0.007842	-0.532262	0.846543	-0.988379	-0.132643	-0.074244
404	5010093													9.760783	0.017735	1.421240	0.152821	-0.835907	-0.527167	0.007553	-0.532429	0.846441	-0.988225	-0.133336	-0.075053
405	5010260													9.761847	0.163673	1.529450	0.154129	-0.835562	-0.527333	0.007496	-0.532706	0.846267	-0.988022	-0.134387	-0.075842
406	5010427													9.763699	0.158160	1.550503	0.155617	-0.835244	-0.527400	0.007520	-0.532887	0.846153	-0.987789	-0.135642	-0.076645
407	5010593													9.735311	0.084236	1.601725	0.157209	-0.834962	-0.527374	0.007267	-0.533022	0.846070	-0.987539	-0.136842	-0.077728
408	5010760													9.641821	0.064079	1.607025	0.158620	-0.834705	-0.527359	0.007046	-0.533150	0.845991	-0.987315	-0.137907	-0.078687
409	5010927													9.675831	0.116578	1.592931	0.159957	-0.834398	-0.527441	0.006997	-0.533349	0.845866	-0.987099	-0.138993	-0.079475
410	5011093													9.711980	0.125331	1.611804	0.161267	-0.834185	-0.527379	0.006960	-0.533399	0.845835	-0.986886	-0.140076	-0.080213
411	5011260													9.687298	0.073697	1.629462	0.162682	-0.833925	-0.527356	0.006860	-0.533507	0.845768	-0.986655	-0.141209	-0.081071
412	5011427													9.671978	0.092224	1.646329	0.164116	-0.833646	-0.527352	0.006784	-0.533634	0.845688	-0.986418	-0.142369	-0.081923
413	5011593													9.695828	0.099028	1.665189	0.165589	-0.833441	-0.527216	0.006675	-0.533636	0.845688	-0.986172	-0.143556	-0.082801
414	5011760													9.701526	0.074401	1.653464	0.167130	-0.833275	-0.526991	0.006556	-0.533558	0.845738	-0.985913	-0.144803	-0.083710
415	5011927													9.738690	0.073729	1.651284	0.168810	-0.833066	-0.526787	0.006427	-0.533515	0.845766	-0.985628	-0.146159	-0.084708
416	5012093													9.725702	0.064980	1.675875	0.170634	-0.832867	-0.526514	0.006266	-0.533422	0.845826	-0.985315	-0.147626	-0.085801
417	5012260													9.705929	0.077521	1.702009	0.172485	-0.832648	-0.526257	0.006087	-0.533353	0.845871	-0.984993	-0.149103	-0.086927
418	5012427													9.719880	0.081462	1.737644	0.174310	-0.832472	-0.525933	0.005909	-0.533216	0.845958	-0.984673	-0.150567	-0.088026
419	5012593													9.685238	0.099890	1.735750	0.176020	-0.832444	-0.525408	0.005725	-0.532867	0.846180	-0.984370	-0.151952	-0.089029
420	5012760													9.715341	0.019541	1.606271	0.177688	-0.832414	-0.524895	0.005469	-0.532539	0.846388	-0.984072	-0.153263	-0.090073
421	5012927													9.689282	0.081421	1.671265	0.179489	-0.832244	-0.524550	0.005341	-0.532377	0.846490	-0.983745	-0.154737	-0.091111
422	5013093													9.718480	0.124765	1.695101	0.181297	-0.831921	-0.524441	0.005278	-0.532448	0.846446	-0.983414	-0.156227	-0.092140
423	5013260													9.754092	0.073940	1.707458	0.183420	-0.831619	-0.524182	0.005083	-0.532419	0.846465	-0.983022	-0.157923	-0.093429
424	5013427													9.696892	0.048337	1.765599	0.185760	-0.831391	-0.523720	0.004810	-0.532220	0.846592	-0.982583	-0.159782	-0.094866
425	5013593													9.674494	0.041026	1.811456	0.188084	-0.831094	-0.523362	0.004621	-0.532117	0.846658	-0.982142	-0.161662	-0.096242
426	5013760													9.697578	0.073532	1.826369	0.190432	-0.830763	-0.523038	0.004532	-0.532039	0.846708	-0.981690	-0.163611	-0.097552
427	5013927													9.656151	0.066316	1.862636	0.192881	-0.830421	-0.522683	0.004462	-0.531938	0.846772	-0.981212	-0.165659	-0.098895
428	5014093													9.672563	0.060315	1.909495	0.195375	-0.830048	-0.522350	0.004399	-0.531867	0.846816	-0.980719	-0.167745	-0.100263
429	5014260													9.677027	0.075636	1.975436	0.197940	-0.829721	-0.521903	0.004321	-0.531694	0.846925	-0.980205	-0.169896	-0.101658
430	5014427													9.640806	0.080981	2.004126	0.200658	-0.829335	-0.521478	0.004202	-0.531571	0.847003	-0.979652	-0.172150	-0.103179
431	5014593													9.600650	0.082259	2.063192	0.203443	-0.828938	-0.521030	0.004097	-0.531434	0.847090	-0.979078	-0.174470	-0.104720
432	5014760													9.622919	0.068097	2.051677	0.206283	-0.828541	-0.520545	0.003980	-0.531272	0.847192	-0.978484	-0.176833	-0.106295
433	5014927													9.642332	0.041901	2.090393	0.209239	-0.828099	-0.520069	0.003850	-0.531140	0.847275	-0.977857	-0.179285	-0.107947
434	5015093													9.612087	0.056547	2.085459	0.212416	-0.827615	-0.519551	0.003698	-0.531000	0.847364	-0.977172	-0.181915	-0.109732
435	5015260													9.615711	0.041946	2.143311	0.215774	-0.827097	-0.518992	0.003530	-0.530848	0.847459	-0.976437	-0.184691	-0.111624
436	5015427													9.614076	0.044373	2.179536	0.219348	-0.826541	-0.518379	0.003333	-0.530680	0.847566	-0.975641	-0.187640	-0.113648
437	5015593													9.610929	0.055295	2.221879	0.223060	-0.826013	-0.517636	0.003103	-0.530411	0.847735	-0.974800	-0.190702	-0.115751
438	5015760													9.612801	0.040986	2.250071	0.227023	-0.825413	-0.516870	0.002814	-0.530170	0.847887	-0.973885	-0.193944	-0.118038
439	5015927													9.612803	0.027337	2.255367	0.231290	-0.824809	-0.515941	0.002366	-0.529842	0.848093	-0.972882	-0.197376	-0.120595
440	5016093													9.570344	0.028147	2.320890	0.235504	-0.824129	-0.515120	0.001962	-0.529624	0.848230	-0.971871	-0.200772	-0.123112
441	5016260													9.606788	0.042896	2.318035	0.239834	-0.823516	-0.514102	0.001486	-0.529246	0.848467	-0.970813	-0.204256	-0.125707
442	5016427													9.599324	0.002553	2.319820	0.244459	-0.822841	-0.513003	0.000967	-0.528848	0.848716	-0.969659	-0.207972	-0.128486
443	5016593													9.572767	-0.004322	2.380035	0.249189	-0.822047	-0.511999	0.000488	-0.528569	0.848890	-0.968455	-0.211784	-0.131312
444	5016760													9.574386	0.041654	2.404158	0.254019	-0.821096	-0.511152	0.000039	-0.528478	0.848947	-0.967199	-0.215668	-0.134211
445	5016927													9.591592	0.019035	2.476319	0.258917	-0.820190	-0.510147	-0.000499	-0.528271	0.849076	-0.965900	-0.219586	-0.137187
446	5017093													9.589965	-0.057608	2.385943	0.264045	-0.819126	-0.509227	-0.001141	-0.528230	0.849101	-0.964510	-0.223620	-0.140411
447	5017260													9.553861	-0.047054	2.603406	0.269699	-0.817786	-0.508418	-0.001735	-0.528394	0.848997	-0.962943	-0.228092	-0.143926
448	5017427													9.452555	0.072171	2.668667	0.275381	-0.816261	-0.507823	-0.002096	-0.528756	0.848771	-0.961333	-0.232671	-0.147320
449	5017593													9.455605	0.018852	2.763849	0.280866	-0.814850	-0.507084	-0.002520	-0.528976	0.848633	-0.959744	-0.237074	-0.150625
450	5017760													9.429530	-0.014287	2.786602	0.286270	-0.813588	-0.506086	-0.003114	-0.528979	0.848629	-0.958144	-0.241361	-0.153964
451	5017927													9.404629	-0.008643	2.827729	0.291602	-0.812270	-0.505159	-0.003597	-0.529038	0.848590	-0.956533	-0.245634	-0.157190
452	5018093													9.368998	0.036585	2.897319	0.296924	-0.810947	-0.504184	-0.004026	-0.529054	0.848579	-0.954893	-0.249933	-0.160354
453	5018260													9.346620	0.024084	3.007389	0.302300	-0.809616	-0.503127	-0.004443	-0.529013	0.848602	-0.953202	-0.254297	-0.163517
454	5018427													9.324141	-0.007128	3.073232	0.307710	-0.808249	-0.502044	-0.004840	-0.528968	0.848628	-0.951468	-0.258701	-0.166681
455	5018593													9.322571	-0.038577	3.143235	0.313296	-0.806889	-0.500775	-0.005263	-0.528790	0.848736	-0.949641	-0.263270	-0.169914
456	5018760													9.319151	-0.024009	3.144244	0.319136	-0.805394	-0.499493	-0.005643	-0.528659	0.848816	-0.947692	-0.268069	-0.173259
457	5018927													9.280581	-0.044940	3.235845	0.325064	-0.803788	-0.498256	-0.006047	-0.528625	0.848834	-0.945673	-0.272913	-0.176697
458	5019093													9.335384	-0.052427	3.236280	0.331058	-0.802142	-0.496959	-0.006383	-0.528549	0.848879	-0.943589	-0.277856	-0.180100
459	5019260													9.313175	-0.062152	3.293544	0.337228	-0.800269	-0.495830	-0.006668	-0.528699	0.848783	-0.941399	-0.282928	-0.183628
460	5019427													9.285783	-0.081360	3.403285	0.343401	-0.798233	-0.494873	-0.006918	-0.529051	0.848562	-0.939163	-0.287974	-0.187199
461	5019593													9.245762	-0.089602	3.487276	0.349532	-0.796082	-0.494046	-0.007123	-0.529548	0.848250	-0.936897	-0.292972	-0.190764
462	5019760													9.207948	-0.131312	3.455912	0.355689	-0.794110	-0.492822	-0.007426	-0.529691	0.848158	-0.934575	-0.298021	-0.194303
463	5019927													9.237131	-0.173274	3.477690	0.361905	-0.791702	-0.492172	-0.007726	-0.530489	0.847657	-0.932183	-0.302969	-0.198104
464	5020093													9.187961	-0.036407	3.589724	0.368315	-0.788943	-0.491847	-0.007822	-0.531648	0.846929	-0.929668	-0.308089	-0.201985
465	5020260													9.184872	-0.085204	3.637394	0.374817	-0.786303	-0.491162	-0.008113	-0.532546	0.846362	-0.927063	-0.313246	-0.205987
466	5020427													9.209722	-0.145115	3.677354	0.381419	-0.783366	-0.490772	-0.008591	-0.533889	0.845511	-0.924362	-0.318277	-0.210366
467	5020593													9.066156	-0.045107	3.778752	0.388323	-0.780117	-0.490533	-0.008777	-0.535414	0.844544	-0.921481	-0.323651	-0.214761
468	5020760													9.059257	-0.062866	3.815219	0.394931	-0.777209	-0.489873	-0.008982	-0.536459	0.843879	-0.918667	-0.328874	-0.218845
469	5020927													9.047413	-0.080590	3.907487	0.401527	-0.774191	-0.489291	-0.009017	-0.537565	0.843174	-0.915803	-0.334145	-0.222827
470	5021093													9.058196	-0.067864	3.878608	0.408436	-0.770883	-0.488794	-0.008784	-0.538791	0.842394	-0.912745	-0.339771	-0.226833
471	5021260													8.953998	-0.084793	4.040099	0.415051	-0.767612	-0.488369	-0.008621	-0.540083	0.841568	-0.909757	-0.345083	-0.230779
472	5021427													8.928112	-0.082979	4.103160	0.421630	-0.764425	-0.487732	-0.008480	-0.541180	0.840864	-0.906728	-0.350397	-0.234660
473	5021593													8.876854	-0.055651	4.167569	0.428039	-0.761270	-0.487084	-0.008340	-0.542257	0.840171	-0.903722	-0.355564	-0.238456
474	5021760													8.860762	-0.025846	4.208289	0.434321	-0.758146	-0.486396	-0.008195	-0.543288	0.839506	-0.900721	-0.360629	-0.242175
475	5021927													8.859459	-0.042858	4.264122	0.440448	-0.755059	-0.485687	-0.007969	-0.544254	0.838882	-0.897743	-0.365613	-0.245733
476	5022093													8.797345	-0.065176	4.348538	0.446394	-0.752048	-0.484929	-0.007724	-0.545137	0.838311	-0.894803	-0.370472	-0.249155
477	5022260													8.728988	-0.073237	4.420095	0.452204	-0.749086	-0.484129	-0.007412	-0.545936	0.837794	-0.891884	-0.375265	-0.252427
478	5022427													8.696295	-0.062530	4.471797	0.457862	-0.746211	-0.483251	-0.007101	-0.546628	0.837345	-0.888995	-0.379957	-0.255579
479	5022593													8.650703	-0.064273	4.522252	0.463407	-0.743397	-0.482301	-0.006794	-0.547233	0.836953	-0.886119	-0.384573	-0.258643
480	5022760													8.635263	-0.070858	4.627191	0.468846	-0.740622	-0.481314	-0.006555	-0.547819	0.836571	-0.883256	-0.389067	-0.261698
481	5022927													8.607573	-0.072183	4.653397	0.474193	-0.737871	-0.480298	-0.006319	-0.548371	0.836211	-0.880398	-0.393491	-0.264696
482	5023093													8.572181	-0.050913	4.710597	0.479447	-0.735156	-0.479246	-0.006117	-0.548891	0.835871	-0.877550	-0.397824	-0.267661
483	5023260													8.551493	-0.058884	4.783859	0.484575	-0.732490	-0.478170	-0.005941	-0.549379	0.835552	-0.874730	-0.402047	-0.270566
484	5023427													8.512260	-0.044758	4.817621	0.489625	-0.729832	-0.477087	-0.005839	-0.549893	0.835215	-0.871913	-0.406157	-0.273503
485	5023593													8.472950	-0.043876	4.892186	0.494614	-0.727257	-0.475872	-0.005735	-0.550257	0.834975	-0.869094	-0.410262	-0.276336
486	5023760													8.427379	-0.053688	4.927500	0.499481	-0.724765	-0.474589	-0.005628	-0.550522	0.834802	-0.866307	-0.414296	-0.279054
487	5023927													8.452559	-0.043379	4.962341	0.504323	-0.722230	-0.473331	-0.005457	-0.550799	0.834620	-0.863498	-0.418335	-0.281722
488	5024093													8.399796	-0.059944	5.021952	0.509137	-0.719693	-0.472040	-0.005287	-0.551051	0.834455	-0.860669	-0.422356	-0.284365
489	5024260													8.426619	-0.126290	5.006798	0.513808	-0.717115	-0.470900	-0.005083	-0.551430	0.834206	-0.857890	-0.426228	-0.286974
490	5024427													8.372423	-0.085304	5.113717	0.518455	-0.714476	-0.469818	-0.004955	-0.551928	0.833877	-0.855091	-0.430000	-0.289690
491	5024593													8.341208	0.002032	5.180698	0.522980	-0.711747	-0.468944	-0.004510	-0.552484	0.833511	-0.852333	-0.433795	-0.292148
492	5024760													8.311413	-0.009557	5.208508	0.527502	-0.709162	-0.467793	-0.004195	-0.552802	0.833302	-0.849544	-0.437606	-0.294579
493	5024927													8.293098	-0.047674	5.231283	0.531867	-0.706704	-0.466570	-0.003978	-0.553041	0.833145	-0.846819	-0.441266	-0.296956
494	5025093													8.263565	-0.014000	5.254415	0.536176	-0.704226	-0.465383	-0.003723	-0.553300	0.832974	-0.844098	-0.444888	-0.299287
495	5025260													8.223194	0.006857	5.300509	0.540412	-0.701780	-0.464176	-0.003469	-0.553524	0.832826	-0.841393	-0.448459	-0.301566
496	5025427													8.195198	0.007367	5.337237	0.544559	-0.699408	-0.462909	-0.003223	-0.553662	0.832735	-0.838716	-0.451982	-0.303755
497	5025594													8.168928	0.027174	5.415121	0.548578	-0.697064	-0.461696	-0.002944	-0.553810	0.832638	-0.836094	-0.455408	-0.305860
498	5025760													8.136909	-0.006526	5.468340	0.552520	-0.694768	-0.460456	-0.002778	-0.553968	0.832533	-0.833495	-0.458712	-0.308008
499	5025927													8.118531	0.006988	5.481142	0.556368	-0.692462	-0.459294	-0.002532	-0.554153	0.832411	-0.830932	-0.461964	-0.310066
500	5026094													8.105142	0.015068	5.534356	0.560253	-0.690137	-0.458070	-0.002336	-0.554324	0.832298	-0.828318	-0.465227	-0.312174
501	5026260													8.088555	0.010509	5.551145	0.564145	-0.687867	-0.456705	-0.002167	-0.554361	0.832274	-0.825673	-0.468533	-0.314230
502	5026427													8.079920	-0.020296	5.549976	0.568002	-0.685606	-0.455322	-0.002028	-0.554393	0.832253	-0.823025	-0.471798	-0.316287
503	5026594													8.071841	-0.015470	5.617647	0.571777	-0.683289	-0.454078	-0.001824	-0.554534	0.832159	-0.820407	-0.474981	-0.318316
504	5026760													8.029118	-0.001787	5.663945	0.575484	-0.680996	-0.452837	-0.001597	-0.554652	0.832081	-0.817811	-0.478126	-0.320281
505	5026927													8.037486	-0.034513	5.674490	0.579008	-0.678789	-0.451659	-0.001384	-0.554781	0.831995	-0.815321	-0.481106	-0.322162
506	5027094													8.029227	-0.047199	5.720516	0.582320	-0.676615	-0.450661	-0.001168	-0.555042	0.831822	-0.812959	-0.483860	-0.324003
507	5027260													7.975307	-0.025237	5.768176	0.585466	-0.674382	-0.449931	-0.000679	-0.555401	0.831582	-0.810696	-0.486558	-0.325626
508	5027427													7.945006	0.013901	5.843925	0.588534	-0.672171	-0.449237	-0.000176	-0.555768	0.831337	-0.808472	-0.489191	-0.327207
509	5027594													7.922221	0.004963	5.819424	0.591576	-0.669951	-0.448558	0.000294	-0.556171	0.831068	-0.806249	-0.491772	-0.328820
510	5027760													7.868650	0.008227	5.855635	0.594687	-0.667625	-0.447912	0.000804	-0.556639	0.830754	-0.803957	-0.494398	-0.330490
511	5027927													7.857362	0.005923	5.860710	0.597858	-0.665263	-0.447203	0.001264	-0.557104	0.830442	-0.801601	-0.497052	-0.332228
512	5028094													7.796675	0.060882	5.923801	0.601079	-0.662747	-0.446621	0.001798	-0.557719	0.830028	-0.799188	-0.499715	-0.334042
513	5028260													7.777304	0.076073	5.919964	0.604315	-0.660159	-0.446087	0.002361	-0.558401	0.829568	-0.796742	-0.502373	-0.335891
514	5028427													7.766780	0.061202	5.932381	0.607551	-0.657585	-0.445492	0.002919	-0.559023	0.829147	-0.794275	-0.505050	-0.337716
515	5028594													7.715565	0.091830	5.985262	0.610767	-0.655016	-0.444880	0.003425	-0.559660	0.828715	-0.791803	-0.507676	-0.339579
516	5028760													7.679101	0.113106	6.024626	0.613876	-0.652545	-0.444231	0.003925	-0.560213	0.828339	-0.789392	-0.510242	-0.341340
517	5028927													7.682610	0.130474	6.040237	0.616926	-0.650193	-0.443454	0.004360	-0.560626	0.828057	-0.787009	-0.512783	-0.343030
518	5029094													7.659026	0.088456	6.103601	0.619875	-0.648034	-0.442501	0.004667	-0.560856	0.827900	-0.784686	-0.515260	-0.344636
519	5029260													7.595644	0.085404	6.122864	0.622665	-0.646005	-0.441549	0.004924	-0.561043	0.827772	-0.782473	-0.517599	-0.346160
520	5029427													7.598402	0.097829	6.168708	0.625315	-0.644144	-0.440522	0.005096	-0.561120	0.827719	-0.780356	-0.519830	-0.347594
521	5029594													7.607560	0.042287	6.173634	0.627821	-0.642386	-0.439524	0.005279	-0.561154	0.827695	-0.778340	-0.521965	-0.348913
522	5029760													7.575014	0.053141	6.193012	0.630205	-0.640724	-0.438537	0.005447	-0.561150	0.827696	-0.776410	-0.524007	-0.350150
523	5029927													7.544991	0.058927	6.240380	0.632499	-0.639188	-0.437474	0.005523	-0.561067	0.827752	-0.774542	-0.525968	-0.351344
524	5030094													7.523821	0.035215	6.261822	0.634773	-0.637709	-0.436337	0.005491	-0.560955	0.827828	-0.772679	-0.527879	-0.352577
525	5030260													7.523155	0.009869	6.271024	0.637008	-0.636219	-0.435254	0.005476	-0.560887	0.827874	-0.770838	-0.529746	-0.353805
526	5030427													7.504530	0.011087	6.310062	0.639219	-0.634806	-0.434074	0.005381	-0.560742	0.827973	-0.769006	-0.531592	-0.355021
527	5030594													7.491840	0.016575	6.313934	0.641362	-0.633409	-0.432952	0.005281	-0.560641	0.828042	-0.767220	-0.533362	-0.356229
528	5030760													7.503526	0.022353	6.343252	0.643458	-0.632032	-0.431853	0.005131	-0.560585	0.828081	-0.765464	-0.535052	-0.357470
529	5030927													7.464797	0.012590	6.394043	0.645521	-0.630632	-0.430819	0.005039	-0.560561	0.828098	-0.763726	-0.536726	-0.358676
530	5031094													7.442906	0.043079	6.397552	0.647645	-0.629197	-0.429729	0.004906	-0.560536	0.828115	-0.761927	-0.538433	-0.359942
531	5031260													7.427692	-0.008307	6.354119	0.649772	-0.627784	-0.428582	0.004661	-0.560527	0.828123	-0.760115	-0.540089	-0.361288
532	5031427													7.450855	-0.036570	6.383549	0.651927	-0.626387	-0.427354	0.004294	-0.560523	0.828128	-0.758270	-0.541714	-0.362730
533	5031594													7.428688	0.026519	6.469539	0.654095	-0.624945	-0.426150	0.003937	-0.560563	0.828102	-0.756402	-0.543335	-0.364201
534	5031760													7.399335	0.065148	6.509837	0.656262	-0.623358	-0.425141	0.003733	-0.560759	0.827971	-0.754524	-0.544953	-0.365678
535	5031927													7.384164	0.051112	6.521874	0.658366	-0.621898	-0.424024	0.003470	-0.560826	0.827926	-0.752690	-0.546550	-0.367071
536	5032094													7.353206	0.013683	6.498790	0.660426	-0.620363	-0.423068	0.003287	-0.561028	0.827790	-0.750884	-0.548085	-0.368479
537	5032260													7.316713	0.051922	6.524448	0.662457	-0.618806	-0.422173	0.003177	-0.561248	0.827642	-0.749093	-0.549618	-0.369837
538	5032427													7.288592	0.046782	6.562222	0.664453	-0.617269	-0.421284	0.003102	-0.561436	0.827514	-0.747323	-0.551152	-0.371133
539	5032594													7.239733	0.059964	6.597935	0.666387	-0.615693	-0.420536	0.003126	-0.561707	0.827330	-0.745600	-0.552637	-0.372389
540	5032760													7.230623	0.042839	6.606261	0.668307	-0.614158	-0.419732	0.003170	-0.561887	0.827208	-0.743879	-0.554160	-0.373566
541	5032927													7.205801	0.023642	6.654617	0.670220	-0.612684	-0.418836	0.003121	-0.562013	0.827123	-0.742156	-0.555662	-0.374760
542	5033094													7.206233	0.014937	6.690598	0.671947	-0.611157	-0.418299	0.003340	-0.562305	0.826923	-0.740592	-0.557046	-0.375798
543	5033260													7.195050	0.059198	6.665791	0.673537	-0.609772	-0.417764	0.003529	-0.562533	0.826767	-0.739145	-0.558333	-0.376735
544	5033427													7.183561	0.027041	6.687665	0.675020	-0.608409	-0.417357	0.003805	-0.562799	0.826585	-0.737790	-0.559549	-0.377586
545	5033594													7.137984	0.025039	6.695920	0.676343	-0.607080	-0.417150	0.004066	-0.563243	0.826281	-0.736576	-0.560545	-0.378477
546	5033760													7.100158	0.077938	6.709377	0.677584	-0.605802	-0.416994	0.004312	-0.563713	0.825959	-0.735433	-0.561455	-0.379351
547	5033927													7.151227	0.058038	6.680201	0.678664	-0.604830	-0.416648	0.004336	-0.563984	0.825774	-0.734436	-0.562230	-0.380134
548	5034094													7.130464	0.036957	6.700472	0.679685	-0.603889	-0.416350	0.004334	-0.564301	0.825558	-0.733492	-0.562924	-0.380929
549	5034260													7.124343	0.039854	6.735345	0.680698	-0.602927	-0.416088	0.004355	-0.564649	0.825320	-0.732551	-0.563605	-0.381730
550	5034427													7.129535	0.075471	6.728615	0.681681	-0.601905	-0.415959	0.004428	-0.565118	0.824998	-0.731636	-0.564227	-0.382564
551	5034594													7.157454	0.087764	6.756426	0.682642	-0.600906	-0.415826	0.004475	-0.565590	0.824675	-0.730739	-0.564818	-0.383406
552	5034760													7.176791	0.032615	6.732372	0.683535	-0.599975	-0.415704	0.004555	-0.566004	0.824390	-0.729903	-0.565393	-0.384151
553	5034927													7.164922	0.103625	6.737746	0.684358	-0.599023	-0.415722	0.004751	-0.566474	0.824066	-0.729130	-0.565932	-0.384825
554	5035094													7.139441	0.110188	6.718714	0.685148	-0.598157	-0.415669	0.004899	-0.566860	0.823799	-0.728388	-0.566460	-0.385453
555	5035260													7.164257	0.083653	6.704697	0.685948	-0.597159	-0.415784	0.005207	-0.567364	0.823451	-0.727632	-0.567009	-0.386073
556	5035427													7.152557	0.081373	6.760266	0.686729	-0.596126	-0.415977	0.005606	-0.567891	0.823085	-0.726892	-0.567568	-0.386645
557	5035594													7.150662	0.083724	6.753975	0.687432	-0.595164	-0.416193	0.006010	-0.568390	0.822737	-0.726224	-0.568078	-0.387152
558	5035760													7.152325	0.120289	6.743627	0.688122	-0.594303	-0.416284	0.006352	-0.568758	0.822480	-0.725567	-0.568611	-0.387600
559	5035927													7.150632	0.141923	6.757804	0.688700	-0.593561	-0.416386	0.006650	-0.569094	0.822246	-0.725016	-0.569050	-0.387987
560	5036094													7.144159	0.081280	6.742024	0.689168	-0.593021	-0.416382	0.006846	-0.569282	0.822114	-0.724569	-0.569425	-0.388271
561	5036260													7.123380	0.080121	6.767070	0.689521	-0.592480	-0.416567	0.007109	-0.569594	0.821895	-0.724231	-0.569676	-0.388535
562	5036427													7.086354	0.115093	6.775446	0.689814	-0.592024	-0.416731	0.007318	-0.569875	0.821699	-0.723950	-0.569869	-0.388775
563	5036594													7.110103	0.049789	6.795783	0.690027	-0.591746	-0.416772	0.007429	-0.570004	0.821609	-0.723745	-0.570028	-0.388922
564	5036760													7.088112	0.086202	6.847244	0.690053	-0.591489	-0.417094	0.007674	-0.570277	0.821417	-0.723718	-0.570022	-0.388982
565	5036927													7.063130	0.144089	6.835163	0.689919	-0.591459	-0.417358	0.007771	-0.570467	0.821284	-0.723845	-0.569863	-0.388980
566	5037094													7.051803	0.093181	6.796733	0.689707	-0.591521	-0.417620	0.007826	-0.570630	0.821170	-0.724046	-0.569635	-0.388939
567	5037260													7.031442	0.051464	6.849787	0.689422	-0.591683	-0.417862	0.007834	-0.570746	0.821089	-0.724317	-0.569351	-0.388850
568	5037427													7.042320	0.079911	6.845728	0.688990	-0.591882	-0.418293	0.007911	-0.570962	0.820938	-0.724728	-0.568928	-0.388705
569	5037594													7.055716	0.109109	6.840995	0.688391	-0.592315	-0.418666	0.007865	-0.571071	0.820863	-0.725298	-0.568368	-0.388461
570	5037760													7.042380	0.054822	6.791564	0.687759	-0.592718	-0.419134	0.007860	-0.571254	0.820736	-0.725897	-0.567762	-0.388226
571	5037927													7.024371	0.070926	6.801888	0.687263	-0.593007	-0.419538	0.007850	-0.571455	0.820596	-0.726366	-0.567259	-0.388085
572	5038094													7.069271	0.039682	6.780802	0.686696	-0.593446	-0.419846	0.007710	-0.571571	0.820516	-0.726904	-0.566682	-0.387920
573	5038260													7.110353	0.020012	6.760479	0.686136	-0.593921	-0.420091	0.007479	-0.571676	0.820446	-0.727435	-0.566078	-0.387805
574	5038427													7.146911	0.115813	6.799586	0.685560	-0.594303	-0.420489	0.007388	-0.571874	0.820308	-0.727978	-0.565477	-0.387663
575	5038594													7.142424	0.156034	6.785860	0.684938	-0.594809	-0.420788	0.007250	-0.571936	0.820266	-0.728565	-0.564883	-0.387428
576	5038760													7.152108	0.030205	6.736505	0.684243	-0.595436	-0.421031	0.007061	-0.571908	0.820287	-0.729220	-0.564249	-0.387119
577	5038927													7.127586	0.058762	6.727667	0.683446	-0.596097	-0.421390	0.006891	-0.571952	0.820258	-0.729969	-0.563506	-0.386791
578	5039094													7.176737	0.130453	6.696383	0.682574	-0.596897	-0.421672	0.006644	-0.571895	0.820300	-0.730786	-0.562717	-0.386395
579	5039260													7.163524	0.074283	6.682965	0.681532	-0.597949	-0.421867	0.006310	-0.571664	0.820464	-0.731761	-0.561834	-0.385834
580	5039427													7.163021	0.062512	6.709228	0.680424	-0.598982	-0.422189	0.006005	-0.571539	0.820553	-0.732794	-0.560859	-0.385292
581	5039594													7.163056	0.058050	6.696851	0.679190	-0.599957	-0.422790	0.005840	-0.571603	0.820510	-0.733939	-0.559751	-0.384724
582	5039760													7.163153	0.039728	6.706873	0.677851	-0.601023	-0.423425	0.005692	-0.571625	0.820495	-0.735177	-0.558584	-0.384056
583	5039927													7.186148	0.040036	6.653975	0.676337	-0.602061	-0.424372	0.005768	-0.571782	0.820386	-0.736570	-0.557305	-0.383244
584	5040094													7.224232	0.030029	6.588278	0.674809	-0.603022	-0.425438	0.005952	-0.572014	0.820223	-0.737969	-0.556026	-0.382410
585	5040260													7.243272	0.036097	6.649116	0.673195	-0.604055	-0.426528	0.006193	-0.572180	0.820105	-0.739439	-0.554732	-0.381448
586	5040427													7.208121	0.057892	6.671552	0.671393	-0.605175	-0.427778	0.006471	-0.572411	0.819941	-0.741073	-0.553271	-0.380397
587	5040594													7.154065	0.074314	6.637491	0.669597	-0.606434	-0.428809	0.006562	-0.572493	0.819884	-0.742695	-0.551806	-0.379360
588	5040760													7.181983	0.022861	6.612665	0.667848	-0.607708	-0.429733	0.006507	-0.572578	0.819824	-0.744270	-0.550314	-0.378441
589	5040927													7.261221	0.024853	6.517992	0.666129	-0.609142	-0.430369	0.006274	-0.572431	0.819929	-0.745810	-0.548879	-0.377491
590	5041094													7.317503	0.047104	6.554953	0.664305	-0.610491	-0.431277	0.006215	-0.572457	0.819911	-0.747436	-0.547351	-0.376492
591	5041260													7.329492	0.075797	6.646904	0.662270	-0.612080	-0.432153	0.005980	-0.572433	0.819930	-0.749241	-0.545600	-0.375445
592	5041427													7.272073	0.048853	6.622113	0.660063	-0.613884	-0.432969	0.005540	-0.572368	0.819978	-0.751189	-0.543636	-0.374398
593	5041594													7.277688	0.045341	6.559777	0.657855	-0.615676	-0.433785	0.005036	-0.572356	0.819990	-0.753127	-0.541620	-0.373427
594	5041760													7.293114	0.059321	6.497155	0.655627	-0.617458	-0.434625	0.004528	-0.572372	0.819981	-0.755071	-0.539570	-0.372467
595	5041927													7.379154	0.062892	6.453632	0.653401	-0.619223	-0.435465	0.004008	-0.572404	0.819962	-0.757001	-0.537509	-0.371528
596	5042094													7.401629	0.085350	6.460798	0.651081	-0.621019	-0.436381	0.003565	-0.572428	0.819947	-0.759000	-0.535408	-0.370483
597	5042261													7.421868	0.089436	6.411905	0.648756	-0.622908	-0.437152	0.003041	-0.572320	0.820025	-0.760991	-0.533325	-0.369402
598	5042427													7.459658	0.067309	6.381292	0.646364	-0.624894	-0.437859	0.002470	-0.572127	0.820162	-0.763025	-0.531204	-0.368258
599	5042594													7.499676	0.093557	6.378509	0.643925	-0.626837	-0.438675	0.001982	-0.571996	0.820254	-0.765086	-0.529052	-0.367080
600	5042761													7.505606	0.089022	6.361129	0.641487	-0.628784	-0.439460	0.001499	-0.571831	0.820370	-0.767132	-0.526916	-0.365880
601	5042927													7.546764	0.049783	6.296926	0.639116	-0.630816	-0.440002	0.000940	-0.571451	0.820635	-0.769110	-0.524895	-0.364631
602	5043094													7.566471	0.010625	6.254370	0.636705	-0.632828	-0.440609	0.000450	-0.571092	0.820886	-0.771108	-0.522860	-0.363333
603	5043261													7.578008	0.033680	6.225954	0.634237	-0.634855	-0.441251	0.000007	-0.570722	0.821143	-0.773139	-0.520802	-0.361969
604	5043427													7.609962	-0.000062	6.187636	0.631778	-0.636857	-0.441894	-0.000447	-0.570375	0.821384	-0.775150	-0.518735	-0.360635
605	5043594													7.658665	-0.019845	6.158070	0.629325	-0.638803	-0.442585	-0.000848	-0.570067	0.821598	-0.777142	-0.516676	-0.359299
606	5043761													7.659231	-0.028753	6.156883	0.626811	-0.640766	-0.443313	-0.001245	-0.569777	0.821798	-0.779170	-0.514561	-0.357940
607	5043927													7.663577	-0.027608	6.143043	0.624255	-0.642803	-0.443972	-0.001651	-0.569389	0.822067	-0.781219	-0.512446	-0.356505
608	5044094													7.737480	-0.053354	6.044735	0.621702	-0.644844	-0.444592	-0.002084	-0.568982	0.822347	-0.783251	-0.510328	-0.355081
609	5044261													7.730758	-0.065877	6.078261	0.619142	-0.646916	-0.445155	-0.002533	-0.568518	0.822667	-0.785275	-0.508220	-0.353632
610	5044427													7.745748	-0.083811	6.065897	0.616549	-0.649013	-0.445701	-0.003016	-0.568044	0.822993	-0.787310	-0.506071	-0.352185
611	5044594													7.748388	-0.057760	6.031926	0.613993	-0.651064	-0.446238	-0.003525	-0.567607	0.823292	-0.789304	-0.503923	-0.350801
612	5044761													7.792358	-0.080168	5.962952	0.611369	-0.653101	-0.446863	-0.004141	-0.567320	0.823487	-0.791335	-0.501604	-0.349547
613	5044927													7.767407	-0.106631	5.961378	0.608740	-0.655151	-0.447451	-0.004815	-0.567029	0.823684	-0.793355	-0.499255	-0.348328
614	5045094													7.794196	-0.076608	5.948812	0.606145	-0.657000	-0.448262	-0.005221	-0.566875	0.823787	-0.795337	-0.496994	-0.347039
615	5045261													7.798955	-0.012098	5.985110	0.603550	-0.658869	-0.449019	-0.005654	-0.566680	0.823919	-0.797305	-0.494737	-0.345745
616	5045427													7.803818	-0.068946	5.937425	0.600863	-0.660913	-0.449620	-0.006239	-0.566341	0.824147	-0.799328	-0.492394	-0.344417
617	5045594													7.811205	-0.087796	5.887013	0.598172	-0.662867	-0.450330	-0.006707	-0.566073	0.824328	-0.801340	-0.490069	-0.343055
618	5045761													7.796796	-0.066181	5.886559	0.595369	-0.664851	-0.451119	-0.007144	-0.565834	0.824488	-0.803421	-0.487652	-0.341630
619	5045927													7.802001	-0.038456	5.898123	0.592438	-0.666972	-0.451847	-0.007621	-0.565486	0.824722	-0.805580	-0.485154	-0.340099
620	5046094													7.819303	-0.050393	5.872361	0.589357	-0.669199	-0.452582	-0.008137	-0.565103	0.824980	-0.807832	-0.482525	-0.338492
621	5046261													7.865844	-0.066897	5.798288	0.586213	-0.671444	-0.453340	-0.008653	-0.564727	0.825232	-0.810111	-0.479839	-0.336860
622	5046427													7.873863	-0.043808	5.796083	0.582987	-0.673776	-0.454040	-0.009203	-0.564272	0.825538	-0.812429	-0.477099	-0.335164
623	5046594													7.935208	-0.055761	5.771054	0.579715	-0.676194	-0.454634	-0.009760	-0.563679	0.825936	-0.814761	-0.474370	-0.333373
624	5046761													7.955584	-0.047600	5.733892	0.576352	-0.678778	-0.455059	-0.010411	-0.562904	0.826457	-0.817135	-0.471593	-0.331497
625	5046927													8.012138	-0.122111	5.694254	0.572820	-0.681391	-0.455614	-0.011001	-0.562184	0.826939	-0.819607	-0.468675	-0.329526
626	5047094													8.075139	-0.079247	5.652528	0.569124	-0.684056	-0.456251	-0.011572	-0.561488	0.827404	-0.822170	-0.465616	-0.327472
627	5047261													8.054952	-0.089780	5.687742	0.565150	-0.686949	-0.456843	-0.012142	-0.560624	0.827982	-0.824899	-0.462387	-0.325178
628	5047427													8.067533	-0.139063	5.589204	0.560978	-0.690051	-0.457311	-0.012911	-0.559647	0.828630	-0.827730	-0.458939	-0.322859
629	5047594													8.109114	-0.200814	5.512383	0.556772	-0.693002	-0.457987	-0.013498	-0.558825	0.829175	-0.830555	-0.455480	-0.320493
630	5047761													8.116926	-0.116030	5.486352	0.552549	-0.695799	-0.458862	-0.013842	-0.558121	0.829644	-0.833366	-0.452067	-0.318020
631	5047927													8.168682	-0.098862	5.447024	0.548266	-0.698663	-0.459646	-0.014291	-0.557363	0.830146	-0.836182	-0.448572	-0.315568
632	5048094													8.216413	-0.157610	5.390526	0.543970	-0.701643	-0.460210	-0.015095	-0.556547	0.830679	-0.838969	-0.444918	-0.313336
633	5048261													8.239015	-0.220860	5.343625	0.539526	-0.704721	-0.460738	-0.015723	-0.555552	0.831333	-0.841822	-0.441282	-0.310815
634	5048427													8.240574	-0.205448	5.314982	0.534888	-0.707793	-0.461437	-0.016199	-0.554619	0.831947	-0.844767	-0.437524	-0.308125
635	5048594													8.282299	-0.137118	5.261699	0.530117	-0.710825	-0.462281	-0.016597	-0.553785	0.832494	-0.847762	-0.433647	-0.305369
636	5048761													8.303585	-0.120719	5.215155	0.525300	-0.713903	-0.463037	-0.017103	-0.552910	0.833065	-0.850745	-0.429690	-0.302654
637	5048927													8.364896	-0.172899	5.154480	0.520443	-0.717045	-0.463665	-0.017638	-0.551911	0.833716	-0.853714	-0.425723	-0.299886
638	5049094													8.391312	-0.192364	5.100533	0.515556	-0.720165	-0.464288	-0.018079	-0.550873	0.834393	-0.856665	-0.421783	-0.297025
639	5049261													8.382649	-0.175423	5.078625	0.510570	-0.723316	-0.464900	-0.018463	-0.549782	0.835104	-0.859638	-0.417796	-0.294057
640	5049427													8.449309	-0.166348	5.011062	0.505527	-0.726517	-0.465419	-0.018723	-0.548532	0.835920	-0.862607	-0.413866	-0.290901
641	5049594													8.475245	-0.156281	4.974231	0.500514	-0.729663	-0.465917	-0.019085	-0.547348	0.836688	-0.865518	-0.409882	-0.287881
642	5049761													8.471992	-0.214830	4.878157	0.495457	-0.732837	-0.466340	-0.019473	-0.546103	0.837492	-0.868414	-0.405860	-0.284840
643	5049927													8.510172	-0.193229	4.851949	0.490260	-0.736000	-0.466850	-0.019772	-0.544893	0.838273	-0.871352	-0.401741	-0.281691
644	5050094													8.569648	-0.198193	4.787488	0.484960	-0.739217	-0.467302	-0.020041	-0.543597	0.839107	-0.874307	-0.397568	-0.278438
645	5050261													8.593834	-0.177869	4.776353	0.479662	-0.742259	-0.467949	-0.020158	-0.542484	0.839824	-0.877222	-0.393399	-0.275171
646	5050427													8.548914	-0.180908	4.682267	0.474181	-0.745452	-0.468459	-0.020319	-0.541205	0.840645	-0.880193	-0.389099	-0.271776
647	5050594													8.612786	-0.244507	4.598022	0.468504	-0.748897	-0.468675	-0.020523	-0.539581	0.841683	-0.883223	-0.384714	-0.268166
648	5050761													8.718577	-0.246576	4.557695	0.462741	-0.752277	-0.468989	-0.020634	-0.538035	0.842670	-0.886253	-0.380261	-0.264493
649	5050927													8.757606	-0.237318	4.489619	0.456875	-0.755479	-0.469592	-0.020639	-0.536771	0.843476	-0.889291	-0.375671	-0.260829
650	5051094													8.786350	-0.234434	4.452314	0.450976	-0.758527	-0.470380	-0.020684	-0.535756	0.844120	-0.892297	-0.370948	-0.257302
651	5051261													8.774125	-0.260324	4.445393	0.444872	-0.761420	-0.471517	-0.020570	-0.535033	0.844581	-0.895358	-0.366032	-0.253684
652	5051427													8.852554	-0.194684	4.379235	0.438122	-0.764147	-0.473422	-0.020357	-0.534958	0.844633	-0.898685	-0.360415	-0.249932
653	5051594													8.847234	-0.250376	4.246778	0.431102	-0.766863	-0.475471	-0.020165	-0.535009	0.844606	-0.902078	-0.354523	-0.246107
654	5051761													8.959371	-0.319504	4.069885	0.424472	-0.769428	-0.477289	-0.019900	-0.534935	0.844659	-0.905223	-0.349036	-0.242376
655	5051927													8.933519	-0.154890	4.175560	0.418979	-0.771350	-0.479036	-0.019269	-0.535010	0.844626	-0.907791	-0.344650	-0.239022
656	5052094													8.939301	-0.185328	4.150151	0.413377	-0.773435	-0.480540	-0.018707	-0.534843	0.844744	-0.910368	-0.340208	-0.235560
657	5052261													8.954488	-0.155091	4.072021	0.407949	-0.775512	-0.481828	-0.018348	-0.534596	0.844908	-0.912820	-0.335839	-0.232317
658	5052427													8.986364	-0.186814	4.017252	0.402558	-0.777616	-0.482971	-0.017994	-0.534230	0.845148	-0.915218	-0.331530	-0.229051
659	5052594													9.009389	-0.164073	3.946604	0.397341	-0.779551	-0.484169	-0.017542	-0.533962	0.845327	-0.917503	-0.327390	-0.225840
660	5052761													9.029995	-0.112940	3.898589	0.392319	-0.781369	-0.485332	-0.017129	-0.533748	0.845470	-0.919670	-0.323381	-0.222784
661	5052927													8.996879	-0.118715	3.882946	0.387485	-0.783178	-0.486299	-0.016781	-0.533416	0.845687	-0.921723	-0.319531	-0.219833
662	5053094													9.038803	-0.159006	3.838523	0.382742	-0.784909	-0.487264	-0.016462	-0.533135	0.845870	-0.923709	-0.315728	-0.216974
663	5053261													9.069729	-0.159164	3.802059	0.378124	-0.786470	-0.488351	-0.016073	-0.533014	0.845954	-0.925615	-0.312026	-0.214186
664	5053427													9.117164	-0.135126	3.714552	0.373589	-0.787967	-0.489428	-0.015664	-0.532915	0.846024	-0.927462	-0.308399	-0.211434
665	5053594													9.116475	-0.139650	3.694681	0.369144	-0.789414	-0.490468	-0.015274	-0.532823	0.846089	-0.929247	-0.304837	-0.208745
666	5053761													9.130558	-0.139877	3.616251	0.364705	-0.790887	-0.491413	-0.014903	-0.532655	0.846201	-0.931004	-0.301290	-0.206049
667	5053927													9.199438	-0.140063	3.581326	0.360285	-0.792253	-0.492474	-0.014525	-0.532629	0.846224	-0.932729	-0.297729	-0.203405
668	5054094													9.207475	-0.102943	3.553576	0.356016	-0.793622	-0.493373	-0.014182	-0.532493	0.846316	-0.934372	-0.294304	-0.200831
669	5054261													9.188979	-0.132781	3.394636	0.351611	-0.795110	-0.494135	-0.013980	-0.532240	0.846478	-0.936042	-0.290723	-0.198257
670	5054427													9.240127	-0.145563	3.380656	0.347281	-0.796584	-0.494823	-0.013691	-0.531915	0.846687	-0.937661	-0.287264	-0.195630
671	5054594													9.244658	-0.133290	3.356208	0.343116	-0.797868	-0.495659	-0.013222	-0.531744	0.846802	-0.939200	-0.283998	-0.192999
672	5054761													9.269750	-0.096821	3.362339	0.339086	-0.798972	-0.496653	-0.012785	-0.531795	0.846777	-0.940668	-0.280781	-0.190539
673	5054927													9.263027	-0.102537	3.309358	0.335017	-0.800309	-0.497261	-0.012485	-0.531484	0.846977	-0.942129	-0.277543	-0.188048
674	5055094													9.254972	-0.139607	3.266299	0.330872	-0.801600	-0.497957	-0.012235	-0.531278	0.847109	-0.943596	-0.274192	-0.185593
675	5055261													9.288033	-0.121924	3.206072	0.326670	-0.802896	-0.498642	-0.011813	-0.531014	0.847281	-0.945065	-0.270891	-0.182951
676	5055427													9.304564	-0.078815	3.175597	0.322572	-0.804035	-0.499475	-0.011317	-0.530920	0.847346	-0.946477	-0.267677	-0.180359
677	5055594													9.356222	-0.089589	3.146895	0.318605	-0.805127	-0.500261	-0.010881	-0.530836	0.847405	-0.947825	-0.264544	-0.177888
678	5055761													9.325427	-0.112294	3.167323	0.314822	-0.806224	-0.500889	-0.010491	-0.530647	0.847528	-0.949093	-0.261566	-0.175517
679	5055927													9.319734	-0.123028	3.109095	0.310969	-0.807333	-0.501510	-0.010089	-0.530446	0.847658	-0.950367	-0.258536	-0.173098
680	5056094													9.351233	-0.100758	3.044480	0.307229	-0.808387	-0.502116	-0.009656	-0.530256	0.847783	-0.951587	-0.255615	-0.170716
681	5056261													9.379634	-0.070077	2.983103	0.303642	-0.809261	-0.502890	-0.009210	-0.530279	0.847773	-0.952742	-0.252788	-0.168468
682	5056427													9.414187	-0.077832	2.951764	0.300257	-0.810101	-0.503570	-0.008863	-0.530277	0.847778	-0.953817	-0.250088	-0.166399
683	5056594													9.400985	-0.101256	2.945855	0.297007	-0.810910	-0.504195	-0.008506	-0.530247	0.847800	-0.954838	-0.247514	-0.164384
684	5056761													9.353416	-0.104306	2.923052	0.293745	-0.811655	-0.504906	-0.008187	-0.530325	0.847755	-0.955849	-0.244890	-0.162425
685	5056927													9.368790	-0.102659	2.875947	0.290521	-0.812327	-0.505690	-0.007808	-0.530479	0.847662	-0.956837	-0.242315	-0.160459
686	5057094													9.419775	-0.073990	2.821186	0.287427	-0.812982	-0.506405	-0.007406	-0.530586	0.847599	-0.957774	-0.239872	-0.158526
687	5057261													9.436369	-0.090866	2.809430	0.284384	-0.813628	-0.507085	-0.006949	-0.530660	0.847556	-0.958685	-0.237508	-0.156565
688	5057427													9.467565	-0.071934	2.746992	0.281471	-0.814318	-0.507602	-0.006562	-0.530611	0.847590	-0.959547	-0.235241	-0.154695
689	5057594													9.438718	-0.030958	2.759059	0.278724	-0.814890	-0.508200	-0.006148	-0.530674	0.847554	-0.960352	-0.233109	-0.152922
690	5057761													9.367960	-0.013942	2.755311	0.275901	-0.815628	-0.508556	-0.005666	-0.530463	0.847689	-0.961169	-0.230997	-0.150976
691	5057927													9.253493	0.142680	2.914036	0.273410	-0.817305	-0.507208	-0.004498	-0.528380	0.848996	-0.961887	-0.229842	-0.148140
692	5058094													9.668885	-0.290116	2.443038	0.268912	-0.818579	-0.507558	-0.004434	-0.528016	0.849223	-0.963155	-0.226115	-0.145620
693	5058261													9.644349	-0.035864	2.530519	0.266316	-0.819020	-0.508214	-0.004031	-0.528197	0.849112	-0.963877	-0.224084	-0.143969
694	5058427													9.457386	0.036130	2.675303	0.264013	-0.819543	-0.508572	-0.003692	-0.528135	0.849152	-0.964512	-0.222310	-0.142460
695	5058594													9.381844	-0.076993	2.569013	0.261111	-0.820235	-0.508955	-0.003459	-0.528038	0.849214	-0.965303	-0.219978	-0.140714
696	5058761													9.552480	-0.091527	2.510314	0.258219	-0.820837	-0.509460	-0.003231	-0.528075	0.849191	-0.966081	-0.217632	-0.139011
697	5058928													9.584534	0.004043	2.471128	0.255905	-0.821218	-0.510014	-0.002688	-0.528184	0.849126	-0.966698	-0.215924	-0.137372
698	5059094													9.586563	0.024002	2.479846	0.254152	-0.821676	-0.510153	-0.002179	-0.527958	0.849268	-0.967162	-0.214732	-0.135972
699	5059261													9.602445	0.002560	2.453141	0.252784	-0.822227	-0.509944	-0.001916	-0.527486	0.849561	-0.967521	-0.213778	-0.134916
700	5059428													9.490228	-0.067058	2.454283	0.251657	-0.822817	-0.509550	-0.001505	-0.526826	0.849972	-0.967815	-0.213135	-0.133818
701	5059594													9.482519	-0.030143	2.459119	0.250455	-0.823273	-0.509405	-0.000946	-0.526383	0.850247	-0.968128	-0.212467	-0.132614
702	5059761													9.516083	0.039656	2.483211	0.249089	-0.823674	-0.509427	-0.000416	-0.526097	0.850425	-0.968480	-0.211620	-0.131388
703	5059928													9.457096	0.038835	2.504154	0.247562	-0.824055	-0.509555	0.000036	-0.525918	0.850535	-0.968872	-0.210578	-0.130167
704	5060094													9.456299	0.048259	2.498291	0.245686	-0.824432	-0.509853	0.000399	-0.525889	0.850553	-0.969349	-0.209172	-0.128875
705	5060261													9.513151	0.041926	2.408226	0.243722	-0.824974	-0.509920	0.000736	-0.525617	0.850721	-0.969845	-0.207714	-0.127497
706	5060428													9.533482	0.019418	2.427170	0.241795	-0.825392	-0.510160	0.001001	-0.525548	0.850764	-0.970327	-0.206221	-0.126249
707	5060594													9.550768	0.046858	2.385798	0.239924	-0.825740	-0.510480	0.001229	-0.525580	0.850743	-0.970791	-0.204741	-0.125084
708	5060761													9.518363	0.007125	2.373610	0.237961	-0.826048	-0.510900	0.001397	-0.525718	0.850657	-0.971274	-0.203137	-0.123946
709	5060928													9.516819	0.001165	2.397237	0.235916	-0.826354	-0.511354	0.001597	-0.525877	0.850559	-0.971772	-0.201477	-0.122743
710	5061094													9.534034	0.054861	2.393827	0.233798	-0.826791	-0.511621	0.001840	-0.525827	0.850589	-0.972283	-0.199808	-0.121416
711	5061261													9.528222	0.047101	2.333563	0.231442	-0.827309	-0.511854	0.002007	-0.525732	0.850648	-0.972847	-0.197903	-0.120016
712	5061428													9.573460	-0.005515	2.218697	0.229173	-0.827803	-0.512076	0.002075	-0.525661	0.850692	-0.973383	-0.196018	-0.118750
713	5061594													9.581652	0.058108	2.249596	0.227064	-0.828186	-0.512396	0.002302	-0.525681	0.850678	-0.973877	-0.194337	-0.117457
714	5061761													9.611194	0.049754	2.209838	0.224969	-0.828526	-0.512771	0.002514	-0.525766	0.850626	-0.974363	-0.192653	-0.116198
715	5061928													9.558670	0.052685	2.226333	0.222867	-0.828894	-0.513094	0.002542	-0.525836	0.850582	-0.974846	-0.190871	-0.115085
716	5062094													9.580865	0.007009	2.172335	0.220634	-0.829304	-0.513397	0.002493	-0.525887	0.850551	-0.975353	-0.188940	-0.113961
717	5062261													9.608960	-0.010130	2.141840	0.218355	-0.829653	-0.513806	0.002530	-0.526028	0.850463	-0.975866	-0.187002	-0.112762
718	5062428													9.605273	0.038904	2.107936	0.216154	-0.829975	-0.514217	0.002665	-0.526164	0.850379	-0.976356	-0.185183	-0.111520
719	5062594													9.617828	0.058488	2.078093	0.213828	-0.830369	-0.514554	0.002773	-0.526218	0.850345	-0.976867	-0.183254	-0.110217
720	5062761													9.642519	0.032463	2.045928	0.211415	-0.830777	-0.514892	0.002898	-0.526265	0.850316	-0.977392	-0.181262	-0.108852
721	5062928													9.651665	0.031677	1.993484	0.208976	-0.831137	-0.515306	0.003014	-0.526391	0.850238	-0.977916	-0.179232	-0.107498
722	5063094													9.679220	0.048625	1.981607	0.206786	-0.831352	-0.515843	0.003086	-0.526682	0.850057	-0.978381	-0.177371	-0.106345
723	5063261													9.624623	0.078368	2.037540	0.204721	-0.831560	-0.516331	0.003097	-0.526951	0.849890	-0.978816	-0.175589	-0.105302
724	5063428													9.651417	0.062392	2.006474	0.202538	-0.831824	-0.516767	0.003015	-0.527171	0.849754	-0.979270	-0.173666	-0.104264
725	5063594													9.680058	0.032769	1.938420	0.200544	-0.832151	-0.517017	0.002878	-0.527235	0.849715	-0.979681	-0.171893	-0.103339
726	5063761													9.683341	0.014945	1.932084	0.198602	-0.832406	-0.517356	0.002610	-0.527420	0.849600	-0.980077	-0.170083	-0.102574
727	5063928													9.672383	-0.005442	1.921063	0.196717	-0.832615	-0.517741	0.002308	-0.527664	0.849450	-0.980458	-0.168296	-0.101878
728	5064094													9.641684	0.016717	1.901073	0.194886	-0.832821	-0.518101	0.001942	-0.527901	0.849304	-0.980824	-0.166524	-0.101263
729	5064261													9.719623	-0.013506	1.836077	0.193290	-0.833019	-0.518380	0.001581	-0.528078	0.849194	-0.981140	-0.164961	-0.100756
730	5064428													9.696674	-0.008824	1.821311	0.192076	-0.833150	-0.518621	0.001223	-0.528257	0.849084	-0.981379	-0.163723	-0.100447
731	5064594													9.671526	0.014032	1.858551	0.190988	-0.833220	-0.518910	0.000852	-0.528500	0.848933	-0.981592	-0.162578	-0.100227
732	5064761													9.640463	-0.007079	1.868584	0.189763	-0.833290	-0.519248	0.000515	-0.528773	0.848763	-0.981830	-0.161331	-0.099913
733	5064928													9.660278	0.030579	1.814916	0.188431	-0.833422	-0.519520	0.000235	-0.528958	0.848648	-0.982086	-0.160034	-0.099477
734	5065094													9.743619	0.041292	1.806760	0.187372	-0.833431	-0.519889	-0.000078	-0.529275	0.848450	-0.982289	-0.158935	-0.099236
735	5065261													9.683225	0.021006	1.812246	0.186651	-0.833361	-0.520260	-0.000415	-0.529633	0.848227	-0.982426	-0.158106	-0.099203
736	5065428													9.608227	0.025085	1.847853	0.185775	-0.833414	-0.520489	-0.000732	-0.529827	0.848105	-0.982592	-0.157176	-0.099039
737	5065594													9.688599	0.037416	1.798678	0.184813	-0.833497	-0.520699	-0.000984	-0.529982	0.848008	-0.982773	-0.156211	-0.098767
738	5065761													9.735645	0.028075	1.790313	0.184066	-0.833564	-0.520856	-0.001217	-0.530103	0.847933	-0.982913	-0.155442	-0.098588
739	5065928													9.636333	-0.025096	1.752270	0.183213	-0.833555	-0.521172	-0.001512	-0.530383	0.847756	-0.983072	-0.154532	-0.098434
740	5066094													9.644384	-0.029992	1.752524	0.182265	-0.833503	-0.521586	-0.001733	-0.530743	0.847531	-0.983248	-0.153571	-0.098180
741	5066261													9.716830	0.051900	1.762922	0.181425	-0.833404	-0.522036	-0.001694	-0.531110	0.847301	-0.983403	-0.152838	-0.097768
742	5066428													9.759297	0.057061	1.780561	0.180936	-0.833195	-0.522540	-0.001694	-0.531572	0.847011	-0.983493	-0.152370	-0.097593
743	5066594													9.670332	0.029834	1.856960	0.180598	-0.833020	-0.522936	-0.002014	-0.531990	0.846748	-0.983555	-0.151868	-0.097754
744	5066761													9.603948	-0.013188	1.823672	0.180053	-0.832943	-0.523247	-0.002283	-0.532293	0.846557	-0.983654	-0.151231	-0.097742
745	5066928													9.641415	-0.029189	1.779648	0.179402	-0.832839	-0.523635	-0.002383	-0.532637	0.846341	-0.983773	-0.150587	-0.097541
746	5067094													9.680498	0.021335	1.763975	0.178771	-0.832681	-0.524102	-0.002497	-0.533065	0.846071	-0.983887	-0.149944	-0.097376
747	5067261													9.643216	-0.007277	1.794520	0.178301	-0.832486	-0.524572	-0.002662	-0.533521	0.845783	-0.983972	-0.149407	-0.097343
748	5067428													9.631671	-0.026752	1.848541	0.177832	-0.832308	-0.525014	-0.002866	-0.533954	0.845509	-0.984057	-0.148854	-0.097339
749	5067594													9.636026	-0.060156	1.837797	0.177340	-0.832182	-0.525379	-0.003088	-0.534308	0.845284	-0.984145	-0.148281	-0.097324
750	5067761													9.664075	-0.042748	1.780873	0.176859	-0.832033	-0.525777	-0.003277	-0.534693	0.845040	-0.984231	-0.147730	-0.097292
751	5067928													9.683528	-0.028720	1.768490	0.176365	-0.831840	-0.526249	-0.003469	-0.535152	0.844749	-0.984319	-0.147159	-0.097267
752	5068094													9.673315	-0.037117	1.754435	0.175819	-0.831650	-0.526731	-0.003677	-0.535617	0.844453	-0.984416	-0.146534	-0.097230
753	5068261													9.683885	-0.029968	1.768674	0.175252	-0.831434	-0.527261	-0.003915	-0.536133	0.844124	-0.984516	-0.145871	-0.097213
754	5068428													9.682488	-0.013788	1.799116	0.174700	-0.831269	-0.527704	-0.004124	-0.536559	0.843853	-0.984613	-0.145244	-0.097165
755	5068594													9.649066	-0.038601	1.729516	0.174013	-0.831227	-0.527997	-0.004343	-0.536820	0.843686	-0.984734	-0.144519	-0.097023
756	5068761													9.663757	-0.078649	1.653047	0.173252	-0.831127	-0.528404	-0.004591	-0.537194	0.843447	-0.984867	-0.143702	-0.096885
757	5068928													9.713599	-0.025966	1.670327	0.172538	-0.831017	-0.528811	-0.004642	-0.537542	0.843224	-0.984992	-0.143034	-0.096605
758	5069094													9.756434	0.002228	1.662529	0.172058	-0.830851	-0.529228	-0.004673	-0.537922	0.842981	-0.985076	-0.142569	-0.096436
759	5069261													9.711911	-0.017795	1.697901	0.171669	-0.830812	-0.529415	-0.004907	-0.538107	0.842862	-0.985143	-0.142095	-0.096453
760	5069428													9.710927	-0.088662	1.669333	0.171233	-0.830804	-0.529569	-0.005127	-0.538252	0.842768	-0.985217	-0.141595	-0.096426
761	5069594													9.715457	-0.071613	1.649015	0.170864	-0.830733	-0.529800	-0.005218	-0.538463	0.842633	-0.985281	-0.141211	-0.096338
762	5069761													9.704397	-0.041716	1.619326	0.170573	-0.830661	-0.530007	-0.005193	-0.538640	0.842520	-0.985331	-0.140959	-0.096192
763	5069928													9.711102	-0.025630	1.617690	0.170350	-0.830613	-0.530155	-0.005157	-0.538762	0.842442	-0.985370	-0.140776	-0.096061
764	5070094													9.734936	-0.037470	1.610416	0.170171	-0.830537	-0.530330	-0.005144	-0.538921	0.842340	-0.985401	-0.140614	-0.095981
765	5070261													9.725895	-0.036551	1.622766	0.170109	-0.830434	-0.530512	-0.005166	-0.539103	0.842224	-0.985412	-0.140530	-0.095996
766	5070428													9.704127	-0.018971	1.640422	0.170155	-0.830368	-0.530600	-0.005196	-0.539200	0.842162	-0.985404	-0.140541	-0.096062
767	5070594													9.718690	-0.019369	1.637460	0.170255	-0.830339	-0.530612	-0.005208	-0.539225	0.842146	-0.985386	-0.140616	-0.096130
768	5070761													9.738809	-0.021783	1.600369	0.170484	-0.830305	-0.530594	-0.005270	-0.539237	0.842137	-0.985346	-0.140775	-0.096307
769	5070928													9.726646	-0.051024	1.613986	0.170894	-0.830227	-0.530584	-0.005409	-0.539288	0.842104	-0.985275	-0.141040	-0.096651
770	5071094													9.714256	-0.062744	1.662617	0.171397	-0.830105	-0.530611	-0.005597	-0.539393	0.842036	-0.985186	-0.141353	-0.097096
771	5071261													9.687031	-0.046740	1.658906	0.171878	-0.830013	-0.530600	-0.005782	-0.539456	0.841994	-0.985101	-0.141652	-0.097520
772	5071428													9.707348	-0.073004	1.685722	0.172415	-0.829914	-0.530581	-0.005991	-0.539521	0.841951	-0.985006	-0.141987	-0.097993
773	5071594													9.702074	-0.072033	1.671227	0.173030	-0.829791	-0.530573	-0.006160	-0.539599	0.841899	-0.984897	-0.142406	-0.098478
774	5071761													9.716778	-0.068409	1.698364	0.173691	-0.829633	-0.530604	-0.006365	-0.539728	0.841816	-0.984780	-0.142838	-0.099026
775	5071928													9.705415	-0.059532	1.711607	0.174471	-0.829451	-0.530632	-0.006578	-0.539867	0.841724	-0.984640	-0.143366	-0.099647
776	5072094													9.685607	-0.054180	1.718266	0.175326	-0.829312	-0.530568	-0.006789	-0.539921	0.841688	-0.984487	-0.143968	-0.100292
777	5072261													9.682379	-0.044991	1.726916	0.176234	-0.829199	-0.530444	-0.006962	-0.539915	0.841691	-0.984324	-0.144642	-0.100924
778	5072428													9.690468	-0.064751	1.713286	0.177178	-0.829075	-0.530323	-0.007171	-0.539922	0.841685	-0.984153	-0.145325	-0.101607
779	5072594													9.687872	-0.068562	1.732507	0.178201	-0.828957	-0.530165	-0.007326	-0.539891	0.841703	-0.983967	-0.146108	-0.102283
780	5072761													9.683159	-0.038011	1.732702	0.179343	-0.828820	-0.529994	-0.007396	-0.539849	0.841729	-0.983759	-0.147039	-0.102948
781	5072928													9.699636	-0.049868	1.786031	0.180488	-0.828729	-0.529747	-0.007458	-0.539730	0.841805	-0.983549	-0.147985	-0.103595
782	5073094													9.658501	-0.126013	1.727170	0.181604	-0.828658	-0.529477	-0.007654	-0.539605	0.841884	-0.983342	-0.148837	-0.104337
783	5073261													9.674355	-0.128904	1.742192	0.182911	-0.828395	-0.529439	-0.007801	-0.539730	0.841802	-0.983098	-0.149845	-0.105185
784	5073428													9.742805	-0.020148	1.842911	0.184378	-0.828151	-0.529311	-0.007717	-0.539747	0.841792	-0.982825	-0.151124	-0.105909
785	5073594													9.771040	-0.016961	1.838012	0.186255	-0.827888	-0.529066	-0.007708	-0.539704	0.841820	-0.982471	-0.152715	-0.106904
786	5073761													9.629568	-0.117692	1.890122	0.188268	-0.827536	-0.528904	-0.007963	-0.539803	0.841754	-0.982085	-0.154264	-0.108218
787	5073928													9.552807	-0.148632	1.909295	0.189992	-0.827219	-0.528783	-0.008072	-0.539891	0.841696	-0.981753	-0.155647	-0.109252
788	5074094													9.607438	-0.083891	1.902321	0.191502	-0.826907	-0.528727	-0.007996	-0.539993	0.841631	-0.981460	-0.156947	-0.110022
789	5074261													9.660980	-0.039807	1.895865	0.193018	-0.826587	-0.528676	-0.007948	-0.540108	0.841558	-0.981163	-0.158234	-0.110820
790	5074428													9.628188	-0.061263	1.936939	0.194601	-0.826329	-0.528498	-0.007959	-0.540111	0.841556	-0.980850	-0.159561	-0.111683
791	5074594													9.599686	-0.101841	1.962955	0.196179	-0.826076	-0.528311	-0.007966	-0.540105	0.841560	-0.980536	-0.160888	-0.112538
792	5074761													9.597996	-0.095992	1.969957	0.197702	-0.825776	-0.528212	-0.007969	-0.540184	0.841509	-0.980230	-0.162159	-0.113376
793	5074928													9.619251	-0.086132	1.967098	0.199130	-0.825475	-0.528146	-0.008015	-0.540293	0.841439	-0.979940	-0.163323	-0.114204
794	5075094													9.651645	-0.090198	1.942720	0.200422	-0.825264	-0.527988	-0.008045	-0.540291	0.841440	-0.979677	-0.164396	-0.114925
795	5075261													9.670064	-0.091896	1.961621	0.201648	-0.825119	-0.527747	-0.008080	-0.540198	0.841499	-0.979425	-0.165422	-0.115596
796	5075428													9.661288	-0.065920	1.987095	0.202907	-0.824945	-0.527536	-0.008153	-0.540147	0.841531	-0.979164	-0.166452	-0.116326
797	5075595													9.628345	-0.067823	1.990869	0.204106	-0.824842	-0.527235	-0.008218	-0.539997	0.841627	-0.978914	-0.167449	-0.116995
798	5075761													9.645100	-0.106170	1.879635	0.205280	-0.824707	-0.526990	-0.008385	-0.539919	0.841675	-0.978667	-0.168360	-0.117750
799	5075928													9.654037	-0.049786	1.973292	0.206626	-0.824534	-0.526734	-0.008424	-0.539831	0.841731	-0.978384	-0.169486	-0.118489
800	5076095													9.694324	-0.012035	1.898318	0.208114	-0.824201	-0.526669	-0.008334	-0.539934	0.841666	-0.978069	-0.170773	-0.119237
801	5076261													9.703189	-0.029208	1.943687	0.210065	-0.823815	-0.526500	-0.008447	-0.540025	0.841607	-0.977651	-0.172345	-0.120399
802	5076428													9.642003	-0.055705	2.054696	0.212145	-0.823501	-0.526156	-0.008702	-0.539982	0.841632	-0.977199	-0.173969	-0.121721
803	5076595													9.601197	-0.070113	2.112016	0.214206	-0.823185	-0.525816	-0.008889	-0.539931	0.841662	-0.976748	-0.175616	-0.122974
804	5076761													9.546053	-0.054940	2.149013	0.216227	-0.822967	-0.525329	-0.008992	-0.539714	0.841801	-0.976302	-0.177296	-0.124101
805	5076928													9.588481	-0.056000	2.160061	0.218092	-0.822813	-0.524800	-0.009068	-0.539430	0.841982	-0.975886	-0.178871	-0.125107
806	5077095													9.611382	-0.090072	2.165990	0.219999	-0.822657	-0.524248	-0.009144	-0.539130	0.842173	-0.975457	-0.180483	-0.126131
807	5077261													9.612673	-0.083609	2.224247	0.222028	-0.822430	-0.523749	-0.009240	-0.538907	0.842315	-0.974996	-0.182178	-0.127252
808	5077428													9.580144	-0.073377	2.231524	0.224172	-0.822146	-0.523281	-0.009362	-0.538739	0.842421	-0.974505	-0.183948	-0.128468
809	5077595													9.559100	-0.049374	2.279574	0.226237	-0.821893	-0.522789	-0.009521	-0.538544	0.842543	-0.974026	-0.185637	-0.129664
810	5077761													9.527408	-0.063919	2.290784	0.228163	-0.821653	-0.522329	-0.009725	-0.538376	0.842648	-0.973574	-0.187181	-0.130828
811	5077928													9.537438	-0.071190	2.293440	0.229927	-0.821520	-0.521764	-0.009997	-0.538094	0.842826	-0.973157	-0.188572	-0.131935
812	5078095													9.574760	-0.103426	2.287018	0.231700	-0.821376	-0.521206	-0.010290	-0.537826	0.842993	-0.972733	-0.189958	-0.133066
813	5078261													9.556570	-0.102444	2.335064	0.233503	-0.821163	-0.520738	-0.010605	-0.537661	0.843094	-0.972298	-0.191343	-0.134254
814	5078428													9.511530	-0.118458	2.349962	0.235205	-0.820982	-0.520258	-0.010919	-0.537472	0.843211	-0.971884	-0.192647	-0.135381
815	5078595													9.549216	-0.131436	2.332752	0.236776	-0.820868	-0.519724	-0.011228	-0.537211	0.843373	-0.971499	-0.193855	-0.136415
816	5078761													9.586991	-0.144699	2.330204	0.238383	-0.820738	-0.519194	-0.011523	-0.536959	0.843530	-0.971103	-0.195100	-0.137460
817	5078928													9.568998	-0.125016	2.328884	0.240104	-0.820530	-0.518730	-0.011821	-0.536793	0.843631	-0.970675	-0.196427	-0.138585
818	5079095													9.535296	-0.129062	2.350870	0.241841	-0.820300	-0.518287	-0.012157	-0.536662	0.843710	-0.970240	-0.197743	-0.139759
819	5079261													9.541962	-0.110123	2.396688	0.243549	-0.820116	-0.517778	-0.012466	-0.536456	0.843836	-0.969808	-0.199061	-0.140877
820	5079428													9.521892	-0.112326	2.409350	0.245364	-0.819916	-0.517237	-0.012766	-0.536233	0.843973	-0.969347	-0.200478	-0.142039
821	5079595													9.509124	-0.124559	2.418689	0.247185	-0.819777	-0.516589	-0.013073	-0.535906	0.844176	-0.968880	-0.201914	-0.143185
822	5079761													9.546320	-0.117770	2.423855	0.249083	-0.819627	-0.515916	-0.013280	-0.535546	0.844401	-0.968391	-0.203474	-0.144280
823	5079928													9.565283	-0.098300	2.430417	0.251051	-0.819467	-0.515215	-0.013531	-0.535181	0.844629	-0.967879	-0.205074	-0.145446
824	5080095													9.497603	-0.161157	2.372236	0.252981	-0.819351	-0.514455	-0.013885	-0.534773	0.844882	-0.967372	-0.206596	-0.146664
825	5080261													9.558519	-0.193112	2.373274	0.255108	-0.819020	-0.513932	-0.014252	-0.534646	0.844956	-0.966807	-0.208230	-0.148066
826	5080428													9.572383	-0.111922	2.492412	0.257506	-0.818556	-0.513475	-0.014381	-0.534583	0.844993	-0.966170	-0.210207	-0.149430
827	5080595													9.554864	-0.091336	2.524230	0.260002	-0.817994	-0.513113	-0.014437	-0.534622	0.844968	-0.965500	-0.212286	-0.150812
828	5080761													9.528211	-0.125479	2.549263	0.262504	-0.817482	-0.512654	-0.014742	-0.534622	0.844963	-0.964818	-0.214248	-0.152392
829	5080928													9.428270	-0.158378	2.568909	0.264772	-0.816969	-0.512306	-0.015025	-0.534697	0.844910	-0.964194	-0.216011	-0.153848
830	5081095													9.415609	-0.160496	2.588975	0.266654	-0.816413	-0.512216	-0.015100	-0.534932	0.844760	-0.963674	-0.217525	-0.154970
831	5081261													9.480115	-0.103160	2.596342	0.268308	-0.815935	-0.512114	-0.015168	-0.535118	0.844641	-0.963214	-0.218856	-0.155953
832	5081428													9.486797	-0.109254	2.603790	0.270105	-0.815563	-0.511762	-0.015318	-0.535091	0.844656	-0.962709	-0.220307	-0.157024
833	5081595													9.436877	-0.128546	2.657991	0.271961	-0.815202	-0.511355	-0.015443	-0.535012	0.844703	-0.962184	-0.221829	-0.158091
834	5081761													9.421871	-0.164522	2.659255	0.273721	-0.814866	-0.510951	-0.015621	-0.534936	0.844748	-0.961682	-0.223244	-0.159153
835	5081928													9.477350	-0.155371	2.664443	0.275507	-0.814534	-0.510519	-0.015813	-0.534840	0.844805	-0.961169	-0.224677	-0.160232
836	5082095													9.458287	-0.151581	2.702962	0.277394	-0.814164	-0.510088	-0.016018	-0.534768	0.844847	-0.960623	-0.226185	-0.161382
837	5082261													9.430951	-0.154174	2.751045	0.279220	-0.813792	-0.509685	-0.016221	-0.534719	0.844875	-0.960090	-0.227639	-0.162505
838	5082428													9.417867	-0.150246	2.778151	0.280893	-0.813467	-0.509284	-0.016422	-0.534644	0.844918	-0.959599	-0.228968	-0.163537
839	5082595													9.428413	-0.163968	2.827712	0.282524	-0.813130	-0.508920	-0.016629	-0.534605	0.844938	-0.959116	-0.230253	-0.164560
840	5082761													9.373563	-0.190778	2.781954	0.283905	-0.812919	-0.508489	-0.016872	-0.534463	0.845023	-0.958704	-0.231327	-0.165452
841	5082928													9.386244	-0.199753	2.771695	0.285205	-0.812638	-0.508210	-0.017038	-0.534447	0.845030	-0.958315	-0.232348	-0.166273
842	5083095													9.359533	-0.153614	2.803061	0.286216	-0.812342	-0.508115	-0.016969	-0.534515	0.844989	-0.958015	-0.233227	-0.166772
843	5083261													9.445271	-0.152091	2.797648	0.287196	-0.812070	-0.507996	-0.016911	-0.534555	0.844965	-0.957722	-0.234080	-0.167255
844	5083428													9.411049	-0.148951	2.887243	0.288408	-0.811793	-0.507753	-0.017022	-0.534549	0.844966	-0.957356	-0.235052	-0.167987
845	5083595													9.348083	-0.191529	2.915268	0.289434	-0.811594	-0.507486	-0.017158	-0.534493	0.844999	-0.957044	-0.235864	-0.168625
846	5083761													9.365494	-0.180915	2.906251	0.290398	-0.811411	-0.507229	-0.017119	-0.534393	0.845063	-0.956753	-0.236721	-0.169077
847	5083928													9.381749	-0.129685	2.912190	0.291273	-0.811237	-0.507005	-0.017021	-0.534296	0.845126	-0.956489	-0.237533	-0.169434
848	5084095													9.411876	-0.160619	2.903124	0.292212	-0.811109	-0.506670	-0.016939	-0.534100	0.845252	-0.956203	-0.238411	-0.169810
849	5084261													9.407979	-0.180810	2.908521	0.293226	-0.810902	-0.506415	-0.016887	-0.534010	0.845310	-0.955894	-0.239315	-0.170279
850	5084428													9.388044	-0.191564	2.943568	0.294274	-0.810637	-0.506232	-0.016831	-0.533999	0.845318	-0.955573	-0.240234	-0.170786
851	5084595													9.362731	-0.152761	2.949904	0.295359	-0.810377	-0.506016	-0.016753	-0.533957	0.845346	-0.955239	-0.241203	-0.171285
852	5084761													9.359615	-0.144602	2.968726	0.296475	-0.810162	-0.505708	-0.016708	-0.533833	0.845425	-0.954894	-0.242198	-0.171805
853	5084928													9.392133	-0.156447	2.934711	0.297519	-0.809997	-0.505359	-0.016681	-0.533659	0.845535	-0.954570	-0.243133	-0.172285
854	5085095													9.393722	-0.167488	2.924707	0.298616	-0.809753	-0.505103	-0.016639	-0.533588	0.845581	-0.954228	-0.244099	-0.172811
855	5085261													9.401049	-0.180752	2.921892	0.299868	-0.809431	-0.504876	-0.016616	-0.533583	0.845585	-0.953836	-0.245175	-0.173454
856	5085428													9.390098	-0.171801	2.923585	0.301165	-0.809062	-0.504697	-0.016620	-0.533643	0.845547	-0.953427	-0.246261	-0.174161
857	5085595													9.402756	-0.174958	2.927469	0.302518	-0.808719	-0.504436	-0.016599	-0.533624	0.845559	-0.952999	-0.247424	-0.174855
858	5085761													9.391851	-0.170350	2.949590	0.303975	-0.808389	-0.504089	-0.016610	-0.533544	0.845609	-0.952535	-0.248671	-0.175611
859	5085928													9.404869	-0.185317	2.967004	0.305439	-0.807994	-0.503838	-0.016657	-0.533577	0.845587	-0.952066	-0.249883	-0.176434
860	5086095													9.405188	-0.179644	2.943804	0.306904	-0.807453	-0.503816	-0.016775	-0.533870	0.845400	-0.951593	-0.251005	-0.177392
861	5086261													9.367099	-0.135464	3.001983	0.308466	-0.806942	-0.503680	-0.016819	-0.534044	0.845289	-0.951087	-0.252272	-0.178306
862	5086428													9.371814	-0.140758	2.993385	0.309968	-0.806521	-0.503432	-0.016819	-0.534080	0.845266	-0.950598	-0.253538	-0.179113
